File: data/MOCOF-1/PXRD/PXRD_KE-104_Cu-Ka1_capillary-1mm_5s-deg.xyd
    1.500    2.7804
    1.530    2.6435
    1.560    2.9279
    1.590    2.7699
    1.620    2.6962
    1.650    2.5487
    1.680    3.2965
    1.710    3.1806
    1.740    3.0016
    1.770    3.1912
    1.800    2.9279
    1.830    2.9805
    1.860    2.9173
    1.890    2.7172
    1.920    2.7172
    1.950    2.9173
    1.980    2.8541
    2.010    2.8436
    2.040    2.8963
    2.070    3.1069
    2.100    2.8541
    2.130    2.9595
    2.160    2.9805
    2.190    3.0016
    2.220    2.8752
    2.250    3.0332
    2.280    2.7383
    2.310    2.9805
    2.340    3.0858
    2.370    2.8647
    2.400    3.0016
    2.430    2.9279
    2.460    2.8015
    2.490    3.1174
    2.520    2.9700
    2.550    2.8541
    2.580    3.0226
    2.610    3.1069
    2.640    2.7699
    2.670    2.8331
    2.700    3.1280
    2.730    3.4123
    2.760    3.2543
    2.790    3.0332
    2.820    2.8647
    2.850    3.0437
    2.880    2.9068
    2.910    2.9173
    2.940    2.9279
    2.970    2.7067
    3.000    3.1912
    3.030    3.2859
    3.060    3.2017
    3.090    3.1490
    3.120    3.2649
    3.150    2.9700
    3.180    3.2754
    3.210    2.9910
    3.240    2.7909
    3.270    3.2754
    3.300    3.1806
    3.330    3.2438
    3.360    2.9595
    3.390    3.0542
    3.420    3.0753
    3.450    3.0542
    3.480    2.9595
    3.510    3.0542
    3.540    3.1912
    3.570    3.2227
    3.600    3.0332
    3.630    3.3913
    3.660    2.8752
    3.690    3.2543
    3.720    3.1174
    3.750    3.1912
    3.780    3.3702
    3.810    3.7599
    3.840    3.4966
    3.870    3.7072
    3.900    3.4966
    3.930    3.2965
    3.960    2.7909
    3.990    3.1596
    4.020    2.9068
    4.050    2.8436
    4.080    2.7488
    4.110    3.1912
    4.140    3.0332
    4.170    2.9384
    4.200    2.9068
    4.230    2.9068
    4.260    3.2333
    4.290    2.7593
    4.320    3.1280
    4.350    3.0121
    4.380    2.7067
    4.410    2.7488
    4.440    2.7488
    4.470    3.0437
    4.500    3.2438
    4.530    3.0016
    4.560    3.0753
    4.590    3.1596
    4.620    3.2649
    4.650    3.0964
    4.680    2.8225
    4.710    2.9910
    4.740    2.8752
    4.770    2.6856
    4.800    2.9173
    4.830    2.8436
    4.860    3.0121
    4.890    3.0016
    4.920    3.3175
    4.950    2.9384
    4.980    3.0332
    5.010    2.8647
    5.040    2.9910
    5.070    2.9910
    5.100    2.9700
    5.130    3.0964
    5.160    2.6330
    5.190    2.9279
    5.220    3.1385
    5.250    3.0964
    5.280    2.8541
    5.310    2.8857
    5.340    3.0332
    5.370    2.9173
    5.400    3.0016
    5.430    3.2438
    5.460    3.0437
    5.490    2.7804
    5.520    2.9805
    5.550    3.1280
    5.580    3.0437
    5.610    2.8015
    5.640    3.1490
    5.670    2.8752
    5.700    3.0753
    5.730    2.8647
    5.760    3.1385
    5.790    2.8015
    5.820    3.1596
    5.850    3.0753
    5.880    3.0016
    5.910    2.8331
    5.940    3.2859
    5.970    3.0858
    6.000    2.8541
    6.030    3.0332
    6.060    2.7699
    6.090    3.0332
    6.120    3.0016
    6.150    2.7383
    6.180    2.8120
    6.210    2.8963
    6.240    2.9489
    6.270    3.1806
    6.300    2.8647
    6.330    2.9173
    6.360    2.7699
    6.390    3.0858
    6.420    2.9489
    6.450    2.7383
    6.480    2.8436
    6.510    2.8752
    6.540    3.1912
    6.570    2.8436
    6.600    2.9384
    6.630    2.9910
    6.660    3.2333
    6.690    3.2649
    6.720    2.9700
    6.750    2.9489
    6.780    3.0016
    6.810    2.8857
    6.840    3.0542
    6.870    2.8436
    6.900    2.8331
    6.930    2.9700
    6.960    2.8120
    6.990    3.0437
    7.020    3.0648
    7.050    3.1069
    7.080    2.8015
    7.110    3.1069
    7.140    2.9279
    7.170    2.9489
    7.200    2.8120
    7.230    2.9805
    7.260    2.7593
    7.290    2.6435
    7.320    2.7699
    7.350    3.0437
    7.380    2.9910
    7.410    3.0858
    7.440    2.8647
    7.470    2.9384
    7.500    2.9384
    7.530    2.8963
    7.560    2.9489
    7.590    2.9489
    7.620    3.1701
    7.650    2.9173
    7.680    2.9910
    7.710    3.0648
    7.740    2.8647
    7.770    3.0016
    7.800    2.9700
    7.830    2.9489
    7.860    3.1385
    7.890    2.9068
    7.920    3.0542
    7.950    3.0542
    7.980    3.0121
    8.010    2.9068
    8.040    2.9068
    8.070    2.8331
    8.100    2.9173
    8.130    2.9489
    8.160    2.9173
    8.190    2.9910
    8.220    3.0016
    8.250    2.6646
    8.280    2.9805
    8.310    2.7172
    8.340    2.9279
    8.370    2.8857
    8.400    2.9384
    8.430    3.0226
    8.460    2.7699
    8.490    2.8541
    8.520    2.7067
    8.550    2.9384
    8.580    2.9068
    8.610    2.7909
    8.640    3.0648
    8.670    2.8857
    8.700    2.7488
    8.730    2.7699
    8.760    2.6330
    8.790    2.9595
    8.820    2.9173
    8.850    2.9700
    8.880    2.9595
    8.910    3.0648
    8.940    3.0648
    8.970    3.0648
    9.000    2.6540
    9.030    2.7909
    9.060    2.7593
    9.090    2.7699
    9.120    2.8331
    9.150    2.7172
    9.180    2.9068
    9.210    2.9068
    9.240    2.9805
    9.270    2.7909
    9.300    2.9489
    9.330    2.8120
    9.360    2.8752
    9.390    2.8541
    9.420    2.7804
    9.450    2.9489
    9.480    3.0542
    9.510    3.3175
    9.540    3.0016
    9.570    2.9279
    9.600    2.7172
    9.630    2.9173
    9.660    2.9489
    9.690    2.7804
    9.720    2.7488
    9.750    2.8436
    9.780    3.0964
    9.810    3.1912
    9.840    2.9068
    9.870    2.7278
    9.900    3.0542
    9.930    2.9068
    9.960    3.0437
    9.990    2.8963
   10.020    2.8752
   10.050    2.6751
   10.080    3.2438
   10.110    3.0542
   10.140    2.7278
   10.170    3.2017
   10.200    2.8752
   10.230    3.1912
   10.260    2.8541
   10.290    3.2859
   10.320    3.1174
   10.350    2.8541
   10.380    2.9279
   10.410    2.9068
   10.440    3.0964
   10.470    2.7488
   10.500    2.8225
   10.530    2.7909
   10.560    2.9700
   10.590    2.8015
   10.620    3.0121
   10.650    2.6856
   10.680    2.8963
   10.710    2.8752
   10.740    2.8331
   10.770    2.9279
   10.800    2.8436
   10.830    2.6646
   10.860    3.0858
   10.890    3.0964
   10.920    3.0542
   10.950    2.9595
   10.980    2.7909
   11.010    3.0648
   11.040    2.9279
   11.070    3.0964
   11.100    2.9384
   11.130    2.8225
   11.160    3.0858
   11.190    3.2649
   11.220    3.1174
   11.250    3.1912
   11.280    2.9279
   11.310    3.1701
   11.340    3.3281
   11.370    3.0016
   11.400    3.0226
   11.430    3.1490
   11.460    3.1174
   11.490    2.8647
   11.520    3.0964
   11.550    3.0542
   11.580    2.9384
   11.610    2.8015
   11.640    3.0016
   11.670    3.2227
   11.700    2.9068
   11.730    2.7804
   11.760    3.1912
   11.790    3.1280
   11.820    3.1385
   11.850    2.7699
   11.880    3.1174
   11.910    2.8752
   11.940    2.9489
   11.970    2.8541
   12.000    2.9700
   12.030    2.9279
   12.060    2.9910
   12.090    2.9279
   12.120    3.0016
   12.150    3.0016
   12.180    3.0648
   12.210    2.9068
   12.240    2.9805
   12.270    3.0016
   12.300    3.0121
   12.330    2.8752
   12.360    3.0858
   12.390    3.0542
   12.420    3.0332
   12.450    2.9173
   12.480    3.1912
   12.510    2.7488
   12.540    3.0858
   12.570    2.9595
   12.600    3.0016
   12.630    3.2543
   12.660    3.0648
   12.690    2.9700
   12.720    3.0332
   12.750    3.0332
   12.780    3.0648
   12.810    3.2543
   12.840    3.2438
   12.870    3.0437
   12.900    3.0753
   12.930    3.2333
   12.960    3.1385
   12.990    3.0542
   13.020    2.9910
   13.050    3.0858
   13.080    3.1385
   13.110    2.9700
   13.140    2.9173
   13.170    3.3491
   13.200    3.0753
   13.230    2.9805
   13.260    3.2543
   13.290    3.1490
   13.320    3.3070
   13.350    2.9489
   13.380    3.1385
   13.410    3.0437
   13.440    3.1701
   13.470    3.3702
   13.500    3.5703
   13.530    3.2543
   13.560    3.0226
   13.590    3.3386
   13.620    3.0753
   13.650    3.3070
   13.680    3.5492
   13.710    2.8963
   13.740    3.0964
   13.770    3.0648
   13.800    3.1385
   13.830    3.4650
   13.860    3.2965
   13.890    3.3281
   13.920    3.2017
   13.950    3.1806
   13.980    3.0542
   14.010    3.3386
   14.040    3.2017
   14.070    3.2859
   14.100    3.4755
   14.130    3.3070
   14.160    3.0437
   14.190    3.3175
   14.220    3.1069
   14.250    3.2754
   14.280    3.4229
   14.310    3.2438
   14.340    3.2122
   14.370    3.3281
   14.400    3.2227
   14.430    3.3175
   14.460    3.5387
   14.490    3.4334
   14.520    3.0437
   14.550    3.2543
   14.580    3.2965
   14.610    3.1912
   14.640    3.5808
   14.670    3.4439
   14.700    3.4018
   14.730    3.3913
   14.760    3.6546
   14.790    3.2227
   14.820    3.4123
   14.850    3.4966
   14.880    3.0964
   14.910    3.6440
   14.940    3.5071
   14.970    3.6440
   15.000    3.5598
   15.030    3.3597
   15.060    3.6546
   15.090    3.5176
   15.120    3.5176
   15.150    3.3913
   15.180    3.4229
   15.210    3.3281
   15.240    3.7704
   15.270    3.6756
   15.300    3.7283
   15.330    3.4650
   15.360    3.7915
   15.390    3.6862
   15.420    3.7283
   15.450    3.4544
   15.480    3.5387
   15.510    3.6019
   15.540    3.5703
   15.570    3.4966
   15.600    3.3702
   15.630    3.5703
   15.660    3.3175
   15.690    3.4018
   15.720    3.6230
   15.750    3.6862
   15.780    3.5492
   15.810    3.7599
   15.840    3.4439
   15.870    3.6546
   15.900    4.0126
   15.930    3.7072
   15.960    3.5703
   15.990    3.7388
   16.020    3.7915
   16.050    3.6862
   16.080    3.7915
   16.110    3.6335
   16.140    3.6651
   16.170    3.8547
   16.200    3.6440
   16.230    3.7177
   16.260    3.8757
   16.290    3.4439
   16.320    3.4755
   16.350    3.5703
   16.380    4.0021
   16.410    3.8336
   16.440    3.6440
   16.470    3.8020
   16.500    3.7915
   16.530    3.8336
   16.560    4.1180
   16.590    4.2654
   16.620    4.3075
   16.650    3.6335
   16.680    3.6651
   16.710    3.9389
   16.740    4.0021
   16.770    4.1601
   16.800    3.9073
   16.830    4.1285
   16.860    3.7809
   16.890    3.9810
   16.920    3.8336
   16.950    3.7072
   16.980    4.4444
   17.010    3.9389
   17.040    4.1390
   17.070    4.4234
   17.100    4.3813
   17.130    4.0232
   17.160    4.2443
   17.190    3.9600
   17.220    4.0969
   17.250    4.0653
   17.280    3.9705
   17.310    4.0864
   17.340    4.3918
   17.370    4.5392
   17.400    4.1601
   17.430    4.5708
   17.460    4.5076
   17.490    4.3813
   17.520    4.3813
   17.550    4.2654
   17.580    4.5076
   17.610    4.4550
   17.640    4.1601
   17.670    4.1390
   17.700    4.0548
   17.730    4.1285
   17.760    4.2127
   17.790    4.0442
   17.820    4.4550
   17.850    4.3181
   17.880    4.2654
   17.910    4.4023
   17.940    4.6235
   17.970    4.4339
   18.000    3.9073
   18.030    4.3602
   18.060    4.7604
   18.090    4.3707
   18.120    4.4655
   18.150    4.7077
   18.180    4.6235
   18.210    4.6130
   18.240    4.3075
   18.270    4.5708
   18.300    4.8236
   18.330    4.3918
   18.360    4.4444
   18.390    3.8547
   18.420    4.4866
   18.450    4.4339
   18.480    4.7077
   18.510    4.6551
   18.540    4.4655
   18.570    4.5498
   18.600    4.3707
   18.630    4.5076
   18.660    4.6235
   18.690    4.5392
   18.720    4.2865
   18.750    4.2338
   18.780    4.6235
   18.810    4.7815
   18.840    4.6024
   18.870    4.6972
   18.900    4.5287
   18.930    4.4550
   18.960    4.8025
   18.990    4.8447
   19.020    4.3497
   19.050    4.6340
   19.080    4.6445
   19.110    4.6235
   19.140    5.0974
   19.170    4.8236
   19.200    4.5287
   19.230    4.6656
   19.260    4.9710
   19.290    5.0026
   19.320    4.8657
   19.350    4.4339
   19.380    4.8763
   19.410    4.9078
   19.440    4.6445
   19.470    4.4971
   19.500    4.4550
   19.530    4.8341
   19.560    4.5603
   19.590    5.0026
   19.620    4.7499
   19.650    4.4655
   19.680    4.7815
   19.710    4.8868
   19.740    4.7815
   19.770    4.6656
   19.800    4.3075
   19.830    5.2027
   19.860    4.7393
   19.890    4.7920
   19.920    4.7709
   19.950    4.7183
   19.980    4.5919
   20.010    4.7920
   20.040    4.2233
   20.070    4.8552
   20.100    4.5498
   20.130    4.5708
   20.160    4.6972
   20.190    4.3497
   20.220    4.4866
   20.250    4.5708
   20.280    4.7288
   20.310    4.5708
   20.340    5.0448
   20.370    4.4760
   20.400    4.6551
   20.430    4.6235
   20.460    4.6235
   20.490    4.3286
   20.520    4.7604
   20.550    4.4971
   20.580    4.6445
   20.610    4.8973
   20.640    4.6024
   20.670    4.4444
   20.700    4.2233
   20.730    4.2443
   20.760    4.4866
   20.790    4.4234
   20.820    4.0969
   20.850    4.1496
   20.880    4.2865
   20.910    4.3286
   20.940    4.2865
   20.970    4.1917
   21.000    4.5182
   21.030    4.4760
   21.060    4.4866
   21.090    4.3707
   21.120    4.4866
   21.150    4.1074
   21.180    4.3497
   21.210    4.2022
   21.240    4.0758
   21.270    4.0758
   21.300    4.5287
   21.330    4.4023
   21.360    4.4971
   21.390    4.2654
   21.420    4.2970
   21.450    4.0232
   21.480    4.2338
   21.510    4.0126
   21.540    4.0442
   21.570    4.5287
   21.600    4.1180
   21.630    4.2970
   21.660    4.0232
   21.690    4.1917
   21.720    4.2233
   21.750    4.1180
   21.780    4.2127
   21.810    4.0442
   21.840    4.0864
   21.870    4.1074
   21.900    3.8231
   21.930    4.1180
   21.960    3.9705
   21.990    4.0864
   22.020    3.8125
   22.050    4.1180
   22.080    3.9810
   22.110    3.9389
   22.140    4.0126
   22.170    3.9916
   22.200    4.0969
   22.230    3.9600
   22.260    4.1180
   22.290    3.9600
   22.320    3.9073
   22.350    3.7072
   22.380    3.7493
   22.410    3.7283
   22.440    3.8757
   22.470    3.8125
   22.500    4.2338
   22.530    3.9179
   22.560    3.5914
   22.590    4.1601
   22.620    4.1074
   22.650    3.9389
   22.680    3.8968
   22.710    3.7809
   22.740    3.9600
   22.770    4.0126
   22.800    3.6230
   22.830    3.9284
   22.860    3.8336
   22.890    3.8441
   22.920    3.7809
   22.950    3.8336
   22.980    3.6546
   23.010    3.4966
   23.040    3.6124
   23.070    3.8863
   23.100    3.5703
   23.130    3.9284
   23.160    3.5703
   23.190    3.7493
   23.220    3.5808
   23.250    3.6335
   23.280    3.3281
   23.310    3.5808
   23.340    3.5914
   23.370    3.4966
   23.400    3.6756
   23.430    3.6230
   23.460    3.5071
   23.490    3.5808
   23.520    3.3175
   23.550    3.6124
   23.580    3.4966
   23.610    3.1490
   23.640    3.6651
   23.670    3.4755
   23.700    3.5808
   23.730    3.3702
   23.760    3.0964
   23.790    3.6967
   23.820    3.5492
   23.850    3.0542
   23.880    3.3070
   23.910    3.6651
   23.940    3.3807
   23.970    3.6967
   24.000    3.3386
   24.030    3.3807
   24.060    3.7704
   24.090    3.3913
   24.120    3.4544
   24.150    3.4018
   24.180    3.1912
   24.210    3.1701
   24.240    3.3491
   24.270    3.4229
   24.300    3.5598
   24.330    3.3702
   24.360    3.4650
   24.390    3.1806
   24.420    3.0437
   24.450    3.3807
   24.480    3.3913
   24.510    3.3702
   24.540    3.3913
   24.570    3.4123
   24.600    3.1385
   24.630    3.2859
   24.660    3.4544
   24.690    3.3386
   24.720    3.0648
   24.750    3.0016
   24.780    3.0964
   24.810    3.4966
   24.840    3.0016
   24.870    3.2859
   24.900    3.2543
   24.930    3.3386
   24.960    3.2227
   24.990    3.0226
   25.020    3.2017
   25.050    3.0121
   25.080    3.3281
   25.110    3.0753
   25.140    3.0858
   25.170    3.5914
   25.200    3.2754
   25.230    3.0964
   25.260    3.2438
   25.290    2.9595
   25.320    2.8331
   25.350    3.0858
   25.380    2.9279
   25.410    3.1596
   25.440    3.0226
   25.470    3.1069
   25.500    3.1701
   25.530    3.0121
   25.560    3.1701
   25.590    3.3386
   25.620    2.9595
   25.650    3.0648
   25.680    2.7699
   25.710    2.9173
   25.740    3.0121
   25.770    3.1174
   25.800    3.2543
   25.830    3.0858
   25.860    3.0121
   25.890    2.9384
   25.920    2.9910
   25.950    3.1385
   25.980    2.7278
   26.010    3.0753
   26.040    2.9805
   26.070    3.1806
   26.100    2.9910
   26.130    3.0016
   26.160    2.9805
   26.190    2.8436
   26.220    2.8857
   26.250    2.8225
   26.280    2.9068
   26.310    2.8647
   26.340    2.9384
   26.370    2.8120
   26.400    2.7804
   26.430    2.9910
   26.460    2.9700
   26.490    3.0858
   26.520    3.1385
   26.550    2.7383
   26.580    2.7278
   26.610    2.8963
   26.640    2.8225
   26.670    2.8752
   26.700    2.7067
   26.730    2.9805
   26.760    2.9279
   26.790    3.0332
   26.820    2.9805
   26.850    2.9489
   26.880    2.7593
   26.910    2.8015
   26.940    3.0016
   26.970    2.8225
   27.000    2.8541
   27.030    3.0648
   27.060    2.7383
   27.090    2.9805
   27.120    2.8752
   27.150    2.6330
   27.180    2.9805
   27.210    2.8541
   27.240    2.4750
   27.270    3.0437
   27.300    2.7383
   27.330    2.8120
   27.360    2.7172
   27.390    2.7909
   27.420    2.6856
   27.450    2.7804
   27.480    2.6224
   27.510    2.8436
   27.540    2.7383
   27.570    2.9805
   27.600    2.8857
   27.630    2.8752
   27.660    2.8752
   27.690    2.7278
   27.720    2.9910
   27.750    2.9384
   27.780    2.7488
   27.810    2.9068
   27.840    2.9700
   27.870    2.8541
   27.900    2.6330
   27.930    2.8541
   27.960    2.9279
   27.990    2.7909
   28.020    2.7909
   28.050    2.8436
   28.080    2.6435
   28.110    2.7383
   28.140    2.6856
   28.170    2.8541
   28.200    2.7067
   28.230    2.7278
   28.260    2.3907
   28.290    2.8436
   28.320    2.4434
   28.350    2.8963
   28.380    2.6435
   28.410    2.7593
   28.440    2.6224
   28.470    2.9173
   28.500    2.6330
   28.530    2.6224
   28.560    2.5487
   28.590    2.7488
   28.620    2.5803
   28.650    2.7488
   28.680    2.6435
   28.710    2.5698
   28.740    2.6962
   28.770    2.6119
   28.800    2.6856
   28.830    2.6014
   28.860    2.5382
   28.890    2.5382
   28.920    2.5592
   28.950    2.4434
   28.980    2.6014
   29.010    2.6751
   29.040    2.5803
   29.070    2.4434
   29.100    2.8225
   29.130    2.8331
   29.160    2.6962
   29.190    2.5382
   29.220    2.8015
   29.250    2.5171
   29.280    2.6962
   29.310    2.7278
   29.340    2.8331
   29.370    2.4961
   29.400    2.3697
   29.430    2.6540
   29.460    2.3381
   29.490    2.3381
   29.520    2.7593
   29.550    2.4013
   29.580    2.4961
   29.610    2.4434
   29.640    2.5066
   29.670    2.4329
   29.700    2.6540
   29.730    2.3591
   29.760    2.5066
   29.790    2.5276
   29.820    2.3697
   29.850    2.5276
   29.880    2.6014
   29.910    2.3591
   29.940    2.6646
   29.970    2.7067
   30.000    2.5698
   30.030    2.4750
   30.060    2.4539
   30.090    2.6751
   30.120    2.8857
   30.150    2.2433
   30.180    2.3486
   30.210    2.5066
   30.240    2.6119
   30.270    2.6435
   30.300    2.4855
   30.330    2.4750
   30.360    2.6646
   30.390    2.3907
   30.420    2.3381
   30.450    2.3591
   30.480    2.6856
   30.510    2.5382
   30.540    2.3381
   30.570    2.4434
   30.600    2.5066
   30.630    2.3697
   30.660    2.2643
   30.690    2.3381
   30.720    2.6751
   30.750    2.5382
   30.780    2.4118
   30.810    2.3591
   30.840    2.3486
   30.870    2.2117
   30.900    2.3802
   30.930    2.3591
   30.960    2.6330
   30.990    2.3486
   31.020    2.2222
   31.050    2.4645
   31.080    2.4434
   31.110    2.4223
   31.140    2.4118
   31.170    2.6014
   31.200    2.6856
   31.230    2.2749
   31.260    2.3802
   31.290    2.2222
   31.320    2.3486
   31.350    2.4223
   31.380    2.4434
   31.410    2.4223
   31.440    2.1696
   31.470    2.4855
   31.500    2.3170
   31.530    2.4329
   31.560    2.3065
   31.590    2.4013
   31.620    2.3486
   31.650    2.3486
   31.680    2.1906
   31.710    2.4961
   31.740    2.2222
   31.770    2.3697
   31.800    2.3065
   31.830    2.2117
   31.860    2.2117
   31.890    2.1169
   31.920    2.4434
   31.950    2.3381
   31.980    2.1801
   32.010    2.3591
   32.040    2.2538
   32.070    2.0221
   32.100    2.2222
   32.130    2.3802
   32.160    2.1274
   32.190    2.1696
   32.220    2.4434
   32.250    2.2854
   32.280    2.3065
   32.310    2.3275
   32.340    2.1696
   32.370    2.2117
   32.400    2.2012
   32.430    1.8852
   32.460    2.2117
   32.490    2.1906
   32.520    2.1064
   32.550    2.0326
   32.580    2.2538
   32.610    2.2012
   32.640    2.2538
   32.670    2.2643
   32.700    2.1696
   32.730    2.1801
   32.760    2.1274
   32.790    2.4855
   32.820    2.1064
   32.850    2.1906
   32.880    2.2222
   32.910    2.0326
   32.940    2.1274
   32.970    1.8747
   33.000    2.0432
   33.030    2.1696
   33.060    2.0537
   33.090    2.0116
   33.120    1.9379
   33.150    2.2749
   33.180    2.0958
   33.210    1.8957
   33.240    2.0221
   33.270    1.9695
   33.300    1.9800
   33.330    2.1169
   33.360    1.8747
   33.390    2.1696
   33.420    1.7588
   33.450    2.0537
   33.480    2.0221
   33.510    1.9063
   33.540    1.9800
   33.570    1.8536
   33.600    1.8325
   33.630    1.8957
   33.660    1.8852
   33.690    2.0011
   33.720    2.0432
   33.750    1.9484
   33.780    1.8852
   33.810    2.1485
   33.840    1.9800
   33.870    2.0853
   33.900    2.0642
   33.930    1.8641
   33.960    1.9273
   33.990    1.8220
   34.020    1.9063
   34.050    2.0642
   34.080    1.9905
   34.110    2.2328
   34.140    1.9800
   34.170    1.8852
   34.200    2.0432
   34.230    2.0748
   34.260    1.9589
   34.290    1.9905
   34.320    2.2222
   34.350    1.9379
   34.380    1.7483
   34.410    1.9379
   34.440    1.8747
   34.470    1.7694
   34.500    1.9168
   34.530    1.7062
   34.560    1.6851
   34.590    1.9379
   34.620    1.8009
   34.650    1.8431
   34.680    1.7588
   34.710    2.0011
   34.740    1.8641
   34.770    1.8009
   34.800    1.9379
   34.830    1.7588
   34.860    1.9379
   34.890    1.6746
   34.920    1.6956
   34.950    1.8747
   34.980    1.7167
   35.010    1.7588
   35.040    1.9168
   35.070    1.8115
   35.100    1.8747
   35.130    2.0748
   35.160    1.8431
   35.190    1.6430
   35.220    1.6956
   35.250    1.7694
   35.280    1.8325
   35.310    1.7167
   35.340    1.6956
   35.370    1.9905
   35.400    1.6746
   35.430    1.8852
   35.460    1.7062
   35.490    2.0326
   35.520    1.8747
   35.550    1.8957
   35.580    1.6324
   35.610    1.5271
   35.640    1.6746
   35.670    1.7483
   35.700    1.6956
   35.730    1.8220
   35.760    1.6746
   35.790    1.7799
   35.820    1.7588
   35.850    1.6219
   35.880    1.5482
   35.910    1.7694
   35.940    1.6430
   35.970    1.7799
   36.000    1.7694
   36.030    1.6324
   36.060    1.6956
   36.090    1.5271
   36.120    1.4323
   36.150    1.8747
   36.180    1.6008
   36.210    1.6640
   36.240    1.4850
   36.270    1.8852
   36.300    1.7904
   36.330    1.4955
   36.360    1.7799
   36.390    1.5166
   36.420    1.5903
   36.450    1.5798
   36.480    1.6640
   36.510    1.4955
   36.540    1.7167
   36.570    1.4955
   36.600    1.5903
   36.630    1.6219
   36.660    1.6219
   36.690    1.5692
   36.720    1.4113
   36.750    1.6219
   36.780    1.6114
   36.810    1.6640
   36.840    1.2112
   36.870    1.4429
   36.900    1.5903
   36.930    1.5061
   36.960    1.4745
   36.990    1.6640
   37.020    1.6008
   37.050    1.8115
   37.080    1.4955
   37.110    1.6746
   37.140    1.5482
   37.170    1.6430
   37.200    1.6430
   37.230    1.5692
   37.260    1.6324
   37.290    1.6640
   37.320    1.5587
   37.350    1.4850
   37.380    1.5061
   37.410    1.5271
   37.440    1.5482
   37.470    1.4955
   37.500    1.6430
   37.530    1.6008
   37.560    1.4850
   37.590    1.4113
   37.620    1.5798
   37.650    1.3797
   37.680    1.5377
   37.710    1.5271
   37.740    1.4429
   37.770    1.5482
   37.800    1.6535
   37.830    1.4218
   37.860    1.4534
   37.890    1.5692
   37.920    1.5798
   37.950    1.4639
   37.980    1.5692
   38.010    1.5798
   38.040    1.4850
   38.070    1.3270
   38.100    1.5903
   38.130    1.6008
   38.160    1.4850
   38.190    1.5061
   38.220    1.5482
   38.250    1.4850
   38.280    1.4323
   38.310    1.4113
   38.340    1.4955
   38.370    1.6219
   38.400    1.5061
   38.430    1.5166
   38.460    1.4007
   38.490    1.5061
   38.520    1.3270
   38.550    1.3797
   38.580    1.3902
   38.610    1.4113
   38.640    1.2533
   38.670    1.4639
   38.700    1.1374
   38.730    1.6535
   38.760    1.4534
   38.790    1.5692
   38.820    1.3586
   38.850    1.5271
   38.880    1.5903
   38.910    1.5166
   38.940    1.3586
   38.970    1.5692
   39.000    1.3270
   39.030    1.4113
   39.060    1.3902
   39.090    1.3797
   39.120    1.3481
   39.150    1.2849
   39.180    1.2428
   39.210    1.3165
   39.240    1.3060
   39.270    1.2428
   39.300    1.3902
   39.330    1.3797
   39.360    1.3481
   39.390    1.4745
   39.420    1.3586
   39.450    1.1480
   39.480    1.3481
   39.510    1.5061
   39.540    1.2954
   39.570    1.4850
   39.600    1.4113
   39.630    1.4218
   39.660    1.4007
   39.690    1.3375
   39.720    1.4639
   39.750    1.3165
   39.780    1.4323
   39.810    1.3902
   39.840    1.5061
   39.870    1.4534
   39.900    1.5271
   39.930    1.4429
   39.960    1.4113
   39.990    1.4323