File: data/MOCOF-1/PXRD/PXRD_KE-190_Cu-Ka1_capillary-1mm_5s-deg.xyd
    1.500   14.5761
    1.530   14.5550
    1.560   14.7130
    1.590   14.1127
    1.620   13.3544
    1.650   13.2596
    1.680   12.9015
    1.710   13.6598
    1.740   12.6382
    1.770   12.2591
    1.800   11.7852
    1.830   12.0800
    1.860   11.4587
    1.890   11.2164
    1.920   11.3533
    1.950   11.5956
    1.980   11.0163
    2.010   10.6266
    2.040   10.4371
    2.070   10.1527
    2.100   10.8268
    2.130   10.2159
    2.160   10.4581
    2.190   10.1316
    2.220   10.2896
    2.250    9.8789
    2.280   10.3212
    2.310   10.5740
    2.340   10.4265
    2.370   10.2580
    2.400   10.3633
    2.430   10.3633
    2.460   10.5845
    2.490   10.4897
    2.520   10.7741
    2.550   11.1848
    2.580   11.6272
    2.610   11.6061
    2.640   11.7009
    2.670   13.2491
    2.700   13.1438
    2.730   13.6177
    2.760   13.9126
    2.790   14.9026
    2.820   15.6398
    2.850   16.9458
    2.880   18.0621
    2.910   19.4629
    2.940   21.5798
    2.970   23.0121
    3.000   24.6551
    3.030   27.4355
    3.060   30.1106
    3.090   33.0384
    3.120   37.1353
    3.150   41.5798
    3.180   45.7820
    3.210   53.9863
    3.240   58.9047
    3.270   68.7941
    3.300   79.0943
    3.330   92.6172
    3.360  108.9310
    3.390  125.4239
    3.420  136.4086
    3.450  135.4608
    3.480  113.2596
    3.510   85.1290
    3.540   60.7267
    3.570   46.2454
    3.600   39.1785
    3.630   36.4929
    3.660   35.9031
    3.690   37.1669
    3.720   38.2938
    3.750   41.4745
    3.780   45.3081
    3.810   51.5745
    3.840   60.3476
    3.870   66.3402
    3.900   56.7773
    3.930   50.3949
    3.960   51.1954
    3.990   54.4181
    4.020   54.1232
    4.050   56.4402
    4.080   56.2507
    4.110   56.2717
    4.140   52.4276
    4.170   48.1938
    4.200   43.7388
    4.230   37.3354
    4.260   31.4692
    4.290   25.0132
    4.320   20.8004
    4.350   17.6725
    4.380   15.2923
    4.410   12.7014
    4.440   10.9531
    4.470   10.4581
    4.500    9.4892
    4.530    8.5729
    4.560    7.7199
    4.590    7.3407
    4.620    7.1090
    4.650    6.8246
    4.680    6.6877
    4.710    6.3086
    4.740    6.2243
    4.770    5.7399
    4.800    6.0032
    4.830    5.4555
    4.860    5.8031
    4.890    5.6556
    4.920    5.3818
    4.950    5.0026
    4.980    5.0658
    5.010    5.0974
    5.040    5.2659
    5.070    4.9816
    5.100    4.8341
    5.130    5.1922
    5.160    4.6656
    5.190    5.4344
    5.220    5.4450
    5.250    5.8347
    5.280    5.6345
    5.310    5.6135
    5.340    6.0137
    5.370    6.4139
    5.400    7.1722
    5.430    7.6356
    5.460    9.6261
    5.490    8.7414
    5.520    7.2565
    5.550    4.9078
    5.580    4.3391
    5.610    4.1390
    5.640    4.3602
    5.670    4.3181
    5.700    4.4550
    5.730    4.1074
    5.760    4.0864
    5.790    3.9494
    5.820    4.1601
    5.850    3.9916
    5.880    4.1285
    5.910    4.3075
    5.940    4.0758
    5.970    3.8863
    6.000    3.8336
    6.030    4.0758
    6.060    4.0758
    6.090    4.0442
    6.120    3.9600
    6.150    3.7177
    6.180    4.0969
    6.210    3.9073
    6.240    3.8863
    6.270    3.9389
    6.300    4.3286
    6.330    4.0548
    6.360    4.1074
    6.390    3.8441
    6.420    4.2443
    6.450    4.3075
    6.480    4.0969
    6.510    4.6024
    6.540    4.5182
    6.570    4.8341
    6.600    5.2238
    6.630    5.6345
    6.660    6.5508
    6.690    6.7615
    6.720    8.2570
    6.750    8.2675
    6.780    8.9731
    6.810    9.6472
    6.840   11.0479
    6.870   13.1648
    6.900   15.5872
    6.930   16.1559
    6.960   15.3765
    6.990   13.1859
    7.020   10.4371
    7.050    8.1201
    7.080    6.8773
    7.110    5.7504
    7.140    5.3186
    7.170    5.5714
    7.200    4.7920
    7.230    4.5919
    7.260    4.7393
    7.290    4.3181
    7.320    4.4655
    7.350    4.5603
    7.380    4.4339
    7.410    4.2654
    7.440    4.5076
    7.470    4.2022
    7.500    4.2865
    7.530    4.4760
    7.560    4.8341
    7.590    4.9289
    7.620    4.7183
    7.650    5.0553
    7.680    5.4344
    7.710    5.4555
    7.740    6.2138
    7.770    6.3191
    7.800    6.7825
    7.830    6.1927
    7.860    5.5819
    7.890    5.8031
    7.920    5.9294
    7.950    6.0664
    7.980    6.2770
    8.010    6.4876
    8.040    7.1195
    8.070    7.0248
    8.100    7.0669
    8.130    7.2670
    8.160    7.5829
    8.190    7.4671
    8.220    7.3934
    8.250    7.3512
    8.280    7.7830
    8.310    7.4671
    8.340    7.3512
    8.370    7.3723
    8.400    7.1301
    8.430    7.2565
    8.460    6.5087
    8.490    6.7930
    8.520    6.3718
    8.550    5.8031
    8.580    5.9610
    8.610    5.8241
    8.640    5.4660
    8.670    5.4239
    8.700    5.0132
    8.730    4.8973
    8.760    4.6972
    8.790    4.3286
    8.820    4.4023
    8.850    4.3391
    8.880    4.0021
    8.910    4.3813
    8.940    3.9705
    8.970    3.7072
    9.000    3.9284
    9.030    4.0337
    9.060    3.8020
    9.090    3.5071
    9.120    3.8757
    9.150    3.7915
    9.180    3.6546
    9.210    3.8757
    9.240    3.7493
    9.270    3.4334
    9.300    3.9494
    9.330    3.7599
    9.360    3.8968
    9.390    3.7599
    9.420    3.7599
    9.450    4.6024
    9.480    4.9184
    9.510    5.3923
    9.540    6.4666
    9.570    6.1190
    9.600    4.4339
    9.630    3.5703
    9.660    3.3386
    9.690    3.5071
    9.720    3.4755
    9.750    3.5914
    9.780    3.4966
    9.810    3.4229
    9.840    3.5176
    9.870    3.4123
    9.900    3.7493
    9.930    3.7388
    9.960    3.7493
    9.990    3.4018
   10.020    3.3913
   10.050    3.4334
   10.080    3.5598
   10.110    3.3070
   10.140    3.5914
   10.170    3.5071
   10.200    4.0653
   10.230    4.0653
   10.260    3.9705
   10.290    4.7393
   10.320    5.0553
   10.350    4.7393
   10.380    4.5076
   10.410    4.2970
   10.440    4.4971
   10.470    4.3391
   10.500    4.1390
   10.530    4.3813
   10.560    3.6651
   10.590    3.7704
   10.620    3.5703
   10.650    3.6335
   10.680    3.6440
   10.710    3.4650
   10.740    3.2859
   10.770    3.3913
   10.800    3.5598
   10.830    3.6651
   10.860    3.6546
   10.890    3.4860
   10.920    3.7599
   10.950    3.6440
   10.980    3.7915
   11.010    4.2654
   11.040    4.2127
   11.070    3.7915
   11.100    3.4966
   11.130    3.2122
   11.160    3.6862
   11.190    3.3386
   11.220    3.3807
   11.250    3.5387
   11.280    3.4966
   11.310    3.5914
   11.340    3.5703
   11.370    3.6862
   11.400    3.3386
   11.430    3.4018
   11.460    3.3913
   11.490    3.4860
   11.520    3.4755
   11.550    3.3070
   11.580    3.5387
   11.610    3.7599
   11.640    3.9284
   11.670    4.1706
   11.700    4.7920
   11.730    4.4023
   11.760    3.9073
   11.790    3.6019
   11.820    3.8441
   11.850    3.5492
   11.880    3.4229
   11.910    4.0337
   11.940    3.5914
   11.970    3.8231
   12.000    3.7809
   12.030    4.2022
   12.060    3.8968
   12.090    3.8968
   12.120    3.6440
   12.150    4.0758
   12.180    4.1811
   12.210    4.1390
   12.240    3.8441
   12.270    4.4023
   12.300    4.2338
   12.330    4.3813
   12.360    4.5182
   12.390    4.3602
   12.420    4.0969
   12.450    4.0548
   12.480    4.2022
   12.510    4.0548
   12.540    4.4550
   12.570    4.4234
   12.600    4.2759
   12.630    4.2654
   12.660    4.4655
   12.690    3.6756
   12.720    4.1496
   12.750    4.0021
   12.780    4.0442
   12.810    4.1074
   12.840    4.0758
   12.870    4.1496
   12.900    4.1811
   12.930    4.5603
   12.960    4.2654
   12.990    3.9810
   13.020    4.0126
   13.050    3.7177
   13.080    3.5914
   13.110    3.6440
   13.140    3.7177
   13.170    3.8863
   13.200    3.7809
   13.230    3.8231
   13.260    3.5492
   13.290    3.7072
   13.320    3.4755
   13.350    4.0021
   13.380    3.7809
   13.410    3.7388
   13.440    3.9494
   13.470    3.8336
   13.500    3.8020
   13.530    3.9073
   13.560    3.9600
   13.590    3.7599
   13.620    3.7283
   13.650    3.6124
   13.680    3.8125
   13.710    3.5492
   13.740    3.7809
   13.770    3.9179
   13.800    3.7177
   13.830    4.0548
   13.860    3.7388
   13.890    3.8231
   13.920    3.8441
   13.950    3.7809
   13.980    4.1180
   14.010    4.1706
   14.040    4.2549
   14.070    4.2233
   14.100    4.0021
   14.130    3.9494
   14.160    3.9494
   14.190    3.7388
   14.220    3.6967
   14.250    3.5598
   14.280    3.8968
   14.310    3.4544
   14.340    3.7704
   14.370    3.5071
   14.400    3.7072
   14.430    3.3281
   14.460    3.3913
   14.490    3.5282
   14.520    3.7283
   14.550    3.5387
   14.580    3.4755
   14.610    3.7915
   14.640    3.4966
   14.670    3.4439
   14.700    3.3807
   14.730    3.3807
   14.760    3.2543
   14.790    3.5598
   14.820    3.4966
   14.850    3.4123
   14.880    3.2017
   14.910    3.4334
   14.940    3.5176
   14.970    3.3281
   15.000    3.2333
   15.030    3.4544
   15.060    3.4334
   15.090    3.7283
   15.120    3.4334
   15.150    3.5703
   15.180    3.6019
   15.210    3.4123
   15.240    3.4123
   15.270    3.5492
   15.300    3.3597
   15.330    3.4018
   15.360    3.3807
   15.390    3.5914
   15.420    3.5071
   15.450    3.4860
   15.480    3.6124
   15.510    3.7493
   15.540    3.4966
   15.570    3.4650
   15.600    3.7072
   15.630    3.6019
   15.660    3.6124
   15.690    3.7704
   15.720    3.3807
   15.750    3.8231
   15.780    4.0548
   15.810    3.5492
   15.840    3.7599
   15.870    3.6862
   15.900    3.4755
   15.930    3.5703
   15.960    3.5282
   15.990    3.4439
   16.020    4.0126
   16.050    3.7177
   16.080    3.5176
   16.110    3.7599
   16.140    3.6230
   16.170    3.6440
   16.200    3.5914
   16.230    3.7072
   16.260    3.3386
   16.290    3.2227
   16.320    3.5387
   16.350    3.7809
   16.380    3.4966
   16.410    3.5387
   16.440    3.8125
   16.470    3.3807
   16.500    3.5071
   16.530    3.3386
   16.560    3.6019
   16.590    3.7177
   16.620    3.3386
   16.650    3.6546
   16.680    3.3597
   16.710    3.4018
   16.740    3.4123
   16.770    3.4334
   16.800    3.2859
   16.830    3.3386
   16.860    3.4123
   16.890    3.4966
   16.920    3.6546
   16.950    3.6756
   16.980    3.6862
   17.010    3.7283
   17.040    3.7809
   17.070    3.7809
   17.100    3.7809
   17.130    3.5808
   17.160    3.4650
   17.190    3.7493
   17.220    3.3491
   17.250    3.4966
   17.280    3.3386
   17.310    3.5071
   17.340    3.5808
   17.370    3.7072
   17.400    3.3281
   17.430    3.6546
   17.460    3.6862
   17.490    3.7388
   17.520    3.3702
   17.550    3.3913
   17.580    3.6546
   17.610    3.6756
   17.640    3.4860
   17.670    3.4334
   17.700    3.8441
   17.730    3.4755
   17.760    3.9389
   17.790    3.6651
   17.820    3.5282
   17.850    3.5282
   17.880    3.6335
   17.910    3.7388
   17.940    3.7704
   17.970    3.5914
   18.000    3.6756
   18.030    3.6230
   18.060    3.6335
   18.090    3.6967
   18.120    3.4966
   18.150    3.4439
   18.180    3.6230
   18.210    3.4334
   18.240    3.5282
   18.270    3.5071
   18.300    3.8652
   18.330    3.6862
   18.360    3.4755
   18.390    3.8125
   18.420    3.7704
   18.450    3.6756
   18.480    3.5176
   18.510    3.5282
   18.540    3.6124
   18.570    3.3807
   18.600    3.4439
   18.630    3.4439
   18.660    3.5176
   18.690    3.6862
   18.720    3.6019
   18.750    3.4860
   18.780    3.6335
   18.810    3.7177
   18.840    3.4334
   18.870    3.7283
   18.900    3.5071
   18.930    3.7283
   18.960    3.8441
   18.990    4.0969
   19.020    3.5598
   19.050    3.6546
   19.080    3.4439
   19.110    3.7704
   19.140    3.6335
   19.170    3.8336
   19.200    3.6124
   19.230    3.6651
   19.260    3.5703
   19.290    3.5914
   19.320    3.2859
   19.350    4.0969
   19.380    3.7915
   19.410    3.8336
   19.440    3.8125
   19.470    3.7915
   19.500    3.6967
   19.530    3.8863
   19.560    3.9600
   19.590    3.9494
   19.620    3.8968
   19.650    4.1811
   19.680    3.9284
   19.710    4.0864
   19.740    3.9389
   19.770    4.1285
   19.800    4.0758
   19.830    4.0126
   19.860    4.1917
   19.890    3.7599
   19.920    3.9600
   19.950    4.0758
   19.980    3.9916
   20.010    4.2022
   20.040    3.9494
   20.070    3.7809
   20.100    4.2022
   20.130    4.0337
   20.160    4.0864
   20.190    4.1601
   20.220    4.0232
   20.250    4.0021
   20.280    3.7704
   20.310    4.0548
   20.340    4.3075
   20.370    4.2127
   20.400    4.0337
   20.430    4.1706
   20.460    4.2022
   20.490    3.9810
   20.520    3.8547
   20.550    3.9284
   20.580    4.0758
   20.610    3.8757
   20.640    3.7599
   20.670    3.9073
   20.700    3.8231
   20.730    3.7809
   20.760    4.2127
   20.790    3.8757
   20.820    3.9705
   20.850    3.9600
   20.880    3.9073
   20.910    4.2443
   20.940    4.0969
   20.970    3.9494
   21.000    4.2022
   21.030    3.7915
   21.060    4.2549
   21.090    3.9600
   21.120    3.8441
   21.150    4.0021
   21.180    3.8863
   21.210    4.0021
   21.240    3.8125
   21.270    3.7177
   21.300    3.8757
   21.330    4.0548
   21.360    3.7388
   21.390    4.0969
   21.420    4.1496
   21.450    4.0232
   21.480    3.9810
   21.510    3.8863
   21.540    3.8968
   21.570    4.1390
   21.600    4.2127
   21.630    3.9284
   21.660    4.2127
   21.690    3.9389
   21.720    4.2443
   21.750    3.9810
   21.780    3.9916
   21.810    3.9284
   21.840    4.0548
   21.870    4.0864
   21.900    4.0548
   21.930    3.9179
   21.960    3.9494
   21.990    3.6967
   22.020    3.8968
   22.050    4.0653
   22.080    4.1706
   22.110    3.9284
   22.140    3.9600
   22.170    3.8968
   22.200    4.1390
   22.230    4.0337
   22.260    4.1074
   22.290    3.8652
   22.320    3.9073
   22.350    4.0864
   22.380    3.6967
   22.410    4.3075
   22.440    4.0548
   22.470    4.0337
   22.500    3.9916
   22.530    4.5076
   22.560    4.6130
   22.590    4.3286
   22.620    4.3602
   22.650    3.6756
   22.680    3.6862
   22.710    3.9600
   22.740    3.8757
   22.770    3.9179
   22.800    4.1390
   22.830    3.8757
   22.860    4.1180
   22.890    4.2443
   22.920    3.9705
   22.950    4.2970
   22.980    4.0442
   23.010    3.7072
   23.040    4.1811
   23.070    3.7177
   23.100    3.8020
   23.130    3.8125
   23.160    3.8863
   23.190    3.8652
   23.220    4.0126
   23.250    3.7809
   23.280    3.8968
   23.310    3.7388
   23.340    3.5914
   23.370    3.8441
   23.400    3.7493
   23.430    3.8020
   23.460    3.7915
   23.490    3.4650
   23.520    3.5492
   23.550    4.0126
   23.580    3.6651
   23.610    3.9179
   23.640    3.6440
   23.670    3.5387
   23.700    3.7599
   23.730    4.1811
   23.760    3.6546
   23.790    3.2543
   23.820    3.8968
   23.850    3.8336
   23.880    3.9494
   23.910    3.5492
   23.940    3.5071
   23.970    3.6651
   24.000    3.6967
   24.030    3.7177
   24.060    3.6546
   24.090    3.7599
   24.120    3.9705
   24.150    3.6862
   24.180    3.5176
   24.210    3.7704
   24.240    3.7599
   24.270    3.7388
   24.300    3.8231
   24.330    3.5914
   24.360    3.7388
   24.390    4.1706
   24.420    3.8125
   24.450    3.5071
   24.480    3.6335
   24.510    3.6546
   24.540    3.7493
   24.570    3.7599
   24.600    3.9073
   24.630    3.8441
   24.660    3.8968
   24.690    3.8863
   24.720    3.5282
   24.750    3.8968
   24.780    3.7072
   24.810    3.7704
   24.840    3.5176
   24.870    3.6756
   24.900    3.6335
   24.930    3.3702
   24.960    3.6230
   24.990    3.4123
   25.020    3.7283
   25.050    3.7072
   25.080    3.5914
   25.110    3.7177
   25.140    3.7809
   25.170    3.5282
   25.200    3.5071
   25.230    3.4860
   25.260    3.6440
   25.290    3.6440
   25.320    3.5914
   25.350    3.5914
   25.380    3.3491
   25.410    3.6862
   25.440    3.3175
   25.470    3.7072
   25.500    3.2122
   25.530    3.2122
   25.560    3.5808
   25.590    3.5808
   25.620    3.5808
   25.650    3.6546
   25.680    3.3807
   25.710    3.3597
   25.740    3.4439
   25.770    3.4860
   25.800    3.2543
   25.830    3.3913
   25.860    3.6967
   25.890    3.7072
   25.920    3.4123
   25.950    3.4229
   25.980    3.3281
   26.010    3.4439
   26.040    3.3807
   26.070    3.4755
   26.100    3.4966
   26.130    3.4229
   26.160    3.3702
   26.190    3.5598
   26.220    3.4650
   26.250    3.3807
   26.280    3.3175
   26.310    3.1912
   26.340    3.2333
   26.370    3.2649
   26.400    3.5282
   26.430    3.2754
   26.460    3.3175
   26.490    3.2122
   26.520    3.4439
   26.550    3.1174
   26.580    3.4966
   26.610    3.4966
   26.640    3.2649
   26.670    3.1701
   26.700    3.1596
   26.730    3.1596
   26.760    3.2649
   26.790    3.4229
   26.820    3.2543
   26.850    3.0016
   26.880    3.2227
   26.910    3.5914
   26.940    3.2754
   26.970    3.2017
   27.000    3.5914
   27.030    3.2227
   27.060    3.3281
   27.090    3.3281
   27.120    3.1069
   27.150    3.0332
   27.180    3.2859
   27.210    3.2122
   27.240    3.3597
   27.270    3.4544
   27.300    3.2438
   27.330    3.2122
   27.360    3.2543
   27.390    3.1912
   27.420    3.4439
   27.450    3.1385
   27.480    3.5176
   27.510    3.2227
   27.540    3.2649
   27.570    3.3175
   27.600    3.2333
   27.630    3.3491
   27.660    3.1701
   27.690    3.0858
   27.720    3.2017
   27.750    3.0964
   27.780    3.2859
   27.810    3.2965
   27.840    3.3597
   27.870    3.5387
   27.900    3.3281
   27.930    3.3491
   27.960    3.4650
   27.990    3.3702
   28.020    3.4439
   28.050    3.3175
   28.080    3.4650
   28.110    3.5598
   28.140    3.4123
   28.170    3.4650
   28.200    3.2965
   28.230    3.4123
   28.260    3.3702
   28.290    3.4860
   28.320    3.1280
   28.350    3.5492
   28.380    3.3070
   28.410    3.2333
   28.440    3.0016
   28.470    3.2227
   28.500    3.4966
   28.530    3.3281
   28.560    3.2227
   28.590    3.0332
   28.620    3.1596
   28.650    3.0121
   28.680    3.1596
   28.710    3.1806
   28.740    3.2859
   28.770    3.2227
   28.800    3.0121
   28.830    3.3702
   28.860    3.2333
   28.890    3.2227
   28.920    3.2543
   28.950    3.0648
   28.980    3.0226
   29.010    3.2122
   29.040    2.9384
   29.070    2.9700
   29.100    3.2965
   29.130    3.1596
   29.160    3.2333
   29.190    3.1174
   29.220    3.1385
   29.250    3.3281
   29.280    3.4229
   29.310    3.3913
   29.340    2.8752
   29.370    3.1596
   29.400    3.2965
   29.430    2.9595
   29.460    3.2965
   29.490    2.9700
   29.520    2.8225
   29.550    3.1912
   29.580    2.9805
   29.610    3.0332
   29.640    3.1806
   29.670    2.8225
   29.700    3.0226
   29.730    2.9805
   29.760    3.0121
   29.790    3.3281
   29.820    3.0542
   29.850    3.1701
   29.880    2.9384
   29.910    2.9279
   29.940    3.1806
   29.970    2.8752
   30.000    2.9910
   30.030    3.2543
   30.060    2.7699
   30.090    3.0542
   30.120    3.0226
   30.150    3.0332
   30.180    3.0016
   30.210    3.0437
   30.240    3.0964
   30.270    3.3281
   30.300    2.9279
   30.330    2.8015
   30.360    2.9489
   30.390    2.9068
   30.420    2.9595
   30.450    2.9068
   30.480    3.0016
   30.510    3.1701
   30.540    2.8752
   30.570    3.2122
   30.600    3.2227
   30.630    2.8225
   30.660    3.1701
   30.690    3.1069
   30.720    3.2017
   30.750    3.1174
   30.780    3.1596
   30.810    3.1280
   30.840    2.7278
   30.870    2.9279
   30.900    2.9173
   30.930    3.2649
   30.960    3.1069
   30.990    2.7699
   31.020    3.0753
   31.050    3.1806
   31.080    3.2333
   31.110    3.0648
   31.140    2.8963
   31.170    3.2227
   31.200    3.2543
   31.230    2.8857
   31.260    2.9068
   31.290    2.9384
   31.320    3.0753
   31.350    3.0226
   31.380    2.9173
   31.410    2.9700
   31.440    3.1385
   31.470    3.0753
   31.500    2.9700
   31.530    2.9910
   31.560    3.1701
   31.590    2.9700
   31.620    3.2333
   31.650    3.0753
   31.680    3.2227
   31.710    3.1490
   31.740    3.2017
   31.770    3.0437
   31.800    3.3386
   31.830    3.0226
   31.860    3.2438
   31.890    3.0648
   31.920    3.2122
   31.950    3.1174
   31.980    3.2438
   32.010    3.4966
   32.040    3.6546
   32.070    3.8336
   32.100    3.5387
   32.130    3.3702
   32.160    3.6335
   32.190    3.2227
   32.220    3.0332
   32.250    3.0121
   32.280    3.0542
   32.310    3.0964
   32.340    2.8963
   32.370    3.0016
   32.400    2.9595
   32.430    2.9700
   32.460    2.9173
   32.490    3.1385
   32.520    2.7699
   32.550    2.9595
   32.580    2.9173
   32.610    2.5698
   32.640    2.8120
   32.670    2.8015
   32.700    2.8963
   32.730    2.9279
   32.760    3.0332
   32.790    2.8541
   32.820    3.0858
   32.850    2.8857
   32.880    2.7488
   32.910    3.0648
   32.940    2.6751
   32.970    2.9173
   33.000    2.8436
   33.030    2.8225
   33.060    2.8331
   33.090    3.0437
   33.120    2.8857
   33.150    2.9068
   33.180    2.9595
   33.210    2.7699
   33.240    2.7278
   33.270    2.3802
   33.300    2.6119
   33.330    2.9279
   33.360    2.6751
   33.390    2.9279
   33.420    2.7067
   33.450    2.9279
   33.480    3.0332
   33.510    2.8647
   33.540    2.7383
   33.570    2.8647
   33.600    2.7488
   33.630    3.0226
   33.660    2.9595
   33.690    2.8963
   33.720    2.9173
   33.750    2.7909
   33.780    3.1596
   33.810    3.0121
   33.840    2.9279
   33.870    3.1596
   33.900    2.9279
   33.930    2.9279
   33.960    2.9384
   33.990    3.0226
   34.020    2.6540
   34.050    2.8857
   34.080    2.8647
   34.110    2.6962
   34.140    2.9805
   34.170    2.6646
   34.200    3.1174
   34.230    2.9173
   34.260    2.7067
   34.290    2.5171
   34.320    2.7172
   34.350    2.7172
   34.380    2.5487
   34.410    2.7278
   34.440    2.8752
   34.470    2.7383
   34.500    2.7278
   34.530    2.8647
   34.560    2.9173
   34.590    2.6224
   34.620    2.8752
   34.650    2.8015
   34.680    2.5592
   34.710    2.7488
   34.740    2.8647
   34.770    2.7488
   34.800    2.8647
   34.830    2.5803
   34.860    2.8015
   34.890    2.7699
   34.920    2.9700
   34.950    2.6856
   34.980    2.7699
   35.010    2.6646
   35.040    2.7804
   35.070    2.7488
   35.100    2.8436
   35.130    2.7067
   35.160    2.6224
   35.190    2.7488
   35.220    2.8963
   35.250    2.6330
   35.280    2.5908
   35.310    2.7699
   35.340    2.8647
   35.370    2.5066
   35.400    2.6014
   35.430    2.8647
   35.460    2.6119
   35.490    2.6646
   35.520    2.5698
   35.550    2.8963
   35.580    2.6751
   35.610    2.5382
   35.640    2.7804
   35.670    2.8331
   35.700    2.8225
   35.730    2.6751
   35.760    2.6224
   35.790    2.7278
   35.820    2.6224
   35.850    2.8015
   35.880    2.6224
   35.910    2.4750
   35.940    2.7804
   35.970    2.5803
   36.000    2.6119
   36.030    2.6646
   36.060    2.6224
   36.090    2.5698
   36.120    2.5276
   36.150    2.6856
   36.180    2.6435
   36.210    2.6435
   36.240    2.0853
   36.270    2.4013
   36.300    2.4434
   36.330    2.4855
   36.360    2.4645
   36.390    2.6330
   36.420    2.6646
   36.450    2.2854
   36.480    2.5276
   36.510    2.5908
   36.540    2.6962
   36.570    2.5066
   36.600    2.8225
   36.630    2.7909
   36.660    2.3486
   36.690    2.4645
   36.720    2.6119
   36.750    2.5487
   36.780    2.5803
   36.810    2.6014
   36.840    2.9489
   36.870    2.7383
   36.900    2.6330
   36.930    2.6435
   36.960    2.5276
   36.990    2.6646
   37.020    2.7383
   37.050    2.6540
   37.080    2.5276
   37.110    2.9489
   37.140    2.5803
   37.170    2.7383
   37.200    2.6540
   37.230    2.5487
   37.260    2.5171
   37.290    2.5803
   37.320    2.4013
   37.350    2.6646
   37.380    2.6330
   37.410    2.6224
   37.440    2.4961
   37.470    2.7067
   37.500    2.8120
   37.530    2.4961
   37.560    2.6962
   37.590    2.5803
   37.620    2.7593
   37.650    2.8015
   37.680    2.4750
   37.710    2.5171
   37.740    2.4855
   37.770    2.3065
   37.800    2.5908
   37.830    2.4645
   37.860    2.6014
   37.890    2.3802
   37.920    2.6119
   37.950    2.4118
   37.980    2.4961
   38.010    2.3802
   38.040    2.4855
   38.070    2.7593
   38.100    2.4645
   38.130    2.6646
   38.160    2.6224
   38.190    2.4539
   38.220    2.5908
   38.250    2.6856
   38.280    2.6751
   38.310    2.5171
   38.340    2.5382
   38.370    2.4223
   38.400    2.4013
   38.430    2.3907
   38.460    2.1064
   38.490    2.5487
   38.520    2.4223
   38.550    2.6962
   38.580    2.5698
   38.610    2.7172
   38.640    2.5698
   38.670    2.5487
   38.700    2.7172
   38.730    2.7699
   38.760    2.6751
   38.790    2.6330
   38.820    2.3802
   38.850    2.4645
   38.880    2.5066
   38.910    2.6962
   38.940    2.4645
   38.970    2.4223
   39.000    2.3907
   39.030    2.6014
   39.060    2.4855
   39.090    2.6119
   39.120    2.5171
   39.150    2.5698
   39.180    2.5276
   39.210    2.5592
   39.240    2.6751
   39.270    2.5276
   39.300    2.6856
   39.330    2.5382
   39.360    2.6646
   39.390    2.5171
   39.420    2.3170
   39.450    2.5171
   39.480    2.3065
   39.510    2.4750
   39.540    2.5803
   39.570    2.7488
   39.600    2.7383
   39.630    2.5908
   39.660    2.4329
   39.690    2.5592
   39.720    2.5803
   39.750    2.6856
   39.780    2.4750
   39.810    2.3170
   39.840    2.3170
   39.870    2.6856
   39.900    2.8541
   39.930    2.5382
   39.960    2.6330
   39.990    2.8225