File: data/MOCOF-1/PXRD/PXRD_KE-156_Cu-Ka1_capillary-1mm_5s-deg.xyd
    1.500   20.4213
    1.530   20.6740
    1.560   19.8736
    1.590   19.3786
    1.620   18.5677
    1.650   19.2417
    1.680   18.5571
    1.710   18.2306
    1.740   17.8094
    1.770   17.5145
    1.800   17.2722
    1.830   16.9563
    1.860   17.0932
    1.890   16.8088
    1.920   17.4513
    1.950   16.5140
    1.980   16.6087
    2.010   16.3454
    2.040   16.0506
    2.070   16.4086
    2.100   16.9247
    2.130   16.5034
    2.160   16.9458
    2.190   16.6193
    2.220   17.0300
    2.250   17.0827
    2.280   17.2196
    2.310   17.7672
    2.340   17.8304
    2.370   18.6940
    2.400   18.9047
    2.430   18.8415
    2.460   19.1996
    2.490   19.1680
    2.520   20.2844
    2.550   20.3265
    2.580   20.9900
    2.610   21.6219
    2.640   22.7172
    2.670   23.7072
    2.700   24.2970
    2.730   24.5498
    2.760   25.7715
    2.790   27.2880
    2.820   27.6988
    2.850   29.2154
    2.880   31.1743
    2.910   32.4487
    2.940   34.6709
    2.970   35.7241
    3.000   37.1143
    3.030   40.1264
    3.060   41.7062
    3.090   43.9705
    3.120   47.7620
    3.150   52.3539
    3.180   55.7346
    3.210   59.2944
    3.240   65.6030
    3.270   70.5213
    3.300   77.7778
    3.330   87.1090
    3.360   96.3139
    3.390  105.6030
    3.420  115.1343
    3.450  119.9052
    3.480  112.7962
    3.510   99.3681
    3.540   81.1164
    3.570   64.5919
    3.600   54.8605
    3.630   48.1833
    3.660   44.4444
    3.690   42.6435
    3.720   41.9273
    3.750   42.1485
    3.780   42.9595
    3.810   42.8120
    3.840   44.6024
    3.870   43.8757
    3.900   45.5503
    3.930   46.8668
    3.960   46.7193
    3.990   47.2670
    4.020   46.2875
    4.050   46.4560
    4.080   44.5814
    4.110   42.4013
    4.140   40.2738
    4.170   38.1359
    4.200   36.0716
    4.230   32.1748
    4.260   29.4576
    4.290   25.8873
    4.320   24.2443
    4.350   21.7904
    4.380   18.8731
    4.410   17.8199
    4.440   15.3449
    4.470   14.2917
    4.500   13.1122
    4.530   12.0695
    4.560   11.1743
    4.590   11.0163
    4.620   10.0790
    4.650    9.4260
    4.680    8.8994
    4.710    9.0995
    4.740    8.4255
    4.770    8.3202
    4.800    7.7620
    4.830    7.7304
    4.860    7.4250
    4.890    7.7093
    4.920    7.1195
    4.950    7.3828
    4.980    6.8878
    5.010    6.5929
    5.040    6.9089
    5.070    6.7509
    5.100    6.8246
    5.130    6.0874
    5.160    6.4139
    5.190    6.3086
    5.220    6.2665
    5.250    6.1927
    5.280    6.2875
    5.310    6.1927
    5.340    5.9400
    5.370    5.5187
    5.400    6.0453
    5.430    6.0242
    5.460    5.7504
    5.490    5.4660
    5.520    5.3186
    5.550    5.6556
    5.580    5.4450
    5.610    5.8347
    5.640    5.5714
    5.670    5.3607
    5.700    5.2870
    5.730    5.5503
    5.760    5.5503
    5.790    5.3397
    5.820    5.3712
    5.850    5.2343
    5.880    5.4976
    5.910    5.3291
    5.940    5.4028
    5.970    5.2870
    6.000    5.3186
    6.030    5.3712
    6.060    5.1501
    6.090    5.4450
    6.120    5.7293
    6.150    5.6240
    6.180    5.5398
    6.210    5.5292
    6.240    5.6556
    6.270    5.7399
    6.300    5.6872
    6.330    5.9294
    6.360    6.0979
    6.390    5.8031
    6.420    6.2033
    6.450    6.0242
    6.480    6.1717
    6.510    7.0142
    6.540    6.5087
    6.570    7.1406
    6.600    7.0774
    6.630    7.3618
    6.660    8.4150
    6.690    8.4044
    6.720    8.7941
    6.750    9.5524
    6.780   10.1632
    6.810   11.1532
    6.840   12.2380
    6.870   13.2280
    6.900   14.1022
    6.930   15.3660
    6.960   14.5761
    6.990   15.1869
    7.020   11.9747
    7.050   11.3639
    7.080    9.6998
    7.110    8.6467
    7.140    7.9831
    7.170    7.2038
    7.200    6.9616
    7.230    6.6035
    7.260    6.5508
    7.290    6.5508
    7.320    6.4982
    7.350    6.5613
    7.380    6.3086
    7.410    5.8768
    7.440    6.2875
    7.470    6.2138
    7.500    6.0137
    7.530    6.6772
    7.560    6.5403
    7.590    6.6772
    7.620    6.6035
    7.650    6.2981
    7.680    6.3086
    7.710    6.8246
    7.740    6.7299
    7.770    6.9826
    7.800    7.0142
    7.830    7.2565
    7.860    7.5197
    7.890    7.5197
    7.920    7.6461
    7.950    7.6251
    7.980    7.9094
    8.010    7.4250
    8.040    7.9305
    8.070    8.0569
    8.100    8.2570
    8.130    8.3412
    8.160    8.4466
    8.190    8.3728
    8.220    8.1306
    8.250    8.3202
    8.280    8.4044
    8.310    8.1727
    8.340    8.1095
    8.370    7.8568
    8.400    7.7830
    8.430    8.3518
    8.460    8.3518
    8.490    7.8357
    8.520    7.4460
    8.550    7.2880
    8.580    7.3723
    8.610    7.2038
    8.640    7.0563
    8.670    6.6351
    8.700    6.7299
    8.730    6.4139
    8.760    6.4771
    8.790    6.4350
    8.820    6.0453
    8.850    5.7925
    8.880    5.8031
    8.910    5.4766
    8.940    5.8241
    8.970    5.3923
    9.000    5.4976
    9.030    5.3397
    9.060    5.1290
    9.090    5.0869
    9.120    5.2027
    9.150    5.2449
    9.180    5.1185
    9.210    5.1395
    9.240    4.9394
    9.270    5.4028
    9.300    5.2133
    9.330    5.4871
    9.360    4.7604
    9.390    4.9289
    9.420    4.6445
    9.450    4.9184
    9.480    4.7604
    9.510    4.7183
    9.540    4.6024
    9.570    4.7709
    9.600    4.8552
    9.630    4.9184
    9.660    4.5814
    9.690    4.9921
    9.720    5.0026
    9.750    4.7815
    9.780    4.9816
    9.810    4.6445
    9.840    4.9816
    9.870    5.3712
    9.900    4.9921
    9.930    4.6867
    9.960    4.7604
    9.990    4.8447
   10.020    4.6972
   10.050    4.6445
   10.080    4.8552
   10.110    5.2870
   10.140    5.0553
   10.170    4.8868
   10.200    4.8131
   10.230    4.9816
   10.260    4.8131
   10.290    5.4028
   10.320    5.1817
   10.350    5.3291
   10.380    5.2975
   10.410    5.1711
   10.440    5.6872
   10.470    5.6767
   10.500    5.3818
   10.530    5.7609
   10.560    5.3607
   10.590    5.4450
   10.620    5.0869
   10.650    5.0448
   10.680    4.9500
   10.710    5.2554
   10.740    4.8763
   10.770    4.7709
   10.800    4.5708
   10.830    4.5708
   10.860    4.7183
   10.890    4.8025
   10.920    4.9605
   10.950    4.6551
   10.980    4.7604
   11.010    4.8868
   11.040    4.7920
   11.070    4.6656
   11.100    4.6024
   11.130    4.7709
   11.160    4.9605
   11.190    4.7709
   11.220    4.7920
   11.250    4.6761
   11.280    4.7920
   11.310    5.2238
   11.340    5.1606
   11.370    4.9078
   11.400    4.9394
   11.430    4.6972
   11.460    5.0553
   11.490    4.8763
   11.520    5.2554
   11.550    4.4866
   11.580    5.5608
   11.610    4.8236
   11.640    5.1711
   11.670    4.7393
   11.700    5.0658
   11.730    4.9289
   11.760    4.9816
   11.790    4.9921
   11.820    4.7288
   11.850    5.0237
   11.880    4.9500
   11.910    5.0764
   11.940    5.1290
   11.970    5.2765
   12.000    5.1185
   12.030    5.1817
   12.060    5.0342
   12.090    4.8868
   12.120    4.8552
   12.150    5.2554
   12.180    5.2343
   12.210    5.2659
   12.240    5.0553
   12.270    5.1922
   12.300    5.5608
   12.330    5.1817
   12.360    5.0553
   12.390    5.1185
   12.420    5.7188
   12.450    5.1185
   12.480    5.7293
   12.510    5.5924
   12.540    5.3712
   12.570    5.3397
   12.600    5.0974
   12.630    5.1817
   12.660    4.9816
   12.690    5.3081
   12.720    5.2975
   12.750    5.0342
   12.780    5.3081
   12.810    5.1080
   12.840    5.2659
   12.870    5.5292
   12.900    5.1080
   12.930    5.0553
   12.960    5.1501
   12.990    5.0026
   13.020    5.3818
   13.050    5.3607
   13.080    5.0342
   13.110    4.8447
   13.140    5.0448
   13.170    5.2238
   13.200    5.2870
   13.230    5.2133
   13.260    5.1711
   13.290    4.8447
   13.320    5.1817
   13.350    4.9078
   13.380    5.2238
   13.410    4.8341
   13.440    5.1922
   13.470    4.8447
   13.500    5.3923
   13.530    4.9289
   13.560    4.9921
   13.590    4.7604
   13.620    4.9921
   13.650    5.0026
   13.680    5.0132
   13.710    4.8236
   13.740    5.1080
   13.770    5.0342
   13.800    4.8447
   13.830    4.7920
   13.860    5.0974
   13.890    4.6024
   13.920    5.1080
   13.950    4.6340
   13.980    4.9289
   14.010    4.8973
   14.040    4.6445
   14.070    5.0974
   14.100    5.3291
   14.130    4.8657
   14.160    4.8552
   14.190    5.0448
   14.220    5.1395
   14.250    4.8763
   14.280    5.0026
   14.310    4.8236
   14.340    4.8657
   14.370    4.7815
   14.400    4.9184
   14.430    4.9184
   14.460    4.6656
   14.490    4.9710
   14.520    4.6340
   14.550    4.6130
   14.580    4.6656
   14.610    4.6551
   14.640    4.5708
   14.670    4.8341
   14.700    4.5919
   14.730    4.6340
   14.760    4.6551
   14.790    4.9605
   14.820    4.6867
   14.850    4.7393
   14.880    4.4550
   14.910    4.7815
   14.940    4.6761
   14.970    4.3602
   15.000    4.8236
   15.030    4.4655
   15.060    5.0026
   15.090    4.8131
   15.120    4.8447
   15.150    4.8447
   15.180    4.8025
   15.210    4.4023
   15.240    4.6867
   15.270    4.3707
   15.300    4.8552
   15.330    4.7077
   15.360    4.4866
   15.390    4.8341
   15.420    4.6445
   15.450    4.9184
   15.480    4.6551
   15.510    4.9921
   15.540    4.7604
   15.570    5.2027
   15.600    4.5919
   15.630    4.5814
   15.660    4.8025
   15.690    4.9816
   15.720    5.0658
   15.750    4.8025
   15.780    4.9184
   15.810    4.5392
   15.840    4.9500
   15.870    4.5182
   15.900    4.7815
   15.930    4.9184
   15.960    4.7499
   15.990    4.7183
   16.020    4.4023
   16.050    4.5814
   16.080    4.9394
   16.110    4.8341
   16.140    4.6551
   16.170    5.1711
   16.200    4.6130
   16.230    4.6235
   16.260    5.2238
   16.290    4.8763
   16.320    4.7183
   16.350    4.6235
   16.380    4.4866
   16.410    4.7709
   16.440    4.6445
   16.470    4.4128
   16.500    4.9394
   16.530    4.9078
   16.560    4.8236
   16.590    4.4339
   16.620    4.6972
   16.650    4.6235
   16.680    4.4971
   16.710    4.6761
   16.740    4.6235
   16.770    4.3602
   16.800    5.2554
   16.830    4.6024
   16.860    4.9394
   16.890    4.8131
   16.920    4.8447
   16.950    4.7393
   16.980    4.5076
   17.010    4.7288
   17.040    4.7920
   17.070    4.6024
   17.100    4.7709
   17.130    4.7183
   17.160    4.5919
   17.190    4.4866
   17.220    4.7709
   17.250    5.0026
   17.280    4.5814
   17.310    4.6235
   17.340    4.5076
   17.370    4.5814
   17.400    4.5919
   17.430    4.8236
   17.460    4.5603
   17.490    4.7183
   17.520    4.8973
   17.550    5.1922
   17.580    4.8552
   17.610    4.7077
   17.640    4.6761
   17.670    4.7499
   17.700    4.7920
   17.730    4.6761
   17.760    4.8973
   17.790    5.0764
   17.820    4.7499
   17.850    4.9710
   17.880    4.4128
   17.910    4.6867
   17.940    4.9500
   17.970    5.0132
   18.000    4.6024
   18.030    4.9816
   18.060    4.5287
   18.090    4.7393
   18.120    4.8763
   18.150    4.7815
   18.180    4.9921
   18.210    4.9078
   18.240    4.7077
   18.270    5.0974
   18.300    4.5814
   18.330    4.9184
   18.360    4.7815
   18.390    4.5708
   18.420    4.8552
   18.450    4.5076
   18.480    5.0869
   18.510    4.7499
   18.540    4.6761
   18.570    4.8131
   18.600    5.0448
   18.630    4.7815
   18.660    4.8868
   18.690    4.7920
   18.720    4.6972
   18.750    4.7393
   18.780    4.6130
   18.810    4.9500
   18.840    4.6340
   18.870    4.7499
   18.900    4.6867
   18.930    4.6340
   18.960    4.3075
   18.990    4.6867
   19.020    4.6445
   19.050    4.6340
   19.080    5.0448
   19.110    4.5603
   19.140    5.0342
   19.170    4.8657
   19.200    4.8657
   19.230    5.2975
   19.260    5.1606
   19.290    4.7077
   19.320    5.3291
   19.350    4.8657
   19.380    5.0553
   19.410    4.9184
   19.440    5.0974
   19.470    5.2975
   19.500    5.0974
   19.530    5.1080
   19.560    4.7077
   19.590    5.4871
   19.620    4.8341
   19.650    5.2343
   19.680    5.1395
   19.710    5.5398
   19.740    5.1922
   19.770    5.2343
   19.800    5.3712
   19.830    5.5398
   19.860    5.4555
   19.890    5.4344
   19.920    5.4450
   19.950    5.3502
   19.980    5.2133
   20.010    5.3291
   20.040    5.4134
   20.070    5.2027
   20.100    5.2765
   20.130    5.4555
   20.160    5.2027
   20.190    5.3081
   20.220    5.5292
   20.250    5.0132
   20.280    5.3818
   20.310    5.0658
   20.340    5.4660
   20.370    4.9289
   20.400    5.1922
   20.430    5.3081
   20.460    5.4239
   20.490    5.4555
   20.520    5.2765
   20.550    5.3397
   20.580    5.2975
   20.610    5.1922
   20.640    5.4976
   20.670    5.2975
   20.700    5.1922
   20.730    5.3607
   20.760    5.4239
   20.790    5.4871
   20.820    5.2870
   20.850    5.3291
   20.880    5.2975
   20.910    5.2659
   20.940    4.9710
   20.970    5.3712
   21.000    5.1711
   21.030    5.4344
   21.060    4.8447
   21.090    5.2238
   21.120    5.4344
   21.150    5.3712
   21.180    5.6029
   21.210    5.3712
   21.240    5.2238
   21.270    5.1606
   21.300    5.0869
   21.330    4.7604
   21.360    5.4976
   21.390    5.1501
   21.420    5.5608
   21.450    5.4871
   21.480    5.0132
   21.510    5.4134
   21.540    4.9289
   21.570    5.2765
   21.600    5.5924
   21.630    5.0869
   21.660    5.3502
   21.690    5.1395
   21.720    5.3502
   21.750    5.1080
   21.780    5.0342
   21.810    4.9500
   21.840    5.5608
   21.870    5.1711
   21.900    5.3607
   21.930    5.3712
   21.960    5.3923
   21.990    5.4134
   22.020    5.4976
   22.050    5.5082
   22.080    5.6029
   22.110    5.3712
   22.140    5.4555
   22.170    5.4555
   22.200    5.2765
   22.230    5.6556
   22.260    5.1817
   22.290    5.2765
   22.320    5.2343
   22.350    5.5503
   22.380    5.3081
   22.410    5.3397
   22.440    4.9921
   22.470    5.5398
   22.500    5.2659
   22.530    5.0869
   22.560    5.4134
   22.590    5.3712
   22.620    5.6135
   22.650    5.4766
   22.680    5.2027
   22.710    5.3186
   22.740    4.9394
   22.770    5.4028
   22.800    5.6767
   22.830    5.5503
   22.860    4.9289
   22.890    5.3291
   22.920    5.4344
   22.950    5.3923
   22.980    5.3081
   23.010    5.4028
   23.040    4.6024
   23.070    5.0448
   23.100    5.4134
   23.130    5.0764
   23.160    5.0658
   23.190    5.2554
   23.220    4.8447
   23.250    5.0237
   23.280    5.0658
   23.310    4.9500
   23.340    5.1395
   23.370    5.6135
   23.400    5.0448
   23.430    4.8868
   23.460    4.7077
   23.490    5.0026
   23.520    5.3923
   23.550    4.8763
   23.580    4.8763
   23.610    5.1185
   23.640    4.8868
   23.670    5.2343
   23.700    5.0974
   23.730    4.8131
   23.760    4.7183
   23.790    4.7288
   23.820    4.8763
   23.850    5.3186
   23.880    4.9816
   23.910    5.1606
   23.940    4.7183
   23.970    5.0132
   24.000    5.1711
   24.030    4.6130
   24.060    4.7709
   24.090    5.1606
   24.120    4.9710
   24.150    5.2659
   24.180    4.8868
   24.210    5.1290
   24.240    4.9816
   24.270    5.0342
   24.300    4.9710
   24.330    5.0553
   24.360    5.0764
   24.390    4.9394
   24.420    4.7920
   24.450    5.2449
   24.480    4.7709
   24.510    4.8341
   24.540    4.9394
   24.570    5.2238
   24.600    4.7604
   24.630    4.8131
   24.660    5.0553
   24.690    5.4239
   24.720    4.9500
   24.750    4.9184
   24.780    4.8131
   24.810    5.0764
   24.840    4.8236
   24.870    4.8763
   24.900    4.7815
   24.930    4.9289
   24.960    5.0237
   24.990    5.3397
   25.020    4.6340
   25.050    4.7077
   25.080    4.8447
   25.110    4.7604
   25.140    4.6551
   25.170    4.8131
   25.200    4.5814
   25.230    4.8868
   25.260    4.4128
   25.290    4.6761
   25.320    4.8025
   25.350    4.6656
   25.380    5.0869
   25.410    4.8025
   25.440    4.1601
   25.470    4.8236
   25.500    4.7604
   25.530    4.9921
   25.560    4.8552
   25.590    4.5919
   25.620    4.7393
   25.650    4.8341
   25.680    4.6656
   25.710    4.4971
   25.740    4.3602
   25.770    4.5498
   25.800    4.5392
   25.830    4.7604
   25.860    4.6761
   25.890    4.3918
   25.920    4.4655
   25.950    4.3075
   25.980    4.5708
   26.010    4.5814
   26.040    4.6130
   26.070    4.4339
   26.100    4.5603
   26.130    4.5392
   26.160    4.4234
   26.190    4.5392
   26.220    4.0864
   26.250    4.3602
   26.280    4.6761
   26.310    4.7499
   26.340    4.7709
   26.370    4.4339
   26.400    4.3497
   26.430    4.3181
   26.460    4.6024
   26.490    4.5919
   26.520    4.5182
   26.550    4.5708
   26.580    4.4339
   26.610    4.4023
   26.640    4.2759
   26.670    4.3181
   26.700    4.3497
   26.730    4.6235
   26.760    4.4023
   26.790    4.4655
   26.820    4.1390
   26.850    4.1601
   26.880    4.3918
   26.910    4.5182
   26.940    4.5708
   26.970    4.5182
   27.000    4.5182
   27.030    4.2233
   27.060    4.5814
   27.090    4.2338
   27.120    4.3075
   27.150    4.3602
   27.180    4.5708
   27.210    4.6867
   27.240    4.4128
   27.270    4.1811
   27.300    4.3391
   27.330    4.4339
   27.360    4.3813
   27.390    4.3918
   27.420    4.5814
   27.450    4.5392
   27.480    4.4655
   27.510    4.5182
   27.540    4.4234
   27.570    4.4971
   27.600    4.1180
   27.630    4.5603
   27.660    4.4866
   27.690    4.6024
   27.720    4.4760
   27.750    4.3391
   27.780    4.6340
   27.810    4.3391
   27.840    4.2338
   27.870    4.3286
   27.900    4.5708
   27.930    4.4655
   27.960    4.3075
   27.990    3.8652
   28.020    4.5076
   28.050    4.2865
   28.080    4.3286
   28.110    4.4023
   28.140    4.5392
   28.170    4.3602
   28.200    4.6761
   28.230    4.2865
   28.260    4.3497
   28.290    4.5498
   28.320    4.7288
   28.350    4.3813
   28.380    4.2654
   28.410    4.6656
   28.440    4.3181
   28.470    4.1180
   28.500    4.5076
   28.530    4.2759
   28.560    4.4655
   28.590    4.1496
   28.620    4.2233
   28.650    4.2970
   28.680    4.1074
   28.710    3.8652
   28.740    4.0653
   28.770    4.6340
   28.800    4.0442
   28.830    4.4550
   28.860    4.2654
   28.890    4.3497
   28.920    4.5287
   28.950    4.3075
   28.980    4.1706
   29.010    3.9494
   29.040    4.1496
   29.070    4.3181
   29.100    4.3075
   29.130    4.2865
   29.160    4.2654
   29.190    4.1917
   29.220    4.2549
   29.250    4.1601
   29.280    3.9284
   29.310    4.3602
   29.340    4.4128
   29.370    4.0548
   29.400    4.1180
   29.430    3.9494
   29.460    4.1180
   29.490    4.2549
   29.520    4.2022
   29.550    4.4234
   29.580    4.0864
   29.610    4.2654
   29.640    4.0548
   29.670    4.0442
   29.700    4.2233
   29.730    4.0442
   29.760    3.9916
   29.790    4.3813
   29.820    4.3181
   29.850    4.1496
   29.880    4.0864
   29.910    4.0548
   29.940    3.9705
   29.970    4.4655
   30.000    3.8863
   30.030    4.0337
   30.060    4.2233
   30.090    4.1811
   30.120    4.0548
   30.150    4.2233
   30.180    4.2022
   30.210    3.9600
   30.240    4.1074
   30.270    4.3075
   30.300    4.3075
   30.330    4.0126
   30.360    4.1706
   30.390    3.9600
   30.420    4.1390
   30.450    4.0337
   30.480    3.9916
   30.510    3.8968
   30.540    4.0442
   30.570    4.1285
   30.600    4.1917
   30.630    4.0864
   30.660    4.1601
   30.690    4.0864
   30.720    3.9810
   30.750    3.9810
   30.780    4.2865
   30.810    3.7915
   30.840    4.1180
   30.870    4.0442
   30.900    4.2233
   30.930    3.9494
   30.960    4.2549
   30.990    3.9600
   31.020    4.1917
   31.050    3.9810
   31.080    3.8968
   31.110    3.9494
   31.140    4.0864
   31.170    4.2022
   31.200    4.0021
   31.230    3.7493
   31.260    4.2338
   31.290    4.5498
   31.320    3.7915
   31.350    3.9810
   31.380    4.0442
   31.410    3.9810
   31.440    3.8757
   31.470    3.9179
   31.500    4.2022
   31.530    3.8863
   31.560    4.1390
   31.590    4.0126
   31.620    3.9810
   31.650    4.0864
   31.680    3.9916
   31.710    3.8757
   31.740    4.1601
   31.770    3.6967
   31.800    4.1390
   31.830    3.7599
   31.860    4.1074
   31.890    4.0969
   31.920    3.8652
   31.950    4.0021
   31.980    4.0021
   32.010    4.1074
   32.040    3.9389
   32.070    3.4334
   32.100    3.6230
   32.130    3.8125
   32.160    4.1706
   32.190    3.8547
   32.220    3.8968
   32.250    3.9705
   32.280    3.6651
   32.310    4.0232
   32.340    4.1390
   32.370    3.8020
   32.400    3.8968
   32.430    3.7599
   32.460    3.8757
   32.490    3.6967
   32.520    3.7493
   32.550    4.0969
   32.580    3.8757
   32.610    3.7072
   32.640    3.6862
   32.670    3.8441
   32.700    4.0021
   32.730    3.7283
   32.760    3.8336
   32.790    3.8125
   32.820    3.9389
   32.850    3.8020
   32.880    3.6124
   32.910    3.7809
   32.940    3.6756
   32.970    4.0758
   33.000    4.2654
   33.030    3.6862
   33.060    3.5703
   33.090    3.7177
   33.120    3.5703
   33.150    3.9389
   33.180    3.7599
   33.210    3.5808
   33.240    3.9494
   33.270    3.7283
   33.300    3.7915
   33.330    3.6019
   33.360    3.6967
   33.390    3.4439
   33.420    3.5703
   33.450    3.7915
   33.480    3.5808
   33.510    3.8547
   33.540    3.5808
   33.570    3.7177
   33.600    3.8441
   33.630    3.6335
   33.660    3.6862
   33.690    3.3913
   33.720    3.5071
   33.750    3.7704
   33.780    3.4439
   33.810    3.6440
   33.840    3.7388
   33.870    3.4860
   33.900    3.7599
   33.930    3.3702
   33.960    3.4860
   33.990    3.5703
   34.020    3.8968
   34.050    3.7283
   34.080    3.4755
   34.110    3.4018
   34.140    3.4755
   34.170    3.5071
   34.200    3.3807
   34.230    3.6862
   34.260    3.5808
   34.290    3.3386
   34.320    3.5176
   34.350    3.8652
   34.380    3.3597
   34.410    3.6651
   34.440    3.4229
   34.470    3.5071
   34.500    3.3913
   34.530    3.5071
   34.560    3.5598
   34.590    3.4123
   34.620    3.3070
   34.650    3.5071
   34.680    3.6124
   34.710    3.7283
   34.740    3.6967
   34.770    3.3175
   34.800    3.4966
   34.830    3.1596
   34.860    3.3807
   34.890    3.3913
   34.920    3.5914
   34.950    3.5071
   34.980    3.2859
   35.010    3.2543
   35.040    3.6124
   35.070    3.6440
   35.100    3.5492
   35.130    3.2649
   35.160    3.5598
   35.190    3.4755
   35.220    3.0964
   35.250    2.8752
   35.280    3.5808
   35.310    3.5598
   35.340    3.7809
   35.370    3.4018
   35.400    3.2859
   35.430    3.6124
   35.460    3.3281
   35.490    3.4860
   35.520    3.6546
   35.550    3.7388
   35.580    3.4439
   35.610    3.4755
   35.640    3.2965
   35.670    3.1701
   35.700    3.2649
   35.730    3.3175
   35.760    3.5387
   35.790    3.3491
   35.820    3.4966
   35.850    3.0542
   35.880    3.2438
   35.910    3.1806
   35.940    3.3491
   35.970    3.4860
   36.000    3.3702
   36.030    3.6019
   36.060    3.2965
   36.090    3.5387
   36.120    3.2122
   36.150    3.6124
   36.180    3.2438
   36.210    3.3913
   36.240    3.2754
   36.270    3.2122
   36.300    3.4650
   36.330    3.3491
   36.360    3.3281
   36.390    3.5492
   36.420    3.1806
   36.450    3.2649
   36.480    3.5808
   36.510    3.4018
   36.540    2.9279
   36.570    3.2122
   36.600    3.0542
   36.630    3.2543
   36.660    3.3913
   36.690    3.0648
   36.720    3.5176
   36.750    2.9279
   36.780    3.2438
   36.810    3.0437
   36.840    3.2227
   36.870    3.0648
   36.900    3.0964
   36.930    2.9595
   36.960    3.3386
   36.990    3.2017
   37.020    3.3597
   37.050    3.2754
   37.080    3.0858
   37.110    2.8647
   37.140    3.1490
   37.170    3.2438
   37.200    3.2965
   37.230    3.3281
   37.260    2.8752
   37.290    3.2227
   37.320    2.9700
   37.350    3.2122
   37.380    2.9068
   37.410    3.2227
   37.440    3.3491
   37.470    3.2649
   37.500    2.9489
   37.530    3.1490
   37.560    3.3597
   37.590    3.2859
   37.620    3.3491
   37.650    3.3913
   37.680    2.9279
   37.710    3.1596
   37.740    3.0964
   37.770    3.4650
   37.800    3.3175
   37.830    3.0226
   37.860    3.2017
   37.890    3.3491
   37.920    3.3175
   37.950    2.8015
   37.980    3.1490
   38.010    3.2122
   38.040    3.0648
   38.070    3.0753
   38.100    3.1806
   38.130    3.1596
   38.160    3.2649
   38.190    3.1385
   38.220    3.0332
   38.250    2.9173
   38.280    3.2017
   38.310    3.2438
   38.340    3.1069
   38.370    3.0858
   38.400    3.3281
   38.430    3.1069
   38.460    3.2965
   38.490    3.1912
   38.520    3.3175
   38.550    3.3070
   38.580    3.1174
   38.610    3.0753
   38.640    3.0437
   38.670    2.9384
   38.700    3.0121
   38.730    3.0858
   38.760    3.0858
   38.790    2.7909
   38.820    3.0542
   38.850    3.3913
   38.880    3.0964
   38.910    3.4334
   38.940    3.1280
   38.970    3.0858
   39.000    3.2122
   39.030    3.2438
   39.060    3.0437
   39.090    3.2227
   39.120    2.8963
   39.150    3.2438
   39.180    3.3281
   39.210    2.8752
   39.240    3.1701
   39.270    3.2122
   39.300    3.2438
   39.330    3.1385
   39.360    2.8963
   39.390    3.1806
   39.420    3.2543
   39.450    3.0437
   39.480    3.1806
   39.510    3.1490
   39.540    3.2754
   39.570    3.2122
   39.600    2.9805
   39.630    3.1912
   39.660    3.0121
   39.690    2.8436
   39.720    3.1701
   39.750    3.1596
   39.780    3.1701
   39.810    3.2859
   39.840    2.9700
   39.870    3.2438
   39.900    2.8541
   39.930    2.9489
   39.960    3.0858
   39.990    3.1806