File: data/MOCOF-1/PXRD/PXRD_KE-054_Cu-Ka1_film-3mm_5s-deg.xyd
    1.500   15.6609
    1.530   15.6187
    1.560   15.3870
    1.590   15.1764
    1.620   14.8920
    1.650   14.8078
    1.680   14.5866
    1.710   14.4602
    1.740   13.9442
    1.770   14.0179
    1.800   13.5650
    1.830   14.1969
    1.860   13.2385
    1.890   13.3649
    1.920   12.8594
    1.950   13.0279
    1.980   12.1432
    2.010   12.3223
    2.040   12.4697
    2.070   12.2170
    2.100   12.3855
    2.130   12.2907
    2.160   11.7957
    2.190   11.5324
    2.220   11.3323
    2.250   11.1532
    2.280   11.1427
    2.310   11.3744
    2.340   11.1216
    2.370   10.8478
    2.400   10.3528
    2.430   10.8478
    2.460   10.4160
    2.490   10.1422
    2.520   10.3739
    2.550   10.0895
    2.580    9.7209
    2.610   10.1527
    2.640    9.9210
    2.670    9.7104
    2.700    9.7420
    2.730    9.6472
    2.760    9.4155
    2.790   10.3844
    2.820    9.5629
    2.850    9.7209
    2.880   10.0790
    2.910    9.0785
    2.940    9.9842
    2.970    9.0995
    3.000    9.1732
    3.030    9.3418
    3.060    9.2575
    3.090    9.4787
    3.120    9.1522
    3.150    9.5735
    3.180    9.9210
    3.210    9.5419
    3.240    9.8262
    3.270   10.0895
    3.300   10.2686
    3.330   11.0479
    3.360   10.7846
    3.390   11.5324
    3.420   11.6377
    3.450   11.6377
    3.480   11.9221
    3.510   12.7962
    3.540   12.6593
    3.570   13.9337
    3.600   13.6282
    3.630   13.5545
    3.660   13.5229
    3.690   13.0490
    3.720   13.5545
    3.750   13.0279
    3.780   11.9221
    3.810   11.7009
    3.840   10.9742
    3.870   10.9321
    3.900   11.0479
    3.930   10.6266
    3.960   10.4687
    3.990    9.9421
    4.020    9.7630
    4.050    9.7104
    4.080    9.3734
    4.110    9.0153
    4.140    9.0890
    4.170    9.1417
    4.200    8.9731
    4.230    9.0679
    4.260    8.6045
    4.290    8.7309
    4.320    8.7836
    4.350    8.2149
    4.380    8.5413
    4.410    8.0674
    4.440    8.6256
    4.470    8.1727
    4.500    8.2991
    4.530    8.0042
    4.560    7.3934
    4.590    8.4360
    4.620    8.3623
    4.650    7.9831
    4.680    7.8568
    4.710    8.1727
    4.740    7.5619
    4.770    7.8568
    4.800    7.7514
    4.830    8.0463
    4.860    7.8462
    4.890    7.9726
    4.920    7.8146
    4.950    8.0358
    4.980    8.1095
    5.010    7.7936
    5.040    8.2675
    5.070    8.2359
    5.100    8.1306
    5.130    8.6151
    5.160    8.5624
    5.190    8.6151
    5.220    8.5940
    5.250    8.6256
    5.280    8.8152
    5.310    8.9310
    5.340    9.0890
    5.370    8.6151
    5.400    8.6783
    5.430    8.9415
    5.460    8.3518
    5.490    9.0995
    5.520    9.5735
    5.550    9.2891
    5.580    9.4576
    5.610    9.2364
    5.640    9.5945
    5.670    9.4787
    5.700    8.9521
    5.730    8.7836
    5.760    8.9415
    5.790    8.1411
    5.820    8.2570
    5.850    8.4781
    5.880    8.2149
    5.910    7.9937
    5.940    7.8568
    5.970    7.6777
    6.000    7.5935
    6.030    7.1827
    6.060    7.2670
    6.090    6.8984
    6.120    6.8352
    6.150    6.8773
    6.180    6.9616
    6.210    6.5298
    6.240    6.6667
    6.270    6.8036
    6.300    6.7088
    6.330    6.7193
    6.360    6.9510
    6.390    6.1295
    6.420    6.3718
    6.450    6.4560
    6.480    6.3296
    6.510    6.0242
    6.540    6.2454
    6.570    5.8978
    6.600    6.1927
    6.630    6.0348
    6.660    5.8978
    6.690    6.1401
    6.720    5.7925
    6.750    6.2243
    6.780    5.8347
    6.810    5.6240
    6.840    6.0874
    6.870    5.7715
    6.900    6.0137
    6.930    5.7083
    6.960    6.1401
    6.990    6.2770
    7.020    5.7293
    7.050    5.8978
    7.080    5.7083
    7.110    5.6135
    7.140    5.8452
    7.170    5.9294
    7.200    5.9189
    7.230    5.5292
    7.260    5.7715
    7.290    5.9084
    7.320    5.6556
    7.350    5.9821
    7.380    5.3923
    7.410    5.1606
    7.440    5.4766
    7.470    5.0974
    7.500    5.2449
    7.530    5.1711
    7.560    5.5608
    7.590    4.9184
    7.620    4.8763
    7.650    5.0974
    7.680    5.0974
    7.710    5.2027
    7.740    5.0237
    7.770    4.8236
    7.800    5.0237
    7.830    4.6340
    7.860    4.8763
    7.890    4.8657
    7.920    4.5498
    7.950    4.2022
    7.980    4.8236
    8.010    4.6445
    8.040    4.9816
    8.070    4.8552
    8.100    4.4128
    8.130    4.6235
    8.160    4.1917
    8.190    4.4866
    8.220    4.1285
    8.250    4.5498
    8.280    4.2443
    8.310    4.0969
    8.340    4.3918
    8.370    4.5603
    8.400    4.3813
    8.430    4.1390
    8.460    4.4655
    8.490    4.2338
    8.520    4.5498
    8.550    4.0126
    8.580    4.3918
    8.610    4.3813
    8.640    4.1917
    8.670    4.0969
    8.700    4.0442
    8.730    4.4866
    8.760    4.5708
    8.790    3.8652
    8.820    3.8757
    8.850    4.1180
    8.880    3.6440
    8.910    3.8020
    8.940    3.9179
    8.970    4.3286
    9.000    3.7072
    9.030    3.8968
    9.060    3.7599
    9.090    3.8652
    9.120    4.1706
    9.150    3.8652
    9.180    4.0021
    9.210    3.7283
    9.240    3.6019
    9.270    3.7283
    9.300    3.5914
    9.330    3.8020
    9.360    3.8757
    9.390    3.6440
    9.420    3.6230
    9.450    3.6862
    9.480    3.7388
    9.510    3.7599
    9.540    3.6862
    9.570    3.7493
    9.600    3.7283
    9.630    3.6862
    9.660    3.7072
    9.690    3.8020
    9.720    3.8441
    9.750    3.9179
    9.780    3.8757
    9.810    3.8547
    9.840    3.6862
    9.870    3.6862
    9.900    3.5598
    9.930    3.6335
    9.960    3.7599
    9.990    3.9073
   10.020    3.8125
   10.050    3.4966
   10.080    3.6967
   10.110    3.6440
   10.140    3.7809
   10.170    3.5387
   10.200    3.6546
   10.230    4.0969
   10.260    3.7704
   10.290    3.6019
   10.320    3.6862
   10.350    4.0126
   10.380    3.8441
   10.410    3.8652
   10.440    3.6124
   10.470    3.5387
   10.500    3.9284
   10.530    3.6862
   10.560    4.0969
   10.590    4.0864
   10.620    3.7809
   10.650    3.8125
   10.680    4.1074
   10.710    4.0758
   10.740    3.9494
   10.770    4.0653
   10.800    3.9284
   10.830    3.8968
   10.860    3.8441
   10.890    3.9916
   10.920    4.1811
   10.950    3.8968
   10.980    4.0337
   11.010    4.0126
   11.040    4.0442
   11.070    3.6967
   11.100    3.9600
   11.130    4.1390
   11.160    4.3286
   11.190    3.8020
   11.220    4.3602
   11.250    4.0548
   11.280    4.0969
   11.310    4.2127
   11.340    3.8231
   11.370    4.0337
   11.400    4.1390
   11.430    3.7915
   11.460    3.7915
   11.490    4.0653
   11.520    3.7072
   11.550    4.0442
   11.580    3.8441
   11.610    3.6651
   11.640    4.0653
   11.670    3.9810
   11.700    3.7388
   11.730    3.8125
   11.760    3.9810
   11.790    3.9600
   11.820    4.0126
   11.850    3.8231
   11.880    3.9389
   11.910    4.0758
   11.940    3.6862
   11.970    3.7283
   12.000    4.1496
   12.030    3.6124
   12.060    3.7493
   12.090    4.0442
   12.120    3.6335
   12.150    3.7704
   12.180    3.6440
   12.210    3.4544
   12.240    3.6862
   12.270    3.9389
   12.300    3.6124
   12.330    3.8441
   12.360    3.7809
   12.390    4.0232
   12.420    3.6019
   12.450    3.6967
   12.480    3.6230
   12.510    3.4860
   12.540    3.9284
   12.570    3.8020
   12.600    3.8336
   12.630    3.5808
   12.660    3.6440
   12.690    3.7177
   12.720    3.7704
   12.750    3.8020
   12.780    4.0548
   12.810    3.6335
   12.840    3.8336
   12.870    3.2965
   12.900    3.6230
   12.930    3.8231
   12.960    3.6440
   12.990    3.4439
   13.020    3.9284
   13.050    3.9810
   13.080    4.1390
   13.110    3.6756
   13.140    4.0653
   13.170    3.9810
   13.200    3.8757
   13.230    3.4966
   13.260    3.5598
   13.290    3.8547
   13.320    3.8020
   13.350    3.6230
   13.380    3.6862
   13.410    3.6019
   13.440    3.8125
   13.470    3.8336
   13.500    3.7177
   13.530    3.6862
   13.560    3.5492
   13.590    3.7599
   13.620    3.8547
   13.650    3.6440
   13.680    3.6124
   13.710    3.7493
   13.740    3.5387
   13.770    3.7177
   13.800    3.6756
   13.830    3.9073
   13.860    3.9600
   13.890    3.3281
   13.920    3.8441
   13.950    3.7493
   13.980    3.9916
   14.010    4.3497
   14.040    4.1496
   14.070    3.8125
   14.100    3.7809
   14.130    3.8547
   14.160    4.3286
   14.190    3.9284
   14.220    3.9705
   14.250    3.9284
   14.280    3.9705
   14.310    3.9916
   14.340    4.2970
   14.370    4.1074
   14.400    4.2127
   14.430    4.0548
   14.460    4.2759
   14.490    4.1917
   14.520    4.3075
   14.550    4.0864
   14.580    4.0653
   14.610    3.9073
   14.640    4.1917
   14.670    3.9389
   14.700    3.8547
   14.730    4.0758
   14.760    4.0232
   14.790    4.1496
   14.820    3.9916
   14.850    4.0758
   14.880    4.0548
   14.910    3.9179
   14.940    3.8757
   14.970    3.9916
   15.000    4.0442
   15.030    3.6335
   15.060    3.5598
   15.090    3.8863
   15.120    3.4018
   15.150    3.5914
   15.180    3.7388
   15.210    3.5914
   15.240    3.7283
   15.270    3.8547
   15.300    3.6967
   15.330    3.7809
   15.360    3.4439
   15.390    3.8968
   15.420    3.5914
   15.450    3.2965
   15.480    3.6862
   15.510    3.3491
   15.540    3.8757
   15.570    3.5914
   15.600    3.8547
   15.630    3.9284
   15.660    3.6967
   15.690    3.9810
   15.720    3.8020
   15.750    3.7177
   15.780    3.6967
   15.810    3.4439
   15.840    3.8231
   15.870    3.6651
   15.900    3.6756
   15.930    3.9916
   15.960    3.7599
   15.990    3.7283
   16.020    3.5492
   16.050    3.6440
   16.080    3.7388
   16.110    3.6546
   16.140    3.8652
   16.170    3.6756
   16.200    3.7072
   16.230    3.9600
   16.260    3.9810
   16.290    3.6756
   16.320    3.4650
   16.350    3.5703
   16.380    3.4860
   16.410    3.6440
   16.440    3.7177
   16.470    3.8968
   16.500    3.7283
   16.530    3.7704
   16.560    3.6967
   16.590    3.8968
   16.620    3.8231
   16.650    3.6230
   16.680    3.8125
   16.710    3.5703
   16.740    3.5808
   16.770    3.7283
   16.800    3.9389
   16.830    3.7915
   16.860    3.7809
   16.890    3.8020
   16.920    3.5492
   16.950    3.6546
   16.980    4.0337
   17.010    3.6124
   17.040    3.5071
   17.070    3.6335
   17.100    3.6862
   17.130    3.5071
   17.160    3.7072
   17.190    3.7072
   17.220    3.6335
   17.250    3.6546
   17.280    3.8125
   17.310    3.6756
   17.340    3.8547
   17.370    3.4229
   17.400    3.3597
   17.430    3.8441
   17.460    3.7072
   17.490    3.6019
   17.520    3.7599
   17.550    3.4229
   17.580    3.4650
   17.610    3.6651
   17.640    3.4755
   17.670    3.7388
   17.700    3.7915
   17.730    3.4123
   17.760    3.8336
   17.790    3.9073
   17.820    3.7915
   17.850    3.6862
   17.880    3.8547
   17.910    3.8336
   17.940    3.8231
   17.970    3.8757
   18.000    3.5071
   18.030    3.8125
   18.060    4.0653
   18.090    3.4439
   18.120    4.0337
   18.150    3.5492
   18.180    3.7915
   18.210    3.7809
   18.240    4.1706
   18.270    3.7388
   18.300    3.6651
   18.330    4.0864
   18.360    3.9389
   18.390    3.6230
   18.420    3.9179
   18.450    3.9284
   18.480    3.5914
   18.510    3.5492
   18.540    4.0021
   18.570    4.1496
   18.600    3.9600
   18.630    3.8652
   18.660    3.8125
   18.690    3.8863
   18.720    3.8652
   18.750    3.7493
   18.780    3.5914
   18.810    3.7177
   18.840    3.9179
   18.870    3.6862
   18.900    3.8020
   18.930    3.8863
   18.960    4.2233
   18.990    4.4339
   19.020    4.7183
   19.050    4.6445
   19.080    4.2338
   19.110    3.4544
   19.140    3.8757
   19.170    3.7283
   19.200    3.8336
   19.230    3.7388
   19.260    3.5598
   19.290    3.6019
   19.320    3.6651
   19.350    3.3597
   19.380    3.7283
   19.410    3.6862
   19.440    3.5808
   19.470    3.6335
   19.500    3.3597
   19.530    3.6756
   19.560    3.5914
   19.590    3.6335
   19.620    3.4650
   19.650    3.5703
   19.680    3.6230
   19.710    3.8336
   19.740    3.2227
   19.770    3.8020
   19.800    3.9916
   19.830    3.6546
   19.860    3.6862
   19.890    3.6440
   19.920    3.7704
   19.950    3.4650
   19.980    3.5598
   20.010    3.6230
   20.040    3.3597
   20.070    3.3702
   20.100    3.4966
   20.130    3.4650
   20.160    3.2965
   20.190    3.5914
   20.220    3.6019
   20.250    3.5492
   20.280    3.7072
   20.310    3.1806
   20.340    3.6019
   20.370    3.7072
   20.400    3.5176
   20.430    3.4650
   20.460    3.6967
   20.490    3.5492
   20.520    3.3702
   20.550    3.2017
   20.580    3.2649
   20.610    3.4018
   20.640    3.4018
   20.670    3.0542
   20.700    3.5492
   20.730    3.5914
   20.760    3.2438
   20.790    3.4334
   20.820    3.4755
   20.850    3.4334
   20.880    3.2017
   20.910    3.2438
   20.940    3.3702
   20.970    3.4439
   21.000    3.3386
   21.030    3.4544
   21.060    3.5703
   21.090    3.8652
   21.120    3.3913
   21.150    3.4544
   21.180    3.6230
   21.210    3.3281
   21.240    3.4229
   21.270    3.2965
   21.300    3.1912
   21.330    3.3070
   21.360    3.4229
   21.390    3.4544
   21.420    3.5598
   21.450    3.2649
   21.480    3.2754
   21.510    3.3491
   21.540    3.4018
   21.570    3.4755
   21.600    3.2333
   21.630    3.3281
   21.660    3.3175
   21.690    3.0016
   21.720    3.1280
   21.750    3.0753
   21.780    3.2649
   21.810    3.2543
   21.840    3.1280
   21.870    3.2965
   21.900    3.5071
   21.930    3.5808
   21.960    3.4123
   21.990    3.4544
   22.020    3.4966
   22.050    3.2649
   22.080    3.4439
   22.110    3.0858
   22.140    3.3807
   22.170    3.3702
   22.200    3.1385
   22.230    3.1069
   22.260    3.0964
   22.290    3.5387
   22.320    3.3491
   22.350    3.2333
   22.380    3.0437
   22.410    3.0542
   22.440    3.1490
   22.470    3.1596
   22.500    2.9805
   22.530    3.2227
   22.560    3.1385
   22.590    3.2122
   22.620    3.1069
   22.650    3.0858
   22.680    3.0964
   22.710    3.0437
   22.740    3.1280
   22.770    3.1174
   22.800    3.1280
   22.830    3.0121
   22.860    2.9910
   22.890    3.0753
   22.920    3.0753
   22.950    3.3386
   22.980    3.0858
   23.010    3.1385
   23.040    3.1806
   23.070    3.0964
   23.100    3.4334
   23.130    3.3913
   23.160    3.0648
   23.190    3.2965
   23.220    3.0542
   23.250    2.8963
   23.280    3.0121
   23.310    3.0964
   23.340    3.0437
   23.370    3.1701
   23.400    2.8857
   23.430    3.1701
   23.460    2.8225
   23.490    2.6119
   23.520    3.1385
   23.550    2.8752
   23.580    3.0753
   23.610    3.2859
   23.640    3.0121
   23.670    3.1069
   23.700    2.7699
   23.730    2.8331
   23.760    2.6962
   23.790    2.6014
   23.820    2.9489
   23.850    2.8015
   23.880    2.8647
   23.910    2.8331
   23.940    2.8120
   23.970    2.6330
   24.000    2.9910
   24.030    2.6540
   24.060    2.7593
   24.090    2.7067
   24.120    2.6856
   24.150    2.6962
   24.180    2.9068
   24.210    2.8857
   24.240    2.7909
   24.270    2.9489
   24.300    2.8331
   24.330    2.8120
   24.360    2.7488
   24.390    2.5908
   24.420    2.6435
   24.450    2.5803
   24.480    2.6856
   24.510    3.0121
   24.540    3.0437
   24.570    2.3697
   24.600    2.6540
   24.630    2.7067
   24.660    2.6751
   24.690    2.9700
   24.720    2.7593
   24.750    2.5908
   24.780    2.7699
   24.810    2.3907
   24.840    2.6962
   24.870    2.6751
   24.900    3.0332
   24.930    2.4539
   24.960    2.5276
   24.990    2.5698
   25.020    2.5803
   25.050    2.2328
   25.080    2.4961
   25.110    2.7067
   25.140    2.3170
   25.170    2.8331
   25.200    2.5487
   25.230    2.6014
   25.260    2.6751
   25.290    2.6014
   25.320    2.4013
   25.350    2.4645
   25.380    2.4750
   25.410    2.5803
   25.440    2.8120
   25.470    2.5487
   25.500    2.8331
   25.530    2.7804
   25.560    2.7383
   25.590    2.8647
   25.620    2.8120
   25.650    2.4855
   25.680    2.4223
   25.710    2.6119
   25.740    2.6224
   25.770    2.5487
   25.800    2.6435
   25.830    2.6646
   25.860    2.4961
   25.890    2.5171
   25.920    2.6224
   25.950    2.3065
   25.980    2.6646
   26.010    2.5171
   26.040    2.6119
   26.070    2.2854
   26.100    2.3486
   26.130    2.5908
   26.160    2.5382
   26.190    2.3591
   26.220    2.4223
   26.250    2.3697
   26.280    2.3697
   26.310    2.5276
   26.340    2.3275
   26.370    2.4539
   26.400    2.2433
   26.430    2.2538
   26.460    2.3381
   26.490    2.2117
   26.520    2.4539
   26.550    2.2117
   26.580    2.4223
   26.610    2.3486
   26.640    2.4750
   26.670    2.2012
   26.700    2.2433
   26.730    2.1064
   26.760    2.2854
   26.790    2.1169
   26.820    2.6014
   26.850    2.0642
   26.880    2.4013
   26.910    2.3170
   26.940    2.2222
   26.970    2.3486
   27.000    2.2959
   27.030    2.3170
   27.060    2.3170
   27.090    2.0011
   27.120    2.1274
   27.150    2.2854
   27.180    2.0642
   27.210    2.1169
   27.240    2.2538
   27.270    2.1485
   27.300    2.1485
   27.330    2.1169
   27.360    2.3170
   27.390    2.2433
   27.420    2.0853
   27.450    1.7588
   27.480    2.1906
   27.510    2.1485
   27.540    1.8957
   27.570    2.0116
   27.600    2.0537
   27.630    2.0853
   27.660    2.0326
   27.690    2.1485
   27.720    2.0432
   27.750    1.9484
   27.780    2.1380
   27.810    2.0432
   27.840    1.8852
   27.870    1.7483
   27.900    1.8957
   27.930    1.9695
   27.960    2.3907
   27.990    2.7172
   28.020    2.4645
   28.050    2.6856
   28.080    2.2538
   28.110    2.2117
   28.140    2.1380
   28.170    2.0116
   28.200    1.9905
   28.230    2.0432
   28.260    1.8431
   28.290    2.0537
   28.320    1.8641
   28.350    2.2328
   28.380    1.9273
   28.410    1.9589
   28.440    2.1274
   28.470    2.0642
   28.500    1.8536
   28.530    1.9695
   28.560    2.1801
   28.590    1.8747
   28.620    2.0011
   28.650    1.9273
   28.680    1.9273
   28.710    2.0221
   28.740    1.9484
   28.770    1.9379
   28.800    2.1590
   28.830    1.8641
   28.860    1.9273
   28.890    2.1380
   28.920    1.9695
   28.950    2.4329
   28.980    2.8963
   29.010    2.6014
   29.040    2.3697
   29.070    2.1485
   29.100    2.0116
   29.130    1.8009
   29.160    2.0748
   29.190    2.1380
   29.220    1.8852
   29.250    2.1906
   29.280    1.7904
   29.310    1.9168
   29.340    1.8641
   29.370    1.6219
   29.400    1.8009
   29.430    1.8431
   29.460    1.8747
   29.490    1.8220
   29.520    1.9379
   29.550    1.8009
   29.580    1.8325
   29.610    1.6535
   29.640    1.7588
   29.670    1.7799
   29.700    1.9484
   29.730    1.6746
   29.760    1.7378
   29.790    1.5692
   29.820    1.4534
   29.850    1.5798
   29.880    1.7588
   29.910    1.8115
   29.940    1.8220
   29.970    1.4639
   30.000    1.5798
   30.030    1.8009
   30.060    1.6324
   30.090    1.6114
   30.120    1.6324
   30.150    1.7904
   30.180    1.6219
   30.210    1.5482
   30.240    1.8852
   30.270    1.5271
   30.300    1.7694
   30.330    1.9589
   30.360    1.5692
   30.390    1.7167
   30.420    1.6956
   30.450    1.7588
   30.480    1.7167
   30.510    1.6114
   30.540    1.6956
   30.570    1.5482
   30.600    1.7483
   30.630    1.6430
   30.660    1.4850
   30.690    1.5692
   30.720    1.5166
   30.750    1.6851
   30.780    1.6851
   30.810    1.5903
   30.840    1.5482
   30.870    1.4955
   30.900    1.4850
   30.930    1.5271
   30.960    1.4113
   30.990    1.6430
   31.020    1.3691
   31.050    1.6219
   31.080    1.5061
   31.110    1.6430
   31.140    1.4429
   31.170    1.3902
   31.200    1.3586
   31.230    1.2954
   31.260    1.4323
   31.290    1.6008
   31.320    1.3060
   31.350    1.4429
   31.380    1.4007
   31.410    1.3902
   31.440    1.4323
   31.470    1.2849
   31.500    1.3797
   31.530    1.6008
   31.560    1.2638
   31.590    1.4955
   31.620    1.6008
   31.650    1.4218
   31.680    1.5482
   31.710    1.5271
   31.740    1.6324
   31.770    1.6008
   31.800    1.7167
   31.830    1.8220
   31.860    1.7694
   31.890    1.4745
   31.920    1.7272
   31.950    1.4850
   31.980    1.5903
   32.010    1.6008
   32.040    1.8536
   32.070    2.1274
   32.100    2.8647
   32.130    2.8331
   32.160    2.4118
   32.190    1.9168
   32.220    1.6324
   32.250    1.3691
   32.280    1.6008
   32.310    1.5061
   32.340    1.4429
   32.370    1.3586
   32.400    1.3586
   32.430    1.3586
   32.460    1.3481
   32.490    1.2217
   32.520    1.2954
   32.550    1.3481
   32.580    1.4113
   32.610    1.0742
   32.640    1.3797
   32.670    1.3270
   32.700    1.2849
   32.730    1.4007
   32.760    1.1690
   32.790    1.2533
   32.820    1.3586
   32.850    1.4007
   32.880    1.3375
   32.910    1.3060
   32.940    1.3481
   32.970    1.4323
   33.000    1.3165
   33.030    1.2533
   33.060    1.2217
   33.090    1.2006
   33.120    1.4534
   33.150    1.3375
   33.180    1.2322
   33.210    1.2112
   33.240    1.2533
   33.270    1.3375
   33.300    1.2638
   33.330    1.4323
   33.360    1.3165
   33.390    1.3691
   33.420    1.2006
   33.450    1.2217
   33.480    1.2849
   33.510    1.3060
   33.540    1.2744
   33.570    1.2322
   33.600    1.2217
   33.630    1.2849
   33.660    1.0637
   33.690    1.4429
   33.720    1.3586
   33.750    1.3691
   33.780    1.6746
   33.810    1.8431
   33.840    2.1485
   33.870    1.6114
   33.900    1.6324
   33.930    1.2217
   33.960    1.6008
   33.990    1.3165
   34.020    1.1901
   34.050    1.2954
   34.080    1.2112
   34.110    1.3060
   34.140    1.1901
   34.170    1.2322
   34.200    1.1585
   34.230    1.3375
   34.260    1.1164
   34.290    1.1796
   34.320    1.2533
   34.350    1.2849
   34.380    1.3375
   34.410    1.0742
   34.440    1.2112
   34.470    1.1164
   34.500    1.1374
   34.530    1.2428
   34.560    1.0742
   34.590    1.0532
   34.620    1.2428
   34.650    1.1796
   34.680    1.3165
   34.710    1.0216
   34.740    1.1269
   34.770    1.2744
   34.800    1.1269
   34.830    1.2112
   34.860    1.1480
   34.890    1.2217
   34.920    1.2744
   34.950    1.2112
   34.980    1.3902
   35.010    1.2954
   35.040    1.2533
   35.070    1.1058
   35.100    1.0953
   35.130    1.2533
   35.160    1.2428
   35.190    1.2638
   35.220    1.1690
   35.250    1.0427
   35.280    1.0742
   35.310    1.1374
   35.340    1.1164
   35.370    1.1058
   35.400    1.3165
   35.430    1.0532
   35.460    1.3375
   35.490    1.1058
   35.520    1.1058
   35.550    1.2428
   35.580    1.1690
   35.610    1.0111
   35.640    1.1480
   35.670    1.1058
   35.700    1.2638
   35.730    1.2744
   35.760    1.2322
   35.790    1.1269
   35.820    1.1480
   35.850    1.2217
   35.880    1.2112
   35.910    1.2744
   35.940    1.1690
   35.970    1.2849
   36.000    1.2533
   36.030    1.1374
   36.060    1.1058
   36.090    0.9163
   36.120    1.0005
   36.150    1.1480
   36.180    1.1901
   36.210    1.0848
   36.240    1.1585
   36.270    1.2638
   36.300    1.1269
   36.330    1.2322
   36.360    1.1374
   36.390    1.3586
   36.420    1.0742
   36.450    1.2849
   36.480    1.0742
   36.510    1.0321
   36.540    1.0005
   36.570    1.1796
   36.600    1.2322
   36.630    1.0427
   36.660    1.1164
   36.690    1.1690
   36.720    1.0532
   36.750    1.2954
   36.780    1.2006
   36.810    1.1690
   36.840    1.2638
   36.870    1.0111
   36.900    1.0532
   36.930    1.1585
   36.960    1.2112
   36.990    1.2322
   37.020    1.0742
   37.050    1.0637
   37.080    1.2638
   37.110    1.1058
   37.140    1.1796
   37.170    1.0321
   37.200    1.0321
   37.230    1.1690
   37.260    1.0321
   37.290    0.8847
   37.320    1.1480
   37.350    0.9479
   37.380    1.2638
   37.410    1.0742
   37.440    1.1480
   37.470    1.1164
   37.500    1.0427
   37.530    1.1058
   37.560    1.1690
   37.590    1.0532
   37.620    1.0216
   37.650    0.9689
   37.680    1.0321
   37.710    1.2006
   37.740    1.1796
   37.770    1.0848
   37.800    1.1269
   37.830    1.0848
   37.860    1.1164
   37.890    1.0742
   37.920    1.0321
   37.950    1.2112
   37.980    1.0742
   38.010    1.0111
   38.040    1.0532
   38.070    1.0848
   38.100    1.0321
   38.130    0.9268
   38.160    1.1374
   38.190    1.0742
   38.220    1.2217
   38.250    1.1796
   38.280    1.0005
   38.310    1.0427
   38.340    1.0848
   38.370    1.1585
   38.400    1.2744
   38.430    1.1690
   38.460    1.0111
   38.490    1.1374
   38.520    1.0005
   38.550    1.1796
   38.580    1.4955
   38.610    1.3691
   38.640    1.2954
   38.670    1.2744
   38.700    1.1901
   38.730    1.0111
   38.760    1.0532
   38.790    1.0742
   38.820    1.1690
   38.850    1.0111
   38.880    1.0953
   38.910    1.0216
   38.940    1.0111
   38.970    1.2112
   39.000    1.1585
   39.030    1.0848
   39.060    0.9373
   39.090    0.8952
   39.120    1.0111
   39.150    1.1796
   39.180    1.0637
   39.210    1.0321
   39.240    0.9584
   39.270    0.9795
   39.300    0.9057
   39.330    0.8531
   39.360    1.1164
   39.390    1.2006
   39.420    1.1058
   39.450    0.9900
   39.480    0.9900
   39.510    1.0953
   39.540    0.8847
   39.570    1.1480
   39.600    1.1058
   39.630    0.9900
   39.660    1.0216
   39.690    1.0005
   39.720    1.0953
   39.750    1.0111
   39.780    1.0427
   39.810    1.1480
   39.840    1.1796
   39.870    1.0111
   39.900    0.9057
   39.930    1.0637
   39.960    1.0005
   39.990    0.9689