File: data/MOCOF-1/PXRD/PXRD_KE-267_Cu-Ka1_film-3mm_3s-deg.xyd
    1.500   15.5345
    1.530   15.3941
    1.560   14.1302
    1.590   14.8148
    1.620   14.4286
    1.650   13.5861
    1.680   14.0600
    1.710   13.1473
    1.740   12.8664
    1.770   13.4457
    1.800   12.3047
    1.830   12.7260
    1.860   12.3398
    1.890   12.2170
    1.920   11.7606
    1.950   11.9186
    1.980   12.0941
    2.010   10.9707
    2.040   10.8829
    2.070   10.9531
    2.100   10.8478
    2.130   11.0936
    2.160   10.5670
    2.190   10.5319
    2.220   10.2159
    2.250   10.1281
    2.280   10.6196
    2.310   10.4616
    2.340    9.8473
    2.370   10.4968
    2.400    9.8122
    2.430    9.8648
    2.460   10.0930
    2.490    9.3909
    2.520    9.3207
    2.550    8.5308
    2.580    9.2329
    2.610    9.2505
    2.640    8.7941
    2.670    9.2856
    2.700    9.7595
    2.730    9.2680
    2.760    9.6542
    2.790    9.6893
    2.820    9.5313
    2.850    9.1452
    2.880    9.3031
    2.910    9.7595
    2.940    9.5313
    2.970    9.6191
    3.000    9.5313
    3.030    9.6191
    3.060    9.6191
    3.090    9.6542
    3.120   10.1457
    3.150   10.0404
    3.180    9.7420
    3.210   10.8654
    3.240   11.5324
    3.270   11.7430
    3.300   11.9888
    3.330   12.2345
    3.360   12.8664
    3.390   14.2005
    3.420   14.9377
    3.450   15.0079
    3.480   14.5691
    3.510   13.9021
    3.540   12.3398
    3.570   12.7435
    3.600   11.9010
    3.630   12.7962
    3.660   12.4978
    3.690   12.4803
    3.720   13.9021
    3.750   14.4462
    3.780   15.3414
    3.810   18.9047
    3.840   22.4680
    3.870   21.7483
    3.900   16.5701
    3.930   11.9712
    3.960   11.0936
    3.990   10.2159
    4.020    9.8999
    4.050   10.0579
    4.080   10.1983
    4.110   10.1457
    4.140   10.9356
    4.170   11.2866
    4.200   10.8127
    4.230    9.7771
    4.260   10.4441
    4.290   10.3212
    4.320    9.7069
    4.350    9.8473
    4.380    9.9526
    4.410    9.5489
    4.440    8.8117
    4.470    8.9345
    4.500    8.9521
    4.530    8.8292
    4.560    9.1101
    4.590    9.1452
    4.620    9.0223
    4.650    8.5308
    4.680    8.3728
    4.710    8.7941
    4.740    8.5484
    4.770    8.6888
    4.800    9.2329
    4.830    8.8117
    4.860    9.3031
    4.890    9.3734
    4.920    8.7590
    4.950    8.6712
    4.980    8.9345
    5.010    9.6718
    5.040    9.3207
    5.070    9.2505
    5.100    9.6542
    5.130    9.6015
    5.160   10.0228
    5.190   10.3388
    5.220   10.2861
    5.250   10.1983
    5.280   10.3212
    5.310   10.7249
    5.340   10.6723
    5.370   11.3042
    5.400   11.6026
    5.430   11.5499
    5.460   12.9366
    5.490   12.9542
    5.520   12.6031
    5.550   11.9712
    5.580   10.8654
    5.610   11.3042
    5.640   10.8127
    5.670   10.4968
    5.700   10.7952
    5.730   10.2510
    5.760   10.9531
    5.790   10.4792
    5.820    9.8297
    5.850    9.2680
    5.880    9.8473
    5.910    9.5313
    5.940    9.2680
    5.970    8.9872
    6.000    9.5138
    6.030    9.1978
    6.060    8.8292
    6.090    8.4255
    6.120    7.7409
    6.150    8.4255
    6.180    8.3026
    6.210    8.6010
    6.240    8.7941
    6.270    8.6537
    6.300    8.7414
    6.330    8.2675
    6.360    8.2675
    6.390    7.5654
    6.420    7.9516
    6.450    7.6532
    6.480    7.9867
    6.510    7.4250
    6.540    8.2149
    6.570    7.7760
    6.600    7.4952
    6.630    8.7414
    6.660    7.5654
    6.690    8.2500
    6.720    7.9867
    6.750    8.0744
    6.780    8.0569
    6.810    8.3202
    6.840    8.0393
    6.870    7.7760
    6.900    8.0920
    6.930    7.3372
    6.960    7.8989
    6.990    7.5127
    7.020    7.7760
    7.050    7.2319
    7.080    7.1792
    7.110    7.1617
    7.140    7.2670
    7.170    7.0212
    7.200    6.8808
    7.230    7.7058
    7.260    6.6877
    7.290    6.7755
    7.320    6.9335
    7.350    7.1617
    7.380    6.4595
    7.410    7.2143
    7.440    6.5824
    7.470    6.5649
    7.500    6.2313
    7.530    6.9159
    7.560    6.6526
    7.590    6.9861
    7.620    6.3191
    7.650    6.4946
    7.680    6.3016
    7.710    6.4595
    7.740    6.8984
    7.770    6.4771
    7.800    6.6351
    7.830    6.7404
    7.860    6.3367
    7.890    6.3191
    7.920    6.4420
    7.950    6.3542
    7.980    6.9861
    8.010    6.7228
    8.040    6.2138
    8.070    6.4244
    8.100    5.7399
    8.130    6.5122
    8.160    6.4244
    8.190    5.7925
    8.220    6.1611
    8.250    6.1436
    8.280    6.3367
    8.310    5.8627
    8.340    5.9681
    8.370    5.9329
    8.400    5.9329
    8.430    6.2138
    8.460    6.1085
    8.490    5.8627
    8.520    6.3191
    8.550    5.7048
    8.580    6.3191
    8.610    6.2138
    8.640    5.8803
    8.670    6.0383
    8.700    5.7750
    8.730    6.3191
    8.760    5.5468
    8.790    6.2489
    8.820    5.4415
    8.850    5.8452
    8.880    5.6345
    8.910    5.7750
    8.940    5.9505
    8.970    6.1436
    9.000    5.5994
    9.030    5.6697
    9.060    5.8276
    9.090    5.4941
    9.120    5.4415
    9.150    6.0734
    9.180    5.5994
    9.210    5.8452
    9.240    5.8276
    9.270    5.7223
    9.300    5.4766
    9.330    5.8101
    9.360    6.0207
    9.390    5.6170
    9.420    5.9154
    9.450    6.5122
    9.480    6.3542
    9.510    6.3542
    9.540    5.9681
    9.570    6.3718
    9.600    6.0734
    9.630    6.1962
    9.660    6.0558
    9.690    5.8803
    9.720    5.2659
    9.750    5.8803
    9.780    5.7574
    9.810    6.0734
    9.840    5.5468
    9.870    5.8276
    9.900    6.0558
    9.930    5.1957
    9.960    5.3537
    9.990    5.7223
   10.020    5.3010
   10.050    5.8627
   10.080    5.8101
   10.110    5.5468
   10.140    5.4415
   10.170    6.0207
   10.200    6.0558
   10.230    6.1787
   10.260    6.4244
   10.290    5.8452
   10.320    6.3367
   10.350    6.7579
   10.380    6.5122
   10.410    5.4941
   10.440    5.6872
   10.470    5.6521
   10.500    6.3016
   10.530    5.7925
   10.560    5.5117
   10.590    6.2665
   10.620    5.9329
   10.650    6.0558
   10.680    5.8452
   10.710    6.0909
   10.740    5.9329
   10.770    5.9681
   10.800    6.0734
   10.830    5.9681
   10.860    5.6521
   10.890    5.7223
   10.920    5.8101
   10.950    6.5649
   10.980    6.6526
   11.010    6.3893
   11.040    6.5473
   11.070    6.6000
   11.100    6.0383
   11.130    5.5117
   11.160    6.0032
   11.190    5.8803
   11.220    6.0909
   11.250    6.0032
   11.280    5.9329
   11.310    6.0734
   11.340    6.4244
   11.370    5.8452
   11.400    5.8276
   11.430    5.8978
   11.460    5.8978
   11.490    6.0383
   11.520    5.4590
   11.550    6.1085
   11.580    5.7925
   11.610    6.0383
   11.640    6.3893
   11.670    6.2489
   11.700    6.1085
   11.730    6.5473
   11.760    6.7228
   11.790    6.1260
   11.820    5.8627
   11.850    5.8101
   11.880    5.9329
   11.910    5.9856
   11.940    5.5292
   11.970    5.3361
   12.000    6.0734
   12.030    5.3010
   12.060    5.1782
   12.090    5.8452
   12.120    6.1962
   12.150    5.7223
   12.180    5.5292
   12.210    5.7925
   12.240    5.1431
   12.270    5.2659
   12.300    6.3016
   12.330    5.9681
   12.360    6.0383
   12.390    5.4941
   12.420    5.2659
   12.450    4.9851
   12.480    4.8622
   12.510    5.5643
   12.540    5.6872
   12.570    5.2308
   12.600    5.2835
   12.630    5.4590
   12.660    5.6521
   12.690    5.7048
   12.720    5.4239
   12.750    5.7223
   12.780    5.1431
   12.810    5.4064
   12.840    5.9154
   12.870    5.4415
   12.900    5.9681
   12.930    6.0909
   12.960    5.9681
   12.990    6.5298
   13.020    5.9856
   13.050    5.4239
   13.080    5.8978
   13.110    5.2835
   13.140    4.7042
   13.170    5.4064
   13.200    5.3712
   13.230    5.5117
   13.260    5.0553
   13.290    4.5814
   13.320    5.2308
   13.350    5.3888
   13.380    5.4766
   13.410    5.6170
   13.440    6.0558
   13.470    5.2308
   13.500    5.4590
   13.530    5.8627
   13.560    5.5117
   13.590    5.4766
   13.620    5.5819
   13.650    5.7223
   13.680    5.0553
   13.710    5.4064
   13.740    5.0026
   13.770    5.4239
   13.800    5.5292
   13.830    5.4415
   13.860    5.5468
   13.890    5.2835
   13.920    5.8101
   13.950    5.5819
   13.980    4.9500
   14.010    6.0207
   14.040    5.5643
   14.070    6.2313
   14.100    5.9505
   14.130    5.6345
   14.160    5.6697
   14.190    5.9681
   14.220    6.3016
   14.250    6.2665
   14.280    5.8627
   14.310    5.8101
   14.340    5.4239
   14.370    6.0734
   14.400    6.1436
   14.430    5.8803
   14.460    5.7399
   14.490    5.5468
   14.520    5.5292
   14.550    5.7574
   14.580    6.2313
   14.610    6.0032
   14.640    5.6345
   14.670    6.0207
   14.700    5.8978
   14.730    5.7399
   14.760    6.1611
   14.790    5.5292
   14.820    5.8978
   14.850    5.7574
   14.880    6.0207
   14.910    5.5994
   14.940    5.7750
   14.970    5.8627
   15.000    5.5643
   15.030    5.9154
   15.060    5.5994
   15.090    5.7223
   15.120    5.2659
   15.150    5.7399
   15.180    5.2133
   15.210    5.3010
   15.240    5.3888
   15.270    5.0377
   15.300    5.5292
   15.330    5.1957
   15.360    5.1431
   15.390    5.2133
   15.420    5.3712
   15.450    5.4415
   15.480    5.2308
   15.510    5.2484
   15.540    5.0202
   15.570    5.2133
   15.600    5.7399
   15.630    5.2484
   15.660    5.2308
   15.690    5.0728
   15.720    5.1782
   15.750    4.9851
   15.780    5.2308
   15.810    5.6521
   15.840    5.1782
   15.870    5.6170
   15.900    5.5117
   15.930    5.4590
   15.960    5.3888
   15.990    5.9329
   16.020    5.3537
   16.050    5.0026
   16.080    5.2308
   16.110    5.4064
   16.140    5.3712
   16.170    5.6521
   16.200    5.3537
   16.230    5.2659
   16.260    4.8271
   16.290    5.7750
   16.320    5.3010
   16.350    4.9324
   16.380    5.7750
   16.410    5.5994
   16.440    5.0026
   16.470    5.2659
   16.500    5.4590
   16.530    5.6697
   16.560    5.2484
   16.590    5.9856
   16.620    5.5819
   16.650    5.3712
   16.680    5.5994
   16.710    5.4239
   16.740    5.5292
   16.770    5.3186
   16.800    5.4239
   16.830    5.1255
   16.860    5.2484
   16.890    5.0026
   16.920    5.6170
   16.950    5.3712
   16.980    5.2133
   17.010    5.4590
   17.040    5.6697
   17.070    5.9154
   17.100    5.5994
   17.130    5.1957
   17.160    6.0383
   17.190    5.0026
   17.220    5.5117
   17.250    5.3888
   17.280    5.5819
   17.310    5.4239
   17.340    5.3712
   17.370    5.2308
   17.400    5.3537
   17.430    5.1080
   17.460    5.6170
   17.490    5.2835
   17.520    5.7399
   17.550    5.5292
   17.580    5.2484
   17.610    4.9149
   17.640    5.1080
   17.670    5.1606
   17.700    5.5994
   17.730    5.3010
   17.760    4.9851
   17.790    5.2133
   17.820    5.2308
   17.850    5.4064
   17.880    5.5468
   17.910    5.3361
   17.940    5.3361
   17.970    5.2308
   18.000    4.8271
   18.030    5.2133
   18.060    5.6345
   18.090    5.4941
   18.120    5.2835
   18.150    5.0202
   18.180    4.9500
   18.210    5.4239
   18.240    5.3010
   18.270    5.4941
   18.300    5.5819
   18.330    5.3888
   18.360    5.0202
   18.390    5.5292
   18.420    5.1080
   18.450    5.5643
   18.480    5.4590
   18.510    5.3010
   18.540    4.9851
   18.570    5.3361
   18.600    5.6170
   18.630    5.2308
   18.660    5.0553
   18.690    5.0202
   18.720    5.3010
   18.750    5.4590
   18.780    5.1255
   18.810    5.0202
   18.840    5.3361
   18.870    5.2659
   18.900    5.3361
   18.930    5.3010
   18.960    4.9500
   18.990    5.4941
   19.020    5.0202
   19.050    4.8798
   19.080    4.9500
   19.110    5.3361
   19.140    5.3888
   19.170    5.0728
   19.200    5.0553
   19.230    5.2484
   19.260    5.0377
   19.290    5.3361
   19.320    5.1431
   19.350    5.2835
   19.380    5.0377
   19.410    5.2484
   19.440    5.0026
   19.470    5.2835
   19.500    5.2133
   19.530    4.7393
   19.560    5.2133
   19.590    5.5643
   19.620    5.3888
   19.650    5.1782
   19.680    5.4766
   19.710    4.8271
   19.740    4.8622
   19.770    5.3361
   19.800    4.8798
   19.830    4.9324
   19.860    4.6691
   19.890    4.8798
   19.920    5.1431
   19.950    5.1255
   19.980    4.8095
   20.010    4.7569
   20.040    5.4064
   20.070    4.7218
   20.100    5.0728
   20.130    5.1431
   20.160    4.8271
   20.190    4.9675
   20.220    4.6867
   20.250    4.6691
   20.280    4.9149
   20.310    5.0904
   20.340    5.1606
   20.370    5.3537
   20.400    4.8271
   20.430    4.9324
   20.460    4.9500
   20.490    5.2835
   20.520    4.6340
   20.550    4.9149
   20.580    4.8095
   20.610    5.3537
   20.640    4.6691
   20.670    4.5463
   20.700    5.1080
   20.730    4.7218
   20.760    5.1431
   20.790    4.9149
   20.820    5.2308
   20.850    4.9149
   20.880    5.0553
   20.910    5.0904
   20.940    4.7218
   20.970    4.9149
   21.000    4.8622
   21.030    4.4585
   21.060    4.8271
   21.090    4.7569
   21.120    5.3361
   21.150    4.7920
   21.180    4.8447
   21.210    4.7920
   21.240    5.2308
   21.270    5.0904
   21.300    5.1606
   21.330    4.8622
   21.360    4.8095
   21.390    4.8095
   21.420    4.7920
   21.450    4.7744
   21.480    5.3010
   21.510    5.0377
   21.540    5.0904
   21.570    4.8622
   21.600    5.0377
   21.630    4.7042
   21.660    5.0904
   21.690    4.8973
   21.720    4.6691
   21.750    4.9675
   21.780    5.2659
   21.810    5.1080
   21.840    5.5819
   21.870    4.7042
   21.900    5.0904
   21.930    4.5287
   21.960    4.5989
   21.990    4.7042
   22.020    4.7218
   22.050    5.0553
   22.080    5.1606
   22.110    5.4941
   22.140    4.9149
   22.170    4.9500
   22.200    4.9675
   22.230    5.1782
   22.260    5.1782
   22.290    4.6516
   22.320    4.7569
   22.350    4.8973
   22.380    4.8447
   22.410    4.8095
   22.440    5.1431
   22.470    4.7218
   22.500    5.0904
   22.530    5.1782
   22.560    4.7744
   22.590    5.1255
   22.620    4.5989
   22.650    4.6340
   22.680    4.4409
   22.710    4.5463
   22.740    4.7569
   22.770    4.4234
   22.800    4.5287
   22.830    4.7920
   22.860    5.0728
   22.890    4.8095
   22.920    4.9851
   22.950    5.2835
   22.980    5.2484
   23.010    4.6691
   23.040    4.7042
   23.070    4.4058
   23.100    4.5638
   23.130    4.4585
   23.160    4.6516
   23.190    5.0553
   23.220    4.1074
   23.250    4.3181
   23.280    4.5989
   23.310    4.5463
   23.340    4.5989
   23.370    4.6165
   23.400    4.5989
   23.430    4.4585
   23.460    4.3005
   23.490    4.5287
   23.520    4.4936
   23.550    4.4409
   23.580    4.5638
   23.610    4.9675
   23.640    4.6340
   23.670    4.6691
   23.700    4.3532
   23.730    4.3532
   23.760    4.4058
   23.790    4.4058
   23.820    4.4760
   23.850    4.2303
   23.880    4.3532
   23.910    4.4936
   23.940    4.0021
   23.970    4.0723
   24.000    4.5638
   24.030    4.2830
   24.060    4.5111
   24.090    4.0899
   24.120    4.1601
   24.150    4.1601
   24.180    4.7569
   24.210    3.9846
   24.240    4.4409
   24.270    4.5111
   24.300    4.4234
   24.330    4.6516
   24.360    4.5111
   24.390    4.1425
   24.420    4.6867
   24.450    4.4585
   24.480    4.9500
   24.510    4.1601
   24.540    4.3707
   24.570    4.3356
   24.600    4.1601
   24.630    4.3532
   24.660    4.1952
   24.690    4.4234
   24.720    4.1601
   24.750    4.0548
   24.780    4.7042
   24.810    3.7564
   24.840    4.1952
   24.870    4.7920
   24.900    4.3356
   24.930    3.9494
   24.960    4.9675
   24.990    4.3356
   25.020    3.7564
   25.050    4.4234
   25.080    4.5287
   25.110    4.2478
   25.140    4.2654
   25.170    4.1952
   25.200    4.1952
   25.230    4.0723
   25.260    4.3532
   25.290    4.0372
   25.320    4.1074
   25.350    3.8266
   25.380    4.1425
   25.410    3.9670
   25.440    4.3005
   25.470    3.9846
   25.500    4.2478
   25.530    4.0899
   25.560    4.2830
   25.590    4.4058
   25.620    4.1250
   25.650    4.2478
   25.680    3.9143
   25.710    3.9494
   25.740    4.1074
   25.770    4.2478
   25.800    4.2478
   25.830    4.1952
   25.860    4.4234
   25.890    3.9494
   25.920    4.0021
   25.950    3.8441
   25.980    3.9494
   26.010    4.0197
   26.040    4.3181
   26.070    4.3356
   26.100    4.2478
   26.130    4.1074
   26.160    4.3356
   26.190    4.1425
   26.220    3.8441
   26.250    3.8968
   26.280    3.8792
   26.310    3.8617
   26.340    4.4585
   26.370    3.8617
   26.400    3.7388
   26.430    3.6159
   26.460    3.8617
   26.490    3.9143
   26.520    4.1425
   26.550    3.8968
   26.580    4.0372
   26.610    4.2478
   26.640    3.5984
   26.670    4.3356
   26.700    3.7564
   26.730    4.0372
   26.760    3.8968
   26.790    3.9670
   26.820    3.8617
   26.850    3.6159
   26.880    3.8090
   26.910    3.6335
   26.940    3.6686
   26.970    3.7037
   27.000    4.1952
   27.030    3.8266
   27.060    4.0372
   27.090    3.7388
   27.120    3.8792
   27.150    3.7213
   27.180    3.8266
   27.210    3.9670
   27.240    3.8968
   27.270    3.8441
   27.300    3.9670
   27.330    3.7564
   27.360    3.7564
   27.390    3.5633
   27.420    3.7213
   27.450    4.0548
   27.480    4.0723
   27.510    3.4931
   27.540    3.9670
   27.570    3.8792
   27.600    4.1250
   27.630    3.4931
   27.660    3.4404
   27.690    3.8792
   27.720    3.7739
   27.750    3.7388
   27.780    3.5984
   27.810    3.6862
   27.840    3.3526
   27.870    3.4053
   27.900    3.2824
   27.930    3.7037
   27.960    3.6862
   27.990    3.6862
   28.020    3.3877
   28.050    3.7739
   28.080    3.7564
   28.110    3.6335
   28.140    3.8266
   28.170    3.3351
   28.200    3.5808
   28.230    3.8792
   28.260    3.6159
   28.290    3.4931
   28.320    3.8441
   28.350    3.8090
   28.380    3.6159
   28.410    3.7388
   28.440    3.6335
   28.470    3.7213
   28.500    3.7388
   28.530    3.6686
   28.560    3.7037
   28.590    3.3702
   28.620    3.6686
   28.650    3.6510
   28.680    3.3526
   28.710    3.8792
   28.740    3.8090
   28.770    3.3351
   28.800    3.6510
   28.830    3.6335
   28.860    3.2298
   28.890    3.4931
   28.920    3.7564
   28.950    3.3351
   28.980    3.6335
   29.010    3.8266
   29.040    3.4755
   29.070    3.7037
   29.100    3.2649
   29.130    3.8617
   29.160    3.6862
   29.190    3.3351
   29.220    3.8441
   29.250    3.6159
   29.280    3.3877
   29.310    3.3877
   29.340    3.3175
   29.370    3.6159
   29.400    3.3702
   29.430    3.6686
   29.460    3.1596
   29.490    3.1420
   29.520    3.5808
   29.550    3.6862
   29.580    3.0016
   29.610    3.1245
   29.640    3.3351
   29.670    3.3000
   29.700    3.2824
   29.730    3.1245
   29.760    3.0542
   29.790    3.2298
   29.820    3.4755
   29.850    3.2122
   29.880    3.2824
   29.910    2.8963
   29.940    3.4931
   29.970    3.2649
   30.000    3.5106
   30.030    3.4580
   30.060    2.9665
   30.090    3.2649
   30.120    3.6335
   30.150    3.2649
   30.180    3.0542
   30.210    3.0718
   30.240    3.4580
   30.270    3.2824
   30.300    3.0367
   30.330    2.9314
   30.360    3.0893
   30.390    3.2649
   30.420    2.6681
   30.450    3.2649
   30.480    3.2298
   30.510    2.8963
   30.540    3.3877
   30.570    3.2824
   30.600    3.5106
   30.630    3.1069
   30.660    3.3877
   30.690    3.2824
   30.720    3.0191
   30.750    3.3000
   30.780    3.0016
   30.810    3.2298
   30.840    3.0542
   30.870    3.0191
   30.900    2.8260
   30.930    2.7207
   30.960    2.8085
   30.990    2.8612
   31.020    3.1069
   31.050    3.1947
   31.080    3.0191
   31.110    2.9840
   31.140    2.8436
   31.170    3.2473
   31.200    2.6681
   31.230    3.2122
   31.260    2.9489
   31.290    2.9138
   31.320    3.0893
   31.350    2.8436
   31.380    2.9489
   31.410    3.1069
   31.440    3.0718
   31.470    3.1596
   31.500    2.8963
   31.530    3.1771
   31.560    3.0016
   31.590    2.7909
   31.620    2.6681
   31.650    2.8436
   31.680    2.9665
   31.710    3.2122
   31.740    3.1947
   31.770    2.9314
   31.800    3.0191
   31.830    2.8787
   31.860    3.1771
   31.890    2.8085
   31.920    3.1947
   31.950    2.7909
   31.980    2.9665
   32.010    2.7383
   32.040    2.7734
   32.070    3.0718
   32.100    3.1420
   32.130    2.6856
   32.160    3.1420
   32.190    2.9314
   32.220    2.7734
   32.250    2.7032
   32.280    2.7909
   32.310    2.8787
   32.340    2.7383
   32.370    2.4750
   32.400    3.0893
   32.430    2.9489
   32.460    2.8787
   32.490    2.7032
   32.520    3.1771
   32.550    2.7383
   32.580    2.5276
   32.610    2.5979
   32.640    2.9665
   32.670    2.8787
   32.700    2.5628
   32.730    2.7383
   32.760    3.1069
   32.790    2.9314
   32.820    2.6681
   32.850    2.8612
   32.880    2.8260
   32.910    2.6154
   32.940    2.6856
   32.970    2.8436
   33.000    2.6681
   33.030    3.0367
   33.060    2.6154
   33.090    2.8436
   33.120    2.7032
   33.150    2.9489
   33.180    2.5803
   33.210    2.7558
   33.240    2.5979
   33.270    2.5803
   33.300    2.7207
   33.330    3.0367
   33.360    2.6154
   33.390    2.4223
   33.420    2.7909
   33.450    2.6681
   33.480    2.8260
   33.510    2.7734
   33.540    2.8436
   33.570    2.6856
   33.600    2.5628
   33.630    2.9314
   33.660    2.8085
   33.690    2.6330
   33.720    2.5276
   33.750    2.8787
   33.780    2.6154
   33.810    2.7383
   33.840    2.9840
   33.870    2.5276
   33.900    2.5979
   33.930    2.5101
   33.960    2.8085
   33.990    2.7383
   34.020    2.7383
   34.050    2.3697
   34.080    2.8787
   34.110    2.7558
   34.140    3.0016
   34.170    2.5803
   34.200    2.5101
   34.230    2.7558
   34.260    2.6154
   34.290    2.6681
   34.320    2.6505
   34.350    2.6681
   34.380    2.6154
   34.410    2.6330
   34.440    2.5979
   34.470    2.8085
   34.500    2.8260
   34.530    2.3170
   34.560    2.4750
   34.590    2.6681
   34.620    2.6505
   34.650    2.5276
   34.680    2.7383
   34.710    2.6154
   34.740    2.8260
   34.770    2.8436
   34.800    2.6681
   34.830    2.5452
   34.860    2.8787
   34.890    2.3346
   34.920    2.7207
   34.950    2.5101
   34.980    2.5276
   35.010    2.5452
   35.040    2.5276
   35.070    2.5979
   35.100    2.7383
   35.130    2.7558
   35.160    2.7558
   35.190    2.8085
   35.220    2.5628
   35.250    2.6154
   35.280    2.4925
   35.310    2.5101
   35.340    2.7383
   35.370    3.0191
   35.400    2.5101
   35.430    2.7734
   35.460    2.5452
   35.490    2.5276
   35.520    2.4223
   35.550    2.6330
   35.580    2.6681
   35.610    2.8787
   35.640    2.5276
   35.670    2.8085
   35.700    2.5979
   35.730    2.5276
   35.760    2.5979
   35.790    2.6330
   35.820    2.6681
   35.850    2.6505
   35.880    2.7032
   35.910    2.4223
   35.940    2.4048
   35.970    2.7207
   36.000    2.6330
   36.030    2.5979
   36.060    2.5803
   36.090    2.2819
   36.120    2.5276
   36.150    2.7032
   36.180    2.6330
   36.210    2.5276
   36.240    2.7383
   36.270    2.3346
   36.300    2.5101
   36.330    2.5628
   36.360    2.9840
   36.390    2.5979
   36.420    2.2995
   36.450    2.5979
   36.480    2.7909
   36.510    2.2643
   36.540    2.5979
   36.570    2.6505
   36.600    2.6681
   36.630    2.6505
   36.660    2.4925
   36.690    2.5803
   36.720    2.5979
   36.750    2.6330
   36.780    2.1239
   36.810    2.1766
   36.840    2.7207
   36.870    2.3872
   36.900    2.1415
   36.930    2.5803
   36.960    2.6505
   36.990    2.5979
   37.020    2.4048
   37.050    2.4574
   37.080    2.2995
   37.110    2.5101
   37.140    2.8260
   37.170    2.8436
   37.200    2.5803
   37.230    2.8612
   37.260    2.4048
   37.290    2.4399
   37.320    2.5979
   37.350    2.4925
   37.380    2.4399
   37.410    2.2292
   37.440    2.4574
   37.470    2.3346
   37.500    2.5452
   37.530    2.6154
   37.560    2.3872
   37.590    2.5276
   37.620    2.9138
   37.650    2.3521
   37.680    2.7734
   37.710    2.2643
   37.740    2.3697
   37.770    2.4925
   37.800    2.2117
   37.830    2.5979
   37.860    2.3697
   37.890    2.5101
   37.920    2.4399
   37.950    2.3872
   37.980    2.5979
   38.010    2.4574
   38.040    2.5803
   38.070    2.4399
   38.100    2.5628
   38.130    2.6154
   38.160    2.2292
   38.190    2.6856
   38.220    2.4399
   38.250    2.5452
   38.280    2.7383
   38.310    2.4750
   38.340    2.4223
   38.370    2.5452
   38.400    2.4925
   38.430    2.3346
   38.460    2.0888
   38.490    2.7207
   38.520    2.2292
   38.550    2.5452
   38.580    2.5979
   38.610    2.4925
   38.640    2.4048
   38.670    2.4399
   38.700    2.1415
   38.730    2.2468
   38.760    2.4048
   38.790    2.3346
   38.820    2.1064
   38.850    2.6505
   38.880    2.3170
   38.910    2.1415
   38.940    2.5803
   38.970    2.5452
   39.000    2.3521
   39.030    2.4048
   39.060    2.4574
   39.090    2.3521
   39.120    2.4399
   39.150    2.5101
   39.180    2.1941
   39.210    2.4925
   39.240    2.3521
   39.270    2.4750
   39.300    2.3521
   39.330    2.4574
   39.360    2.1941
   39.390    2.2819
   39.420    2.5452
   39.450    2.6505
   39.480    2.5276
   39.510    2.2292
   39.540    2.6154
   39.570    2.4750
   39.600    2.4925
   39.630    2.4048
   39.660    2.2995
   39.690    2.1415
   39.720    2.4048
   39.750    2.2468
   39.780    2.7032
   39.810    2.2643
   39.840    2.4223
   39.870    2.5276
   39.900    2.1239
   39.930    2.3521
   39.960    2.4574
   39.990    2.1766