File: data/MOCOF-1/PXRD/PXRD_KE-050-3_Cu-Ka1_capillary-1mm_5s-deg.xyd
    1.500  136.9668
    1.530  135.5766
    1.560  128.9942
    1.590  124.9500
    1.620  117.6619
    1.650  111.7957
    1.680  106.7931
    1.710  101.8431
    1.740   96.6087
    1.770   91.8694
    1.800   85.8557
    1.830   82.2854
    1.860   78.4518
    1.890   73.1332
    1.920   70.8584
    1.950   65.6977
    1.980   63.3386
    2.010   59.4945
    2.040   55.3028
    2.070   53.5229
    2.100   50.8583
    2.130   48.0358
    2.160   45.7399
    2.190   42.9068
    2.220   40.1580
    2.250   38.6940
    2.280   38.0516
    2.310   35.3870
    2.340   34.2496
    2.370   32.0063
    2.400   31.0900
    2.430   29.9737
    2.460   29.5735
    2.490   28.1938
    2.520   27.5408
    2.550   25.4871
    2.580   25.4450
    2.610   24.2443
    2.640   23.7599
    2.670   23.3070
    2.700   22.3381
    2.730   21.7062
    2.760   20.7372
    2.790   20.6635
    2.820   19.1890
    2.850   19.5787
    2.880   18.3465
    2.910   18.7467
    2.940   17.7778
    2.970   17.5882
    3.000   17.3038
    3.030   16.7141
    3.060   16.5982
    3.090   16.2401
    3.120   15.4292
    3.150   15.1553
    3.180   15.3344
    3.210   15.0922
    3.240   14.9131
    3.270   14.7551
    3.300   14.8183
    3.330   14.3549
    3.360   14.4497
    3.390   13.9231
    3.420   13.4808
    3.450   13.3860
    3.480   13.8599
    3.510   13.4176
    3.540   13.6493
    3.570   13.0700
    3.600   13.1859
    3.630   13.3017
    3.660   12.8594
    3.690   12.3855
    3.720   12.4381
    3.750   12.8383
    3.780   11.7746
    3.810   11.9958
    3.840   12.4171
    3.870   11.8483
    3.900   11.4903
    3.930   11.5429
    3.960   11.5219
    3.990   11.8167
    4.020   11.8167
    4.050   11.6377
    4.080   11.8062
    4.110   11.6166
    4.140   11.9326
    4.170   12.0379
    4.200   11.3323
    4.230   11.5219
    4.260   11.5324
    4.290   11.2375
    4.320   11.5640
    4.350   11.9431
    4.380   11.5324
    4.410   11.0058
    4.440   11.0795
    4.470   11.0690
    4.500   10.9847
    4.530   10.4581
    4.560   10.8794
    4.590   10.8162
    4.620   10.5529
    4.650   10.6266
    4.680   10.7530
    4.710   10.2686
    4.740   10.2791
    4.770   10.6161
    4.800   10.2264
    4.830   10.1948
    4.860   10.3107
    4.890   10.0053
    4.920    9.9421
    4.950    9.5840
    4.980    9.8999
    5.010    9.5419
    5.040    9.8157
    5.070    9.9421
    5.100    9.8473
    5.130   10.0158
    5.160    9.6998
    5.190   10.1422
    5.220    9.2048
    5.250    9.6893
    5.280    9.0574
    5.310    9.2470
    5.340    9.8052
    5.370    9.4155
    5.400    9.5945
    5.430    9.1943
    5.460    9.2680
    5.490    9.1417
    5.520    8.9942
    5.550    9.2259
    5.580    9.8368
    5.610    8.9415
    5.640    9.6261
    5.670    9.3312
    5.700    9.0785
    5.730    9.5103
    5.760    9.3944
    5.790    9.0574
    5.820    9.0153
    5.850    9.5840
    5.880    8.8468
    5.910    9.2470
    5.940    9.1732
    5.970    8.8678
    6.000    9.3839
    6.030    8.9205
    6.060    9.3312
    6.090    9.0363
    6.120    9.0679
    6.150    8.8784
    6.180    9.4471
    6.210    9.1101
    6.240    8.5519
    6.270    8.7098
    6.300    9.1101
    6.330    8.9205
    6.360    9.2575
    6.390    9.2470
    6.420    8.9626
    6.450    8.7941
    6.480    8.9837
    6.510    8.9942
    6.540    9.0047
    6.570    8.9626
    6.600    9.3628
    6.630    9.5629
    6.660    9.1206
    6.690    9.4892
    6.720    9.2575
    6.750    8.6993
    6.780    9.1101
    6.810    9.0047
    6.840    9.2680
    6.870    9.5735
    6.900    9.0047
    6.930    8.7730
    6.960    8.7414
    6.990    8.6888
    7.020    8.9837
    7.050    9.1311
    7.080    9.2048
    7.110    9.3839
    7.140    9.0679
    7.170    9.2048
    7.200    9.2364
    7.230    9.2470
    7.260    9.1206
    7.290    9.1417
    7.320    9.2154
    7.350    8.9415
    7.380    9.5208
    7.410    9.2786
    7.440    8.9731
    7.470    9.0258
    7.500    9.4260
    7.530    9.7946
    7.560    9.3839
    7.590    9.0574
    7.620    9.8052
    7.650    9.5840
    7.680    9.6156
    7.710    9.4576
    7.740    9.0785
    7.770    9.6577
    7.800    9.3628
    7.830    9.3628
    7.860    9.1943
    7.890    9.6261
    7.920    9.4892
    7.950    9.5735
    7.980    9.6261
    8.010    9.9842
    8.040    9.7946
    8.070    9.9105
    8.100    9.4997
    8.130    9.4050
    8.160    9.8052
    8.190    9.8157
    8.220    9.6367
    8.250    9.5103
    8.280    9.4576
    8.310    9.6261
    8.340    9.5419
    8.370    9.3207
    8.400   10.0685
    8.430    9.7104
    8.460    9.6261
    8.490    9.7841
    8.520    9.7420
    8.550   10.6161
    8.580    9.6682
    8.610    9.3207
    8.640    9.6051
    8.670    9.7420
    8.700   10.0685
    8.730    9.5524
    8.760    9.7420
    8.790   10.0579
    8.820    9.6472
    8.850   10.0685
    8.880   10.0053
    8.910   10.2264
    8.940   10.1738
    8.970   10.0895
    9.000   10.3633
    9.030    9.8789
    9.060   10.0369
    9.090    9.8262
    9.120    9.7209
    9.150    9.4155
    9.180   10.4792
    9.210    9.9631
    9.240   10.0474
    9.270   10.0579
    9.300    9.8578
    9.330   10.0790
    9.360    9.9842
    9.390   10.5529
    9.420   10.0685
    9.450   10.1843
    9.480    9.9947
    9.510    9.6893
    9.540    9.6998
    9.570   10.3212
    9.600   10.6266
    9.630   10.2054
    9.660    9.5735
    9.690   10.2159
    9.720    9.8368
    9.750    9.8262
    9.780    9.7841
    9.810    9.7104
    9.840   10.0474
    9.870    9.7630
    9.900   10.2159
    9.930    9.9947
    9.960    9.6577
    9.990    9.9842
   10.020   10.0053
   10.050   10.1001
   10.080    9.6472
   10.110    9.7630
   10.140   10.0369
   10.170   10.1316
   10.200    9.6682
   10.230    9.8684
   10.260   10.2580
   10.290    9.8157
   10.320    9.8894
   10.350   10.1527
   10.380    9.8262
   10.410    9.8999
   10.440    9.7314
   10.470    9.9421
   10.500    9.2680
   10.530    9.9421
   10.560    9.6893
   10.590    9.7420
   10.620   10.1316
   10.650    9.9105
   10.680    9.4892
   10.710    9.8473
   10.740    9.8052
   10.770    9.4997
   10.800    9.6367
   10.830    9.3523
   10.860    9.2786
   10.890    9.9631
   10.920    9.4260
   10.950    9.8052
   10.980    9.4365
   11.010    9.4471
   11.040    9.7736
   11.070    9.3312
   11.100    9.4892
   11.130    9.2364
   11.160    9.0890
   11.190    9.4471
   11.220    9.2154
   11.250    9.3628
   11.280    9.0469
   11.310    9.2259
   11.340    9.4365
   11.370    9.0890
   11.400    9.1206
   11.430    8.8046
   11.460    8.8784
   11.490    9.4576
   11.520    8.8257
   11.550    9.2575
   11.580    9.0258
   11.610    8.9626
   11.640    8.6783
   11.670    9.2364
   11.700    8.7941
   11.730    8.9100
   11.760    8.9626
   11.790    9.3102
   11.820    9.7314
   11.850    8.6993
   11.880    9.2259
   11.910    9.3734
   11.940    9.2154
   11.970    9.0785
   12.000    8.6572
   12.030    8.6572
   12.060    9.1311
   12.090    8.8362
   12.120    9.0363
   12.150    9.3944
   12.180    9.0679
   12.210    8.8889
   12.240    8.4466
   12.270    9.4260
   12.300    9.1522
   12.330    8.4992
   12.360    8.6151
   12.390    8.9731
   12.420    9.1101
   12.450    8.8152
   12.480    8.8362
   12.510    8.7941
   12.540    8.8362
   12.570    8.3623
   12.600    8.8573
   12.630    8.6677
   12.660    8.6783
   12.690    8.5203
   12.720    8.4887
   12.750    8.6256
   12.780    8.8468
   12.810    8.2991
   12.840    8.5519
   12.870    8.3518
   12.900    8.5835
   12.930    8.8362
   12.960    8.2043
   12.990    8.6783
   13.020    8.5519
   13.050    8.5097
   13.080    8.3412
   13.110    8.9205
   13.140    8.8468
   13.170    8.7204
   13.200    8.5940
   13.230    8.5203
   13.260    8.2991
   13.290    8.7941
   13.320    8.8784
   13.350    8.5413
   13.380    8.5835
   13.410    8.3518
   13.440    8.4360
   13.470    8.3834
   13.500    8.6888
   13.530    7.8146
   13.560    8.1622
   13.590    8.6572
   13.620    8.5940
   13.650    8.1411
   13.680    8.6888
   13.710    8.3728
   13.740    8.4571
   13.770    8.6783
   13.800    8.9415
   13.830    8.6677
   13.860    8.3623
   13.890    8.6151
   13.920    8.6572
   13.950    8.4150
   13.980    8.2359
   14.010    8.3202
   14.040    8.3202
   14.070    8.4992
   14.100    8.0569
   14.130    8.5940
   14.160    8.4992
   14.190    8.7836
   14.220    9.0363
   14.250    8.7730
   14.280    8.5413
   14.310    8.2570
   14.340    8.1622
   14.370    8.0253
   14.400    8.4466
   14.430    8.3518
   14.460    8.4255
   14.490    8.4571
   14.520    8.8046
   14.550    8.7836
   14.580    8.2570
   14.610    8.4781
   14.640    8.7836
   14.670    8.6783
   14.700    8.1095
   14.730    8.1938
   14.760    8.6045
   14.790    8.3412
   14.820    8.7836
   14.850    8.3834
   14.880    8.3939
   14.910    8.3307
   14.940    8.5203
   14.970    8.5097
   15.000    8.4676
   15.030    8.7204
   15.060    8.0042
   15.090    8.6256
   15.120    8.7520
   15.150    8.9310
   15.180    8.4781
   15.210    8.6045
   15.240    8.5203
   15.270    8.4781
   15.300    8.3518
   15.330    8.7309
   15.360    8.7204
   15.390    8.4466
   15.420    8.3096
   15.450    8.0885
   15.480    8.0885
   15.510    8.5624
   15.540    8.6677
   15.570    8.5203
   15.600    8.3834
   15.630    8.9415
   15.660    9.1417
   15.690    8.2886
   15.720    8.4571
   15.750    8.5940
   15.780    8.4255
   15.810    8.2780
   15.840    8.6677
   15.870    8.2149
   15.900    8.6993
   15.930    8.4360
   15.960    8.5097
   15.990    8.2780
   16.020    8.5203
   16.050    8.3202
   16.080    8.7414
   16.110    8.3728
   16.140    8.5835
   16.170    8.3728
   16.200    8.7204
   16.230    8.6151
   16.260    8.2886
   16.290    8.3307
   16.320    8.5308
   16.350    8.0569
   16.380    8.7730
   16.410    8.6888
   16.440    8.5624
   16.470    8.5940
   16.500    8.2991
   16.530    8.1727
   16.560    8.6572
   16.590    8.6256
   16.620    8.6572
   16.650    8.6256
   16.680    8.7204
   16.710    8.6151
   16.740    8.2675
   16.770    8.7836
   16.800    8.2886
   16.830    8.3096
   16.860    8.3834
   16.890    8.1727
   16.920    8.4887
   16.950    8.4044
   16.980    8.7414
   17.010    8.5519
   17.040    8.6572
   17.070    8.5413
   17.100    8.4781
   17.130    8.5203
   17.160    8.6151
   17.190    8.2886
   17.220    8.5624
   17.250    8.2570
   17.280    8.4992
   17.310    8.2886
   17.340    8.7941
   17.370    8.8573
   17.400    8.8784
   17.430    8.1517
   17.460    8.1411
   17.490    8.2254
   17.520    8.6467
   17.550    8.5097
   17.580    8.5519
   17.610    8.5940
   17.640    8.5940
   17.670    8.2886
   17.700    8.4571
   17.730    8.8257
   17.760    8.2149
   17.790    8.7098
   17.820    8.6361
   17.850    9.0679
   17.880    8.7941
   17.910    8.8468
   17.940    8.6045
   17.970    8.8784
   18.000    8.3096
   18.030    8.3518
   18.060    8.3834
   18.090    8.7941
   18.120    8.4781
   18.150    9.0363
   18.180    8.4150
   18.210    8.7309
   18.240    8.5940
   18.270    8.5308
   18.300    8.7204
   18.330    8.6256
   18.360    8.2991
   18.390    8.3096
   18.420    8.9205
   18.450    8.9205
   18.480    8.3202
   18.510    8.4360
   18.540    8.4571
   18.570    8.2043
   18.600    9.1417
   18.630    8.8152
   18.660    8.5203
   18.690    8.0990
   18.720    8.7520
   18.750    8.9837
   18.780    8.4992
   18.810    8.9942
   18.840    8.6993
   18.870    8.6677
   18.900    8.6993
   18.930    8.7625
   18.960    8.6572
   18.990    8.4992
   19.020    8.2991
   19.050    9.2154
   19.080    9.1943
   19.110    9.1522
   19.140    8.0990
   19.170    9.4892
   19.200    8.7730
   19.230    8.5729
   19.260    8.4150
   19.290    8.6151
   19.320    8.5940
   19.350    8.8362
   19.380    8.9205
   19.410    9.1838
   19.440    8.7204
   19.470    8.3939
   19.500    9.1522
   19.530    8.8152
   19.560    8.6045
   19.590    9.0890
   19.620    9.1838
   19.650    8.7414
   19.680    8.8152
   19.710    8.5413
   19.740    9.0574
   19.770    9.2048
   19.800    8.4571
   19.830    8.6151
   19.860    8.8257
   19.890    8.6361
   19.920    8.8257
   19.950    8.8152
   19.980    8.7204
   20.010    8.8152
   20.040    8.5097
   20.070    9.1101
   20.100    8.6467
   20.130    8.8573
   20.160    9.2575
   20.190    8.8257
   20.220    9.1522
   20.250    9.1311
   20.280    8.7836
   20.310    8.9310
   20.340    8.7836
   20.370    8.8046
   20.400    8.5519
   20.430    9.2575
   20.460    9.1732
   20.490    8.6888
   20.520    8.8889
   20.550    9.1101
   20.580    9.0995
   20.610    8.9310
   20.640    8.6467
   20.670    8.8468
   20.700    9.3523
   20.730    9.2048
   20.760    9.0890
   20.790    9.3418
   20.820    8.9626
   20.850    8.9731
   20.880    9.0363
   20.910    8.5519
   20.940    8.6467
   20.970    9.0363
   21.000    8.9415
   21.030    8.9415
   21.060    8.9731
   21.090    9.2470
   21.120    8.5624
   21.150    9.0363
   21.180    8.9100
   21.210    9.3207
   21.240    9.2470
   21.270    9.0679
   21.300    9.0785
   21.330    9.2891
   21.360    8.8573
   21.390    8.7625
   21.420    8.9415
   21.450    9.3734
   21.480    9.1838
   21.510    9.1838
   21.540    8.9205
   21.570    9.2786
   21.600    8.9100
   21.630    8.9521
   21.660    8.8889
   21.690    9.2680
   21.720    9.0363
   21.750    9.1311
   21.780    9.1732
   21.810    9.2786
   21.840    8.8678
   21.870    8.8152
   21.900    9.4681
   21.930    9.2364
   21.960    8.8046
   21.990    8.8678
   22.020    9.5419
   22.050    9.1101
   22.080    9.1206
   22.110    9.1627
   22.140    8.6993
   22.170    8.8046
   22.200    9.1838
   22.230    9.0995
   22.260    8.3939
   22.290    9.1627
   22.320    9.0679
   22.350    8.9731
   22.380    9.2680
   22.410    8.8994
   22.440    9.1417
   22.470    8.8257
   22.500    8.8046
   22.530    8.8994
   22.560    8.7730
   22.590    9.0995
   22.620    9.2154
   22.650    9.2259
   22.680    8.9837
   22.710    9.1206
   22.740    8.7730
   22.770    9.3523
   22.800    8.9942
   22.830    9.3102
   22.860    8.8678
   22.890    9.0785
   22.920    8.8468
   22.950    8.7204
   22.980    8.7309
   23.010    8.8362
   23.040    9.3628
   23.070    9.0890
   23.100    8.9521
   23.130    8.6993
   23.160    8.6151
   23.190    9.3523
   23.220    9.3207
   23.250    8.6888
   23.280    8.8784
   23.310    9.0679
   23.340    9.2786
   23.370    8.7836
   23.400    8.8678
   23.430    9.2680
   23.460    8.8046
   23.490    8.8257
   23.520    9.5524
   23.550    8.8257
   23.580    8.9205
   23.610    8.7836
   23.640    8.6045
   23.670    9.1311
   23.700    8.7309
   23.730    8.4887
   23.760    8.5413
   23.790    8.8573
   23.820    8.5203
   23.850    8.7730
   23.880    9.0469
   23.910    8.6045
   23.940    9.0469
   23.970    8.7414
   24.000    8.4887
   24.030    8.9205
   24.060    9.3312
   24.090    8.8784
   24.120    8.8362
   24.150    8.7625
   24.180    8.9521
   24.210    9.0890
   24.240    8.3518
   24.270    8.2675
   24.300    8.8468
   24.330    8.9521
   24.360    8.7098
   24.390    9.3312
   24.420    8.4781
   24.450    8.6783
   24.480    8.3623
   24.510    8.0147
   24.540    8.8046
   24.570    8.7836
   24.600    8.8046
   24.630    8.6045
   24.660    8.5413
   24.690    8.4676
   24.720    8.3518
   24.750    8.7414
   24.780    8.8468
   24.810    8.7941
   24.840    8.1727
   24.870    8.6361
   24.900    8.9205
   24.930    8.3623
   24.960    8.5519
   24.990    8.4466
   25.020    8.6783
   25.050    8.5624
   25.080    8.2359
   25.110    8.0147
   25.140    8.6783
   25.170    8.2675
   25.200    8.4992
   25.230    8.3307
   25.260    8.3834
   25.290    8.5097
   25.320    8.6783
   25.350    8.4571
   25.380    8.3307
   25.410    8.2359
   25.440    8.6361
   25.470    8.4571
   25.500    8.4992
   25.530    8.1411
   25.560    8.8889
   25.590    8.4571
   25.620    8.0885
   25.650    8.1517
   25.680    8.2886
   25.710    8.4150
   25.740    8.2043
   25.770    8.4360
   25.800    8.1306
   25.830    8.5203
   25.860    7.7199
   25.890    8.3202
   25.920    8.3939
   25.950    8.2675
   25.980    7.9937
   26.010    8.4255
   26.040    7.9516
   26.070    8.2780
   26.100    8.0253
   26.130    8.4781
   26.160    8.2464
   26.190    8.2043
   26.220    8.0569
   26.250    8.0463
   26.280    8.3202
   26.310    8.1306
   26.340    8.1201
   26.370    8.6361
   26.400    7.9094
   26.430    8.0042
   26.460    8.2149
   26.490    7.7830
   26.520    7.7936
   26.550    8.0253
   26.580    8.6888
   26.610    8.1201
   26.640    8.1411
   26.670    8.2570
   26.700    7.7304
   26.730    7.9516
   26.760    7.9305
   26.790    8.1095
   26.820    8.0674
   26.850    7.8673
   26.880    7.8778
   26.910    7.7725
   26.940    7.9094
   26.970    7.8146
   27.000    7.7936
   27.030    7.8357
   27.060    8.0042
   27.090    8.2886
   27.120    7.9200
   27.150    7.8884
   27.180    7.8568
   27.210    7.9200
   27.240    7.7304
   27.270    7.9937
   27.300    8.0569
   27.330    8.3307
   27.360    8.0042
   27.390    7.8252
   27.420    8.2464
   27.450    7.8357
   27.480    8.0147
   27.510    7.6040
   27.540    8.1727
   27.570    7.9831
   27.600    8.0463
   27.630    8.0358
   27.660    8.1306
   27.690    7.8357
   27.720    7.9094
   27.750    7.6672
   27.780    7.6145
   27.810    7.7725
   27.840    7.5619
   27.870    7.7620
   27.900    7.8568
   27.930    7.7514
   27.960    8.0358
   27.990    7.5829
   28.020    7.7514
   28.050    7.4144
   28.080    7.7830
   28.110    7.4776
   28.140    7.7514
   28.170    7.9200
   28.200    7.6040
   28.230    7.6883
   28.260    7.8357
   28.290    7.2143
   28.320    7.9410
   28.350    7.7409
   28.380    7.9200
   28.410    7.7830
   28.440    7.6567
   28.470    7.4355
   28.500    7.5619
   28.530    7.6040
   28.560    7.2038
   28.590    8.0147
   28.620    7.5935
   28.650    7.8146
   28.680    7.7620
   28.710    7.4566
   28.740    7.5092
   28.770    7.8568
   28.800    7.8989
   28.830    7.6672
   28.860    7.6672
   28.890    7.4460
   28.920    7.8252
   28.950    8.0253
   28.980    7.5092
   29.010    8.0463
   29.040    7.8041
   29.070    7.8778
   29.100    7.6356
   29.130    7.4460
   29.160    7.6883
   29.190    7.4039
   29.220    8.1727
   29.250    7.9200
   29.280    7.6356
   29.310    7.9305
   29.340    7.5092
   29.370    7.3723
   29.400    7.5724
   29.430    7.7199
   29.460    6.9932
   29.490    7.3828
   29.520    7.1195
   29.550    7.3091
   29.580    7.4144
   29.610    7.1511
   29.640    7.2670
   29.670    7.1722
   29.700    7.2670
   29.730    6.9510
   29.760    7.0669
   29.790    7.2670
   29.820    7.2354
   29.850    7.3302
   29.880    7.3618
   29.910    7.5619
   29.940    7.0563
   29.970    7.1617
   30.000    7.3723
   30.030    7.5303
   30.060    7.1617
   30.090    7.3723
   30.120    7.1617
   30.150    7.4987
   30.180    7.0458
   30.210    7.0142
   30.240    7.3828
   30.270    7.4250
   30.300    6.5087
   30.330    6.9510
   30.360    7.2565
   30.390    7.3091
   30.420    7.1933
   30.450    7.6251
   30.480    7.4987
   30.510    7.0563
   30.540    7.0142
   30.570    6.8036
   30.600    7.1722
   30.630    7.3723
   30.660    6.7088
   30.690    7.2565
   30.720    7.3934
   30.750    7.4355
   30.780    7.0458
   30.810    7.4566
   30.840    7.3091
   30.870    6.8878
   30.900    7.3934
   30.930    7.6356
   30.960    6.8984
   30.990    7.4039
   31.020    7.1827
   31.050    7.3723
   31.080    6.8773
   31.110    7.0985
   31.140    7.2354
   31.170    7.2459
   31.200    7.1827
   31.230    7.2565
   31.260    7.0985
   31.290    6.9826
   31.320    6.9194
   31.350    6.9932
   31.380    7.2986
   31.410    6.8984
   31.440    6.8562
   31.470    7.1617
   31.500    7.1195
   31.530    6.7193
   31.560    7.1511
   31.590    7.1933
   31.620    6.9510
   31.650    7.1195
   31.680    7.1406
   31.710    7.1722
   31.740    6.7404
   31.770    7.2038
   31.800    6.8036
   31.830    7.3512
   31.860    7.0248
   31.890    7.4355
   31.920    6.6561
   31.950    7.0142
   31.980    6.6772
   32.010    7.1195
   32.040    7.4671
   32.070    6.8878
   32.100    7.1090
   32.130    7.0142
   32.160    6.6245
   32.190    6.6035
   32.220    6.7615
   32.250    6.7193
   32.280    7.1090
   32.310    6.6035
   32.340    6.9932
   32.370    6.9826
   32.400    6.7930
   32.430    6.7193
   32.460    7.0563
   32.490    7.0248
   32.520    6.9826
   32.550    6.7193
   32.580    7.2565
   32.610    6.8457
   32.640    6.8141
   32.670    7.0458
   32.700    6.8457
   32.730    6.7299
   32.760    6.9616
   32.790    6.9194
   32.820    6.6877
   32.850    7.1827
   32.880    6.4560
   32.910    6.8457
   32.940    6.8352
   32.970    6.7720
   33.000    7.0458
   33.030    6.8562
   33.060    7.0037
   33.090    6.8141
   33.120    6.7088
   33.150    6.6561
   33.180    6.6667
   33.210    6.9721
   33.240    6.7299
   33.270    7.1511
   33.300    6.5824
   33.330    6.6561
   33.360    6.9510
   33.390    6.6140
   33.420    6.9405
   33.450    6.5298
   33.480    6.8352
   33.510    6.7299
   33.540    6.7299
   33.570    6.8036
   33.600    6.5403
   33.630    6.5719
   33.660    6.6245
   33.690    6.9616
   33.720    6.6772
   33.750    6.5087
   33.780    6.6035
   33.810    6.4455
   33.840    6.8668
   33.870    6.7930
   33.900    6.4350
   33.930    6.6245
   33.960    6.3928
   33.990    6.6140
   34.020    6.6245
   34.050    6.7299
   34.080    7.0037
   34.110    7.0142
   34.140    6.8246
   34.170    6.3718
   34.200    6.3823
   34.230    6.9194
   34.260    6.6035
   34.290    6.6772
   34.320    6.6245
   34.350    6.3718
   34.380    6.6877
   34.410    6.4034
   34.440    6.4876
   34.470    6.1506
   34.500    6.6772
   34.530    6.2138
   34.560    6.6035
   34.590    6.3823
   34.620    6.7509
   34.650    6.6456
   34.680    6.7193
   34.710    6.6772
   34.740    6.5087
   34.770    7.2038
   34.800    6.2243
   34.830    6.5087
   34.860    6.6035
   34.890    6.7825
   34.920    6.1717
   34.950    7.2143
   34.980    7.0669
   35.010    6.8562
   35.040    6.5298
   35.070    6.5613
   35.100    6.5403
   35.130    6.6456
   35.160    6.8036
   35.190    6.3191
   35.220    6.5403
   35.250    6.7299
   35.280    6.5298
   35.310    6.4455
   35.340    6.4876
   35.370    6.5929
   35.400    6.6561
   35.430    6.4876
   35.460    6.2875
   35.490    6.2981
   35.520    6.4455
   35.550    6.7825
   35.580    6.8878
   35.610    6.2138
   35.640    6.3086
   35.670    6.2138
   35.700    6.2349
   35.730    6.3718
   35.760    6.3507
   35.790    6.8036
   35.820    6.6140
   35.850    6.6035
   35.880    6.6983
   35.910    6.8668
   35.940    6.5508
   35.970    6.0874
   36.000    6.0558
   36.030    6.0242
   36.060    6.5087
   36.090    6.6351
   36.120    6.6035
   36.150    6.4560
   36.180    6.1927
   36.210    6.6983
   36.240    6.7193
   36.270    6.8141
   36.300    6.7404
   36.330    6.4982
   36.360    6.4350
   36.390    6.3296
   36.420    6.2770
   36.450    6.1295
   36.480    6.3402
   36.510    6.3718
   36.540    6.4455
   36.570    6.4666
   36.600    6.8352
   36.630    6.9932
   36.660    6.4244
   36.690    6.1295
   36.720    6.2875
   36.750    6.5298
   36.780    6.8352
   36.810    6.2875
   36.840    6.0979
   36.870    6.7193
   36.900    6.5719
   36.930    6.4350
   36.960    6.0032
   36.990    6.6245
   37.020    6.4034
   37.050    6.5298
   37.080    6.0979
   37.110    6.1927
   37.140    6.0137
   37.170    6.4455
   37.200    5.9505
   37.230    6.1506
   37.260    6.4455
   37.290    6.4034
   37.320    6.1401
   37.350    6.2243
   37.380    6.2138
   37.410    5.9610
   37.440    6.3296
   37.470    6.5298
   37.500    6.1190
   37.530    6.3191
   37.560    6.2349
   37.590    6.3612
   37.620    6.4455
   37.650    6.2770
   37.680    6.3507
   37.710    6.3718
   37.740    6.2454
   37.770    6.7193
   37.800    6.3296
   37.830    6.2033
   37.860    5.9400
   37.890    6.3612
   37.920    6.1611
   37.950    6.1401
   37.980    6.0558
   38.010    6.3507
   38.040    6.1085
   38.070    6.1611
   38.100    6.2981
   38.130    6.4771
   38.160    6.1927
   38.190    6.1927
   38.220    6.1927
   38.250    6.4666
   38.280    6.2665
   38.310    6.5298
   38.340    6.6140
   38.370    6.5824
   38.400    6.4139
   38.430    6.2454
   38.460    6.4244
   38.490    6.5613
   38.520    6.5403
   38.550    5.8978
   38.580    6.1190
   38.610    6.3507
   38.640    6.3928
   38.670    6.7720
   38.700    6.5929
   38.730    6.6772
   38.760    6.0453
   38.790    6.5192
   38.820    6.2981
   38.850    6.4034
   38.880    6.2875
   38.910    6.2033
   38.940    6.3191
   38.970    6.1190
   39.000    6.5613
   39.030    5.7504
   39.060    5.8873
   39.090    6.2454
   39.120    6.6983
   39.150    6.3823
   39.180    6.5298
   39.210    6.4244
   39.240    5.8662
   39.270    6.2770
   39.300    6.1190
   39.330    5.8873
   39.360    6.3823
   39.390    6.7193
   39.420    6.2138
   39.450    6.3718
   39.480    6.5298
   39.510    6.6772
   39.540    6.0032
   39.570    6.2875
   39.600    6.7193
   39.630    5.9926
   39.660    6.0348
   39.690    6.2138
   39.720    6.3402
   39.750    6.4244
   39.780    6.0242
   39.810    6.3191
   39.840    6.3296
   39.870    6.3191
   39.900    6.4560
   39.930    6.2875
   39.960    6.3823
   39.990    6.2770