File: data/MOCOF-1/PXRD/PXRD_KE-179_Cu-Ka1_capillary-1mm_5s-deg.xyd
    1.500   29.5103
    1.530   29.1311
    1.560   26.9826
    1.590   26.8562
    1.620   25.0658
    1.650   24.2022
    1.680   22.6540
    1.710   22.8752
    1.740   22.0326
    1.770   21.9379
    1.800   21.0005
    1.830   19.7262
    1.860   19.5155
    1.890   19.7156
    1.920   17.8094
    1.950   17.8936
    1.980   18.6098
    2.010   17.4934
    2.040   17.2722
    2.070   17.0616
    2.100   16.3139
    2.130   16.5877
    2.160   16.9879
    2.190   15.9558
    2.220   15.3555
    2.250   15.5134
    2.280   15.5345
    2.310   15.1764
    2.340   15.1659
    2.370   14.5129
    2.400   15.1764
    2.430   14.8710
    2.460   15.1553
    2.490   14.7973
    2.520   14.7973
    2.550   15.1869
    2.580   16.1137
    2.610   14.9342
    2.640   15.4608
    2.670   15.6082
    2.700   15.9452
    2.730   16.5350
    2.760   16.4929
    2.790   16.4086
    2.820   17.8094
    2.850   17.9358
    2.880   17.6093
    2.910   17.8199
    2.940   19.1785
    2.970   19.3470
    3.000   20.0632
    3.030   20.4950
    3.060   21.6324
    3.090   22.0537
    3.120   22.6119
    3.150   24.4023
    3.180   25.1606
    3.210   26.8457
    3.240   27.2880
    3.270   29.8473
    3.300   32.2275
    3.330   33.5650
    3.360   37.6303
    3.390   40.5687
    3.420   42.3486
    3.450   45.1185
    3.480   42.6751
    3.510   39.0311
    3.540   31.7536
    3.570   25.4871
    3.600   21.9800
    3.630   19.6946
    3.660   18.5150
    3.690   17.9989
    3.720   17.3565
    3.750   17.4934
    3.780   17.8726
    3.810   18.7256
    3.840   18.3254
    3.870   19.1364
    3.900   18.8942
    3.930   19.7262
    3.960   20.4529
    3.990   20.9163
    4.020   21.5166
    4.050   22.0011
    4.080   20.6108
    4.110   20.9900
    4.140   20.8636
    4.170   19.4734
    4.200   18.4308
    4.230   17.5145
    4.260   16.2928
    4.290   14.9447
    4.320   13.5966
    4.350   12.4065
    4.380   11.1006
    4.410   10.5108
    4.440    9.5629
    4.470    9.2996
    4.500    8.6151
    4.530    7.8989
    4.560    7.8357
    4.590    7.6988
    4.620    7.6883
    4.650    7.1195
    4.680    7.3302
    4.710    6.8773
    4.740    6.7720
    4.770    6.9194
    4.800    6.4560
    4.830    6.5298
    4.860    6.6245
    4.890    6.4350
    4.920    6.6245
    4.950    6.5403
    4.980    6.4350
    5.010    6.3928
    5.040    6.6877
    5.070    6.7193
    5.100    6.1506
    5.130    6.0874
    5.160    6.3507
    5.190    6.0979
    5.220    5.8662
    5.250    6.1822
    5.280    5.8136
    5.310    6.2033
    5.340    6.3086
    5.370    5.9505
    5.400    6.0979
    5.430    6.1506
    5.460    5.8241
    5.490    5.7820
    5.520    5.8347
    5.550    5.7504
    5.580    6.0032
    5.610    6.0348
    5.640    6.2033
    5.670    6.0242
    5.700    5.8662
    5.730    5.5608
    5.760    5.6661
    5.790    5.9821
    5.820    5.8241
    5.850    5.5608
    5.880    5.7715
    5.910    5.7820
    5.940    5.6345
    5.970    5.6872
    6.000    5.4871
    6.030    5.9821
    6.060    5.7083
    6.090    5.6872
    6.120    5.7188
    6.150    5.6767
    6.180    5.9821
    6.210    5.9505
    6.240    5.9505
    6.270    5.8557
    6.300    6.0032
    6.330    6.1611
    6.360    6.0979
    6.390    6.2665
    6.420    6.2665
    6.450    5.9400
    6.480    6.2454
    6.510    6.6351
    6.540    6.1927
    6.570    6.4982
    6.600    6.3402
    6.630    6.5508
    6.660    6.9194
    6.690    7.1722
    6.720    7.0248
    6.750    7.2459
    6.780    7.6040
    6.810    7.5408
    6.840    8.4150
    6.870    8.6993
    6.900    8.9837
    6.930    8.8362
    6.960    9.3523
    6.990    8.6888
    7.020    8.4466
    7.050    7.7936
    7.080    6.9721
    7.110    6.7088
    7.140    6.3823
    7.170    5.8873
    7.200    5.9084
    7.230    6.2454
    7.260    6.5613
    7.290    6.0769
    7.320    6.2033
    7.350    6.2243
    7.380    6.0453
    7.410    6.1085
    7.440    6.2243
    7.470    5.9294
    7.500    5.9189
    7.530    6.3402
    7.560    5.9926
    7.590    6.0348
    7.620    6.3612
    7.650    6.1506
    7.680    5.8873
    7.710    6.1506
    7.740    5.6977
    7.770    6.1822
    7.800    6.4560
    7.830    6.3718
    7.860    6.7509
    7.890    6.6456
    7.920    6.6877
    7.950    6.6772
    7.980    6.4034
    8.010    6.6035
    8.040    6.3402
    8.070    6.7930
    8.100    7.1827
    8.130    6.6877
    8.160    6.8246
    8.190    6.7930
    8.220    6.5403
    8.250    6.8668
    8.280    7.4460
    8.310    6.4666
    8.340    7.2880
    8.370    6.9405
    8.400    6.9300
    8.430    6.6877
    8.460    7.1827
    8.490    6.4034
    8.520    6.2559
    8.550    6.8352
    8.580    6.4771
    8.610    6.6456
    8.640    6.5298
    8.670    5.9189
    8.700    6.4771
    8.730    6.4455
    8.760    6.1085
    8.790    6.2665
    8.820    6.1190
    8.850    5.8452
    8.880    6.0664
    8.910    5.9610
    8.940    6.1822
    8.970    6.0664
    9.000    5.6029
    9.030    5.9084
    9.060    5.8241
    9.090    5.6345
    9.120    5.4450
    9.150    5.7083
    9.180    5.6556
    9.210    5.4871
    9.240    5.8136
    9.270    5.9084
    9.300    5.7083
    9.330    5.3607
    9.360    5.9189
    9.390    6.0453
    9.420    5.7293
    9.450    5.5924
    9.480    5.5608
    9.510    5.7399
    9.540    5.5608
    9.570    5.5608
    9.600    5.6977
    9.630    5.8347
    9.660    5.4766
    9.690    5.6345
    9.720    5.2870
    9.750    5.6767
    9.780    5.6240
    9.810    5.7504
    9.840    5.6135
    9.870    5.6240
    9.900    6.0664
    9.930    5.6872
    9.960    5.5187
    9.990    5.4450
   10.020    5.6872
   10.050    5.5924
   10.080    5.8136
   10.110    5.2659
   10.140    5.4555
   10.170    5.4871
   10.200    5.6767
   10.230    5.8557
   10.260    5.7399
   10.290    5.6451
   10.320    5.8452
   10.350    5.6345
   10.380    5.4344
   10.410    5.6661
   10.440    5.5714
   10.470    5.6556
   10.500    5.4660
   10.530    5.7399
   10.560    5.5187
   10.590    5.6029
   10.620    5.4766
   10.650    5.3607
   10.680    5.6345
   10.710    5.7399
   10.740    5.5292
   10.770    5.3291
   10.800    5.4450
   10.830    5.3607
   10.860    5.5398
   10.890    5.4660
   10.920    5.5503
   10.950    5.7083
   10.980    5.2659
   11.010    5.3081
   11.040    5.2133
   11.070    5.5819
   11.100    5.2975
   11.130    5.3923
   11.160    5.0974
   11.190    5.5924
   11.220    5.7504
   11.250    4.7709
   11.280    5.3397
   11.310    5.2027
   11.340    5.6872
   11.370    5.3923
   11.400    5.5082
   11.430    5.7188
   11.460    5.2238
   11.490    5.5187
   11.520    5.3818
   11.550    5.0553
   11.580    5.5714
   11.610    5.5714
   11.640    5.6135
   11.670    5.4555
   11.700    5.6661
   11.730    5.4134
   11.760    5.3818
   11.790    5.6451
   11.820    5.6345
   11.850    5.2027
   11.880    5.2238
   11.910    5.4239
   11.940    5.6556
   11.970    5.1711
   12.000    5.4976
   12.030    5.3818
   12.060    5.4028
   12.090    5.7293
   12.120    5.4344
   12.150    5.4766
   12.180    4.9921
   12.210    5.4660
   12.240    5.3607
   12.270    5.5819
   12.300    5.3081
   12.330    5.4976
   12.360    5.6977
   12.390    5.8873
   12.420    5.1922
   12.450    5.2870
   12.480    5.4134
   12.510    5.4660
   12.540    5.2765
   12.570    5.4344
   12.600    5.4660
   12.630    5.6345
   12.660    4.8552
   12.690    5.4344
   12.720    5.6345
   12.750    5.1185
   12.780    5.0869
   12.810    5.3818
   12.840    5.5714
   12.870    5.6345
   12.900    5.4976
   12.930    5.1922
   12.960    5.4028
   12.990    5.3081
   13.020    5.5398
   13.050    5.4028
   13.080    5.3081
   13.110    5.2554
   13.140    5.1606
   13.170    5.3291
   13.200    5.1080
   13.230    5.3923
   13.260    5.3818
   13.290    4.8025
   13.320    5.0764
   13.350    5.3291
   13.380    5.0658
   13.410    5.1606
   13.440    5.4450
   13.470    5.3081
   13.500    5.3607
   13.530    5.1395
   13.560    5.3081
   13.590    5.4134
   13.620    5.4555
   13.650    5.2027
   13.680    5.0448
   13.710    5.5924
   13.740    5.4239
   13.770    5.0237
   13.800    4.9184
   13.830    5.3607
   13.860    5.2238
   13.890    5.0237
   13.920    5.1711
   13.950    4.9500
   13.980    5.2765
   14.010    5.0448
   14.040    5.4976
   14.070    5.0764
   14.100    4.8552
   14.130    5.2343
   14.160    5.0026
   14.190    5.3502
   14.220    5.3186
   14.250    5.4134
   14.280    5.0132
   14.310    5.1922
   14.340    4.9289
   14.370    5.1080
   14.400    5.1922
   14.430    4.9710
   14.460    5.0237
   14.490    5.5187
   14.520    5.1606
   14.550    4.7499
   14.580    5.1185
   14.610    5.2343
   14.640    4.7815
   14.670    5.2133
   14.700    5.0448
   14.730    5.2027
   14.760    4.8131
   14.790    4.8341
   14.820    4.9289
   14.850    5.2554
   14.880    5.3081
   14.910    5.1290
   14.940    5.0974
   14.970    5.0448
   15.000    4.9394
   15.030    5.0553
   15.060    5.5398
   15.090    5.1606
   15.120    4.8341
   15.150    4.7393
   15.180    5.0342
   15.210    5.0342
   15.240    4.7815
   15.270    5.4450
   15.300    5.1185
   15.330    5.2870
   15.360    5.0237
   15.390    5.1290
   15.420    5.1711
   15.450    4.4550
   15.480    4.9394
   15.510    5.3502
   15.540    5.0132
   15.570    5.0974
   15.600    4.9394
   15.630    4.9710
   15.660    5.2133
   15.690    5.2659
   15.720    4.9394
   15.750    5.1185
   15.780    4.8868
   15.810    4.8763
   15.840    5.6872
   15.870    5.2765
   15.900    5.2133
   15.930    5.4028
   15.960    5.2238
   15.990    5.4871
   16.020    5.6135
   16.050    5.4028
   16.080    4.9394
   16.110    5.1711
   16.140    5.0869
   16.170    5.1290
   16.200    5.3712
   16.230    4.8973
   16.260    5.1395
   16.290    5.2659
   16.320    5.1290
   16.350    5.1606
   16.380    5.0974
   16.410    4.9394
   16.440    5.0342
   16.470    5.2133
   16.500    5.2027
   16.530    5.0764
   16.560    5.0342
   16.590    5.1711
   16.620    4.9184
   16.650    4.9184
   16.680    5.2554
   16.710    5.0869
   16.740    4.9816
   16.770    5.1185
   16.800    5.3397
   16.830    5.1922
   16.860    4.8868
   16.890    5.2449
   16.920    5.1080
   16.950    4.8973
   16.980    5.3291
   17.010    5.0342
   17.040    5.1080
   17.070    5.1606
   17.100    4.8763
   17.130    5.4344
   17.160    5.2554
   17.190    5.1711
   17.220    5.2870
   17.250    5.2765
   17.280    4.9921
   17.310    4.7815
   17.340    5.1606
   17.370    5.1290
   17.400    5.1922
   17.430    5.0974
   17.460    5.2975
   17.490    4.7815
   17.520    4.6867
   17.550    5.1817
   17.580    5.0237
   17.610    5.0448
   17.640    5.3397
   17.670    5.2343
   17.700    5.0658
   17.730    5.0869
   17.760    5.2554
   17.790    5.2449
   17.820    5.2133
   17.850    5.2238
   17.880    5.1290
   17.910    5.1080
   17.940    5.2870
   17.970    5.1185
   18.000    5.2870
   18.030    5.0026
   18.060    5.1501
   18.090    4.9816
   18.120    5.0237
   18.150    5.0974
   18.180    5.3818
   18.210    5.1817
   18.240    5.4450
   18.270    5.4239
   18.300    5.4344
   18.330    5.2449
   18.360    4.9921
   18.390    4.8868
   18.420    5.3923
   18.450    5.3818
   18.480    5.0553
   18.510    5.0764
   18.540    5.3818
   18.570    5.0342
   18.600    5.5503
   18.630    5.1606
   18.660    5.0448
   18.690    5.1501
   18.720    5.4555
   18.750    5.3397
   18.780    5.3712
   18.810    5.1922
   18.840    5.0553
   18.870    5.0974
   18.900    5.4450
   18.930    4.9605
   18.960    5.0132
   18.990    5.1395
   19.020    5.2975
   19.050    5.2554
   19.080    5.4766
   19.110    4.8657
   19.140    5.1817
   19.170    5.3291
   19.200    5.2870
   19.230    5.2554
   19.260    5.2870
   19.290    5.2975
   19.320    5.3502
   19.350    5.4555
   19.380    5.4344
   19.410    5.1080
   19.440    5.1185
   19.470    5.3291
   19.500    5.0974
   19.530    5.4344
   19.560    5.2343
   19.590    5.4344
   19.620    5.3502
   19.650    5.5082
   19.680    5.4344
   19.710    5.3397
   19.740    5.3923
   19.770    5.4976
   19.800    5.3397
   19.830    5.4871
   19.860    5.3818
   19.890    5.2975
   19.920    5.7293
   19.950    5.3923
   19.980    5.4871
   20.010    5.1606
   20.040    5.4555
   20.070    5.5398
   20.100    5.4976
   20.130    5.5292
   20.160    5.3397
   20.190    5.4450
   20.220    5.9610
   20.250    5.6872
   20.280    5.4450
   20.310    5.3397
   20.340    5.4239
   20.370    5.0553
   20.400    5.6556
   20.430    5.4766
   20.460    5.0869
   20.490    5.4028
   20.520    5.4871
   20.550    5.3186
   20.580    5.3818
   20.610    5.5608
   20.640    5.5187
   20.670    5.5187
   20.700    5.4028
   20.730    5.6029
   20.760    5.2238
   20.790    5.3397
   20.820    5.6451
   20.850    5.3923
   20.880    5.4766
   20.910    5.6135
   20.940    5.5398
   20.970    5.6029
   21.000    4.8657
   21.030    5.3186
   21.060    5.4555
   21.090    5.5503
   21.120    5.5398
   21.150    5.3397
   21.180    5.2343
   21.210    5.3712
   21.240    5.4555
   21.270    5.5503
   21.300    5.7083
   21.330    5.1395
   21.360    5.4555
   21.390    5.2343
   21.420    5.3923
   21.450    5.3818
   21.480    5.3502
   21.510    5.5924
   21.540    5.5819
   21.570    5.5292
   21.600    5.2449
   21.630    5.2765
   21.660    5.1290
   21.690    5.5292
   21.720    5.3712
   21.750    5.2133
   21.780    5.4660
   21.810    5.2870
   21.840    5.4976
   21.870    5.2975
   21.900    5.2238
   21.930    5.7609
   21.960    5.5082
   21.990    5.4344
   22.020    5.5924
   22.050    5.4028
   22.080    5.5398
   22.110    5.6661
   22.140    5.6345
   22.170    5.0026
   22.200    5.4766
   22.230    5.8031
   22.260    5.4134
   22.290    4.9816
   22.320    5.7399
   22.350    5.8768
   22.380    5.5503
   22.410    5.6661
   22.440    5.6451
   22.470    5.2975
   22.500    5.4450
   22.530    5.4871
   22.560    5.4555
   22.590    5.2765
   22.620    5.3291
   22.650    5.0869
   22.680    5.4450
   22.710    5.5819
   22.740    5.4976
   22.770    5.4871
   22.800    5.4239
   22.830    5.5608
   22.860    5.6451
   22.890    5.5082
   22.920    5.3607
   22.950    5.6661
   22.980    5.0237
   23.010    5.4344
   23.040    5.1395
   23.070    5.6977
   23.100    5.5608
   23.130    5.0869
   23.160    5.4555
   23.190    5.4766
   23.220    5.3397
   23.250    5.2975
   23.280    5.2765
   23.310    5.0869
   23.340    5.4450
   23.370    5.4766
   23.400    5.4134
   23.430    5.8873
   23.460    5.0448
   23.490    5.2765
   23.520    5.4134
   23.550    5.1606
   23.580    5.2343
   23.610    5.1080
   23.640    5.3607
   23.670    4.9816
   23.700    5.2870
   23.730    5.6029
   23.760    5.0974
   23.790    5.1185
   23.820    5.2870
   23.850    5.3186
   23.880    4.9078
   23.910    4.8236
   23.940    5.4134
   23.970    5.5608
   24.000    5.6767
   24.030    5.1606
   24.060    5.0764
   24.090    5.3923
   24.120    5.2449
   24.150    5.4239
   24.180    4.9289
   24.210    5.3818
   24.240    5.2238
   24.270    5.1711
   24.300    5.2554
   24.330    5.3081
   24.360    4.9289
   24.390    5.0553
   24.420    5.4450
   24.450    5.1817
   24.480    5.2449
   24.510    5.6451
   24.540    5.5398
   24.570    5.2343
   24.600    5.1290
   24.630    5.4239
   24.660    5.1817
   24.690    5.0553
   24.720    5.2765
   24.750    5.3186
   24.780    5.1922
   24.810    5.0448
   24.840    4.8341
   24.870    5.1711
   24.900    5.4239
   24.930    5.2449
   24.960    5.0132
   24.990    4.9078
   25.020    4.8973
   25.050    5.1395
   25.080    5.3818
   25.110    5.1817
   25.140    5.2133
   25.170    5.2449
   25.200    4.8763
   25.230    5.0658
   25.260    5.1080
   25.290    5.2343
   25.320    5.0237
   25.350    5.3291
   25.380    5.0658
   25.410    4.8025
   25.440    5.1185
   25.470    4.7920
   25.500    4.9921
   25.530    4.7815
   25.560    5.1080
   25.590    4.7499
   25.620    4.9921
   25.650    4.8657
   25.680    4.9605
   25.710    4.8868
   25.740    4.8236
   25.770    5.2027
   25.800    4.9605
   25.830    5.3818
   25.860    5.0553
   25.890    4.8657
   25.920    5.3818
   25.950    4.7288
   25.980    5.4871
   26.010    4.7077
   26.040    5.7083
   26.070    4.9184
   26.100    4.7077
   26.130    4.9816
   26.160    4.6972
   26.190    5.1080
   26.220    5.0764
   26.250    4.7815
   26.280    5.1922
   26.310    5.5082
   26.340    4.9605
   26.370    5.0342
   26.400    5.0237
   26.430    5.0026
   26.460    4.9605
   26.490    4.8341
   26.520    4.9078
   26.550    5.0342
   26.580    5.0026
   26.610    5.3923
   26.640    4.5708
   26.670    5.3186
   26.700    5.0026
   26.730    5.1185
   26.760    4.9605
   26.790    4.8763
   26.820    5.0553
   26.850    5.1501
   26.880    4.8025
   26.910    4.8341
   26.940    4.5392
   26.970    4.7077
   27.000    4.8552
   27.030    5.0869
   27.060    4.7815
   27.090    4.6551
   27.120    4.7709
   27.150    4.8131
   27.180    4.7288
   27.210    4.7604
   27.240    4.9605
   27.270    4.6340
   27.300    4.7499
   27.330    4.9500
   27.360    4.6867
   27.390    4.8341
   27.420    4.7604
   27.450    4.8763
   27.480    4.8447
   27.510    4.7393
   27.540    4.8763
   27.570    4.8131
   27.600    4.4760
   27.630    4.8973
   27.660    4.5287
   27.690    5.0026
   27.720    5.1922
   27.750    4.8131
   27.780    4.8341
   27.810    4.8131
   27.840    4.6867
   27.870    4.5076
   27.900    4.6551
   27.930    4.7077
   27.960    4.7815
   27.990    4.6445
   28.020    4.7288
   28.050    4.7920
   28.080    4.9710
   28.110    4.4971
   28.140    4.5603
   28.170    4.6340
   28.200    4.7920
   28.230    4.6235
   28.260    4.5814
   28.290    4.6130
   28.320    4.7499
   28.350    4.8973
   28.380    4.6656
   28.410    4.6235
   28.440    5.0869
   28.470    4.6130
   28.500    4.6024
   28.530    4.7499
   28.560    4.8447
   28.590    4.6867
   28.620    4.9184
   28.650    4.4234
   28.680    4.8763
   28.710    4.6761
   28.740    4.6972
   28.770    4.6235
   28.800    4.6867
   28.830    4.7393
   28.860    4.6656
   28.890    4.4444
   28.920    4.8341
   28.950    4.8657
   28.980    4.4971
   29.010    4.6340
   29.040    4.7183
   29.070    4.6972
   29.100    4.4128
   29.130    4.3602
   29.160    4.5287
   29.190    4.5708
   29.220    4.6761
   29.250    4.7499
   29.280    4.6130
   29.310    4.4971
   29.340    4.4550
   29.370    4.6972
   29.400    4.4971
   29.430    4.4339
   29.460    4.8973
   29.490    4.4128
   29.520    4.2338
   29.550    4.7288
   29.580    4.5708
   29.610    4.4760
   29.640    4.2970
   29.670    4.6867
   29.700    4.5287
   29.730    4.6235
   29.760    4.2549
   29.790    4.3918
   29.820    4.3286
   29.850    4.4023
   29.880    4.6656
   29.910    4.4444
   29.940    4.6340
   29.970    4.5919
   30.000    4.5287
   30.030    4.4444
   30.060    4.2127
   30.090    4.4128
   30.120    4.5392
   30.150    4.4760
   30.180    4.5708
   30.210    4.5392
   30.240    4.1706
   30.270    4.3602
   30.300    4.3602
   30.330    4.1601
   30.360    4.4655
   30.390    4.2443
   30.420    4.4760
   30.450    4.4866
   30.480    4.5708
   30.510    4.3497
   30.540    4.8973
   30.570    4.5814
   30.600    4.4550
   30.630    4.4655
   30.660    4.4760
   30.690    4.1811
   30.720    4.4339
   30.750    4.3391
   30.780    4.1601
   30.810    4.3075
   30.840    4.3075
   30.870    4.4655
   30.900    4.3391
   30.930    4.1601
   30.960    4.5708
   30.990    4.2759
   31.020    4.0969
   31.050    4.2654
   31.080    4.1706
   31.110    4.2549
   31.140    4.3075
   31.170    4.1917
   31.200    4.2759
   31.230    4.2865
   31.260    4.5814
   31.290    4.3813
   31.320    4.1074
   31.350    4.1811
   31.380    4.0021
   31.410    4.2022
   31.440    4.4444
   31.470    4.3075
   31.500    4.4234
   31.530    4.1285
   31.560    4.5182
   31.590    4.1285
   31.620    4.6235
   31.650    4.1074
   31.680    4.2759
   31.710    4.4760
   31.740    4.3075
   31.770    4.3497
   31.800    4.3707
   31.830    4.1601
   31.860    4.0021
   31.890    3.8125
   31.920    4.0126
   31.950    4.0758
   31.980    4.3707
   32.010    4.2970
   32.040    4.0969
   32.070    4.2022
   32.100    4.4234
   32.130    4.2549
   32.160    3.9916
   32.190    4.2549
   32.220    4.6656
   32.250    4.0232
   32.280    4.2970
   32.310    4.1917
   32.340    3.9600
   32.370    4.1706
   32.400    4.0337
   32.430    4.0758
   32.460    4.1917
   32.490    4.0442
   32.520    4.2443
   32.550    4.2970
   32.580    3.9810
   32.610    4.0864
   32.640    3.7072
   32.670    4.1074
   32.700    4.2759
   32.730    3.6967
   32.760    3.9494
   32.790    3.9073
   32.820    4.0758
   32.850    4.0969
   32.880    3.8125
   32.910    4.0653
   32.940    4.0126
   32.970    4.0758
   33.000    4.1496
   33.030    3.9600
   33.060    4.2022
   33.090    4.0969
   33.120    4.2022
   33.150    3.7809
   33.180    3.9494
   33.210    3.9284
   33.240    3.7283
   33.270    4.0021
   33.300    3.9810
   33.330    3.9494
   33.360    3.9389
   33.390    3.7809
   33.420    3.7704
   33.450    4.1601
   33.480    4.0126
   33.510    4.0021
   33.540    3.8020
   33.570    3.8652
   33.600    4.0758
   33.630    3.7809
   33.660    3.8441
   33.690    4.0021
   33.720    4.0653
   33.750    3.7177
   33.780    3.9179
   33.810    3.9810
   33.840    4.0337
   33.870    3.7809
   33.900    3.6651
   33.930    4.1390
   33.960    4.0969
   33.990    3.6440
   34.020    3.9389
   34.050    3.8547
   34.080    3.6124
   34.110    3.8968
   34.140    3.9389
   34.170    3.9073
   34.200    4.0337
   34.230    3.9284
   34.260    3.6756
   34.290    3.8441
   34.320    3.8757
   34.350    3.6967
   34.380    4.0864
   34.410    3.9073
   34.440    3.8336
   34.470    3.9073
   34.500    3.6651
   34.530    3.7388
   34.560    3.7599
   34.590    4.0021
   34.620    3.9284
   34.650    3.8968
   34.680    3.6019
   34.710    3.7809
   34.740    3.6440
   34.770    3.7704
   34.800    3.7283
   34.830    3.7599
   34.860    3.9705
   34.890    4.0232
   34.920    3.6967
   34.950    3.7809
   34.980    3.5703
   35.010    3.8547
   35.040    3.5914
   35.070    3.8652
   35.100    4.0548
   35.130    3.8336
   35.160    3.8020
   35.190    4.1180
   35.220    3.5176
   35.250    3.8757
   35.280    3.7388
   35.310    3.6546
   35.340    3.9284
   35.370    3.5914
   35.400    3.6967
   35.430    3.7809
   35.460    3.5703
   35.490    3.8125
   35.520    3.5914
   35.550    3.7493
   35.580    3.5282
   35.610    3.7599
   35.640    3.9179
   35.670    3.8020
   35.700    3.3491
   35.730    3.3807
   35.760    3.6440
   35.790    3.7388
   35.820    3.5703
   35.850    3.8863
   35.880    3.7283
   35.910    3.8125
   35.940    3.4650
   35.970    3.5176
   36.000    3.8231
   36.030    3.6440
   36.060    3.8441
   36.090    3.7493
   36.120    3.6546
   36.150    3.4966
   36.180    3.8757
   36.210    3.4334
   36.240    3.5598
   36.270    3.8020
   36.300    3.5071
   36.330    3.7388
   36.360    3.7704
   36.390    3.7599
   36.420    3.6651
   36.450    3.6440
   36.480    3.7072
   36.510    3.5492
   36.540    3.4755
   36.570    3.7599
   36.600    3.4755
   36.630    3.5808
   36.660    3.6335
   36.690    3.5598
   36.720    4.0021
   36.750    3.4860
   36.780    3.5176
   36.810    3.2333
   36.840    3.7177
   36.870    3.1069
   36.900    3.4229
   36.930    3.8020
   36.960    3.4966
   36.990    3.6124
   37.020    3.7283
   37.050    3.8757
   37.080    3.6230
   37.110    3.5914
   37.140    3.6967
   37.170    3.6862
   37.200    3.8968
   37.230    3.5808
   37.260    3.6862
   37.290    3.4334
   37.320    3.6756
   37.350    3.5071
   37.380    3.5387
   37.410    3.5176
   37.440    3.5808
   37.470    3.4860
   37.500    3.3913
   37.530    3.3175
   37.560    3.6440
   37.590    3.4229
   37.620    3.4018
   37.650    3.4439
   37.680    3.2754
   37.710    3.3807
   37.740    3.4544
   37.770    3.8125
   37.800    3.3807
   37.830    3.6019
   37.860    3.6546
   37.890    3.5071
   37.920    3.9389
   37.950    3.6019
   37.980    3.3070
   38.010    3.6124
   38.040    3.4755
   38.070    3.6862
   38.100    3.2754
   38.130    3.5071
   38.160    3.6124
   38.190    3.4018
   38.220    3.4229
   38.250    3.4966
   38.280    3.4334
   38.310    3.4439
   38.340    3.3386
   38.370    3.4439
   38.400    3.7388
   38.430    3.7704
   38.460    3.6651
   38.490    3.5176
   38.520    3.4123
   38.550    3.3070
   38.580    3.3597
   38.610    3.2965
   38.640    3.3175
   38.670    3.5387
   38.700    3.1490
   38.730    3.2859
   38.760    3.4544
   38.790    3.1912
   38.820    3.6230
   38.850    3.3491
   38.880    3.6230
   38.910    3.6862
   38.940    3.5071
   38.970    3.5808
   39.000    3.5914
   39.030    3.4123
   39.060    3.4123
   39.090    3.2754
   39.120    3.6862
   39.150    3.6335
   39.180    3.7809
   39.210    3.3807
   39.240    3.6862
   39.270    3.2543
   39.300    3.2649
   39.330    3.5914
   39.360    3.5071
   39.390    3.5387
   39.420    3.4755
   39.450    3.6335
   39.480    3.4650
   39.510    3.5598
   39.540    3.6967
   39.570    3.3491
   39.600    3.3807
   39.630    3.6230
   39.660    3.4544
   39.690    3.5282
   39.720    3.5808
   39.750    3.5176
   39.780    3.5282
   39.810    3.5176
   39.840    3.1385
   39.870    3.6124
   39.900    3.5387
   39.930    3.4860
   39.960    3.5492
   39.990    3.2333