File: data/MOCOF-1/PXRD/PXRD_KE-147_Cu-Ka1_film-3mm_5s-deg.xyd
    1.500   13.4702
    1.530   13.2596
    1.560   12.6698
    1.590   12.2801
    1.620   12.3539
    1.650   12.2275
    1.680   11.1427
    1.710   11.3007
    1.740   11.1743
    1.770   10.4265
    1.800   10.0685
    1.830    9.7946
    1.860    9.7104
    1.890    9.8262
    1.920    9.4576
    1.950    9.4050
    1.980    9.5840
    2.010    8.4255
    2.040    8.8573
    2.070    8.3307
    2.100    8.4466
    2.130    8.6677
    2.160    8.5413
    2.190    8.2254
    2.220    8.0885
    2.250    8.1727
    2.280    8.1306
    2.310    7.8673
    2.340    7.7304
    2.370    7.5724
    2.400    7.8778
    2.430    7.7514
    2.460    7.5619
    2.490    7.2880
    2.520    7.2038
    2.550    7.0458
    2.580    7.5092
    2.610    7.5513
    2.640    7.2986
    2.670    7.1195
    2.700    7.0037
    2.730    6.9300
    2.760    6.8141
    2.790    6.5824
    2.820    6.8878
    2.850    6.6983
    2.880    6.6456
    2.910    6.5613
    2.940    6.6035
    2.970    6.4560
    3.000    6.3296
    3.030    6.6877
    3.060    6.7299
    3.090    6.4876
    3.120    6.6561
    3.150    6.3507
    3.180    6.4771
    3.210    6.5298
    3.240    6.6772
    3.270    6.5613
    3.300    6.4560
    3.330    6.3191
    3.360    6.1822
    3.390    6.2454
    3.420    6.2665
    3.450    6.7509
    3.480    6.6983
    3.510    6.4982
    3.540    6.1822
    3.570    6.2138
    3.600    6.5824
    3.630    6.0453
    3.660    5.9084
    3.690    6.3296
    3.720    5.9400
    3.750    5.9716
    3.780    6.2349
    3.810    6.0453
    3.840    6.4560
    3.870    5.9189
    3.900    6.1190
    3.930    6.1295
    3.960    6.2981
    3.990    5.7293
    4.020    6.0874
    4.050    6.1927
    4.080    6.0979
    4.110    5.9400
    4.140    6.4244
    4.170    6.1190
    4.200    6.1717
    4.230    6.4034
    4.260    6.0453
    4.290    6.0137
    4.320    6.0348
    4.350    6.1190
    4.380    5.9610
    4.410    6.5613
    4.440    6.0979
    4.470    6.3402
    4.500    6.1611
    4.530    5.8768
    4.560    5.9926
    4.590    6.0348
    4.620    6.5719
    4.650    6.1295
    4.680    6.1927
    4.710    6.1190
    4.740    6.4771
    4.770    6.3823
    4.800    6.4982
    4.830    6.6667
    4.860    6.0979
    4.890    6.3507
    4.920    6.6877
    4.950    6.6561
    4.980    6.5192
    5.010    6.3823
    5.040    6.4139
    5.070    6.5824
    5.100    6.8562
    5.130    6.8773
    5.160    6.7825
    5.190    6.7404
    5.220    7.0669
    5.250    7.1827
    5.280    7.0879
    5.310    6.9721
    5.340    7.6040
    5.370    6.9932
    5.400    7.4039
    5.430    7.7093
    5.460    7.7409
    5.490    7.2880
    5.520    7.5829
    5.550    7.7093
    5.580    7.7304
    5.610    7.6356
    5.640    7.4355
    5.670    8.0358
    5.700    7.2459
    5.730    7.1617
    5.760    7.0563
    5.790    6.7615
    5.820    6.9721
    5.850    6.6561
    5.880    6.4666
    5.910    6.6456
    5.940    6.6035
    5.970    6.7509
    6.000    6.4982
    6.030    6.0453
    6.060    6.0453
    6.090    6.1190
    6.120    6.0769
    6.150    6.3823
    6.180    6.2033
    6.210    6.2981
    6.240    5.8031
    6.270    6.0453
    6.300    6.2559
    6.330    5.8978
    6.360    5.9084
    6.390    5.4344
    6.420    5.6451
    6.450    5.4344
    6.480    5.5714
    6.510    5.6135
    6.540    5.5292
    6.570    5.7504
    6.600    5.4134
    6.630    6.1611
    6.660    5.4450
    6.690    5.5819
    6.720    5.6240
    6.750    5.5819
    6.780    5.4660
    6.810    5.8241
    6.840    5.6556
    6.870    5.5398
    6.900    5.3502
    6.930    5.1080
    6.960    5.4344
    6.990    5.6977
    7.020    5.3712
    7.050    5.4134
    7.080    5.0658
    7.110    5.4344
    7.140    5.0448
    7.170    5.3186
    7.200    5.0764
    7.230    5.2343
    7.260    5.1501
    7.290    4.6235
    7.320    4.9710
    7.350    5.3291
    7.380    5.4976
    7.410    5.1290
    7.440    5.0342
    7.470    4.9605
    7.500    5.1606
    7.530    4.6235
    7.560    5.0132
    7.590    5.2554
    7.620    4.9921
    7.650    4.5919
    7.680    4.7499
    7.710    4.8868
    7.740    4.8657
    7.770    4.7709
    7.800    4.7920
    7.830    5.1185
    7.860    4.9816
    7.890    4.7709
    7.920    4.6340
    7.950    4.8868
    7.980    4.8552
    8.010    5.2027
    8.040    4.5392
    8.070    4.9605
    8.100    4.7183
    8.130    4.5814
    8.160    4.6867
    8.190    4.3813
    8.220    4.4760
    8.250    4.5603
    8.280    4.7709
    8.310    4.7815
    8.340    4.5814
    8.370    4.5708
    8.400    4.4550
    8.430    4.8341
    8.460    4.4444
    8.490    4.1496
    8.520    4.6130
    8.550    4.4023
    8.580    4.4550
    8.610    4.3707
    8.640    4.6656
    8.670    4.6235
    8.700    4.5498
    8.730    4.6130
    8.760    4.6024
    8.790    4.1285
    8.820    4.4444
    8.850    4.9394
    8.880    4.9078
    8.910    4.9500
    8.940    4.4234
    8.970    4.2654
    9.000    4.5392
    9.030    4.6130
    9.060    4.4339
    9.090    4.3181
    9.120    4.5919
    9.150    4.4023
    9.180    4.4971
    9.210    4.3707
    9.240    4.3813
    9.270    4.6551
    9.300    4.5919
    9.330    4.4023
    9.360    4.4550
    9.390    4.5919
    9.420    4.3181
    9.450    4.1706
    9.480    4.3602
    9.510    4.2759
    9.540    4.6972
    9.570    4.3497
    9.600    4.2338
    9.630    4.6656
    9.660    4.3813
    9.690    4.5498
    9.720    4.2865
    9.750    4.4023
    9.780    4.1180
    9.810    4.2654
    9.840    4.3602
    9.870    4.1390
    9.900    4.0126
    9.930    4.3181
    9.960    4.1496
    9.990    4.3813
   10.020    4.3075
   10.050    4.4339
   10.080    4.5182
   10.110    4.1706
   10.140    4.2443
   10.170    4.2127
   10.200    4.4550
   10.230    4.2127
   10.260    4.1496
   10.290    4.8657
   10.320    4.4234
   10.350    4.5919
   10.380    4.5708
   10.410    4.5076
   10.440    4.0548
   10.470    3.9810
   10.500    4.3391
   10.530    4.1706
   10.560    4.4128
   10.590    4.5708
   10.620    4.4023
   10.650    4.5392
   10.680    4.5498
   10.710    4.5076
   10.740    4.0758
   10.770    4.2233
   10.800    4.3707
   10.830    4.8763
   10.860    4.4550
   10.890    4.5603
   10.920    4.5392
   10.950    4.6867
   10.980    4.6761
   11.010    4.6235
   11.040    4.4550
   11.070    4.6024
   11.100    4.6551
   11.130    4.1285
   11.160    4.3075
   11.190    4.2549
   11.220    4.5919
   11.250    4.6130
   11.280    4.5603
   11.310    4.5814
   11.340    4.2338
   11.370    4.4655
   11.400    4.4128
   11.430    4.3918
   11.460    4.0442
   11.490    4.5182
   11.520    4.4866
   11.550    4.5392
   11.580    4.2443
   11.610    4.1285
   11.640    4.4444
   11.670    4.4339
   11.700    4.2443
   11.730    4.2654
   11.760    4.3497
   11.790    4.4550
   11.820    4.8341
   11.850    4.3602
   11.880    4.3181
   11.910    4.3286
   11.940    4.2865
   11.970    4.4234
   12.000    4.1180
   12.030    4.3813
   12.060    4.6130
   12.090    4.2443
   12.120    4.4760
   12.150    4.4760
   12.180    4.3918
   12.210    4.4023
   12.240    4.4234
   12.270    4.3602
   12.300    4.5498
   12.330    4.2654
   12.360    4.0758
   12.390    4.5919
   12.420    4.2865
   12.450    4.2759
   12.480    4.1601
   12.510    4.0548
   12.540    4.0969
   12.570    4.0021
   12.600    4.1917
   12.630    4.2233
   12.660    4.4128
   12.690    4.2654
   12.720    4.3181
   12.750    3.9494
   12.780    4.4128
   12.810    4.4339
   12.840    4.2970
   12.870    4.2759
   12.900    4.4444
   12.930    4.1285
   12.960    4.1811
   12.990    3.9073
   13.020    4.5814
   13.050    3.9916
   13.080    4.3707
   13.110    4.6130
   13.140    3.9284
   13.170    4.5708
   13.200    4.1706
   13.230    4.1706
   13.260    4.2549
   13.290    4.2127
   13.320    4.4339
   13.350    4.5498
   13.380    4.3181
   13.410    4.4760
   13.440    4.1074
   13.470    4.4866
   13.500    4.0864
   13.530    4.5603
   13.560    4.2549
   13.590    3.9600
   13.620    4.1706
   13.650    4.3497
   13.680    3.9284
   13.710    4.2127
   13.740    4.2338
   13.770    4.5182
   13.800    4.1496
   13.830    3.9389
   13.860    4.2443
   13.890    4.1496
   13.920    4.3602
   13.950    4.5919
   13.980    4.3813
   14.010    4.6235
   14.040    4.2970
   14.070    4.3707
   14.100    4.3707
   14.130    4.4128
   14.160    4.1074
   14.190    4.5182
   14.220    4.5498
   14.250    4.4760
   14.280    4.6340
   14.310    4.4444
   14.340    4.5603
   14.370    4.6761
   14.400    4.4023
   14.430    4.6130
   14.460    4.4550
   14.490    4.9394
   14.520    4.8025
   14.550    4.5814
   14.580    4.4760
   14.610    4.6024
   14.640    4.7288
   14.670    4.4866
   14.700    4.3391
   14.730    4.7604
   14.760    4.2022
   14.790    4.4234
   14.820    4.4971
   14.850    4.2654
   14.880    4.7393
   14.910    4.5392
   14.940    4.5182
   14.970    4.3707
   15.000    4.1390
   15.030    4.7499
   15.060    4.2865
   15.090    4.4866
   15.120    4.4971
   15.150    4.3075
   15.180    4.2127
   15.210    4.1390
   15.240    4.1496
   15.270    4.2654
   15.300    4.2022
   15.330    4.5392
   15.360    4.4234
   15.390    4.4234
   15.420    4.4550
   15.450    4.0548
   15.480    4.5603
   15.510    4.5498
   15.540    4.4234
   15.570    4.4866
   15.600    4.2022
   15.630    4.3497
   15.660    4.2654
   15.690    4.6340
   15.720    4.3286
   15.750    4.6656
   15.780    4.7499
   15.810    4.7288
   15.840    4.6340
   15.870    4.8341
   15.900    4.5919
   15.930    4.9394
   15.960    5.0764
   15.990    5.1185
   16.020    5.4344
   16.050    5.0237
   16.080    5.0448
   16.110    5.5608
   16.140    5.9189
   16.170    5.1817
   16.200    5.2765
   16.230    5.4239
   16.260    5.2870
   16.290    5.4239
   16.320    5.0869
   16.350    4.9921
   16.380    5.0764
   16.410    4.4866
   16.440    4.6761
   16.470    4.6235
   16.500    4.7920
   16.530    4.4444
   16.560    4.4023
   16.590    4.3181
   16.620    4.5814
   16.650    4.5603
   16.680    4.4023
   16.710    4.5498
   16.740    4.0864
   16.770    4.3181
   16.800    4.5919
   16.830    4.5392
   16.860    4.3813
   16.890    4.4339
   16.920    3.9494
   16.950    4.2233
   16.980    4.6235
   17.010    4.1601
   17.040    4.4655
   17.070    4.8763
   17.100    4.4971
   17.130    4.2233
   17.160    4.3602
   17.190    4.2759
   17.220    3.9705
   17.250    4.1811
   17.280    4.2233
   17.310    4.0021
   17.340    4.3497
   17.370    4.3602
   17.400    4.1811
   17.430    4.1074
   17.460    4.3391
   17.490    4.3181
   17.520    4.4655
   17.550    4.3813
   17.580    4.4866
   17.610    4.5919
   17.640    4.0864
   17.670    4.1917
   17.700    4.2865
   17.730    4.1496
   17.760    4.1706
   17.790    4.1390
   17.820    4.2759
   17.850    4.3918
   17.880    4.5182
   17.910    4.5076
   17.940    4.3497
   17.970    4.4866
   18.000    4.1285
   18.030    4.2654
   18.060    4.3497
   18.090    4.6130
   18.120    4.0969
   18.150    4.0758
   18.180    4.1074
   18.210    4.5498
   18.240    4.2865
   18.270    4.1706
   18.300    4.4128
   18.330    4.2127
   18.360    4.1180
   18.390    4.1496
   18.420    4.2022
   18.450    3.8441
   18.480    4.2127
   18.510    4.3391
   18.540    4.3391
   18.570    4.0442
   18.600    4.2127
   18.630    4.2970
   18.660    4.4760
   18.690    4.0337
   18.720    3.8231
   18.750    4.4655
   18.780    4.0864
   18.810    4.4339
   18.840    4.2970
   18.870    4.2443
   18.900    4.2759
   18.930    4.6340
   18.960    4.8763
   18.990    5.7504
   19.020    5.2554
   19.050    4.8236
   19.080    3.6651
   19.110    4.1496
   19.140    4.2865
   19.170    4.3602
   19.200    4.3075
   19.230    4.2549
   19.260    4.2338
   19.290    4.1601
   19.320    4.3497
   19.350    4.4339
   19.380    4.2865
   19.410    4.2443
   19.440    4.0126
   19.470    4.2022
   19.500    3.8020
   19.530    3.9073
   19.560    4.2127
   19.590    4.0232
   19.620    3.8547
   19.650    4.1180
   19.680    4.3286
   19.710    4.0021
   19.740    4.1180
   19.770    4.0548
   19.800    3.8231
   19.830    3.7072
   19.860    4.0864
   19.890    4.2654
   19.920    4.2759
   19.950    3.9705
   19.980    3.8547
   20.010    3.9916
   20.040    4.1601
   20.070    3.8441
   20.100    4.1496
   20.130    3.8336
   20.160    4.0864
   20.190    3.9179
   20.220    3.6862
   20.250    3.9073
   20.280    3.7809
   20.310    3.8125
   20.340    4.0758
   20.370    4.1811
   20.400    4.0442
   20.430    3.9284
   20.460    3.7283
   20.490    4.2443
   20.520    3.8757
   20.550    4.0442
   20.580    3.6862
   20.610    3.9284
   20.640    4.0758
   20.670    4.0864
   20.700    4.2127
   20.730    3.7704
   20.760    3.8757
   20.790    4.0021
   20.820    3.9810
   20.850    4.0548
   20.880    4.1917
   20.910    3.9810
   20.940    4.0232
   20.970    3.7704
   21.000    4.0021
   21.030    3.6756
   21.060    3.9284
   21.090    4.0758
   21.120    4.1390
   21.150    3.7704
   21.180    3.8441
   21.210    3.9284
   21.240    4.1180
   21.270    3.8757
   21.300    3.7704
   21.330    3.7493
   21.360    3.8757
   21.390    4.0758
   21.420    4.0232
   21.450    3.6651
   21.480    4.0337
   21.510    4.2127
   21.540    3.8231
   21.570    3.8757
   21.600    3.9073
   21.630    4.0442
   21.660    3.7072
   21.690    4.0442
   21.720    3.9916
   21.750    3.7283
   21.780    3.7809
   21.810    3.7915
   21.840    3.7704
   21.870    4.2338
   21.900    3.3702
   21.930    3.9494
   21.960    3.7283
   21.990    3.8231
   22.020    3.9494
   22.050    4.0232
   22.080    3.7177
   22.110    3.8336
   22.140    3.9705
   22.170    3.5176
   22.200    3.8020
   22.230    3.6124
   22.260    3.7493
   22.290    3.8020
   22.320    3.7704
   22.350    3.6756
   22.380    3.6651
   22.410    4.1180
   22.440    3.9073
   22.470    4.0126
   22.500    3.8652
   22.530    3.9073
   22.560    3.8336
   22.590    3.5598
   22.620    3.9073
   22.650    3.8125
   22.680    3.4439
   22.710    3.3702
   22.740    3.6019
   22.770    3.8125
   22.800    3.7704
   22.830    3.9179
   22.860    3.9179
   22.890    3.7704
   22.920    3.9705
   22.950    3.6862
   22.980    3.9916
   23.010    3.5387
   23.040    3.6756
   23.070    3.9284
   23.100    4.4760
   23.130    4.2022
   23.160    4.0864
   23.190    3.7283
   23.220    3.7072
   23.250    3.5703
   23.280    3.5914
   23.310    3.6862
   23.340    3.5914
   23.370    3.8125
   23.400    3.6440
   23.430    3.9179
   23.460    3.8652
   23.490    3.6230
   23.520    3.6124
   23.550    3.5808
   23.580    3.8441
   23.610    3.3386
   23.640    3.8336
   23.670    3.7809
   23.700    3.5808
   23.730    3.7388
   23.760    3.7599
   23.790    3.3597
   23.820    3.5492
   23.850    3.6440
   23.880    3.6335
   23.910    3.7599
   23.940    3.4439
   23.970    3.5492
   24.000    3.5387
   24.030    3.7388
   24.060    3.6440
   24.090    3.5282
   24.120    3.5492
   24.150    3.6124
   24.180    3.8020
   24.210    3.4123
   24.240    3.9389
   24.270    4.0864
   24.300    3.4966
   24.330    3.7388
   24.360    3.5071
   24.390    3.5808
   24.420    3.3281
   24.450    3.3386
   24.480    3.4860
   24.510    3.4755
   24.540    3.4229
   24.570    3.4755
   24.600    3.8441
   24.630    3.3597
   24.660    3.2754
   24.690    3.6967
   24.720    3.5914
   24.750    3.3175
   24.780    3.4123
   24.810    3.6440
   24.840    3.6862
   24.870    3.7072
   24.900    3.9179
   24.930    3.4229
   24.960    3.8441
   24.990    3.5808
   25.020    3.3597
   25.050    3.5598
   25.080    3.7177
   25.110    3.3491
   25.140    3.8863
   25.170    3.2333
   25.200    3.5492
   25.230    3.4650
   25.260    3.4123
   25.290    3.4439
   25.320    3.2859
   25.350    3.4860
   25.380    3.3807
   25.410    3.4123
   25.440    3.5598
   25.470    3.2543
   25.500    3.5703
   25.530    3.6862
   25.560    3.8020
   25.590    3.6230
   25.620    3.5492
   25.650    3.5387
   25.680    3.5914
   25.710    3.7388
   25.740    3.5703
   25.770    3.4229
   25.800    3.4966
   25.830    3.3070
   25.860    3.2965
   25.890    3.6440
   25.920    3.3702
   25.950    3.6756
   25.980    3.9179
   26.010    3.5387
   26.040    3.3702
   26.070    3.6335
   26.100    3.3070
   26.130    3.4018
   26.160    3.3281
   26.190    3.4334
   26.220    3.6440
   26.250    3.5387
   26.280    3.1596
   26.310    3.5176
   26.340    3.3070
   26.370    3.2859
   26.400    3.1174
   26.430    3.5071
   26.460    3.1069
   26.490    3.6124
   26.520    3.7072
   26.550    3.4544
   26.580    3.6335
   26.610    3.5492
   26.640    3.2859
   26.670    3.5598
   26.700    3.3175
   26.730    3.1701
   26.760    3.4966
   26.790    3.5387
   26.820    3.3807
   26.850    3.4123
   26.880    3.2543
   26.910    3.6651
   26.940    3.4123
   26.970    3.4334
   27.000    3.4018
   27.030    3.4544
   27.060    3.4229
   27.090    3.3386
   27.120    3.4334
   27.150    3.2649
   27.180    3.1280
   27.210    3.5071
   27.240    3.2543
   27.270    3.6440
   27.300    3.3597
   27.330    3.3913
   27.360    3.5387
   27.390    3.0964
   27.420    3.3807
   27.450    3.4334
   27.480    3.4650
   27.510    3.2122
   27.540    3.1385
   27.570    3.3070
   27.600    3.2438
   27.630    3.6019
   27.660    3.1912
   27.690    3.3597
   27.720    3.5598
   27.750    3.3597
   27.780    3.3070
   27.810    3.1806
   27.840    3.5071
   27.870    3.4229
   27.900    3.2227
   27.930    3.7704
   27.960    4.0864
   27.990    4.3813
   28.020    4.6867
   28.050    3.4860
   28.080    3.2333
   28.110    3.3597
   28.140    3.0332
   28.170    3.3070
   28.200    3.2543
   28.230    3.4018
   28.260    3.4860
   28.290    3.3702
   28.320    3.4018
   28.350    3.3491
   28.380    3.5808
   28.410    3.4650
   28.440    3.2754
   28.470    3.3913
   28.500    3.1490
   28.530    3.3597
   28.560    3.3070
   28.590    3.0648
   28.620    3.2543
   28.650    3.2122
   28.680    3.2859
   28.710    3.1912
   28.740    3.3597
   28.770    3.2438
   28.800    3.4334
   28.830    3.3913
   28.860    3.5703
   28.890    3.5282
   28.920    4.1601
   28.950    5.4871
   28.980    5.3818
   29.010    3.7704
   29.040    3.0858
   29.070    3.0542
   29.100    3.0226
   29.130    3.5492
   29.160    3.2017
   29.190    2.9805
   29.220    3.0332
   29.250    3.3491
   29.280    3.2543
   29.310    2.9279
   29.340    3.3491
   29.370    3.3175
   29.400    3.2649
   29.430    2.9068
   29.460    3.2017
   29.490    3.3597
   29.520    3.4123
   29.550    3.1385
   29.580    3.5282
   29.610    3.0964
   29.640    3.0437
   29.670    3.2017
   29.700    2.8647
   29.730    2.9805
   29.760    3.2965
   29.790    3.1385
   29.820    3.3597
   29.850    3.6335
   29.880    3.0858
   29.910    3.1069
   29.940    3.0964
   29.970    3.0858
   30.000    3.4439
   30.030    3.2122
   30.060    3.5071
   30.090    2.9910
   30.120    2.8225
   30.150    3.3913
   30.180    3.0542
   30.210    3.3807
   30.240    3.1385
   30.270    3.3491
   30.300    3.2122
   30.330    3.4966
   30.360    3.2333
   30.390    3.1806
   30.420    3.2965
   30.450    3.0226
   30.480    3.1069
   30.510    3.0332
   30.540    3.1280
   30.570    2.9279
   30.600    3.1174
   30.630    2.9910
   30.660    3.2859
   30.690    3.1385
   30.720    2.9805
   30.750    3.1806
   30.780    3.0437
   30.810    3.1806
   30.840    2.9595
   30.870    3.3070
   30.900    3.0332
   30.930    3.2649
   30.960    3.1806
   30.990    3.3281
   31.020    3.1280
   31.050    3.2333
   31.080    3.1280
   31.110    3.1596
   31.140    3.2754
   31.170    3.1174
   31.200    3.3281
   31.230    2.9595
   31.260    3.0542
   31.290    3.1385
   31.320    3.2965
   31.350    3.0858
   31.380    3.2754
   31.410    3.0964
   31.440    3.0121
   31.470    3.1701
   31.500    3.0648
   31.530    3.0226
   31.560    3.1174
   31.590    3.3807
   31.620    3.3281
   31.650    3.4123
   31.680    3.4544
   31.710    3.3913
   31.740    3.4229
   31.770    3.4650
   31.800    3.5387
   31.830    3.3281
   31.860    3.4123
   31.890    3.8547
   31.920    3.5282
   31.950    3.5176
   31.980    3.6019
   32.010    3.8863
   32.040    4.6551
   32.070    6.2559
   32.100    6.6877
   32.130    4.8552
   32.160    3.4229
   32.190    3.3913
   32.220    3.4966
   32.250    3.2859
   32.280    3.2333
   32.310    3.3386
   32.340    3.2649
   32.370    3.2859
   32.400    3.2438
   32.430    2.9384
   32.460    3.1912
   32.490    3.4334
   32.520    3.3702
   32.550    3.1069
   32.580    3.1912
   32.610    2.8963
   32.640    3.0016
   32.670    3.0648
   32.700    2.6224
   32.730    2.9700
   32.760    3.0542
   32.790    2.9279
   32.820    2.7699
   32.850    3.1174
   32.880    2.6330
   32.910    2.9910
   32.940    2.8436
   32.970    2.9805
   33.000    2.8963
   33.030    2.9489
   33.060    2.5382
   33.090    2.9173
   33.120    3.1701
   33.150    2.8647
   33.180    2.7067
   33.210    2.9595
   33.240    2.9384
   33.270    3.0858
   33.300    2.9384
   33.330    2.9173
   33.360    3.0332
   33.390    2.9805
   33.420    2.8647
   33.450    2.7383
   33.480    2.6540
   33.510    2.8963
   33.540    2.7278
   33.570    2.7488
   33.600    2.9068
   33.630    2.9068
   33.660    2.9489
   33.690    2.9805
   33.720    2.8331
   33.750    3.2017
   33.780    3.4334
   33.810    3.7283
   33.840    3.3281
   33.870    3.1596
   33.900    2.5487
   33.930    2.8752
   33.960    3.0542
   33.990    2.9700
   34.020    3.0437
   34.050    2.8541
   34.080    2.9068
   34.110    2.7278
   34.140    2.5698
   34.170    3.0016
   34.200    2.5908
   34.230    2.9173
   34.260    2.7067
   34.290    2.8015
   34.320    2.7383
   34.350    2.9068
   34.380    2.8436
   34.410    2.8647
   34.440    2.9279
   34.470    2.8331
   34.500    3.0648
   34.530    2.8436
   34.560    2.9068
   34.590    2.8752
   34.620    2.7067
   34.650    2.4118
   34.680    2.8225
   34.710    2.8436
   34.740    2.8963
   34.770    2.7593
   34.800    2.8857
   34.830    2.7909
   34.860    2.8752
   34.890    2.5908
   34.920    2.7488
   34.950    2.7593
   34.980    2.9173
   35.010    2.8015
   35.040    2.8436
   35.070    2.8541
   35.100    2.9279
   35.130    2.7909
   35.160    2.8857
   35.190    2.8857
   35.220    2.5908
   35.250    2.8120
   35.280    3.1069
   35.310    3.0858
   35.340    2.6435
   35.370    2.8436
   35.400    2.8857
   35.430    2.7909
   35.460    2.8857
   35.490    2.8647
   35.520    2.8647
   35.550    3.1385
   35.580    3.0332
   35.610    2.8015
   35.640    2.7172
   35.670    2.8857
   35.700    2.6330
   35.730    2.8647
   35.760    2.8015
   35.790    2.6014
   35.820    2.8225
   35.850    2.5803
   35.880    2.7278
   35.910    2.8015
   35.940    2.9700
   35.970    2.8541
   36.000    2.7067
   36.030    2.9805
   36.060    2.6435
   36.090    2.7383
   36.120    2.7699
   36.150    2.7909
   36.180    2.8752
   36.210    2.7172
   36.240    2.7593
   36.270    3.1280
   36.300    2.7488
   36.330    2.8331
   36.360    3.0121
   36.390    2.6856
   36.420    2.7172
   36.450    2.8541
   36.480    2.8120
   36.510    2.6435
   36.540    2.8541
   36.570    2.6646
   36.600    2.7172
   36.630    2.6856
   36.660    2.9279
   36.690    2.8857
   36.720    2.8436
   36.750    2.7067
   36.780    2.8647
   36.810    2.6224
   36.840    2.7067
   36.870    2.9489
   36.900    2.7488
   36.930    2.8015
   36.960    2.8752
   36.990    2.7278
   37.020    2.7383
   37.050    2.7699
   37.080    2.8331
   37.110    2.6962
   37.140    2.8331
   37.170    2.7172
   37.200    2.7593
   37.230    2.8015
   37.260    2.8857
   37.290    2.8331
   37.320    2.7909
   37.350    2.8015
   37.380    2.8225
   37.410    2.7278
   37.440    2.7593
   37.470    2.8436
   37.500    2.5487
   37.530    2.9595
   37.560    2.7488
   37.590    2.7172
   37.620    2.7909
   37.650    3.0332
   37.680    2.7909
   37.710    2.9279
   37.740    2.7488
   37.770    2.9489
   37.800    2.8647
   37.830    2.7278
   37.860    2.6119
   37.890    2.6646
   37.920    2.8015
   37.950    2.7383
   37.980    2.6330
   38.010    2.5171
   38.040    2.8015
   38.070    2.8647
   38.100    2.9910
   38.130    2.9173
   38.160    2.8647
   38.190    2.8963
   38.220    2.8541
   38.250    3.0648
   38.280    2.8541
   38.310    2.9068
   38.340    2.7383
   38.370    2.7383
   38.400    2.8647
   38.430    2.8752
   38.460    3.0753
   38.490    2.9384
   38.520    2.8541
   38.550    3.3491
   38.580    3.2965
   38.610    3.4860
   38.640    2.7593
   38.670    3.0121
   38.700    2.8331
   38.730    3.1490
   38.760    3.2649
   38.790    3.0858
   38.820    2.9279
   38.850    3.1385
   38.880    3.1701
   38.910    2.8963
   38.940    2.9384
   38.970    3.1069
   39.000    3.3702
   39.030    3.4439
   39.060    3.4123
   39.090    3.4334
   39.120    3.7177
   39.150    3.4755
   39.180    3.4334
   39.210    3.4018
   39.240    3.3070
   39.270    3.4650
   39.300    3.4439
   39.330    3.1174
   39.360    3.5176
   39.390    3.3597
   39.420    3.2649
   39.450    3.2017
   39.480    3.1806
   39.510    2.9173
   39.540    2.6856
   39.570    3.0226
   39.600    3.1174
   39.630    2.9805
   39.660    2.9910
   39.690    2.6751
   39.720    3.2649
   39.750    2.7172
   39.780    2.9173
   39.810    2.7804
   39.840    2.7488
   39.870    2.7172
   39.900    2.7278
   39.930    2.6119
   39.960    2.7172
   39.990    2.6856