File: data/MOCOF-1/PXRD/PXRD_KE-136_Cu-Ka1_film-3mm_5s-deg.xyd
    1.500   12.9963
    1.530   12.6488
    1.560   13.1648
    1.590   12.1959
    1.620   11.4271
    1.650   10.9742
    1.680   10.8057
    1.710   10.4792
    1.740   10.0579
    1.770    9.9105
    1.800   10.3107
    1.830    9.7946
    1.860    9.6156
    1.890    9.5735
    1.920    9.2364
    1.950    9.0258
    1.980    8.5413
    2.010    8.3518
    2.040    8.3728
    2.070    8.1727
    2.100    7.5197
    2.130    7.8041
    2.160    7.9094
    2.190    7.5724
    2.220    7.8357
    2.250    7.3512
    2.280    7.7936
    2.310    7.6883
    2.340    7.3828
    2.370    7.2143
    2.400    6.8457
    2.430    6.8773
    2.460    6.8457
    2.490    6.7720
    2.520    6.9510
    2.550    6.4982
    2.580    6.5192
    2.610    6.7509
    2.640    6.0664
    2.670    6.6140
    2.700    6.6772
    2.730    6.8246
    2.760    6.7509
    2.790    6.5613
    2.820    6.9089
    2.850    6.4666
    2.880    6.5298
    2.910    6.4139
    2.940    6.2559
    2.970    6.6351
    3.000    6.4455
    3.030    7.0037
    3.060    7.0458
    3.090    7.2670
    3.120    7.0037
    3.150    7.3723
    3.180    7.3934
    3.210    7.5513
    3.240    7.7620
    3.270    8.3518
    3.300    9.4681
    3.330    9.2996
    3.360    9.6577
    3.390   10.6266
    3.420   10.9110
    3.450   11.1322
    3.480   10.7846
    3.510    9.6367
    3.540    9.1627
    3.570    8.1095
    3.600    7.5092
    3.630    6.7825
    3.660    6.6561
    3.690    6.5508
    3.720    6.6561
    3.750    7.1617
    3.780    6.5613
    3.810    6.2454
    3.840    6.8562
    3.870    6.4455
    3.900    6.2454
    3.930    6.9194
    3.960    6.9616
    3.990    6.7193
    4.020    7.2775
    4.050    7.2670
    4.080    6.8984
    4.110    7.6356
    4.140    7.1195
    4.170    7.8146
    4.200    7.5513
    4.230    7.6777
    4.260    8.0674
    4.290    7.5935
    4.320    7.6461
    4.350    7.5724
    4.380    7.0037
    4.410    6.8352
    4.440    6.9300
    4.470    6.5824
    4.500    6.5298
    4.530    6.1927
    4.560    6.0558
    4.590    6.1611
    4.620    6.2770
    4.650    5.5082
    4.680    5.9505
    4.710    5.8136
    4.740    5.8452
    4.770    6.0137
    4.800    5.6872
    4.830    5.8768
    4.860    5.6240
    4.890    6.1085
    4.920    6.1401
    4.950    6.4350
    4.980    5.9926
    5.010    6.0137
    5.040    5.9926
    5.070    6.6561
    5.100    6.7299
    5.130    6.5087
    5.160    6.5298
    5.190    6.6245
    5.220    6.8141
    5.250    6.9300
    5.280    6.9826
    5.310    7.2880
    5.340    7.0458
    5.370    7.2143
    5.400    7.1406
    5.430    7.6461
    5.460    7.5303
    5.490    7.1722
    5.520    7.8252
    5.550    6.9721
    5.580    7.8146
    5.610    7.6251
    5.640    7.3302
    5.670    7.3723
    5.700    7.2880
    5.730    6.7299
    5.760    6.6561
    5.790    7.0458
    5.820    6.3612
    5.850    6.6140
    5.880    6.1822
    5.910    6.1295
    5.940    5.6556
    5.970    6.0242
    6.000    5.6240
    6.030    5.9400
    6.060    6.0453
    6.090    5.7715
    6.120    5.6872
    6.150    5.5082
    6.180    5.5608
    6.210    5.5398
    6.240    5.6345
    6.270    5.3712
    6.300    5.3818
    6.330    5.4134
    6.360    5.1395
    6.390    5.3397
    6.420    5.3397
    6.450    5.3186
    6.480    5.2133
    6.510    5.2975
    6.540    5.2238
    6.570    5.3712
    6.600    4.6551
    6.630    5.1185
    6.660    4.9500
    6.690    5.3712
    6.720    5.1606
    6.750    5.4660
    6.780    5.0342
    6.810    5.3607
    6.840    4.9078
    6.870    5.2027
    6.900    5.5714
    6.930    5.0553
    6.960    5.2343
    6.990    5.1290
    7.020    4.8236
    7.050    4.7604
    7.080    4.8025
    7.110    4.6761
    7.140    4.3707
    7.170    4.6024
    7.200    4.6024
    7.230    4.4128
    7.260    4.3602
    7.290    4.2970
    7.320    4.2338
    7.350    4.0548
    7.380    4.3497
    7.410    4.1074
    7.440    4.2970
    7.470    4.0969
    7.500    4.2654
    7.530    4.2443
    7.560    4.1601
    7.590    4.2022
    7.620    3.9705
    7.650    3.9389
    7.680    3.8968
    7.710    4.0232
    7.740    4.1074
    7.770    3.9916
    7.800    3.9600
    7.830    3.9389
    7.860    3.8652
    7.890    4.0337
    7.920    4.0337
    7.950    4.1706
    7.980    4.0864
    8.010    4.0442
    8.040    3.7915
    8.070    3.8231
    8.100    3.7177
    8.130    3.7809
    8.160    3.7072
    8.190    3.7283
    8.220    3.4650
    8.250    3.7915
    8.280    3.7599
    8.310    3.5808
    8.340    3.6546
    8.370    3.4755
    8.400    3.7283
    8.430    3.6546
    8.460    3.7283
    8.490    3.4123
    8.520    3.7177
    8.550    3.5914
    8.580    3.2543
    8.610    3.8231
    8.640    3.7177
    8.670    3.5492
    8.700    3.7388
    8.730    3.5071
    8.760    3.2859
    8.790    3.7072
    8.820    3.3491
    8.850    3.6019
    8.880    3.6756
    8.910    3.1385
    8.940    3.4860
    8.970    3.5176
    9.000    3.3175
    9.030    3.4860
    9.060    3.1596
    9.090    3.0332
    9.120    3.2859
    9.150    3.2649
    9.180    3.4966
    9.210    3.2333
    9.240    3.4018
    9.270    3.3913
    9.300    3.3913
    9.330    3.1174
    9.360    3.2543
    9.390    3.1596
    9.420    3.4439
    9.450    3.3491
    9.480    3.2438
    9.510    3.1912
    9.540    3.2859
    9.570    3.5598
    9.600    3.4018
    9.630    3.2017
    9.660    3.3491
    9.690    3.3070
    9.720    3.3597
    9.750    3.2122
    9.780    3.2965
    9.810    3.4334
    9.840    3.3597
    9.870    2.9279
    9.900    3.5071
    9.930    3.2965
    9.960    3.2859
    9.990    3.2754
   10.020    3.3807
   10.050    3.4544
   10.080    3.3175
   10.110    3.2754
   10.140    3.4860
   10.170    3.3913
   10.200    3.2333
   10.230    3.2754
   10.260    3.2333
   10.290    3.4755
   10.320    3.3913
   10.350    3.4650
   10.380    3.5914
   10.410    3.4123
   10.440    3.5176
   10.470    3.4334
   10.500    3.4544
   10.530    3.4544
   10.560    3.5492
   10.590    3.3913
   10.620    3.2122
   10.650    3.4860
   10.680    3.6546
   10.710    3.4755
   10.740    3.6862
   10.770    3.7283
   10.800    3.7388
   10.830    3.5808
   10.860    3.5387
   10.890    3.5808
   10.920    3.6440
   10.950    3.6124
   10.980    3.5703
   11.010    3.5492
   11.040    3.6756
   11.070    3.4650
   11.100    3.3702
   11.130    3.4544
   11.160    3.5914
   11.190    3.7704
   11.220    3.4018
   11.250    3.4439
   11.280    3.4860
   11.310    3.4439
   11.340    3.3175
   11.370    3.4755
   11.400    3.5492
   11.430    3.4229
   11.460    3.7388
   11.490    3.3807
   11.520    3.4229
   11.550    3.3913
   11.580    3.4123
   11.610    3.5176
   11.640    3.4439
   11.670    3.4123
   11.700    3.3386
   11.730    3.3070
   11.760    3.3913
   11.790    3.4544
   11.820    3.3913
   11.850    3.3070
   11.880    3.4860
   11.910    3.4755
   11.940    3.4123
   11.970    3.5176
   12.000    3.2122
   12.030    3.6124
   12.060    3.7177
   12.090    3.6756
   12.120    3.4755
   12.150    3.6335
   12.180    3.3281
   12.210    3.3702
   12.240    3.0858
   12.270    3.3807
   12.300    3.1490
   12.330    3.4123
   12.360    3.2859
   12.390    3.4544
   12.420    3.3913
   12.450    3.5387
   12.480    3.2333
   12.510    3.4123
   12.540    3.3491
   12.570    3.4755
   12.600    3.3175
   12.630    3.1596
   12.660    3.3913
   12.690    3.4229
   12.720    3.4439
   12.750    3.2122
   12.780    3.3070
   12.810    3.4544
   12.840    3.1596
   12.870    3.2438
   12.900    3.2859
   12.930    3.2649
   12.960    3.3386
   12.990    3.1490
   13.020    3.2227
   13.050    3.1174
   13.080    3.2438
   13.110    3.1701
   13.140    3.5071
   13.170    3.3702
   13.200    3.0226
   13.230    3.3386
   13.260    3.2649
   13.290    3.0858
   13.320    3.2122
   13.350    3.1490
   13.380    3.5492
   13.410    3.4755
   13.440    3.1596
   13.470    3.5387
   13.500    3.3491
   13.530    3.1385
   13.560    3.4439
   13.590    3.3491
   13.620    3.4018
   13.650    3.3386
   13.680    3.6019
   13.710    3.3175
   13.740    3.2017
   13.770    3.7809
   13.800    3.5914
   13.830    3.2754
   13.860    3.3386
   13.890    3.4860
   13.920    3.5282
   13.950    3.5492
   13.980    3.3491
   14.010    3.6440
   14.040    3.4334
   14.070    3.3386
   14.100    3.3386
   14.130    3.5071
   14.160    3.5808
   14.190    3.6967
   14.220    3.5176
   14.250    3.2965
   14.280    3.4966
   14.310    3.4018
   14.340    3.8547
   14.370    3.7704
   14.400    3.8652
   14.430    3.8125
   14.460    3.7177
   14.490    3.4544
   14.520    3.7283
   14.550    3.6651
   14.580    3.7388
   14.610    3.2965
   14.640    3.3913
   14.670    3.3807
   14.700    3.6019
   14.730    3.5387
   14.760    3.6756
   14.790    3.4123
   14.820    3.7809
   14.850    3.4860
   14.880    3.5808
   14.910    3.3702
   14.940    3.3913
   14.970    3.3281
   15.000    3.4018
   15.030    3.3386
   15.060    3.3491
   15.090    3.0332
   15.120    3.3702
   15.150    3.1806
   15.180    3.0437
   15.210    3.1490
   15.240    3.1385
   15.270    3.3281
   15.300    3.3281
   15.330    3.3386
   15.360    3.1912
   15.390    3.0542
   15.420    3.2965
   15.450    3.3597
   15.480    3.1069
   15.510    3.2333
   15.540    3.0332
   15.570    3.3491
   15.600    3.3175
   15.630    3.1280
   15.660    3.3597
   15.690    3.0964
   15.720    3.0542
   15.750    3.3807
   15.780    3.2543
   15.810    3.3281
   15.840    3.1806
   15.870    3.0226
   15.900    3.2227
   15.930    3.1912
   15.960    3.2859
   15.990    3.1806
   16.020    3.3386
   16.050    3.2333
   16.080    3.1701
   16.110    3.1280
   16.140    3.1912
   16.170    3.4334
   16.200    3.2438
   16.230    3.0964
   16.260    3.1280
   16.290    3.3807
   16.320    3.3702
   16.350    3.1912
   16.380    3.1385
   16.410    3.1385
   16.440    3.2754
   16.470    3.4018
   16.500    3.1174
   16.530    3.2543
   16.560    3.4229
   16.590    3.3386
   16.620    3.1912
   16.650    3.2965
   16.680    3.3386
   16.710    3.3070
   16.740    3.1280
   16.770    3.3281
   16.800    3.3281
   16.830    3.2122
   16.860    3.0753
   16.890    2.7383
   16.920    3.2438
   16.950    2.8225
   16.980    3.1069
   17.010    3.2017
   17.040    3.3175
   17.070    3.4229
   17.100    3.1596
   17.130    3.0753
   17.160    3.1280
   17.190    3.4650
   17.220    3.2859
   17.250    3.0226
   17.280    3.5387
   17.310    3.1701
   17.340    3.1912
   17.370    3.0437
   17.400    3.3175
   17.430    3.1069
   17.460    3.3913
   17.490    2.9910
   17.520    3.0542
   17.550    3.3702
   17.580    3.2859
   17.610    3.1490
   17.640    3.0964
   17.670    2.9595
   17.700    3.2438
   17.730    3.1596
   17.760    3.0858
   17.790    3.2227
   17.820    2.9068
   17.850    3.1280
   17.880    3.1174
   17.910    3.4229
   17.940    3.1069
   17.970    2.9173
   18.000    3.0016
   18.030    3.2543
   18.060    3.2227
   18.090    3.2017
   18.120    3.3913
   18.150    3.2017
   18.180    3.4544
   18.210    3.0332
   18.240    3.3175
   18.270    3.4544
   18.300    3.2754
   18.330    3.0964
   18.360    3.3281
   18.390    3.1385
   18.420    2.8647
   18.450    3.0226
   18.480    3.1385
   18.510    3.1385
   18.540    3.2754
   18.570    2.9910
   18.600    3.4544
   18.630    3.0542
   18.660    3.3281
   18.690    3.2543
   18.720    3.0648
   18.750    3.0016
   18.780    3.5808
   18.810    3.0753
   18.840    3.4439
   18.870    3.1174
   18.900    3.2333
   18.930    3.3702
   18.960    3.4018
   18.990    3.9179
   19.020    3.5282
   19.050    3.2227
   19.080    3.2649
   19.110    3.3597
   19.140    3.0542
   19.170    3.1174
   19.200    3.1701
   19.230    3.2543
   19.260    2.8541
   19.290    3.0121
   19.320    2.9910
   19.350    2.9910
   19.380    2.9595
   19.410    3.0016
   19.440    3.0016
   19.470    2.9489
   19.500    3.5282
   19.530    3.1280
   19.560    2.7699
   19.590    2.9279
   19.620    3.2122
   19.650    3.0858
   19.680    3.0121
   19.710    3.0858
   19.740    3.2122
   19.770    2.9384
   19.800    3.0648
   19.830    3.1596
   19.860    2.9068
   19.890    3.0016
   19.920    2.7278
   19.950    3.1806
   19.980    2.8436
   20.010    2.9805
   20.040    2.9384
   20.070    2.9700
   20.100    2.9805
   20.130    3.1280
   20.160    2.8225
   20.190    2.9700
   20.220    2.9700
   20.250    3.0542
   20.280    2.5171
   20.310    3.0016
   20.340    2.9384
   20.370    2.7804
   20.400    3.0016
   20.430    3.0437
   20.460    2.9910
   20.490    2.9068
   20.520    2.8436
   20.550    2.8436
   20.580    2.7804
   20.610    2.9805
   20.640    2.9595
   20.670    2.6224
   20.700    2.9805
   20.730    3.0332
   20.760    2.8857
   20.790    2.9384
   20.820    2.9805
   20.850    3.1385
   20.880    2.7699
   20.910    2.8015
   20.940    2.9173
   20.970    2.6962
   21.000    2.6014
   21.030    2.8541
   21.060    2.7593
   21.090    2.7909
   21.120    2.7172
   21.150    2.7488
   21.180    2.6435
   21.210    2.8225
   21.240    2.6330
   21.270    2.6435
   21.300    2.8541
   21.330    2.9700
   21.360    2.8541
   21.390    2.8752
   21.420    2.5487
   21.450    2.9700
   21.480    2.7699
   21.510    2.7278
   21.540    2.8752
   21.570    2.6646
   21.600    2.8541
   21.630    2.8541
   21.660    2.6751
   21.690    2.5908
   21.720    2.7488
   21.750    2.8331
   21.780    3.0648
   21.810    2.8225
   21.840    2.5382
   21.870    2.9279
   21.900    2.8225
   21.930    2.5803
   21.960    2.7593
   21.990    2.8647
   22.020    2.5171
   22.050    2.6751
   22.080    2.7699
   22.110    2.6540
   22.140    2.6856
   22.170    2.3381
   22.200    2.8120
   22.230    2.7383
   22.260    2.8752
   22.290    2.6330
   22.320    2.7488
   22.350    2.8752
   22.380    2.7067
   22.410    2.5698
   22.440    2.6962
   22.470    2.8857
   22.500    2.7699
   22.530    2.8541
   22.560    2.5487
   22.590    2.5592
   22.620    2.8963
   22.650    2.8225
   22.680    2.3802
   22.710    2.8015
   22.740    2.7593
   22.770    2.3381
   22.800    2.5276
   22.830    2.5487
   22.860    2.8331
   22.890    2.6856
   22.920    2.5171
   22.950    2.6435
   22.980    2.5698
   23.010    2.6856
   23.040    2.7804
   23.070    2.8436
   23.100    2.6014
   23.130    2.5487
   23.160    2.5276
   23.190    2.4013
   23.220    2.6224
   23.250    2.4434
   23.280    2.5908
   23.310    2.3697
   23.340    2.5276
   23.370    2.2538
   23.400    2.4855
   23.430    2.6435
   23.460    2.5382
   23.490    2.5698
   23.520    2.6014
   23.550    2.6751
   23.580    2.7383
   23.610    2.2433
   23.640    2.1696
   23.670    2.5908
   23.700    2.5276
   23.730    2.2959
   23.760    2.4329
   23.790    2.2959
   23.820    2.2854
   23.850    2.2222
   23.880    2.3486
   23.910    2.4013
   23.940    2.3591
   23.970    2.2959
   24.000    2.3065
   24.030    2.2328
   24.060    2.7593
   24.090    2.3802
   24.120    2.4223
   24.150    2.6014
   24.180    2.2959
   24.210    2.1801
   24.240    2.3065
   24.270    2.3065
   24.300    2.3275
   24.330    2.1380
   24.360    2.4013
   24.390    2.2117
   24.420    2.3697
   24.450    2.2854
   24.480    2.3170
   24.510    2.3486
   24.540    2.5698
   24.570    2.2854
   24.600    2.1696
   24.630    2.2538
   24.660    2.2959
   24.690    2.4750
   24.720    2.2538
   24.750    2.2222
   24.780    2.2012
   24.810    2.0326
   24.840    2.2433
   24.870    2.3381
   24.900    2.4013
   24.930    2.2328
   24.960    2.5803
   24.990    2.4118
   25.020    2.4434
   25.050    2.2117
   25.080    2.2643
   25.110    1.9800
   25.140    2.1380
   25.170    2.4223
   25.200    2.3170
   25.230    2.2433
   25.260    2.2959
   25.290    2.1906
   25.320    2.1696
   25.350    2.1485
   25.380    2.4855
   25.410    2.3697
   25.440    2.2749
   25.470    2.1696
   25.500    2.4013
   25.530    2.1274
   25.560    2.1906
   25.590    2.3381
   25.620    2.2222
   25.650    2.2433
   25.680    2.4855
   25.710    2.2433
   25.740    2.2959
   25.770    2.1274
   25.800    2.2854
   25.830    2.2959
   25.860    2.2959
   25.890    2.2117
   25.920    2.0748
   25.950    2.2117
   25.980    2.0853
   26.010    2.0326
   26.040    2.1590
   26.070    2.2117
   26.100    2.1274
   26.130    1.9379
   26.160    2.1801
   26.190    2.0116
   26.220    2.1696
   26.250    2.0748
   26.280    2.2117
   26.310    2.2117
   26.340    2.0748
   26.370    2.4118
   26.400    2.1801
   26.430    2.2222
   26.460    1.9589
   26.490    2.1274
   26.520    2.0326
   26.550    2.2117
   26.580    2.5382
   26.610    2.2433
   26.640    2.0958
   26.670    2.2222
   26.700    2.0537
   26.730    2.2012
   26.760    2.0326
   26.790    2.0958
   26.820    2.0537
   26.850    1.8747
   26.880    2.0432
   26.910    2.1696
   26.940    2.1485
   26.970    2.0116
   27.000    2.0432
   27.030    1.8641
   27.060    2.0011
   27.090    2.0537
   27.120    2.0221
   27.150    2.0116
   27.180    2.2012
   27.210    2.0011
   27.240    1.8536
   27.270    1.9063
   27.300    1.8431
   27.330    1.9905
   27.360    1.9379
   27.390    2.0748
   27.420    2.1380
   27.450    2.0011
   27.480    2.1274
   27.510    1.8641
   27.540    1.9695
   27.570    2.0537
   27.600    1.8641
   27.630    1.7799
   27.660    2.0537
   27.690    1.9168
   27.720    2.1380
   27.750    2.2538
   27.780    1.9273
   27.810    1.9589
   27.840    2.0326
   27.870    1.8536
   27.900    1.9800
   27.930    2.1274
   27.960    2.4223
   27.990    2.2643
   28.020    2.0432
   28.050    1.7799
   28.080    1.9063
   28.110    2.1906
   28.140    2.0221
   28.170    1.9800
   28.200    1.9273
   28.230    1.8852
   28.260    2.0221
   28.290    2.0116
   28.320    1.8852
   28.350    2.0432
   28.380    1.9484
   28.410    1.9695
   28.440    2.0221
   28.470    1.8325
   28.500    2.0642
   28.530    1.9800
   28.560    1.7799
   28.590    1.8536
   28.620    1.9695
   28.650    2.2433
   28.680    1.7904
   28.710    1.9905
   28.740    1.8641
   28.770    1.8747
   28.800    1.8852
   28.830    1.8115
   28.860    2.0748
   28.890    2.4118
   28.920    2.8225
   28.950    2.7067
   28.980    2.3591
   29.010    2.0537
   29.040    1.8220
   29.070    1.9905
   29.100    1.9589
   29.130    1.7588
   29.160    1.8852
   29.190    1.8431
   29.220    1.8852
   29.250    2.2117
   29.280    1.9168
   29.310    1.7272
   29.340    1.9063
   29.370    1.9063
   29.400    1.7378
   29.430    1.7904
   29.460    1.7588
   29.490    1.7272
   29.520    1.8115
   29.550    1.7062
   29.580    1.7694
   29.610    1.5377
   29.640    1.5587
   29.670    1.5482
   29.700    1.6219
   29.730    1.7378
   29.760    1.6219
   29.790    1.6324
   29.820    1.5271
   29.850    1.7272
   29.880    1.6746
   29.910    1.4218
   29.940    1.6535
   29.970    1.6114
   30.000    1.7062
   30.030    1.4955
   30.060    1.6746
   30.090    1.5798
   30.120    1.4639
   30.150    1.6746
   30.180    1.8220
   30.210    1.6956
   30.240    1.4323
   30.270    1.4429
   30.300    1.6956
   30.330    1.6324
   30.360    1.6535
   30.390    1.3902
   30.420    1.5692
   30.450    1.6746
   30.480    1.5061
   30.510    1.6114
   30.540    1.6114
   30.570    1.7272
   30.600    1.7167
   30.630    1.6114
   30.660    1.4323
   30.690    1.4955
   30.720    1.6535
   30.750    1.7588
   30.780    1.4850
   30.810    1.4639
   30.840    1.3902
   30.870    1.5166
   30.900    1.6746
   30.930    1.4639
   30.960    1.4850
   30.990    1.6640
   31.020    1.5798
   31.050    1.5587
   31.080    1.5061
   31.110    1.4745
   31.140    1.6956
   31.170    1.7483
   31.200    1.5061
   31.230    1.4323
   31.260    1.3586
   31.290    1.5271
   31.320    1.4745
   31.350    1.4113
   31.380    1.3691
   31.410    1.4745
   31.440    1.5271
   31.470    1.6430
   31.500    1.4534
   31.530    1.4639
   31.560    1.4429
   31.590    1.4745
   31.620    1.4113
   31.650    1.5482
   31.680    1.5798
   31.710    1.5377
   31.740    1.5166
   31.770    1.8115
   31.800    1.6219
   31.830    1.5903
   31.860    1.5587
   31.890    1.3270
   31.920    1.4639
   31.950    1.3797
   31.980    1.4534
   32.010    1.7694
   32.040    2.2959
   32.070    2.8015
   32.100    2.1906
   32.130    1.8325
   32.160    1.5166
   32.190    1.4850
   32.220    1.5061
   32.250    1.4007
   32.280    1.4323
   32.310    1.1690
   32.340    1.3375
   32.370    1.3270
   32.400    1.3481
   32.430    1.4850
   32.460    1.4429
   32.490    1.3902
   32.520    1.4007
   32.550    1.3481
   32.580    1.3270
   32.610    1.3481
   32.640    1.3902
   32.670    1.2744
   32.700    1.2322
   32.730    1.0953
   32.760    1.5166
   32.790    1.3481
   32.820    1.4007
   32.850    1.4218
   32.880    1.4007
   32.910    1.2638
   32.940    1.3586
   32.970    1.2954
   33.000    1.4218
   33.030    1.3797
   33.060    1.2849
   33.090    1.3270
   33.120    1.2533
   33.150    1.4639
   33.180    1.3481
   33.210    1.4323
   33.240    1.4639
   33.270    1.3902
   33.300    1.2638
   33.330    1.4955
   33.360    1.3797
   33.390    1.2112
   33.420    1.4429
   33.450    1.2112
   33.480    1.2217
   33.510    1.3270
   33.540    1.3270
   33.570    1.3691
   33.600    1.3165
   33.630    1.2217
   33.660    1.1901
   33.690    1.3375
   33.720    1.3481
   33.750    1.4639
   33.780    1.6430
   33.810    1.3481
   33.840    1.3797
   33.870    1.2006
   33.900    1.4745
   33.930    1.2322
   33.960    1.3902
   33.990    1.2638
   34.020    1.4745
   34.050    1.2533
   34.080    1.3375
   34.110    1.2744
   34.140    1.1690
   34.170    1.2217
   34.200    1.1480
   34.230    1.3375
   34.260    1.2217
   34.290    1.2322
   34.320    1.2217
   34.350    1.2744
   34.380    1.3165
   34.410    1.3481
   34.440    1.3481
   34.470    1.3375
   34.500    1.2744
   34.530    1.2533
   34.560    1.1374
   34.590    1.1164
   34.620    1.2849
   34.650    1.3691
   34.680    1.2849
   34.710    1.2428
   34.740    1.2954
   34.770    1.1796
   34.800    1.1585
   34.830    1.1058
   34.860    1.2533
   34.890    1.3270
   34.920    1.3691
   34.950    1.3481
   34.980    1.2322
   35.010    1.3481
   35.040    1.2638
   35.070    1.2217
   35.100    1.2849
   35.130    1.3165
   35.160    1.2849
   35.190    1.1901
   35.220    1.3165
   35.250    1.1901
   35.280    1.4850
   35.310    1.2744
   35.340    1.2217
   35.370    1.1585
   35.400    1.2954
   35.430    1.3060
   35.460    1.3481
   35.490    1.2533
   35.520    1.3481
   35.550    1.4323
   35.580    1.4429
   35.610    1.2322
   35.640    1.2638
   35.670    1.2849
   35.700    1.2744
   35.730    1.1374
   35.760    1.1690
   35.790    1.3375
   35.820    1.0111
   35.850    1.3060
   35.880    1.0953
   35.910    1.2217
   35.940    1.3797
   35.970    1.2744
   36.000    1.3060
   36.030    1.3270
   36.060    1.1796
   36.090    1.2954
   36.120    1.1585
   36.150    1.2006
   36.180    1.1164
   36.210    1.2954
   36.240    1.2322
   36.270    1.2954
   36.300    1.2849
   36.330    1.4113
   36.360    1.2322
   36.390    1.3902
   36.420    1.2217
   36.450    1.2428
   36.480    1.2744
   36.510    1.2533
   36.540    1.2322
   36.570    1.3902
   36.600    1.2006
   36.630    1.2638
   36.660    1.2744
   36.690    1.2217
   36.720    1.3375
   36.750    1.2533
   36.780    1.1901
   36.810    1.0427
   36.840    1.2112
   36.870    1.0427
   36.900    1.0742
   36.930    1.2849
   36.960    1.2112
   36.990    1.2112
   37.020    1.1269
   37.050    1.2428
   37.080    1.1796
   37.110    1.2533
   37.140    1.2638
   37.170    1.1058
   37.200    1.0953
   37.230    1.2217
   37.260    1.1374
   37.290    1.1901
   37.320    1.1901
   37.350    0.9795
   37.380    1.1164
   37.410    1.3060
   37.440    1.1796
   37.470    1.1796
   37.500    1.2849
   37.530    1.0953
   37.560    1.3270
   37.590    1.0953
   37.620    1.2533
   37.650    1.1058
   37.680    1.2638
   37.710    1.0637
   37.740    1.2533
   37.770    1.3902
   37.800    1.3691
   37.830    1.1901
   37.860    1.2112
   37.890    1.0111
   37.920    1.0427
   37.950    1.1585
   37.980    1.2112
   38.010    1.0427
   38.040    1.1585
   38.070    1.2849
   38.100    1.2006
   38.130    1.2006
   38.160    1.0848
   38.190    1.3691
   38.220    1.3902
   38.250    1.1585
   38.280    1.2638
   38.310    1.0532
   38.340    1.2006
   38.370    1.2954
   38.400    1.2849
   38.430    1.3165
   38.460    1.3165
   38.490    1.3375
   38.520    1.2006
   38.550    1.3481
   38.580    1.4007
   38.610    1.2428
   38.640    1.3586
   38.670    1.2006
   38.700    1.1164
   38.730    0.9373
   38.760    1.0742
   38.790    1.1796
   38.820    1.0532
   38.850    1.2428
   38.880    1.1901
   38.910    1.0216
   38.940    1.0848
   38.970    1.0637
   39.000    1.2006
   39.030    1.0953
   39.060    1.0637
   39.090    1.2112
   39.120    1.1480
   39.150    1.1058
   39.180    1.1374
   39.210    1.1901
   39.240    1.2428
   39.270    1.1585
   39.300    1.2112
   39.330    1.1480
   39.360    1.2744
   39.390    1.2428
   39.420    1.2112
   39.450    1.2112
   39.480    1.2322
   39.510    1.2217
   39.540    1.2006
   39.570    1.2217
   39.600    1.1374
   39.630    1.1164
   39.660    1.1901
   39.690    1.1901
   39.720    1.2428
   39.750    1.1585
   39.780    0.9900
   39.810    1.2322
   39.840    0.9900
   39.870    1.1269
   39.900    1.0848
   39.930    1.0321
   39.960    1.2322
   39.990    0.9900