File: data/MOCOF-1/PXRD/PXRD_KE-149-2_Cu-Ka1_capillary-1mm_5s-deg.xyd
    1.500   42.1274
    1.530   41.8115
    1.560   39.6314
    1.590   39.4207
    1.620   36.7035
    1.650   35.6925
    1.680   35.9979
    1.710   33.9968
    1.740   32.2380
    1.770   30.9321
    1.800   30.9110
    1.830   29.5313
    1.860   29.1627
    1.890   28.8678
    1.920   27.0142
    1.950   26.7193
    1.980   26.5087
    2.010   24.8025
    2.040   24.2233
    2.070   23.8231
    2.100   23.2859
    2.130   23.2859
    2.160   22.4961
    2.190   22.1380
    2.220   21.7904
    2.250   21.0532
    2.280   20.5055
    2.310   20.3054
    2.340   19.9579
    2.370   19.6946
    2.400   19.1890
    2.430   19.0732
    2.460   18.6940
    2.490   18.9573
    2.520   18.8415
    2.550   17.9779
    2.580   18.5782
    2.610   17.9147
    2.640   18.4097
    2.670   18.0937
    2.700   18.3570
    2.730   17.4408
    2.760   17.0932
    2.790   17.4092
    2.820   18.2096
    2.850   17.5355
    2.880   18.5045
    2.910   18.4623
    2.940   18.7888
    2.970   17.6514
    3.000   18.2096
    3.030   18.4939
    3.060   18.6625
    3.090   19.8315
    3.120   19.7262
    3.150   20.6108
    3.180   20.6951
    3.210   21.2954
    3.240   21.5061
    3.270   23.2543
    3.300   23.6124
    3.330   24.3813
    3.360   25.4871
    3.390   27.0879
    3.420   28.1411
    3.450   29.7630
    3.480   30.8268
    3.510   30.7320
    3.540   31.4903
    3.570   31.9326
    3.600   33.9337
    3.630   35.0290
    3.660   38.7256
    3.690   40.6846
    3.720   45.0342
    3.750   49.0679
    3.780   56.6509
    3.810   62.8436
    3.840   75.9979
    3.870   88.8362
    3.900   81.6746
    3.930   53.5650
    3.960   28.2991
    3.990   19.5682
    4.020   17.0300
    4.050   15.0290
    4.080   13.6177
    4.110   13.2491
    4.140   12.2801
    4.170   11.3744
    4.200   11.1006
    4.230   10.4792
    4.260   10.9321
    4.290   10.8373
    4.320   10.0053
    4.350   10.0685
    4.380    9.7314
    4.410    9.7209
    4.440    9.6367
    4.470    9.3102
    4.500    9.1627
    4.530    9.3102
    4.560    9.3839
    4.590    9.4681
    4.620    8.8889
    4.650    9.0785
    4.680    9.3523
    4.710    9.1101
    4.740    9.3628
    4.770    9.7104
    4.800    9.5524
    4.830    9.2680
    4.860    9.6893
    4.890    9.2259
    4.920   10.1632
    4.950   10.2686
    4.980    9.9105
    5.010   10.2370
    5.040   10.6793
    5.070   10.2159
    5.100   11.0690
    5.130   10.8373
    5.160   10.9531
    5.190   12.1327
    5.220   11.5324
    5.250   12.1748
    5.280   13.0174
    5.310   13.8599
    5.340   14.8499
    5.370   15.8399
    5.400   16.4929
    5.430   18.6098
    5.460   20.3160
    5.490   23.6756
    5.520   22.8857
    5.550   16.7246
    5.580   12.3960
    5.610    9.7420
    5.640    9.0574
    5.670    8.8994
    5.700    8.7836
    5.730    8.6361
    5.760    8.7730
    5.790    8.6151
    5.820    8.5203
    5.850    8.0463
    5.880    8.0253
    5.910    8.5203
    5.940    8.1622
    5.970    8.0779
    6.000    8.5097
    6.030    8.0463
    6.060    8.3834
    6.090    8.0147
    6.120    8.0253
    6.150    8.1095
    6.180    7.7093
    6.210    7.9937
    6.240    8.3728
    6.270    8.0253
    6.300    8.5413
    6.330    8.4676
    6.360    8.6045
    6.390    8.6467
    6.420    8.8257
    6.450    9.4576
    6.480    8.7309
    6.510    8.8468
    6.540    9.0153
    6.570    9.1101
    6.600    9.1417
    6.630   10.1948
    6.660   10.1316
    6.690   10.2791
    6.720   11.6377
    6.750   11.6482
    6.780   10.0369
    6.810   10.3633
    6.840    8.6361
    6.870    8.7836
    6.900    8.8784
    6.930    8.6993
    6.960    8.7098
    6.990    8.8046
    7.020    8.4781
    7.050    8.3096
    7.080    8.3518
    7.110    7.9200
    7.140    8.3623
    7.170    8.5940
    7.200    7.9305
    7.230    8.4571
    7.260    8.0042
    7.290    8.9837
    7.320    8.3202
    7.350    8.3202
    7.380    8.4887
    7.410    8.2570
    7.440    8.6783
    7.470    8.8152
    7.500    8.1938
    7.530    8.2780
    7.560    8.9942
    7.590    8.9310
    7.620    9.4365
    7.650    9.3839
    7.680    9.5208
    7.710   10.6372
    7.740   11.2691
    7.770   11.1954
    7.800   12.5750
    7.830   11.0900
    7.860    9.9947
    7.890    9.0469
    7.920    8.7098
    7.950    8.5940
    7.980    8.3939
    8.010    8.4571
    8.040    8.0674
    8.070    8.5940
    8.100    8.2464
    8.130    8.2570
    8.160    8.2886
    8.190    8.5835
    8.220    8.1201
    8.250    8.2886
    8.280    8.6677
    8.310    8.2149
    8.340    8.0674
    8.370    8.2991
    8.400    8.5308
    8.430    8.5624
    8.460    8.1938
    8.490    8.7414
    8.520    8.7098
    8.550    8.5308
    8.580    8.3202
    8.610    8.9942
    8.640    9.0995
    8.670    8.6467
    8.700    8.5097
    8.730    8.8257
    8.760    8.7309
    8.790    8.8046
    8.820    8.7730
    8.850    8.4150
    8.880    8.9310
    8.910    8.3518
    8.940    8.2359
    8.970    8.2254
    9.000    8.4887
    9.030    8.6361
    9.060    8.6256
    9.090    8.7625
    9.120    8.5624
    9.150    9.0890
    9.180    9.2470
    9.210    9.2575
    9.240    9.4260
    9.270    9.2891
    9.300    9.2891
    9.330    9.6998
    9.360   10.5951
    9.390   10.5845
    9.420   10.9321
    9.450   11.3533
    9.480   13.4597
    9.510   13.2596
    9.540   15.5240
    9.570   15.9979
    9.600   14.2285
    9.630   11.7325
    9.660   10.1632
    9.690    9.5735
    9.720    9.1311
    9.750    8.6256
    9.780    8.7098
    9.810    8.4676
    9.840    8.6888
    9.870    9.2786
    9.900    8.7625
    9.930    8.2991
    9.960    8.9626
    9.990    8.6151
   10.020    8.9942
   10.050    8.5097
   10.080    8.6993
   10.110    9.1732
   10.140    9.2891
   10.170    8.8257
   10.200    9.2364
   10.230    9.6472
   10.260   10.0685
   10.290   10.2686
   10.320   10.9215
   10.350   10.6372
   10.380   10.7004
   10.410    9.8999
   10.440    9.0785
   10.470    8.8046
   10.500    8.3307
   10.530    8.0042
   10.560    8.4676
   10.590    8.2149
   10.620    8.4255
   10.650    8.2570
   10.680    7.9937
   10.710    9.0363
   10.740    7.9937
   10.770    8.9942
   10.800    8.8784
   10.830    8.2254
   10.860    8.4781
   10.890    8.8468
   10.920    8.6993
   10.950    9.2786
   10.980    9.1311
   11.010   10.1948
   11.040   10.1001
   11.070   10.1001
   11.100    9.7314
   11.130    8.3939
   11.160    8.3728
   11.190    8.1306
   11.220    8.6993
   11.250    7.8778
   11.280    8.1622
   11.310    8.2149
   11.340    7.9516
   11.370    8.0463
   11.400    8.1201
   11.430    8.4992
   11.460    7.8568
   11.490    8.5203
   11.520    8.2359
   11.550    8.5729
   11.580    8.5097
   11.610    8.8889
   11.640    9.3523
   11.670    8.9837
   11.700    9.9210
   11.730    9.8052
   11.760    9.6893
   11.790    9.1943
   11.820    8.1201
   11.850    8.3096
   11.880    7.6251
   11.910    7.7409
   11.940    7.7725
   11.970    7.5513
   12.000    7.2775
   12.030    7.5408
   12.060    7.7830
   12.090    7.4460
   12.120    7.4987
   12.150    7.5829
   12.180    7.4987
   12.210    7.5303
   12.240    7.7304
   12.270    7.5829
   12.300    7.4882
   12.330    7.9516
   12.360    7.7830
   12.390    8.0042
   12.420    7.5197
   12.450    7.7830
   12.480    7.4882
   12.510    7.6251
   12.540    7.3091
   12.570    7.3828
   12.600    7.5829
   12.630    7.3618
   12.660    7.5408
   12.690    7.5724
   12.720    7.4355
   12.750    7.5829
   12.780    7.8252
   12.810    7.5935
   12.840    8.0569
   12.870    7.8673
   12.900    8.4044
   12.930    8.8046
   12.960    9.1206
   12.990    8.8784
   13.020    8.7414
   13.050    7.8673
   13.080    7.8568
   13.110    7.1827
   13.140    7.5724
   13.170    6.9932
   13.200    7.0985
   13.230    7.5092
   13.260    7.9516
   13.290    7.3723
   13.320    7.5829
   13.350    7.4355
   13.380    7.3934
   13.410    7.5829
   13.440    7.2249
   13.470    7.3302
   13.500    7.6883
   13.530    7.8568
   13.560    7.8357
   13.590    8.2359
   13.620    7.2354
   13.650    7.7725
   13.680    7.3196
   13.710    7.3828
   13.740    7.1406
   13.770    7.3407
   13.800    6.8878
   13.830    7.3618
   13.860    7.0985
   13.890    7.1195
   13.920    7.2354
   13.950    7.2670
   13.980    7.6145
   14.010    7.5724
   14.040    7.7620
   14.070    8.3307
   14.100    7.9726
   14.130    8.2570
   14.160    8.3623
   14.190    7.7093
   14.220    7.4355
   14.250    7.4250
   14.280    7.2986
   14.310    7.4250
   14.340    7.2986
   14.370    7.3512
   14.400    6.8668
   14.430    7.3196
   14.460    7.4039
   14.490    6.9089
   14.520    7.0248
   14.550    6.8773
   14.580    7.0563
   14.610    7.1617
   14.640    7.2038
   14.670    6.8984
   14.700    7.5935
   14.730    6.9510
   14.760    7.0353
   14.790    7.3091
   14.820    7.3512
   14.850    6.7930
   14.880    6.7825
   14.910    7.0774
   14.940    7.2565
   14.970    7.0879
   15.000    7.0353
   15.030    7.2038
   15.060    7.5303
   15.090    7.7514
   15.120    7.3407
   15.150    7.4776
   15.180    7.5513
   15.210    7.2249
   15.240    7.1301
   15.270    7.2565
   15.300    7.4250
   15.330    7.1511
   15.360    6.9721
   15.390    7.0563
   15.420    7.0774
   15.450    7.1617
   15.480    7.4039
   15.510    7.3091
   15.540    7.2880
   15.570    7.0774
   15.600    7.2565
   15.630    6.6035
   15.660    7.1933
   15.690    7.2459
   15.720    7.1301
   15.750    6.6667
   15.780    6.7720
   15.810    7.1195
   15.840    6.7825
   15.870    7.0353
   15.900    7.3196
   15.930    7.0879
   15.960    7.2354
   15.990    7.1301
   16.020    7.5829
   16.050    7.4039
   16.080    7.4566
   16.110    7.6672
   16.140    7.5197
   16.170    7.5408
   16.200    7.4566
   16.230    7.4460
   16.260    7.4250
   16.290    7.2143
   16.320    7.4039
   16.350    7.6356
   16.380    7.1511
   16.410    7.0879
   16.440    7.2038
   16.470    7.0774
   16.500    6.8668
   16.530    7.5829
   16.560    7.1827
   16.590    7.7936
   16.620    7.9621
   16.650    7.6567
   16.680    7.4776
   16.710    7.5408
   16.740    7.3091
   16.770    7.1090
   16.800    7.2249
   16.830    7.7409
   16.860    6.7720
   16.890    7.1933
   16.920    7.4039
   16.950    7.4987
   16.980    7.7199
   17.010    7.9831
   17.040    8.3412
   17.070    8.7098
   17.100    8.3096
   17.130    8.4887
   17.160    7.4776
   17.190    7.2459
   17.220    7.4460
   17.250    7.4566
   17.280    7.3407
   17.310    7.5197
   17.340    7.2670
   17.370    6.7720
   17.400    6.9300
   17.430    7.1301
   17.460    7.3407
   17.490    7.1617
   17.520    7.6356
   17.550    7.2565
   17.580    7.5408
   17.610    7.3196
   17.640    7.4039
   17.670    7.2986
   17.700    7.0142
   17.730    7.1617
   17.760    7.0985
   17.790    7.5619
   17.820    7.3512
   17.850    7.2249
   17.880    7.6040
   17.910    7.5724
   17.940    7.3407
   17.970    7.3934
   18.000    7.3091
   18.030    7.2249
   18.060    7.2565
   18.090    7.4882
   18.120    7.0669
   18.150    6.9405
   18.180    7.1933
   18.210    7.1827
   18.240    7.1617
   18.270    7.3934
   18.300    7.4460
   18.330    7.4144
   18.360    7.5935
   18.390    7.7304
   18.420    7.4987
   18.450    7.6777
   18.480    7.5303
   18.510    7.6567
   18.540    7.2459
   18.570    7.6461
   18.600    7.5408
   18.630    7.1617
   18.660    7.4250
   18.690    7.4776
   18.720    7.6883
   18.750    7.4250
   18.780    7.1090
   18.810    7.3407
   18.840    7.3934
   18.870    7.7199
   18.900    8.1727
   18.930    8.2359
   18.960    8.7941
   18.990    8.7836
   19.020    8.5624
   19.050    8.3939
   19.080    8.0885
   19.110    7.2143
   19.140    7.3618
   19.170    6.6667
   19.200    7.1301
   19.230    7.4882
   19.260    7.1722
   19.290    7.6040
   19.320    7.3407
   19.350    7.3512
   19.380    7.2354
   19.410    6.9300
   19.440    7.3828
   19.470    7.2775
   19.500    6.9721
   19.530    7.1406
   19.560    7.9831
   19.590    7.6672
   19.620    7.4460
   19.650    7.6040
   19.680    7.8989
   19.710    7.4460
   19.740    7.7514
   19.770    7.7409
   19.800    7.7725
   19.830    7.3091
   19.860    7.5513
   19.890    7.5408
   19.920    7.3091
   19.950    7.3407
   19.980    7.6672
   20.010    7.3407
   20.040    7.7199
   20.070    6.9721
   20.100    7.3407
   20.130    7.4671
   20.160    7.5092
   20.190    7.5724
   20.220    6.8878
   20.250    7.6883
   20.280    7.6883
   20.310    7.5724
   20.340    7.5303
   20.370    7.5829
   20.400    8.2886
   20.430    8.1095
   20.460    8.0885
   20.490    7.5197
   20.520    7.6251
   20.550    7.3512
   20.580    7.4460
   20.610    7.1406
   20.640    7.7830
   20.670    7.6145
   20.700    7.5829
   20.730    7.2670
   20.760    7.2880
   20.790    7.5935
   20.820    7.3512
   20.850    7.2670
   20.880    7.6251
   20.910    7.1933
   20.940    7.1933
   20.970    7.3618
   21.000    7.2670
   21.030    7.2038
   21.060    7.2986
   21.090    7.7725
   21.120    7.1722
   21.150    7.4566
   21.180    7.8462
   21.210    7.3828
   21.240    7.4566
   21.270    7.4460
   21.300    7.6567
   21.330    7.1511
   21.360    7.7093
   21.390    7.4882
   21.420    7.9200
   21.450    7.9305
   21.480    7.5619
   21.510    7.4460
   21.540    7.6251
   21.570    7.5092
   21.600    7.2670
   21.630    7.2459
   21.660    7.4882
   21.690    7.6883
   21.720    7.4987
   21.750    7.4250
   21.780    7.6672
   21.810    8.0990
   21.840    7.8989
   21.870    7.9831
   21.900    8.1727
   21.930    8.1306
   21.960    7.9831
   21.990    7.4039
   22.020    7.5513
   22.050    7.7620
   22.080    7.6672
   22.110    8.3834
   22.140    7.9305
   22.170    7.8884
   22.200    8.0569
   22.230    7.8357
   22.260    8.0253
   22.290    8.0358
   22.320    7.8462
   22.350    8.2359
   22.380    7.4144
   22.410    7.7620
   22.440    7.9094
   22.470    8.3307
   22.500    8.4571
   22.530    8.7625
   22.560    9.2786
   22.590    9.4681
   22.620    8.8889
   22.650    8.8784
   22.680    8.4992
   22.710    8.6151
   22.740    8.1938
   22.770    7.7304
   22.800    7.6567
   22.830    8.5413
   22.860    8.7520
   22.890    8.1095
   22.920    8.2991
   22.950    8.3728
   22.980    8.4676
   23.010    8.2359
   23.040    8.6045
   23.070    8.3096
   23.100    8.2886
   23.130    7.9831
   23.160    8.3096
   23.190    7.9410
   23.220    7.5724
   23.250    7.4566
   23.280    7.7409
   23.310    7.8146
   23.340    8.1201
   23.370    7.8989
   23.400    8.1306
   23.430    7.6040
   23.460    7.9621
   23.490    7.9094
   23.520    7.9410
   23.550    8.5624
   23.580    8.1411
   23.610    8.2359
   23.640    8.5729
   23.670    7.7304
   23.700    7.7304
   23.730    7.5935
   23.760    7.6251
   23.790    7.3196
   23.820    7.7620
   23.850    7.5513
   23.880    7.7304
   23.910    7.9831
   23.940    7.8462
   23.970    7.4250
   24.000    7.4882
   24.030    7.6356
   24.060    7.9200
   24.090    7.9410
   24.120    7.3934
   24.150    7.3091
   24.180    7.2354
   24.210    7.1827
   24.240    7.1511
   24.270    7.2670
   24.300    7.2354
   24.330    7.4566
   24.360    7.5408
   24.390    7.3618
   24.420    7.1511
   24.450    7.4460
   24.480    6.9194
   24.510    7.0774
   24.540    7.7409
   24.570    7.5092
   24.600    7.6145
   24.630    7.8252
   24.660    7.2670
   24.690    7.2565
   24.720    7.2249
   24.750    7.4250
   24.780    7.1195
   24.810    7.4882
   24.840    7.1511
   24.870    7.4882
   24.900    7.0353
   24.930    7.7409
   24.960    7.5619
   24.990    7.5303
   25.020    7.7199
   25.050    7.0879
   25.080    6.5719
   25.110    7.2249
   25.140    7.3618
   25.170    7.0563
   25.200    7.5303
   25.230    7.2986
   25.260    7.3723
   25.290    7.4671
   25.320    7.3196
   25.350    7.4776
   25.380    8.1622
   25.410    7.2986
   25.440    7.3302
   25.470    7.6356
   25.500    7.8568
   25.530    7.7409
   25.560    7.7199
   25.590    7.2143
   25.620    7.9621
   25.650    7.3934
   25.680    7.3934
   25.710    7.1827
   25.740    7.3618
   25.770    7.7830
   25.800    7.5303
   25.830    8.0042
   25.860    8.0463
   25.890    8.0147
   25.920    7.8778
   25.950    7.6883
   25.980    7.6356
   26.010    7.1301
   26.040    7.3407
   26.070    7.4355
   26.100    7.2670
   26.130    7.4144
   26.160    7.2670
   26.190    7.5303
   26.220    7.1301
   26.250    7.2880
   26.280    7.2880
   26.310    7.2880
   26.340    7.0142
   26.370    7.3407
   26.400    6.9405
   26.430    7.4671
   26.460    7.3618
   26.490    7.2143
   26.520    7.1827
   26.550    7.2038
   26.580    7.0563
   26.610    7.3091
   26.640    6.9194
   26.670    6.9721
   26.700    6.6667
   26.730    6.9089
   26.760    7.2354
   26.790    6.7930
   26.820    7.0669
   26.850    6.9932
   26.880    6.8352
   26.910    7.3512
   26.940    6.4876
   26.970    7.3723
   27.000    7.3196
   27.030    7.2249
   27.060    7.2249
   27.090    7.5197
   27.120    7.5197
   27.150    7.1301
   27.180    7.0563
   27.210    7.0879
   27.240    7.4987
   27.270    7.1301
   27.300    6.9405
   27.330    6.8246
   27.360    7.2986
   27.390    7.1617
   27.420    6.9194
   27.450    6.9721
   27.480    6.9932
   27.510    6.7404
   27.540    7.1511
   27.570    6.9616
   27.600    6.8141
   27.630    7.4671
   27.660    7.1933
   27.690    7.3091
   27.720    7.3828
   27.750    6.9932
   27.780    6.9089
   27.810    6.3612
   27.840    7.3618
   27.870    7.1722
   27.900    7.0985
   27.930    7.6988
   27.960    8.0147
   27.990    7.9094
   28.020    8.2675
   28.050    7.6145
   28.080    7.5092
   28.110    7.6145
   28.140    7.0037
   28.170    7.5513
   28.200    7.6145
   28.230    7.6356
   28.260    6.9932
   28.290    7.1406
   28.320    7.4355
   28.350    7.0879
   28.380    6.7193
   28.410    6.6877
   28.440    6.6667
   28.470    7.3302
   28.500    7.0985
   28.530    7.1933
   28.560    6.7930
   28.590    7.0142
   28.620    7.0563
   28.650    6.8984
   28.680    6.9616
   28.710    6.7825
   28.740    7.1406
   28.770    6.4876
   28.800    6.9300
   28.830    6.4982
   28.860    6.9616
   28.890    7.9094
   28.920    7.9621
   28.950    7.5303
   28.980    7.7620
   29.010    7.9516
   29.040    7.4671
   29.070    6.9405
   29.100    6.4771
   29.130    6.6772
   29.160    6.7088
   29.190    6.8036
   29.220    6.9826
   29.250    6.8457
   29.280    6.9826
   29.310    6.9300
   29.340    7.1722
   29.370    7.3512
   29.400    6.7615
   29.430    6.9510
   29.460    6.7404
   29.490    6.9194
   29.520    6.7615
   29.550    6.8984
   29.580    6.9300
   29.610    6.5403
   29.640    6.9721
   29.670    6.7193
   29.700    6.8773
   29.730    6.5613
   29.760    6.4771
   29.790    6.9826
   29.820    6.9616
   29.850    6.5613
   29.880    6.7615
   29.910    6.6983
   29.940    6.6877
   29.970    6.8246
   30.000    6.8668
   30.030    6.4455
   30.060    7.0353
   30.090    6.9405
   30.120    6.9826
   30.150    6.6456
   30.180    6.5929
   30.210    6.7509
   30.240    6.2033
   30.270    6.5508
   30.300    6.6772
   30.330    6.7404
   30.360    6.6035
   30.390    6.5403
   30.420    6.7404
   30.450    6.3191
   30.480    6.4982
   30.510    6.4982
   30.540    6.7193
   30.570    6.6772
   30.600    6.7720
   30.630    6.4771
   30.660    6.6351
   30.690    6.5298
   30.720    6.6035
   30.750    6.4455
   30.780    6.4560
   30.810    6.1822
   30.840    6.1822
   30.870    6.5087
   30.900    6.6667
   30.930    6.4560
   30.960    6.5298
   30.990    6.4666
   31.020    6.3191
   31.050    7.0985
   31.080    6.4350
   31.110    6.3402
   31.140    6.4139
   31.170    6.4771
   31.200    6.5613
   31.230    6.2665
   31.260    6.2033
   31.290    6.3823
   31.320    6.2138
   31.350    6.1927
   31.380    6.4244
   31.410    6.3612
   31.440    6.6667
   31.470    6.7825
   31.500    6.3823
   31.530    6.6245
   31.560    6.7825
   31.590    6.6035
   31.620    6.4455
   31.650    6.7088
   31.680    7.2670
   31.710    7.3407
   31.740    7.5408
   31.770    7.7304
   31.800    7.3828
   31.830    8.0147
   31.860    7.5829
   31.890    7.1511
   31.920    7.2038
   31.950    6.9405
   31.980    7.0879
   32.010    7.6040
   32.040    8.3096
   32.070    8.6993
   32.100    8.8257
   32.130    8.9310
   32.160    8.2570
   32.190    7.4776
   32.220    7.0458
   32.250    6.2349
   32.280    6.3823
   32.310    5.8873
   32.340    6.0979
   32.370    6.6140
   32.400    6.2243
   32.430    6.1611
   32.460    6.4034
   32.490    6.3296
   32.520    6.3612
   32.550    6.6667
   32.580    6.4455
   32.610    5.9926
   32.640    6.1506
   32.670    6.3296
   32.700    6.0137
   32.730    5.9926
   32.760    6.2349
   32.790    6.2138
   32.820    6.2981
   32.850    5.9716
   32.880    6.1085
   32.910    6.2349
   32.940    6.5192
   32.970    6.4455
   33.000    5.9926
   33.030    6.1822
   33.060    6.2981
   33.090    6.1822
   33.120    6.2454
   33.150    6.1401
   33.180    6.0979
   33.210    6.3402
   33.240    6.5403
   33.270    5.9400
   33.300    6.0664
   33.330    6.3191
   33.360    6.3191
   33.390    6.2665
   33.420    6.3086
   33.450    6.2981
   33.480    6.0979
   33.510    6.3718
   33.540    5.8452
   33.570    6.0242
   33.600    6.4139
   33.630    6.1611
   33.660    6.1190
   33.690    6.5824
   33.720    7.0669
   33.750    7.0248
   33.780    7.2880
   33.810    6.9405
   33.840    7.0037
   33.870    7.6145
   33.900    7.1722
   33.930    7.2880
   33.960    6.7825
   33.990    7.0458
   34.020    6.8141
   34.050    6.5824
   34.080    6.2875
   34.110    6.1190
   34.140    5.8873
   34.170    6.0558
   34.200    6.1506
   34.230    6.2875
   34.260    6.0348
   34.290    6.2243
   34.320    6.1190
   34.350    6.2033
   34.380    5.7925
   34.410    6.0664
   34.440    6.3507
   34.470    6.0453
   34.500    6.0137
   34.530    6.2981
   34.560    6.0664
   34.590    5.8452
   34.620    5.9926
   34.650    5.8873
   34.680    6.2138
   34.710    5.7188
   34.740    6.0558
   34.770    5.9821
   34.800    5.7504
   34.830    5.7925
   34.860    6.2243
   34.890    5.9400
   34.920    5.4028
   34.950    5.8873
   34.980    5.9505
   35.010    6.1506
   35.040    6.0874
   35.070    5.7504
   35.100    5.8031
   35.130    5.8873
   35.160    6.0242
   35.190    5.6977
   35.220    6.0348
   35.250    6.2665
   35.280    5.7609
   35.310    5.9610
   35.340    5.8557
   35.370    5.9610
   35.400    5.8662
   35.430    5.8662
   35.460    6.1085
   35.490    6.1190
   35.520    5.7820
   35.550    6.3296
   35.580    5.7399
   35.610    5.7609
   35.640    6.2033
   35.670    5.7293
   35.700    6.0769
   35.730    5.5503
   35.760    5.8662
   35.790    5.8873
   35.820    5.6767
   35.850    5.8241
   35.880    6.2349
   35.910    5.8978
   35.940    5.9821
   35.970    6.2770
   36.000    5.9084
   36.030    6.0242
   36.060    6.0032
   36.090    5.9294
   36.120    5.7504
   36.150    5.7293
   36.180    5.5082
   36.210    6.2559
   36.240    5.7504
   36.270    6.0348
   36.300    5.6977
   36.330    6.0979
   36.360    5.9716
   36.390    5.7820
   36.420    5.9821
   36.450    6.0558
   36.480    5.7715
   36.510    6.2349
   36.540    5.6451
   36.570    5.8136
   36.600    5.8136
   36.630    6.0769
   36.660    5.5924
   36.690    5.6977
   36.720    5.8031
   36.750    5.7399
   36.780    5.8241
   36.810    5.9294
   36.840    5.5503
   36.870    5.7083
   36.900    6.0137
   36.930    6.1611
   36.960    5.9610
   36.990    6.0137
   37.020    6.2559
   37.050    5.8978
   37.080    5.5503
   37.110    5.7925
   37.140    5.7188
   37.170    5.7188
   37.200    5.7083
   37.230    6.1085
   37.260    5.8031
   37.290    6.0032
   37.320    5.8031
   37.350    5.4766
   37.380    5.5608
   37.410    5.6556
   37.440    6.0032
   37.470    5.9926
   37.500    5.6767
   37.530    5.7715
   37.560    5.8873
   37.590    6.0348
   37.620    5.8873
   37.650    6.0558
   37.680    5.6451
   37.710    5.6767
   37.740    5.8873
   37.770    5.9084
   37.800    5.5608
   37.830    6.1401
   37.860    5.9926
   37.890    5.8241
   37.920    5.7820
   37.950    6.1717
   37.980    6.0558
   38.010    5.7293
   38.040    5.6240
   38.070    6.0558
   38.100    5.7715
   38.130    5.5398
   38.160    5.9821
   38.190    5.5292
   38.220    6.1717
   38.250    5.6029
   38.280    5.8662
   38.310    6.0874
   38.340    5.4976
   38.370    5.9505
   38.400    5.8662
   38.430    5.3818
   38.460    5.7083
   38.490    6.2665
   38.520    6.4244
   38.550    6.2349
   38.580    6.2875
   38.610    6.2559
   38.640    6.4350
   38.670    5.8031
   38.700    5.8241
   38.730    5.6767
   38.760    5.9400
   38.790    5.7399
   38.820    5.4239
   38.850    6.0348
   38.880    5.9505
   38.910    5.7820
   38.940    5.6767
   38.970    5.6977
   39.000    6.0558
   39.030    5.8347
   39.060    5.7715
   39.090    5.7715
   39.120    5.6345
   39.150    5.7609
   39.180    5.7609
   39.210    5.5503
   39.240    5.9505
   39.270    5.8347
   39.300    5.8136
   39.330    5.9294
   39.360    5.9189
   39.390    5.8557
   39.420    6.0453
   39.450    5.8662
   39.480    5.6451
   39.510    5.8768
   39.540    5.7925
   39.570    5.6767
   39.600    5.6345
   39.630    5.6029
   39.660    5.9294
   39.690    5.6977
   39.720    5.9610
   39.750    6.0664
   39.780    5.9505
   39.810    5.5819
   39.840    5.8557
   39.870    5.7609
   39.900    5.6977
   39.930    5.7293
   39.960    5.8031
   39.990    5.5608