File: data/MOCOF-1/PXRD/PXRD_KE-182_Cu-Ka1_capillary-1mm_5s-deg.xyd
    1.500   20.4634
    1.530   20.2212
    1.560   20.6951
    1.590   19.3154
    1.620   18.1991
    1.650   16.4508
    1.680   16.6614
    1.710   15.9452
    1.740   15.3660
    1.770   14.3339
    1.800   14.2707
    1.830   13.1964
    1.860   12.8699
    1.890   12.2486
    1.920   11.7009
    1.950   11.0795
    1.980   10.6056
    2.010   11.1427
    2.040   10.6056
    2.070    9.8052
    2.100    9.8789
    2.130    9.2786
    2.160    9.2891
    2.190    9.3628
    2.220    8.6888
    2.250    8.5413
    2.280    8.7309
    2.310    8.0463
    2.340    8.0463
    2.370    7.6567
    2.400    7.8252
    2.430    7.4250
    2.460    7.3828
    2.490    7.3512
    2.520    7.3618
    2.550    7.2459
    2.580    7.0985
    2.610    6.4350
    2.640    6.5403
    2.670    6.7720
    2.700    6.6351
    2.730    6.4455
    2.760    6.1295
    2.790    6.2243
    2.820    5.5398
    2.850    6.1085
    2.880    5.7293
    2.910    5.9189
    2.940    5.7504
    2.970    6.0137
    3.000    5.4976
    3.030    5.5819
    3.060    5.4660
    3.090    5.5398
    3.120    5.5187
    3.150    5.7609
    3.180    5.7399
    3.210    5.5819
    3.240    5.3397
    3.270    6.2349
    3.300    5.6977
    3.330    5.7715
    3.360    5.8873
    3.390    5.8241
    3.420    6.6772
    3.450    6.4034
    3.480    6.1927
    3.510    6.8668
    3.540    7.5935
    3.570    7.1406
    3.600    8.3096
    3.630    9.0258
    3.660    9.2259
    3.690    9.9421
    3.720   11.0690
    3.750   12.0274
    3.780   14.1127
    3.810   17.2196
    3.840   22.9384
    3.870   30.0790
    3.900   28.2043
    3.930   16.9142
    3.960    5.9294
    3.990    4.9710
    4.020    4.7393
    4.050    4.4128
    4.080    4.4234
    4.110    4.4444
    4.140    4.5182
    4.170    4.4760
    4.200    4.4444
    4.230    4.1496
    4.260    4.3602
    4.290    4.4655
    4.320    4.3918
    4.350    4.3602
    4.380    4.3813
    4.410    4.4971
    4.440    4.1706
    4.470    4.2549
    4.500    4.3602
    4.530    4.3707
    4.560    4.2233
    4.590    4.4339
    4.620    4.1811
    4.650    3.9389
    4.680    4.0758
    4.710    4.0653
    4.740    4.3075
    4.770    4.5076
    4.800    4.3497
    4.830    4.3286
    4.860    3.8968
    4.890    4.5076
    4.920    4.0864
    4.950    4.3813
    4.980    3.9389
    5.010    3.9705
    5.040    4.0442
    5.070    4.2233
    5.100    4.2865
    5.130    4.4234
    5.160    4.2970
    5.190    4.4444
    5.220    4.3918
    5.250    5.0658
    5.280    4.8657
    5.310    5.0342
    5.340    5.1817
    5.370    5.7083
    5.400    5.9610
    5.430    6.8036
    5.460    8.8994
    5.490   10.4581
    5.520   10.4897
    5.550    8.0358
    5.580    4.5498
    5.610    3.9705
    5.640    4.0653
    5.670    4.0548
    5.700    3.8020
    5.730    3.7599
    5.760    3.7809
    5.790    3.8968
    5.820    3.9494
    5.850    4.0337
    5.880    4.0969
    5.910    4.1917
    5.940    3.7283
    5.970    3.8125
    6.000    3.8652
    6.030    3.9179
    6.060    3.7599
    6.090    3.8336
    6.120    3.6546
    6.150    4.0653
    6.180    3.9494
    6.210    3.9073
    6.240    3.8652
    6.270    3.8020
    6.300    3.7704
    6.330    3.9810
    6.360    3.8547
    6.390    4.0126
    6.420    3.7177
    6.450    4.0232
    6.480    3.8968
    6.510    3.7704
    6.540    4.0442
    6.570    3.9389
    6.600    4.2865
    6.630    4.1180
    6.660    4.5076
    6.690    5.2133
    6.720    5.3291
    6.750    5.7925
    6.780    5.2554
    6.810    4.7183
    6.840    3.7388
    6.870    3.9179
    6.900    3.8757
    6.930    4.0337
    6.960    3.9284
    6.990    3.9600
    7.020    3.5808
    7.050    3.8441
    7.080    3.7915
    7.110    3.6440
    7.140    4.0758
    7.170    4.0653
    7.200    3.7809
    7.230    3.9494
    7.260    4.0232
    7.290    3.6124
    7.320    3.7809
    7.350    4.1811
    7.380    3.7177
    7.410    3.8336
    7.440    4.0969
    7.470    3.5703
    7.500    4.0653
    7.530    4.0337
    7.560    4.0758
    7.590    3.8652
    7.620    4.3286
    7.650    3.7388
    7.680    4.1811
    7.710    4.3918
    7.740    4.4023
    7.770    4.8973
    7.800    4.9816
    7.830    4.9184
    7.860    4.1390
    7.890    3.8863
    7.920    3.7809
    7.950    3.8652
    7.980    3.8336
    8.010    3.6862
    8.040    3.8547
    8.070    3.9916
    8.100    4.2022
    8.130    3.8336
    8.160    3.7493
    8.190    3.8968
    8.220    3.4018
    8.250    3.9389
    8.280    3.6967
    8.310    3.8231
    8.340    4.0442
    8.370    3.9705
    8.400    3.8020
    8.430    3.8652
    8.460    3.7072
    8.490    3.7704
    8.520    3.6335
    8.550    4.1074
    8.580    4.1390
    8.610    4.1285
    8.640    3.9600
    8.670    3.8231
    8.700    3.9810
    8.730    3.9705
    8.760    4.1496
    8.790    4.1811
    8.820    3.9389
    8.850    3.6756
    8.880    3.5914
    8.910    4.0653
    8.940    3.6124
    8.970    3.7915
    9.000    4.0021
    9.030    3.8125
    9.060    3.9916
    9.090    4.0021
    9.120    3.9600
    9.150    3.9389
    9.180    3.8125
    9.210    3.8757
    9.240    3.6967
    9.270    3.9284
    9.300    4.1285
    9.330    4.0442
    9.360    3.9284
    9.390    4.4234
    9.420    4.7288
    9.450    4.6761
    9.480    4.7288
    9.510    5.4239
    9.540    6.9194
    9.570    6.9089
    9.600    6.2559
    9.630    4.1917
    9.660    4.3602
    9.690    4.0021
    9.720    3.9916
    9.750    3.9916
    9.780    3.7809
    9.810    3.9494
    9.840    3.8547
    9.870    4.0758
    9.900    4.2549
    9.930    3.6124
    9.960    3.8020
    9.990    3.8547
   10.020    3.8968
   10.050    3.5282
   10.080    3.8231
   10.110    3.9284
   10.140    3.8231
   10.170    3.8441
   10.200    3.7599
   10.230    3.9284
   10.260    4.2443
   10.290    4.5287
   10.320    4.8763
   10.350    4.8552
   10.380    4.6024
   10.410    3.9494
   10.440    3.7493
   10.470    3.7388
   10.500    3.7388
   10.530    4.1180
   10.560    3.9494
   10.590    3.9600
   10.620    3.7177
   10.650    3.7177
   10.680    3.8547
   10.710    3.9179
   10.740    3.5703
   10.770    3.9600
   10.800    3.7493
   10.830    4.2865
   10.860    3.9284
   10.890    4.3497
   10.920    4.0232
   10.950    4.0653
   10.980    3.8547
   11.010    4.4866
   11.040    4.7183
   11.070    4.4444
   11.100    4.3813
   11.130    3.6862
   11.160    3.6651
   11.190    3.7599
   11.220    3.8968
   11.250    3.8547
   11.280    3.7599
   11.310    3.9073
   11.340    3.7809
   11.370    3.7809
   11.400    4.1074
   11.430    3.9179
   11.460    3.8547
   11.490    3.6967
   11.520    3.7599
   11.550    3.8336
   11.580    3.7704
   11.610    3.7704
   11.640    4.2127
   11.670    3.8757
   11.700    4.7709
   11.730    4.4339
   11.760    4.5603
   11.790    4.1180
   11.820    3.8757
   11.850    4.0337
   11.880    3.6019
   11.910    3.4966
   11.940    3.5387
   11.970    3.8125
   12.000    3.3913
   12.030    3.8757
   12.060    3.6440
   12.090    3.5703
   12.120    3.5282
   12.150    3.6230
   12.180    3.5598
   12.210    3.8757
   12.240    4.0442
   12.270    3.4018
   12.300    3.6862
   12.330    3.7388
   12.360    3.6019
   12.390    3.5282
   12.420    3.3281
   12.450    3.7177
   12.480    3.5176
   12.510    3.4229
   12.540    3.5176
   12.570    3.7599
   12.600    3.6756
   12.630    3.8231
   12.660    3.4334
   12.690    3.6756
   12.720    3.5387
   12.750    3.8441
   12.780    3.6230
   12.810    3.7493
   12.840    3.4650
   12.870    3.9284
   12.900    3.6967
   12.930    3.7809
   12.960    4.0548
   12.990    4.1706
   13.020    3.5914
   13.050    3.5598
   13.080    3.7915
   13.110    3.6124
   13.140    3.4544
   13.170    3.3702
   13.200    3.6124
   13.230    3.7809
   13.260    3.4650
   13.290    3.6967
   13.320    3.6756
   13.350    3.5703
   13.380    3.5808
   13.410    3.5492
   13.440    3.6230
   13.470    3.7704
   13.500    3.8020
   13.530    3.6546
   13.560    3.6124
   13.590    3.8547
   13.620    3.5914
   13.650    3.2754
   13.680    3.4860
   13.710    3.3913
   13.740    3.5914
   13.770    3.6230
   13.800    3.3597
   13.830    3.5071
   13.860    3.7072
   13.890    3.4860
   13.920    3.6862
   13.950    3.5808
   13.980    3.5808
   14.010    3.4123
   14.040    3.7915
   14.070    4.0232
   14.100    4.4971
   14.130    4.2022
   14.160    3.7599
   14.190    3.7283
   14.220    3.5176
   14.250    3.4334
   14.280    3.4123
   14.310    3.6124
   14.340    3.7915
   14.370    3.7493
   14.400    3.3281
   14.430    3.6546
   14.460    3.5176
   14.490    3.5598
   14.520    3.4650
   14.550    3.3702
   14.580    3.4334
   14.610    3.5598
   14.640    3.6967
   14.670    3.6124
   14.700    3.5703
   14.730    3.2859
   14.760    3.3807
   14.790    3.4334
   14.820    3.7388
   14.850    3.6019
   14.880    3.5387
   14.910    3.4123
   14.940    3.8441
   14.970    3.6967
   15.000    3.4544
   15.030    3.4650
   15.060    3.6230
   15.090    3.5282
   15.120    3.6440
   15.150    3.9916
   15.180    3.7388
   15.210    3.8125
   15.240    3.5071
   15.270    3.5492
   15.300    3.6230
   15.330    3.3175
   15.360    3.3807
   15.390    3.8020
   15.420    3.7283
   15.450    3.6967
   15.480    3.6230
   15.510    3.7704
   15.540    3.6756
   15.570    3.8863
   15.600    3.7388
   15.630    3.6124
   15.660    3.5282
   15.690    3.6756
   15.720    3.6862
   15.750    3.6546
   15.780    3.7493
   15.810    3.8757
   15.840    3.6124
   15.870    4.0232
   15.900    3.8547
   15.930    3.8441
   15.960    3.9284
   15.990    3.9179
   16.020    4.1285
   16.050    3.8547
   16.080    3.7388
   16.110    4.2233
   16.140    4.0442
   16.170    4.4023
   16.200    4.2443
   16.230    4.0864
   16.260    3.9705
   16.290    4.0548
   16.320    3.9179
   16.350    3.9073
   16.380    3.9705
   16.410    3.7704
   16.440    4.0126
   16.470    3.8125
   16.500    3.5387
   16.530    4.0021
   16.560    3.9073
   16.590    3.8547
   16.620    3.8968
   16.650    3.8652
   16.680    3.6967
   16.710    3.7072
   16.740    3.6651
   16.770    3.6967
   16.800    3.4229
   16.830    3.7283
   16.860    3.6651
   16.890    3.4229
   16.920    3.6756
   16.950    3.3702
   16.980    3.8336
   17.010    3.9179
   17.040    3.8441
   17.070    3.8652
   17.100    4.1390
   17.130    3.9389
   17.160    3.7283
   17.190    3.6124
   17.220    3.5703
   17.250    3.4860
   17.280    3.4650
   17.310    3.6756
   17.340    3.7809
   17.370    3.3597
   17.400    3.7599
   17.430    3.5598
   17.460    3.8968
   17.490    3.8231
   17.520    3.7072
   17.550    3.7493
   17.580    3.8125
   17.610    3.6335
   17.640    3.7599
   17.670    4.0442
   17.700    3.5808
   17.730    3.8125
   17.760    3.5282
   17.790    3.6230
   17.820    3.3281
   17.850    3.8231
   17.880    3.7072
   17.910    3.6546
   17.940    3.6335
   17.970    3.5282
   18.000    3.7177
   18.030    3.6440
   18.060    3.6546
   18.090    3.7283
   18.120    3.8863
   18.150    3.5387
   18.180    3.5492
   18.210    3.8757
   18.240    3.5176
   18.270    3.2227
   18.300    3.5176
   18.330    3.5914
   18.360    3.9494
   18.390    3.9284
   18.420    3.6124
   18.450    3.5071
   18.480    3.5176
   18.510    3.7283
   18.540    3.5282
   18.570    3.6756
   18.600    3.4439
   18.630    3.6546
   18.660    3.3281
   18.690    3.5387
   18.720    3.6124
   18.750    3.4650
   18.780    3.5387
   18.810    3.8441
   18.840    3.4439
   18.870    3.6967
   18.900    3.9073
   18.930    3.6756
   18.960    4.1496
   18.990    4.2865
   19.020    4.5498
   19.050    4.4339
   19.080    3.7283
   19.110    3.4860
   19.140    3.7809
   19.170    3.8020
   19.200    3.6335
   19.230    3.9494
   19.260    3.7072
   19.290    3.5071
   19.320    3.4860
   19.350    3.7283
   19.380    3.6651
   19.410    3.8231
   19.440    3.4229
   19.470    3.5914
   19.500    3.6651
   19.530    3.6651
   19.560    3.9073
   19.590    3.8125
   19.620    4.1285
   19.650    3.4755
   19.680    3.5387
   19.710    3.6967
   19.740    3.7915
   19.770    3.2333
   19.800    3.4123
   19.830    3.7388
   19.860    3.4755
   19.890    3.3702
   19.920    4.0442
   19.950    3.6335
   19.980    3.5808
   20.010    3.2859
   20.040    3.6124
   20.070    3.6546
   20.100    3.5914
   20.130    3.5176
   20.160    3.4860
   20.190    3.4755
   20.220    3.6440
   20.250    3.5282
   20.280    3.6124
   20.310    3.5914
   20.340    4.0126
   20.370    4.0758
   20.400    3.9284
   20.430    3.8336
   20.460    4.1601
   20.490    3.4544
   20.520    3.4018
   20.550    3.8020
   20.580    3.5282
   20.610    3.6019
   20.640    3.7704
   20.670    3.6335
   20.700    3.8968
   20.730    3.5808
   20.760    3.6756
   20.790    3.5176
   20.820    3.3807
   20.850    3.8020
   20.880    3.6546
   20.910    3.7599
   20.940    3.7177
   20.970    3.4334
   21.000    3.7704
   21.030    3.6651
   21.060    3.7493
   21.090    3.9179
   21.120    3.6019
   21.150    3.6124
   21.180    3.5598
   21.210    3.9494
   21.240    3.5282
   21.270    3.6756
   21.300    3.4966
   21.330    3.6862
   21.360    3.4966
   21.390    3.5387
   21.420    3.4229
   21.450    3.6967
   21.480    3.7072
   21.510    3.7915
   21.540    3.8231
   21.570    3.8020
   21.600    3.7915
   21.630    3.6124
   21.660    3.6756
   21.690    3.4439
   21.720    3.6335
   21.750    3.5282
   21.780    3.7809
   21.810    3.4018
   21.840    3.9494
   21.870    3.5492
   21.900    3.6862
   21.930    3.6967
   21.960    3.2438
   21.990    3.4966
   22.020    3.9600
   22.050    3.6019
   22.080    3.7283
   22.110    4.0126
   22.140    3.8020
   22.170    3.4018
   22.200    3.6546
   22.230    3.5808
   22.260    3.9389
   22.290    3.9073
   22.320    3.7493
   22.350    3.7283
   22.380    3.6862
   22.410    3.7493
   22.440    3.5914
   22.470    3.7177
   22.500    3.8231
   22.530    3.9179
   22.560    4.0548
   22.590    3.9705
   22.620    4.2865
   22.650    3.8441
   22.680    3.5387
   22.710    3.7599
   22.740    3.7704
   22.770    3.5176
   22.800    3.7493
   22.830    3.7704
   22.860    3.8231
   22.890    3.5176
   22.920    4.1917
   22.950    4.0548
   22.980    4.1390
   23.010    3.7072
   23.040    3.8336
   23.070    3.7809
   23.100    4.0758
   23.130    3.7599
   23.160    4.0126
   23.190    4.0126
   23.220    3.9916
   23.250    3.8020
   23.280    3.9916
   23.310    3.8441
   23.340    3.3281
   23.370    3.4229
   23.400    3.2965
   23.430    3.7915
   23.460    3.6546
   23.490    3.4439
   23.520    3.5808
   23.550    3.7599
   23.580    3.8652
   23.610    4.1074
   23.640    3.6440
   23.670    3.5071
   23.700    3.5914
   23.730    3.8336
   23.760    3.4860
   23.790    3.4650
   23.820    3.7809
   23.850    3.6546
   23.880    3.8336
   23.910    3.6651
   23.940    3.9179
   23.970    3.5598
   24.000    3.4123
   24.030    3.6546
   24.060    3.6546
   24.090    4.0232
   24.120    3.7177
   24.150    3.6335
   24.180    3.6756
   24.210    3.5492
   24.240    3.4439
   24.270    3.6124
   24.300    3.8125
   24.330    3.2859
   24.360    3.5914
   24.390    3.5387
   24.420    3.4018
   24.450    3.6546
   24.480    3.6651
   24.510    3.7493
   24.540    3.7283
   24.570    3.6756
   24.600    3.4544
   24.630    3.7493
   24.660    3.5282
   24.690    3.2965
   24.720    3.8757
   24.750    3.6335
   24.780    3.5071
   24.810    3.6019
   24.840    3.7388
   24.870    3.3597
   24.900    3.5282
   24.930    3.8020
   24.960    3.6124
   24.990    3.7493
   25.020    3.9389
   25.050    3.4966
   25.080    3.7072
   25.110    3.5071
   25.140    3.4018
   25.170    3.6967
   25.200    3.6019
   25.230    3.7915
   25.260    3.7283
   25.290    3.5703
   25.320    3.5071
   25.350    3.6230
   25.380    3.5387
   25.410    3.6230
   25.440    3.6124
   25.470    3.3597
   25.500    3.5914
   25.530    3.5703
   25.560    3.4650
   25.590    3.5387
   25.620    3.5071
   25.650    3.5492
   25.680    3.2227
   25.710    3.4755
   25.740    3.2649
   25.770    3.8125
   25.800    3.5914
   25.830    3.8125
   25.860    3.9179
   25.890    3.7915
   25.920    3.4334
   25.950    3.6651
   25.980    3.4966
   26.010    3.7809
   26.040    3.4439
   26.070    3.3386
   26.100    3.4544
   26.130    3.4966
   26.160    3.4123
   26.190    3.4229
   26.220    3.4860
   26.250    3.3281
   26.280    3.5703
   26.310    3.4544
   26.340    3.4544
   26.370    3.4334
   26.400    3.6651
   26.430    3.3491
   26.460    3.7809
   26.490    3.6230
   26.520    3.3386
   26.550    3.2859
   26.580    3.4334
   26.610    3.4229
   26.640    3.4650
   26.670    3.2965
   26.700    3.6546
   26.730    3.0542
   26.760    3.4966
   26.790    3.3597
   26.820    3.2227
   26.850    3.2333
   26.880    3.4439
   26.910    3.3702
   26.940    3.5071
   26.970    3.6440
   27.000    3.2543
   27.030    3.6440
   27.060    3.3913
   27.090    3.6124
   27.120    3.4229
   27.150    3.2227
   27.180    3.2754
   27.210    3.6124
   27.240    3.5176
   27.270    3.6335
   27.300    3.6230
   27.330    3.8336
   27.360    3.4650
   27.390    3.2227
   27.420    3.3597
   27.450    3.6019
   27.480    3.3913
   27.510    3.6019
   27.540    3.6546
   27.570    3.2754
   27.600    3.5492
   27.630    3.4755
   27.660    3.5492
   27.690    3.6756
   27.720    3.5282
   27.750    3.5598
   27.780    3.3070
   27.810    3.1069
   27.840    3.5598
   27.870    3.4334
   27.900    3.4123
   27.930    3.6019
   27.960    3.6335
   27.990    4.2233
   28.020    3.8020
   28.050    3.9600
   28.080    3.8652
   28.110    3.5808
   28.140    3.7072
   28.170    3.4544
   28.200    3.4439
   28.230    3.7388
   28.260    3.4229
   28.290    3.4439
   28.320    3.5071
   28.350    3.5598
   28.380    3.6862
   28.410    3.4334
   28.440    3.3597
   28.470    3.9073
   28.500    3.3807
   28.530    3.7072
   28.560    3.3913
   28.590    3.2543
   28.620    3.5176
   28.650    3.2227
   28.680    3.7388
   28.710    3.3702
   28.740    3.3175
   28.770    3.1174
   28.800    3.0542
   28.830    3.6019
   28.860    3.3597
   28.890    3.2859
   28.920    3.5387
   28.950    3.5176
   28.980    4.0653
   29.010    4.2654
   29.040    3.7704
   29.070    3.3386
   29.100    3.3281
   29.130    3.4860
   29.160    3.2227
   29.190    3.5071
   29.220    3.2543
   29.250    3.6440
   29.280    3.2859
   29.310    3.4650
   29.340    3.4650
   29.370    3.2438
   29.400    3.5914
   29.430    3.1280
   29.460    3.4755
   29.490    3.3807
   29.520    3.1912
   29.550    3.2017
   29.580    3.5071
   29.610    3.2017
   29.640    3.1280
   29.670    2.9279
   29.700    3.2438
   29.730    3.2333
   29.760    3.4544
   29.790    3.4018
   29.820    3.0753
   29.850    3.3807
   29.880    3.2754
   29.910    3.3597
   29.940    3.5703
   29.970    3.1280
   30.000    3.1912
   30.030    3.3175
   30.060    3.6756
   30.090    3.2543
   30.120    3.6335
   30.150    3.2122
   30.180    3.3807
   30.210    2.9910
   30.240    3.3281
   30.270    3.3281
   30.300    3.6967
   30.330    3.4439
   30.360    3.6967
   30.390    3.5282
   30.420    3.3491
   30.450    3.4439
   30.480    3.2859
   30.510    3.0964
   30.540    2.9700
   30.570    3.1912
   30.600    3.3913
   30.630    3.5387
   30.660    3.5598
   30.690    2.8647
   30.720    3.3070
   30.750    3.2122
   30.780    3.2859
   30.810    3.2649
   30.840    3.2543
   30.870    3.4018
   30.900    3.4018
   30.930    3.3597
   30.960    3.6967
   30.990    3.3702
   31.020    3.4966
   31.050    3.1174
   31.080    3.2227
   31.110    3.2438
   31.140    3.2649
   31.170    3.2754
   31.200    3.1912
   31.230    3.2438
   31.260    3.6230
   31.290    3.2965
   31.320    3.2227
   31.350    3.2754
   31.380    3.5492
   31.410    3.3491
   31.440    3.4860
   31.470    3.2543
   31.500    3.2227
   31.530    3.5071
   31.560    3.3386
   31.590    3.3702
   31.620    3.2122
   31.650    3.3070
   31.680    3.3491
   31.710    3.2649
   31.740    3.6756
   31.770    3.7283
   31.800    3.3807
   31.830    3.5387
   31.860    3.4966
   31.890    3.3386
   31.920    3.7283
   31.950    3.6124
   31.980    3.4544
   32.010    3.5492
   32.040    4.0021
   32.070    4.1811
   32.100    4.7183
   32.130    4.5603
   32.160    4.5603
   32.190    3.7704
   32.220    3.5176
   32.250    3.2965
   32.280    3.1806
   32.310    3.3386
   32.340    3.2122
   32.370    3.1596
   32.400    3.6440
   32.430    3.1701
   32.460    3.3281
   32.490    3.2543
   32.520    3.1912
   32.550    3.2438
   32.580    3.5176
   32.610    3.1490
   32.640    3.2227
   32.670    3.3070
   32.700    3.2122
   32.730    3.3070
   32.760    3.1596
   32.790    3.1912
   32.820    3.2017
   32.850    3.3702
   32.880    3.2859
   32.910    3.1912
   32.940    3.2227
   32.970    2.9910
   33.000    3.1596
   33.030    2.8963
   33.060    3.0226
   33.090    3.0332
   33.120    3.0332
   33.150    3.3281
   33.180    2.9489
   33.210    3.2122
   33.240    3.1069
   33.270    3.4544
   33.300    3.1806
   33.330    2.8752
   33.360    3.0648
   33.390    2.8963
   33.420    3.2122
   33.450    2.9595
   33.480    3.0016
   33.510    3.2227
   33.540    2.9173
   33.570    3.0858
   33.600    2.8647
   33.630    3.4123
   33.660    3.2543
   33.690    3.1806
   33.720    3.1490
   33.750    3.0542
   33.780    3.3913
   33.810    4.0758
   33.840    3.6230
   33.870    3.8020
   33.900    3.5598
   33.930    3.4755
   33.960    3.2227
   33.990    3.3070
   34.020    3.0437
   34.050    3.1490
   34.080    3.1596
   34.110    3.3702
   34.140    3.0964
   34.170    2.8436
   34.200    3.2859
   34.230    3.0753
   34.260    3.2543
   34.290    3.0858
   34.320    2.8225
   34.350    2.9595
   34.380    3.4018
   34.410    2.8120
   34.440    3.0753
   34.470    3.1806
   34.500    2.8225
   34.530    2.6962
   34.560    3.1912
   34.590    3.1174
   34.620    3.1280
   34.650    3.1701
   34.680    2.9384
   34.710    2.9384
   34.740    3.0016
   34.770    2.8752
   34.800    3.2122
   34.830    2.7383
   34.860    2.9384
   34.890    3.1385
   34.920    2.7804
   34.950    2.8857
   34.980    3.3702
   35.010    2.6962
   35.040    2.9173
   35.070    2.7593
   35.100    2.9595
   35.130    3.0648
   35.160    2.9068
   35.190    2.8331
   35.220    2.7909
   35.250    2.9384
   35.280    3.0016
   35.310    2.9910
   35.340    3.0437
   35.370    2.8015
   35.400    2.7278
   35.430    2.8120
   35.460    3.0437
   35.490    2.9805
   35.520    2.9700
   35.550    2.9700
   35.580    2.8015
   35.610    3.0332
   35.640    2.9279
   35.670    3.2122
   35.700    2.8857
   35.730    3.0437
   35.760    3.2333
   35.790    3.0437
   35.820    2.9384
   35.850    2.7909
   35.880    2.7909
   35.910    2.7172
   35.940    2.9595
   35.970    2.7699
   36.000    3.2438
   36.030    2.8752
   36.060    2.8331
   36.090    2.9595
   36.120    3.0753
   36.150    2.9595
   36.180    2.9489
   36.210    2.8120
   36.240    2.7909
   36.270    2.8015
   36.300    2.9700
   36.330    2.7699
   36.360    2.7909
   36.390    2.9068
   36.420    2.9595
   36.450    2.8647
   36.480    2.8647
   36.510    2.7699
   36.540    2.6646
   36.570    3.1069
   36.600    2.8225
   36.630    3.0753
   36.660    2.8225
   36.690    2.9489
   36.720    2.8647
   36.750    2.9068
   36.780    2.7383
   36.810    2.7278
   36.840    2.8752
   36.870    2.8541
   36.900    2.7383
   36.930    2.7593
   36.960    2.9489
   36.990    3.0121
   37.020    2.7593
   37.050    2.9279
   37.080    3.1912
   37.110    3.0753
   37.140    3.0016
   37.170    2.7909
   37.200    2.9595
   37.230    3.0226
   37.260    2.7067
   37.290    2.9068
   37.320    2.8857
   37.350    2.8857
   37.380    2.7909
   37.410    3.0648
   37.440    2.8647
   37.470    2.9595
   37.500    2.8331
   37.530    2.9489
   37.560    2.9384
   37.590    2.9910
   37.620    2.8015
   37.650    3.0542
   37.680    2.8120
   37.710    2.7909
   37.740    2.8331
   37.770    2.7172
   37.800    2.7172
   37.830    2.9279
   37.860    2.7067
   37.890    2.9805
   37.920    2.7278
   37.950    2.9384
   37.980    2.9700
   38.010    2.9805
   38.040    2.8647
   38.070    2.6751
   38.100    2.7593
   38.130    2.8015
   38.160    2.8120
   38.190    2.9279
   38.220    2.9805
   38.250    2.6435
   38.280    2.9700
   38.310    2.8647
   38.340    2.8752
   38.370    3.1596
   38.400    2.9173
   38.430    3.0226
   38.460    3.0226
   38.490    2.9489
   38.520    2.7488
   38.550    3.2333
   38.580    3.1490
   38.610    3.1912
   38.640    3.0964
   38.670    3.2333
   38.700    2.9384
   38.730    3.0016
   38.760    3.1174
   38.790    2.8225
   38.820    3.0332
   38.850    3.0226
   38.880    3.0648
   38.910    2.9805
   38.940    2.9489
   38.970    3.1912
   39.000    3.0437
   39.030    3.2333
   39.060    3.4018
   39.090    3.1806
   39.120    3.3070
   39.150    3.1385
   39.180    3.0753
   39.210    3.0542
   39.240    3.4650
   39.270    3.1806
   39.300    2.8963
   39.330    3.1596
   39.360    2.9279
   39.390    3.0858
   39.420    3.1596
   39.450    3.0332
   39.480    2.8647
   39.510    3.0648
   39.540    2.8752
   39.570    2.9700
   39.600    2.9489
   39.630    3.1490
   39.660    2.8963
   39.690    3.0648
   39.720    3.0121
   39.750    2.9910
   39.780    3.0964
   39.810    3.0332
   39.840    3.0437
   39.870    2.9279
   39.900    3.0016
   39.930    2.8857
   39.960    2.9068
   39.990    2.7909