File: data/MOCOF-1/PXRD/PXRD_KE-074_Cu-Ka1_capillary-1mm_5s-deg.xyd
    1.500   20.6846
    1.530   20.7267
    1.560   20.5582
    1.590   19.7578
    1.620   19.0837
    1.650   19.9895
    1.680   18.9784
    1.710   18.2833
    1.740   18.9047
    1.770   18.4834
    1.800   17.5777
    1.830   18.2622
    1.860   17.6619
    1.890   17.9358
    1.920   17.0616
    1.950   17.4934
    1.980   16.6825
    2.010   17.4513
    2.040   16.9247
    2.070   16.2401
    2.100   16.6087
    2.130   16.0506
    2.160   17.1564
    2.190   16.1032
    2.220   16.4192
    2.250   16.5350
    2.280   15.9979
    2.310   17.0616
    2.340   15.7767
    2.370   16.5877
    2.400   16.7983
    2.430   16.0400
    2.460   16.6298
    2.490   15.8820
    2.520   15.7662
    2.550   15.7662
    2.580   15.6398
    2.610   15.4924
    2.640   15.7030
    2.670   14.9763
    2.700   15.0500
    2.730   14.7341
    2.760   14.7551
    2.790   14.8499
    2.820   14.5972
    2.850   14.4181
    2.880   14.3233
    2.910   14.0811
    2.940   14.3549
    2.970   14.2391
    3.000   13.8073
    3.030   13.6598
    3.060   13.0700
    3.090   13.7230
    3.120   13.3860
    3.150   13.2701
    3.180   13.3017
    3.210   13.5966
    3.240   13.8178
    3.270   13.5966
    3.300   13.9126
    3.330   13.5229
    3.360   12.9963
    3.390   12.8805
    3.420   12.1011
    3.450   11.0374
    3.480   10.9637
    3.510   10.9005
    3.540   10.4687
    3.570   10.6266
    3.600   10.3002
    3.630   10.0895
    3.660    9.8262
    3.690    9.9842
    3.720   10.1948
    3.750   10.2580
    3.780   10.0790
    3.810   10.2370
    3.840   10.3107
    3.870    9.4260
    3.900    9.4576
    3.930    9.2786
    3.960    9.5629
    3.990    9.5524
    4.020    9.2259
    4.050    9.2786
    4.080    9.7104
    4.110    9.4681
    4.140    9.6577
    4.170   10.1211
    4.200    9.6577
    4.230    9.0995
    4.260    9.0785
    4.290    8.9415
    4.320    9.4155
    4.350    9.1627
    4.380    9.2891
    4.410    9.0890
    4.440    8.8784
    4.470    9.3312
    4.500    8.9205
    4.530    9.6156
    4.560    9.1101
    4.590    9.3312
    4.620    9.1838
    4.650    9.5629
    4.680    9.6788
    4.710    9.3207
    4.740    8.9731
    4.770    9.4576
    4.800    9.6998
    4.830    9.8052
    4.860   10.5213
    4.890    9.7946
    4.920   10.2264
    4.950   10.1527
    4.980   10.3528
    5.010   10.7425
    5.040    9.7841
    5.070    9.8684
    5.100   10.1422
    5.130   10.1001
    5.160    9.8578
    5.190    9.8157
    5.220    9.6577
    5.250   10.1106
    5.280    9.5208
    5.310    9.9421
    5.340    9.6367
    5.370   10.1211
    5.400   10.4792
    5.430   11.0163
    5.460   11.1532
    5.490   10.8794
    5.520   10.1106
    5.550   10.1211
    5.580    9.7420
    5.610    9.1838
    5.640    8.7941
    5.670    8.7941
    5.700    8.9415
    5.730    8.9521
    5.760    8.4360
    5.790    8.8046
    5.820    8.6993
    5.850    8.7520
    5.880    8.6256
    5.910    8.8257
    5.940    8.8152
    5.970    8.5729
    6.000    8.6151
    6.030    8.9415
    6.060    8.2043
    6.090    9.1627
    6.120    8.8257
    6.150    8.8257
    6.180    8.6993
    6.210    8.9731
    6.240    9.1522
    6.270    8.6888
    6.300    8.8784
    6.330    9.0785
    6.360    9.2680
    6.390    9.0890
    6.420    9.4576
    6.450    9.1311
    6.480   10.0263
    6.510    9.7630
    6.540   10.1106
    6.570    9.8684
    6.600   10.4687
    6.630   11.0479
    6.660   11.3007
    6.690   12.0695
    6.720   12.1538
    6.750   12.4487
    6.780   12.3117
    6.810   11.7852
    6.840   10.8478
    6.870   10.6477
    6.900   10.4792
    6.930   10.0685
    6.960   10.6898
    6.990    9.6472
    7.020   10.2370
    7.050    9.5313
    7.080    9.1101
    7.110    9.4787
    7.140    9.2575
    7.170    9.2154
    7.200    8.9415
    7.230    9.1522
    7.260    9.2470
    7.290    9.6472
    7.320    9.1417
    7.350    9.6367
    7.380    9.4997
    7.410    9.6367
    7.440    8.9310
    7.470    9.6156
    7.500    9.1101
    7.530    9.1627
    7.560    9.4155
    7.590    8.6993
    7.620    9.1627
    7.650    9.0363
    7.680    8.4466
    7.710    8.2780
    7.740    8.8994
    7.770    8.4571
    7.800    8.4992
    7.830    8.6361
    7.860    8.7098
    7.890    8.3834
    7.920    8.2886
    7.950    9.0785
    7.980    8.7204
    8.010    8.6467
    8.040    8.5308
    8.070    8.7941
    8.100    8.7836
    8.130    9.0995
    8.160    9.2786
    8.190    8.8468
    8.220    8.6993
    8.250    8.3728
    8.280    8.5729
    8.310    9.1206
    8.340    8.8573
    8.370    8.9942
    8.400    9.1732
    8.430    8.9521
    8.460    9.0047
    8.490    9.2891
    8.520    9.3418
    8.550    9.6261
    8.580    9.8262
    8.610   10.4371
    8.640   10.6266
    8.670    9.9526
    8.700    9.8052
    8.730    9.2259
    8.760    9.4260
    8.790    8.6151
    8.820    9.1732
    8.850    9.0153
    8.880    9.1943
    8.910    9.3102
    8.940    9.4787
    8.970    9.2154
    9.000    9.3102
    9.030    9.4260
    9.060    9.2680
    9.090    8.9205
    9.120    9.0574
    9.150    9.1311
    9.180    9.2364
    9.210    9.6472
    9.240    9.4365
    9.270    9.0469
    9.300    9.0469
    9.330    9.3207
    9.360    9.4471
    9.390    9.0363
    9.420    8.7414
    9.450    8.9731
    9.480    9.2259
    9.510    9.1943
    9.540    8.8468
    9.570    9.2891
    9.600    9.1206
    9.630    9.0047
    9.660    9.1417
    9.690    9.1838
    9.720    9.7946
    9.750    9.0679
    9.780    9.7630
    9.810    9.6156
    9.840   10.1948
    9.870   10.3633
    9.900   10.7320
    9.930   10.4687
    9.960   11.0163
    9.990   10.8478
   10.020   11.0163
   10.050   11.0690
   10.080   10.9953
   10.110   11.5745
   10.140   12.2275
   10.170   12.2486
   10.200   12.9015
   10.230   13.2807
   10.260   13.4492
   10.290   11.9537
   10.320   10.5845
   10.350   10.1738
   10.380   10.0158
   10.410    9.2154
   10.440    9.5313
   10.470    8.8468
   10.500    9.4892
   10.530    9.3839
   10.560    9.0890
   10.590    9.2996
   10.620    9.4155
   10.650    9.3312
   10.680    9.4576
   10.710   10.0053
   10.740    9.5945
   10.770   10.0685
   10.800   10.1738
   10.830   10.5951
   10.860   11.0585
   10.890   11.6377
   10.920   12.5434
   10.950   12.6909
   10.980   13.8389
   11.010   12.7857
   11.040   12.3012
   11.070   11.7430
   11.100   11.6166
   11.130   10.8162
   11.160   11.0058
   11.190   10.4055
   11.220    9.9842
   11.250    9.6893
   11.280    9.0574
   11.310    9.2154
   11.340    9.0574
   11.370    9.1732
   11.400    9.3734
   11.430    9.6577
   11.460    9.1943
   11.490    9.1732
   11.520    9.0153
   11.550    8.7309
   11.580    9.1838
   11.610    8.7730
   11.640    8.6467
   11.670    8.4781
   11.700    8.3834
   11.730    8.3834
   11.760    8.6888
   11.790    8.4781
   11.820    8.3518
   11.850    8.1622
   11.880    8.5835
   11.910    8.2570
   11.940    8.1095
   11.970    8.1306
   12.000    7.7409
   12.030    8.3623
   12.060    8.1517
   12.090    8.1201
   12.120    8.4150
   12.150    8.1411
   12.180    8.3096
   12.210    7.9937
   12.240    8.4150
   12.270    8.2886
   12.300    8.2359
   12.330    8.2464
   12.360    8.4676
   12.390    8.5519
   12.420    8.1517
   12.450    8.4676
   12.480    8.1622
   12.510    8.0990
   12.540    8.3834
   12.570    7.9410
   12.600    8.0253
   12.630    7.4250
   12.660    7.3934
   12.690    8.3728
   12.720    8.1411
   12.750    7.8989
   12.780    7.9831
   12.810    7.9726
   12.840    8.0569
   12.870    7.9831
   12.900    8.2675
   12.930    7.9831
   12.960    7.6883
   12.990    7.9621
   13.020    7.7409
   13.050    7.9516
   13.080    8.3307
   13.110    7.8357
   13.140    8.7309
   13.170    8.7730
   13.200    8.0990
   13.230    8.0358
   13.260    7.9410
   13.290    8.6677
   13.320    8.4044
   13.350    8.0674
   13.380    8.2043
   13.410    8.0779
   13.440    8.5624
   13.470    8.1306
   13.500    8.2675
   13.530    8.0358
   13.560    7.8568
   13.590    7.9831
   13.620    8.0042
   13.650    7.7409
   13.680    7.8146
   13.710    7.5935
   13.740    7.7514
   13.770    7.8989
   13.800    8.0147
   13.830    7.8568
   13.860    7.7514
   13.890    7.9516
   13.920    7.7093
   13.950    7.6251
   13.980    7.7199
   14.010    7.9200
   14.040    7.4039
   14.070    7.8252
   14.100    7.9305
   14.130    7.6040
   14.160    7.8673
   14.190    7.9094
   14.220    7.9305
   14.250    7.4987
   14.280    7.7725
   14.310    7.7093
   14.340    7.8462
   14.370    7.9726
   14.400    7.8989
   14.430    7.6777
   14.460    7.8568
   14.490    7.3723
   14.520    7.6988
   14.550    7.5197
   14.580    7.3618
   14.610    7.5197
   14.640    7.4566
   14.670    8.0463
   14.700    7.9726
   14.730    8.0569
   14.760    7.9094
   14.790    7.8778
   14.820    7.8357
   14.850    8.0674
   14.880    8.3412
   14.910    8.1517
   14.940    8.9837
   14.970    9.1522
   15.000    9.6367
   15.030    9.5524
   15.060    8.7941
   15.090    8.2991
   15.120    7.9726
   15.150    8.3939
   15.180    8.0885
   15.210    8.0042
   15.240    7.7620
   15.270    7.9621
   15.300    7.4882
   15.330    7.7620
   15.360    7.6883
   15.390    8.0674
   15.420    8.4255
   15.450    7.8146
   15.480    7.5197
   15.510    7.7409
   15.540    7.6883
   15.570    7.9831
   15.600    7.8778
   15.630    8.0885
   15.660    7.9621
   15.690    8.0042
   15.720    8.2570
   15.750    7.9937
   15.780    8.2149
   15.810    8.4044
   15.840    8.2780
   15.870    8.5624
   15.900    8.6256
   15.930    8.8889
   15.960    8.6256
   15.990    8.4255
   16.020    8.8678
   16.050    7.7093
   16.080    8.3202
   16.110    7.8146
   16.140    7.8357
   16.170    8.0990
   16.200    8.0779
   16.230    8.1833
   16.260    7.8462
   16.290    8.2043
   16.320    8.2043
   16.350    8.4044
   16.380    9.0047
   16.410    8.6361
   16.440    8.3728
   16.470    8.5308
   16.500    8.4360
   16.530    9.0047
   16.560    7.8357
   16.590    8.1201
   16.620    8.1517
   16.650    8.0779
   16.680    8.1622
   16.710    7.9937
   16.740    7.9410
   16.770    8.4255
   16.800    7.8252
   16.830    7.8252
   16.860    7.9937
   16.890    7.9200
   16.920    8.1095
   16.950    7.9726
   16.980    7.9094
   17.010    8.3728
   17.040    7.8884
   17.070    7.6145
   17.100    7.8041
   17.130    7.8252
   17.160    8.1727
   17.190    7.8462
   17.220    7.9621
   17.250    8.2886
   17.280    8.0147
   17.310    8.4360
   17.340    8.8362
   17.370    8.6151
   17.400    8.2991
   17.430    7.9726
   17.460    7.9516
   17.490    7.9937
   17.520    7.7409
   17.550    7.7093
   17.580    8.0358
   17.610    8.0253
   17.640    8.2675
   17.670    7.4882
   17.700    8.0253
   17.730    8.1622
   17.760    7.6356
   17.790    7.9410
   17.820    7.7620
   17.850    8.0569
   17.880    8.4255
   17.910    8.5835
   17.940    8.2886
   17.970    9.2680
   18.000    9.6261
   18.030    9.4787
   18.060   10.1316
   18.090   10.0263
   18.120   10.2054
   18.150   10.1948
   18.180   10.0685
   18.210   10.5740
   18.240   10.1948
   18.270    9.3944
   18.300    8.6572
   18.330    9.0047
   18.360    8.1517
   18.390    8.4150
   18.420    8.1833
   18.450    8.0042
   18.480    7.9094
   18.510    7.8989
   18.540    7.9937
   18.570    8.2043
   18.600    8.7520
   18.630    8.0674
   18.660    8.3307
   18.690    7.7304
   18.720    8.2675
   18.750    8.0463
   18.780    8.0147
   18.810    7.9726
   18.840    7.9726
   18.870    7.9937
   18.900    8.3939
   18.930    8.6677
   18.960    8.5729
   18.990    8.8573
   19.020    8.6045
   19.050    8.3412
   19.080    7.8884
   19.110    8.0042
   19.140    8.0779
   19.170    8.0463
   19.200    8.0885
   19.230    8.1411
   19.260    8.0779
   19.290    7.7725
   19.320    7.6883
   19.350    7.9621
   19.380    7.8462
   19.410    7.8884
   19.440    8.4044
   19.470    8.7204
   19.500    8.3728
   19.530    8.9521
   19.560    9.2364
   19.590    8.3202
   19.620    8.8468
   19.650    8.5729
   19.680    8.1833
   19.710    8.5729
   19.740    7.7620
   19.770    8.2991
   19.800    7.7514
   19.830    8.3307
   19.860    8.0990
   19.890    8.1095
   19.920    7.6145
   19.950    8.3096
   19.980    8.3307
   20.010    8.0358
   20.040    8.2464
   20.070    7.7514
   20.100    8.0674
   20.130    8.3307
   20.160    8.2043
   20.190    8.0569
   20.220    7.8462
   20.250    7.6988
   20.280    8.5835
   20.310    8.2149
   20.340    8.0253
   20.370    8.0674
   20.400    8.2254
   20.430    7.8884
   20.460    7.7093
   20.490    8.1095
   20.520    8.1727
   20.550    8.0885
   20.580    7.9516
   20.610    8.1833
   20.640    8.0147
   20.670    8.2464
   20.700    8.1306
   20.730    7.8146
   20.760    8.1833
   20.790    8.0885
   20.820    7.9410
   20.850    8.2991
   20.880    8.1095
   20.910    7.8673
   20.940    8.2043
   20.970    8.6677
   21.000    8.1938
   21.030    8.4992
   21.060    8.1411
   21.090    8.5940
   21.120    8.4676
   21.150    8.6045
   21.180    8.5308
   21.210    8.2570
   21.240    8.6993
   21.270    8.5203
   21.300    8.2464
   21.330    8.7309
   21.360    8.1517
   21.390    8.6045
   21.420    8.4360
   21.450    7.9726
   21.480    8.6783
   21.510    8.7730
   21.540    8.4992
   21.570    8.6888
   21.600    8.5203
   21.630    8.4571
   21.660    8.5940
   21.690    8.6572
   21.720    8.0885
   21.750    7.8884
   21.780    8.2149
   21.810    8.1517
   21.840    8.6151
   21.870    8.1095
   21.900    8.4887
   21.930    8.2149
   21.960    7.8989
   21.990    8.4150
   22.020    8.6572
   22.050    8.2254
   22.080    8.4360
   22.110    8.6045
   22.140    8.3623
   22.170    8.1622
   22.200    8.2464
   22.230    8.0779
   22.260    8.5519
   22.290    8.3412
   22.320    7.9831
   22.350    8.5413
   22.380    8.1095
   22.410    8.1938
   22.440    8.3834
   22.470    8.5519
   22.500    8.4466
   22.530    8.5308
   22.560    8.5835
   22.590    8.8573
   22.620    8.5519
   22.650    8.3412
   22.680    8.7730
   22.710    8.9731
   22.740    8.8362
   22.770    8.7098
   22.800    8.5519
   22.830    8.8257
   22.860    9.0890
   22.890    8.6361
   22.920    8.6256
   22.950    9.4155
   22.980    9.1311
   23.010    8.5835
   23.040    9.0995
   23.070    9.1943
   23.100    8.9310
   23.130    9.5313
   23.160    8.9415
   23.190    9.2786
   23.220    8.6045
   23.250    8.3518
   23.280    8.4255
   23.310    8.1411
   23.340    8.7204
   23.370    8.5940
   23.400    7.9831
   23.430    8.5097
   23.460    8.2570
   23.490    8.5624
   23.520    8.3307
   23.550    8.4466
   23.580    8.6993
   23.610    8.2886
   23.640    8.3834
   23.670    8.1727
   23.700    8.3623
   23.730    8.3412
   23.760    8.3834
   23.790    8.0042
   23.820    8.5519
   23.850    8.3307
   23.880    7.9305
   23.910    8.5308
   23.940    8.6783
   23.970    8.6993
   24.000    8.4044
   24.030    8.2254
   24.060    9.0153
   24.090    8.3412
   24.120    8.1833
   24.150    7.9726
   24.180    7.9726
   24.210    8.1411
   24.240    8.3728
   24.270    8.1727
   24.300    8.3728
   24.330    8.3728
   24.360    8.2043
   24.390    8.0042
   24.420    8.3307
   24.450    8.4992
   24.480    8.1306
   24.510    8.0885
   24.540    8.2254
   24.570    7.7514
   24.600    8.1201
   24.630    8.2570
   24.660    8.0779
   24.690    8.2886
   24.720    8.2254
   24.750    8.1517
   24.780    8.4781
   24.810    8.5940
   24.840    8.0042
   24.870    8.2464
   24.900    8.4044
   24.930    8.6256
   24.960    8.5835
   24.990    9.2575
   25.020    9.0995
   25.050    9.2470
   25.080    8.9521
   25.110    8.8889
   25.140    9.2048
   25.170    9.2891
   25.200    8.8046
   25.230    8.6783
   25.260    7.7093
   25.290    8.6888
   25.320    8.6361
   25.350    8.4255
   25.380    8.4466
   25.410    8.8152
   25.440    8.0253
   25.470    7.9831
   25.500    8.1306
   25.530    7.8673
   25.560    8.2149
   25.590    8.0253
   25.620    8.3834
   25.650    8.2254
   25.680    7.9621
   25.710    7.8357
   25.740    8.0885
   25.770    8.1306
   25.800    7.8146
   25.830    7.6883
   25.860    7.9516
   25.890    7.7093
   25.920    8.2886
   25.950    7.7199
   25.980    8.3834
   26.010    7.9516
   26.040    7.6988
   26.070    7.7514
   26.100    8.0042
   26.130    8.2043
   26.160    8.2043
   26.190    8.0569
   26.220    8.2675
   26.250    7.9094
   26.280    8.0885
   26.310    7.9094
   26.340    8.0253
   26.370    7.9094
   26.400    7.5092
   26.430    7.5724
   26.460    8.1833
   26.490    7.6883
   26.520    7.9094
   26.550    8.2464
   26.580    8.1517
   26.610    8.3728
   26.640    8.0358
   26.670    8.5413
   26.700    8.5940
   26.730    8.6151
   26.760    8.5729
   26.790    8.3096
   26.820    8.5519
   26.850    7.9516
   26.880    7.7725
   26.910    7.8041
   26.940    7.8146
   26.970    8.2149
   27.000    7.4987
   27.030    7.7725
   27.060    7.9621
   27.090    7.4460
   27.120    7.4250
   27.150    7.8146
   27.180    7.8884
   27.210    7.6145
   27.240    7.5619
   27.270    7.8989
   27.300    7.5829
   27.330    7.3828
   27.360    7.4882
   27.390    7.9516
   27.420    7.2986
   27.450    7.7514
   27.480    7.1617
   27.510    7.7830
   27.540    7.3828
   27.570    7.2143
   27.600    7.9200
   27.630    7.6883
   27.660    7.3723
   27.690    7.8357
   27.720    7.5829
   27.750    7.1195
   27.780    7.8568
   27.810    7.2775
   27.840    7.7620
   27.870    7.7093
   27.900    7.5303
   27.930    7.8462
   27.960    8.2149
   27.990    8.2149
   28.020    8.4255
   28.050    8.4571
   28.080    8.0253
   28.110    8.1411
   28.140    7.7093
   28.170    8.1517
   28.200    7.4144
   28.230    8.1095
   28.260    7.8252
   28.290    7.3512
   28.320    7.4566
   28.350    7.6356
   28.380    7.4987
   28.410    7.4250
   28.440    7.8568
   28.470    7.3512
   28.500    7.4355
   28.530    7.5935
   28.560    7.4250
   28.590    7.5408
   28.620    7.5935
   28.650    7.0563
   28.680    7.4355
   28.710    7.3723
   28.740    7.5935
   28.770    7.4987
   28.800    7.2775
   28.830    7.3512
   28.860    7.8041
   28.890    7.5829
   28.920    7.6883
   28.950    7.7620
   28.980    7.7830
   29.010    7.8989
   29.040    7.5303
   29.070    7.5408
   29.100    7.4039
   29.130    7.2565
   29.160    6.8036
   29.190    6.7404
   29.220    7.0879
   29.250    7.1511
   29.280    7.2459
   29.310    7.1090
   29.340    7.3723
   29.370    6.8668
   29.400    7.1722
   29.430    7.2670
   29.460    7.2670
   29.490    7.4566
   29.520    7.1617
   29.550    7.8462
   29.580    7.2670
   29.610    7.1617
   29.640    7.0248
   29.670    7.3618
   29.700    7.5197
   29.730    7.1301
   29.760    7.1827
   29.790    6.9300
   29.820    6.7404
   29.850    7.3407
   29.880    6.6140
   29.910    6.7825
   29.940    6.5613
   29.970    7.1406
   30.000    7.3934
   30.030    6.8246
   30.060    6.7299
   30.090    7.0142
   30.120    6.9405
   30.150    6.8668
   30.180    7.2249
   30.210    6.9089
   30.240    7.2249
   30.270    6.8668
   30.300    7.0879
   30.330    6.8246
   30.360    6.9194
   30.390    6.8246
   30.420    6.8562
   30.450    6.8141
   30.480    7.0353
   30.510    6.6667
   30.540    6.8668
   30.570    6.8141
   30.600    6.8878
   30.630    6.9194
   30.660    6.8457
   30.690    7.3302
   30.720    7.1406
   30.750    6.5824
   30.780    6.8773
   30.810    6.6772
   30.840    6.6140
   30.870    7.0985
   30.900    6.8246
   30.930    6.8773
   30.960    7.1090
   30.990    6.7299
   31.020    6.9616
   31.050    7.1511
   31.080    7.3828
   31.110    6.5508
   31.140    6.8984
   31.170    6.5613
   31.200    6.8246
   31.230    6.7193
   31.260    6.3928
   31.290    6.2033
   31.320    7.0458
   31.350    6.7088
   31.380    6.6877
   31.410    6.7404
   31.440    6.6561
   31.470    6.5508
   31.500    7.5197
   31.530    6.7930
   31.560    6.5508
   31.590    6.6035
   31.620    6.6772
   31.650    6.4982
   31.680    7.0353
   31.710    7.1511
   31.740    7.4776
   31.770    6.7299
   31.800    6.9089
   31.830    6.8352
   31.860    7.3091
   31.890    7.0353
   31.920    6.7720
   31.950    6.7088
   31.980    7.4039
   32.010    7.5619
   32.040    7.8357
   32.070    7.9726
   32.100    8.2043
   32.130    8.4044
   32.160    7.5935
   32.190    7.5303
   32.220    7.1195
   32.250    7.0353
   32.280    6.5824
   32.310    6.7088
   32.340    6.8036
   32.370    7.0774
   32.400    6.6983
   32.430    6.6035
   32.460    7.0037
   32.490    6.5824
   32.520    6.0874
   32.550    6.5192
   32.580    6.7509
   32.610    6.6035
   32.640    6.6983
   32.670    6.7825
   32.700    6.7193
   32.730    7.0458
   32.760    6.6245
   32.790    6.9194
   32.820    6.5719
   32.850    6.5719
   32.880    6.4350
   32.910    6.4455
   32.940    6.5929
   32.970    6.3928
   33.000    6.3507
   33.030    6.2559
   33.060    6.7193
   33.090    6.7825
   33.120    6.4666
   33.150    6.0769
   33.180    6.6983
   33.210    6.3191
   33.240    6.5613
   33.270    6.6245
   33.300    6.6561
   33.330    6.7509
   33.360    6.1506
   33.390    6.4982
   33.420    6.6561
   33.450    6.7193
   33.480    6.5719
   33.510    6.1822
   33.540    6.4876
   33.570    6.6245
   33.600    6.7193
   33.630    6.4771
   33.660    6.4560
   33.690    6.7299
   33.720    6.9616
   33.750    6.6561
   33.780    7.2880
   33.810    6.8457
   33.840    6.9300
   33.870    7.0142
   33.900    6.7615
   33.930    6.6561
   33.960    6.5192
   33.990    6.4666
   34.020    6.5298
   34.050    6.3507
   34.080    6.6561
   34.110    6.3928
   34.140    6.4139
   34.170    6.2981
   34.200    6.6877
   34.230    6.2665
   34.260    6.4244
   34.290    5.9610
   34.320    6.1927
   34.350    6.6877
   34.380    6.3402
   34.410    6.6667
   34.440    6.5403
   34.470    5.9400
   34.500    6.0558
   34.530    6.2875
   34.560    6.2349
   34.590    6.6561
   34.620    6.4455
   34.650    5.9294
   34.680    6.6667
   34.710    6.3507
   34.740    6.3402
   34.770    6.2875
   34.800    6.3928
   34.830    6.3823
   34.860    6.2875
   34.890    6.2454
   34.920    6.7088
   34.950    6.2665
   34.980    6.6667
   35.010    6.3296
   35.040    6.3823
   35.070    6.4771
   35.100    6.2243
   35.130    6.7720
   35.160    6.3402
   35.190    6.7088
   35.220    6.2665
   35.250    6.8141
   35.280    6.1717
   35.310    6.5508
   35.340    6.2770
   35.370    6.3823
   35.400    6.5929
   35.430    6.0242
   35.460    6.5087
   35.490    6.8773
   35.520    6.6140
   35.550    6.4771
   35.580    6.2665
   35.610    5.8031
   35.640    6.5719
   35.670    6.2981
   35.700    5.9821
   35.730    6.0137
   35.760    6.3612
   35.790    6.4771
   35.820    6.6772
   35.850    6.4982
   35.880    6.4139
   35.910    6.6035
   35.940    6.2243
   35.970    6.3928
   36.000    6.3402
   36.030    6.6772
   36.060    6.4244
   36.090    6.2349
   36.120    6.3296
   36.150    6.2981
   36.180    6.4560
   36.210    6.3086
   36.240    6.1190
   36.270    6.3928
   36.300    6.4560
   36.330    6.2981
   36.360    5.9926
   36.390    6.1295
   36.420    6.3402
   36.450    6.2454
   36.480    6.5403
   36.510    6.0558
   36.540    6.3086
   36.570    6.4244
   36.600    6.1717
   36.630    6.2770
   36.660    6.4666
   36.690    6.4982
   36.720    6.2033
   36.750    5.9400
   36.780    6.3612
   36.810    6.6561
   36.840    6.1506
   36.870    6.2033
   36.900    6.1295
   36.930    6.1717
   36.960    6.1506
   36.990    6.2033
   37.020    6.2559
   37.050    6.1295
   37.080    6.2454
   37.110    6.0137
   37.140    6.2665
   37.170    6.3086
   37.200    6.3086
   37.230    6.0769
   37.260    5.9294
   37.290    6.4139
   37.320    6.2875
   37.350    6.0032
   37.380    6.1506
   37.410    6.6772
   37.440    6.0137
   37.470    5.6661
   37.500    5.6872
   37.530    5.7715
   37.560    6.3402
   37.590    5.9084
   37.620    6.5298
   37.650    6.1927
   37.680    5.9716
   37.710    6.7615
   37.740    6.0979
   37.770    6.1611
   37.800    5.6767
   37.830    6.0769
   37.860    6.0137
   37.890    5.8136
   37.920    6.2243
   37.950    6.2981
   37.980    6.3612
   38.010    6.1401
   38.040    5.7715
   38.070    6.1611
   38.100    6.2138
   38.130    5.6345
   38.160    6.4244
   38.190    6.0453
   38.220    6.1190
   38.250    6.4560
   38.280    6.2033
   38.310    5.8873
   38.340    6.3612
   38.370    6.0137
   38.400    6.0032
   38.430    6.2559
   38.460    6.1506
   38.490    6.2875
   38.520    6.8878
   38.550    6.4771
   38.580    6.3612
   38.610    6.3823
   38.640    6.2138
   38.670    6.2770
   38.700    6.3823
   38.730    6.2981
   38.760    6.1717
   38.790    5.9294
   38.820    6.0137
   38.850    6.0558
   38.880    5.8768
   38.910    6.3718
   38.940    6.0874
   38.970    6.4771
   39.000    5.9084
   39.030    6.4771
   39.060    6.2559
   39.090    6.1401
   39.120    6.0137
   39.150    5.9716
   39.180    6.4034
   39.210    6.2981
   39.240    6.5508
   39.270    5.9610
   39.300    6.0874
   39.330    6.3612
   39.360    6.2454
   39.390    6.1927
   39.420    6.5508
   39.450    6.1611
   39.480    6.1085
   39.510    6.2665
   39.540    5.7293
   39.570    5.7188
   39.600    5.9821
   39.630    6.2138
   39.660    6.1717
   39.690    6.0769
   39.720    6.2981
   39.750    6.3928
   39.780    5.9400
   39.810    6.1085
   39.840    6.1822
   39.870    5.9716
   39.900    6.1822
   39.930    5.9716
   39.960    6.2243
   39.990    5.9610