File: data/MOCOF-1/PXRD/PXRD_KE-051_Cu-Ka1_capillary-1mm_5s-deg.xyd
    1.500   24.0126
    1.530   23.9179
    1.560   22.7488
    1.590   21.4850
    1.620   22.0221
    1.650   22.0116
    1.680   21.0848
    1.710   20.3791
    1.740   20.3791
    1.770   19.8526
    1.800   19.0627
    1.830   19.7894
    1.860   18.9468
    1.890   18.3149
    1.920   17.8094
    1.950   16.9668
    1.980   17.7041
    2.010   16.6719
    2.040   16.9774
    2.070   15.7978
    2.100   16.1980
    2.130   15.5977
    2.160   15.4186
    2.190   15.4818
    2.220   14.7762
    2.250   14.5024
    2.280   14.3444
    2.310   14.5550
    2.340   13.9652
    2.370   14.3339
    2.400   13.8283
    2.430   14.1022
    2.460   13.4808
    2.490   13.7967
    2.520   13.3860
    2.550   12.8489
    2.580   12.8067
    2.610   13.3860
    2.640   13.0595
    2.670   13.0700
    2.700   12.9858
    2.730   12.7857
    2.760   12.8594
    2.790   12.3539
    2.820   12.1116
    2.850   12.2064
    2.880   12.0379
    2.910   12.4908
    2.940   12.3012
    2.970   12.4276
    3.000   12.1222
    3.030   12.9331
    3.060   12.6488
    3.090   12.9542
    3.120   12.6593
    3.150   12.4592
    3.180   13.1754
    3.210   13.2385
    3.240   12.8278
    3.270   13.1122
    3.300   13.5861
    3.330   13.9442
    3.360   14.0811
    3.390   14.1864
    3.420   13.9758
    3.450   15.0184
    3.480   15.2817
    3.510   15.1132
    3.540   14.9763
    3.570   14.9236
    3.600   15.1553
    3.630   15.4397
    3.660   15.7662
    3.690   15.6398
    3.720   16.1664
    3.750   16.1453
    3.780   16.9774
    3.810   18.1780
    3.840   20.3791
    3.870   22.6856
    3.900   27.1195
    3.930   26.2559
    3.960   17.7672
    3.990   10.2370
    4.020    9.9421
    4.050    8.9521
    4.080    8.9415
    4.110    8.7309
    4.140    8.1938
    4.170    8.2991
    4.200    8.3728
    4.230    8.0042
    4.260    8.0569
    4.290    7.9410
    4.320    7.9200
    4.350    7.2354
    4.380    7.2249
    4.410    7.4355
    4.440    7.2459
    4.470    6.9616
    4.500    7.1090
    4.530    7.4460
    4.560    7.4460
    4.590    7.3828
    4.620    6.8984
    4.650    7.3407
    4.680    7.0563
    4.710    7.3302
    4.740    6.6772
    4.770    7.0669
    4.800    6.9721
    4.830    6.7825
    4.860    7.0458
    4.890    6.7930
    4.920    6.9721
    4.950    6.8562
    4.980    6.9194
    5.010    6.6561
    5.040    6.8562
    5.070    6.5719
    5.100    7.1511
    5.130    7.0458
    5.160    7.0037
    5.190    6.9194
    5.220    6.9194
    5.250    6.8246
    5.280    7.1406
    5.310    7.6040
    5.340    7.7199
    5.370    8.2254
    5.400    7.7725
    5.430    8.2675
    5.460    9.5419
    5.490   10.4581
    5.520   11.4060
    5.550   11.1216
    5.580    8.7836
    5.610    6.7299
    5.640    6.1295
    5.670    5.9505
    5.700    5.6451
    5.730    5.7715
    5.760    5.6977
    5.790    5.7609
    5.820    5.9716
    5.850    5.7715
    5.880    6.0769
    5.910    5.8662
    5.940    5.7504
    5.970    5.7293
    6.000    6.0032
    6.030    5.6240
    6.060    5.7504
    6.090    5.9400
    6.120    6.1295
    6.150    5.7715
    6.180    5.4660
    6.210    5.9294
    6.240    6.0664
    6.270    5.8557
    6.300    5.7925
    6.330    5.9716
    6.360    5.7399
    6.390    5.9189
    6.420    5.8662
    6.450    6.1927
    6.480    5.6029
    6.510    5.9926
    6.540    5.6240
    6.570    6.1717
    6.600    6.3296
    6.630    6.5508
    6.660    6.2665
    6.690    6.3507
    6.720    6.8984
    6.750    7.1827
    6.780    7.0774
    6.810    7.0563
    6.840    6.3191
    6.870    6.2875
    6.900    6.1506
    6.930    5.9189
    6.960    6.1401
    6.990    6.0348
    7.020    6.3718
    7.050    5.9505
    7.080    6.2138
    7.110    5.9189
    7.140    5.6029
    7.170    6.1717
    7.200    6.2033
    7.230    6.4139
    7.260    6.2981
    7.290    6.6035
    7.320    6.2349
    7.350    6.2243
    7.380    6.5508
    7.410    6.4982
    7.440    6.4034
    7.470    5.9821
    7.500    6.5192
    7.530    6.5298
    7.560    6.4455
    7.590    6.1717
    7.620    6.7825
    7.650    6.4876
    7.680    6.7404
    7.710    6.6351
    7.740    6.8984
    7.770    7.1617
    7.800    7.2775
    7.830    7.4566
    7.860    7.3934
    7.890    6.5613
    7.920    5.9189
    7.950    6.1927
    7.980    6.1611
    8.010    6.0874
    8.040    5.9294
    8.070    5.6661
    8.100    5.9610
    8.130    5.7504
    8.160    5.8873
    8.190    6.0664
    8.220    6.1506
    8.250    5.8241
    8.280    5.8978
    8.310    5.9610
    8.340    6.1190
    8.370    5.8873
    8.400    5.6240
    8.430    5.5924
    8.460    5.5608
    8.490    5.7715
    8.520    5.8662
    8.550    5.4976
    8.580    5.4766
    8.610    5.7293
    8.640    5.3291
    8.670    5.9189
    8.700    5.6872
    8.730    5.8768
    8.760    5.8768
    8.790    5.4766
    8.820    5.5292
    8.850    5.4239
    8.880    5.2659
    8.910    5.7609
    8.940    5.8241
    8.970    4.7815
    9.000    5.9294
    9.030    5.6451
    9.060    5.5503
    9.090    5.4871
    9.120    5.4450
    9.150    5.7609
    9.180    5.5608
    9.210    5.2659
    9.240    5.8873
    9.270    5.6872
    9.300    5.9189
    9.330    5.6345
    9.360    6.1717
    9.390    6.0032
    9.420    6.4244
    9.450    6.7404
    9.480    6.6140
    9.510    7.4250
    9.540    8.0674
    9.570    9.1101
    9.600    9.0047
    9.630    8.6045
    9.660    6.6351
    9.690    5.7609
    9.720    5.9084
    9.750    5.6135
    9.780    5.2975
    9.810    5.2133
    9.840    5.4976
    9.870    5.5608
    9.900    5.4660
    9.930    5.2659
    9.960    5.1290
    9.990    5.7293
   10.020    5.6451
   10.050    5.3923
   10.080    5.5503
   10.110    5.3397
   10.140    5.4450
   10.170    5.8978
   10.200    5.8031
   10.230    5.8347
   10.260    6.0242
   10.290    5.7504
   10.320    6.0242
   10.350    6.2138
   10.380    6.4139
   10.410    5.8452
   10.440    5.6029
   10.470    5.2870
   10.500    5.6661
   10.530    5.3923
   10.560    5.6661
   10.590    5.6872
   10.620    5.4976
   10.650    5.3186
   10.680    5.2343
   10.710    5.8978
   10.740    5.4134
   10.770    5.6977
   10.800    5.9610
   10.830    6.1190
   10.860    5.9610
   10.890    5.9505
   10.920    5.8557
   10.950    6.4666
   10.980    5.5292
   11.010    5.7188
   11.040    6.1190
   11.070    6.0242
   11.100    6.1085
   11.130    5.7399
   11.160    5.5292
   11.190    5.2870
   11.220    5.3818
   11.250    5.1185
   11.280    5.2765
   11.310    5.0869
   11.340    5.5819
   11.370    5.1606
   11.400    5.4555
   11.430    5.3081
   11.460    5.1606
   11.490    4.9184
   11.520    4.9394
   11.550    5.5398
   11.580    5.2238
   11.610    5.5082
   11.640    5.3186
   11.670    5.3818
   11.700    5.6767
   11.730    6.0558
   11.760    5.6872
   11.790    5.5082
   11.820    5.3923
   11.850    4.9394
   11.880    5.2238
   11.910    5.2554
   11.940    5.0553
   11.970    5.1606
   12.000    5.0448
   12.030    5.0132
   12.060    4.7604
   12.090    5.0026
   12.120    4.7393
   12.150    4.9605
   12.180    5.3081
   12.210    5.0869
   12.240    5.2343
   12.270    4.7288
   12.300    4.8973
   12.330    5.0974
   12.360    5.2870
   12.390    5.4660
   12.420    5.0553
   12.450    4.7183
   12.480    4.8763
   12.510    5.0448
   12.540    5.0132
   12.570    5.1395
   12.600    5.0764
   12.630    5.2238
   12.660    4.7920
   12.690    5.2027
   12.720    4.8763
   12.750    5.0658
   12.780    4.7393
   12.810    5.1185
   12.840    4.7709
   12.870    4.7815
   12.900    4.9816
   12.930    5.3081
   12.960    5.2870
   12.990    4.9605
   13.020    5.2133
   13.050    5.0764
   13.080    4.6972
   13.110    5.1395
   13.140    5.0237
   13.170    4.9289
   13.200    4.8868
   13.230    5.0342
   13.260    5.0448
   13.290    4.5603
   13.320    4.9816
   13.350    4.7393
   13.380    4.7604
   13.410    5.1290
   13.440    4.9816
   13.470    4.8447
   13.500    5.3186
   13.530    5.5082
   13.560    4.8657
   13.590    4.9816
   13.620    5.0448
   13.650    5.2027
   13.680    5.0237
   13.710    4.8763
   13.740    4.9078
   13.770    4.7077
   13.800    4.3707
   13.830    4.9184
   13.860    5.0448
   13.890    4.8868
   13.920    4.9394
   13.950    5.0448
   13.980    4.9816
   14.010    4.9710
   14.040    4.8868
   14.070    5.1711
   14.100    4.9500
   14.130    5.3818
   14.160    5.4555
   14.190    5.1185
   14.220    4.6024
   14.250    4.8131
   14.280    5.0026
   14.310    4.8447
   14.340    4.7393
   14.370    4.7077
   14.400    4.6235
   14.430    4.7183
   14.460    5.0448
   14.490    5.1606
   14.520    4.8025
   14.550    4.8763
   14.580    4.9184
   14.610    4.4023
   14.640    4.7499
   14.670    4.6972
   14.700    4.8973
   14.730    4.7604
   14.760    4.9394
   14.790    5.1606
   14.820    4.9605
   14.850    4.7288
   14.880    4.7499
   14.910    4.4339
   14.940    4.9816
   14.970    4.8025
   15.000    4.7920
   15.030    4.7077
   15.060    4.3813
   15.090    5.0869
   15.120    5.0974
   15.150    4.8868
   15.180    5.0026
   15.210    4.9500
   15.240    4.9394
   15.270    5.0026
   15.300    4.9184
   15.330    5.0974
   15.360    4.8447
   15.390    4.5287
   15.420    4.9289
   15.450    4.7393
   15.480    4.7393
   15.510    4.9500
   15.540    4.3918
   15.570    4.7288
   15.600    4.7077
   15.630    5.0026
   15.660    5.1606
   15.690    4.8025
   15.720    4.9500
   15.750    4.7077
   15.780    4.4971
   15.810    4.5182
   15.840    5.1290
   15.870    4.6761
   15.900    4.6340
   15.930    4.9078
   15.960    4.7709
   15.990    4.5814
   16.020    4.7393
   16.050    4.9710
   16.080    5.0026
   16.110    4.8131
   16.140    5.0342
   16.170    4.9816
   16.200    4.7604
   16.230    5.3186
   16.260    4.9078
   16.290    5.0342
   16.320    4.9394
   16.350    4.7709
   16.380    4.9500
   16.410    4.8973
   16.440    4.8025
   16.470    4.9816
   16.500    4.7499
   16.530    5.1817
   16.560    4.8131
   16.590    4.5182
   16.620    5.1290
   16.650    4.7920
   16.680    4.7604
   16.710    5.2554
   16.740    4.8447
   16.770    4.8657
   16.800    4.7920
   16.830    4.6972
   16.860    5.0553
   16.890    4.7709
   16.920    5.2027
   16.950    4.9816
   16.980    4.9184
   17.010    5.1395
   17.040    5.0237
   17.070    5.4766
   17.100    5.4766
   17.130    5.5608
   17.160    5.5187
   17.190    5.0869
   17.220    4.8341
   17.250    5.0448
   17.280    4.8236
   17.310    5.0869
   17.340    5.1185
   17.370    5.1606
   17.400    4.8447
   17.430    4.9710
   17.460    4.7604
   17.490    5.1711
   17.520    5.1501
   17.550    4.8447
   17.580    5.2238
   17.610    5.0132
   17.640    4.7499
   17.670    5.4450
   17.700    4.8973
   17.730    4.8025
   17.760    4.9816
   17.790    4.7183
   17.820    5.0869
   17.850    4.7077
   17.880    5.0026
   17.910    4.9078
   17.940    4.6972
   17.970    5.0237
   18.000    5.2449
   18.030    5.1922
   18.060    5.1395
   18.090    4.8447
   18.120    4.7393
   18.150    4.9078
   18.180    5.0237
   18.210    5.0132
   18.240    4.9816
   18.270    5.1290
   18.300    5.0764
   18.330    4.8025
   18.360    4.8763
   18.390    5.1290
   18.420    5.1395
   18.450    5.2027
   18.480    5.0869
   18.510    4.8657
   18.540    4.8447
   18.570    4.8025
   18.600    4.9078
   18.630    4.8236
   18.660    4.8447
   18.690    4.8025
   18.720    5.2659
   18.750    4.8973
   18.780    4.9710
   18.810    4.9184
   18.840    4.8868
   18.870    5.0448
   18.900    4.8868
   18.930    5.1817
   18.960    4.9184
   18.990    5.2343
   19.020    5.2343
   19.050    5.2975
   19.080    5.0974
   19.110    5.0448
   19.140    5.0764
   19.170    4.7499
   19.200    5.0658
   19.230    4.9605
   19.260    5.1290
   19.290    4.8868
   19.320    4.9394
   19.350    5.0974
   19.380    4.7499
   19.410    5.0553
   19.440    5.3291
   19.470    5.2343
   19.500    4.8868
   19.530    4.7815
   19.560    5.0658
   19.590    4.9500
   19.620    5.1711
   19.650    5.2870
   19.680    5.4134
   19.710    5.1606
   19.740    5.0553
   19.770    4.9500
   19.800    5.0764
   19.830    4.8447
   19.860    5.0869
   19.890    5.2133
   19.920    4.9605
   19.950    4.8763
   19.980    5.0026
   20.010    5.4239
   20.040    5.0342
   20.070    5.1922
   20.100    5.1501
   20.130    5.3818
   20.160    4.8552
   20.190    5.2133
   20.220    5.2765
   20.250    5.3923
   20.280    5.3397
   20.310    5.3081
   20.340    5.1501
   20.370    5.4660
   20.400    5.4766
   20.430    5.4766
   20.460    5.4976
   20.490    5.2765
   20.520    5.2449
   20.550    5.2659
   20.580    5.2975
   20.610    5.1817
   20.640    5.4976
   20.670    5.3081
   20.700    5.2449
   20.730    5.3502
   20.760    5.0974
   20.790    5.3502
   20.820    5.3607
   20.850    5.0132
   20.880    5.4450
   20.910    5.2870
   20.940    5.1922
   20.970    5.4766
   21.000    5.6872
   21.030    5.2343
   21.060    5.0237
   21.090    5.5292
   21.120    5.1606
   21.150    5.5924
   21.180    5.4871
   21.210    5.2659
   21.240    5.1395
   21.270    5.3186
   21.300    5.2554
   21.330    5.5924
   21.360    5.2133
   21.390    5.1080
   21.420    5.5714
   21.450    5.1922
   21.480    4.8025
   21.510    4.8447
   21.540    5.4028
   21.570    5.2659
   21.600    4.9710
   21.630    5.4028
   21.660    5.3186
   21.690    5.1501
   21.720    5.5924
   21.750    5.3397
   21.780    5.4766
   21.810    5.2870
   21.840    5.3712
   21.870    5.2554
   21.900    5.6240
   21.930    5.4871
   21.960    5.3607
   21.990    5.4660
   22.020    4.8341
   22.050    5.3818
   22.080    5.2027
   22.110    5.3818
   22.140    5.4871
   22.170    5.0658
   22.200    4.8763
   22.230    5.5292
   22.260    5.6029
   22.290    5.0658
   22.320    5.2870
   22.350    5.4766
   22.380    5.4239
   22.410    5.4344
   22.440    5.2133
   22.470    5.1922
   22.500    5.2343
   22.530    5.4660
   22.560    5.5924
   22.590    5.5398
   22.620    5.7715
   22.650    5.6977
   22.680    5.7609
   22.710    5.6451
   22.740    5.4555
   22.770    5.1711
   22.800    5.6556
   22.830    5.3502
   22.860    5.3081
   22.890    5.2975
   22.920    5.5398
   22.950    5.6240
   22.980    5.4766
   23.010    5.3397
   23.040    5.5924
   23.070    5.3502
   23.100    5.1501
   23.130    5.0869
   23.160    5.6029
   23.190    5.2659
   23.220    4.7920
   23.250    5.4555
   23.280    5.0342
   23.310    5.4871
   23.340    5.2870
   23.370    5.1922
   23.400    5.1606
   23.430    5.1080
   23.460    5.2554
   23.490    4.9605
   23.520    5.1080
   23.550    4.9394
   23.580    5.4028
   23.610    5.2133
   23.640    5.1711
   23.670    4.8236
   23.700    5.2554
   23.730    4.8552
   23.760    5.3818
   23.790    5.2449
   23.820    4.9710
   23.850    5.3818
   23.880    5.1711
   23.910    5.2133
   23.940    5.4344
   23.970    5.2133
   24.000    5.2870
   24.030    5.3607
   24.060    5.2975
   24.090    5.0764
   24.120    5.4976
   24.150    5.3502
   24.180    5.1290
   24.210    5.2554
   24.240    5.3397
   24.270    5.1290
   24.300    5.2133
   24.330    4.9605
   24.360    5.3818
   24.390    5.0237
   24.420    5.3291
   24.450    5.0132
   24.480    5.2449
   24.510    4.9921
   24.540    5.1185
   24.570    5.4028
   24.600    4.9921
   24.630    5.3712
   24.660    5.1817
   24.690    5.1606
   24.720    5.2027
   24.750    5.1606
   24.780    5.1711
   24.810    5.0869
   24.840    5.2027
   24.870    5.2238
   24.900    4.9816
   24.930    4.8763
   24.960    4.8868
   24.990    5.0237
   25.020    4.9710
   25.050    4.9921
   25.080    5.2554
   25.110    5.1922
   25.140    4.9500
   25.170    5.3081
   25.200    5.3502
   25.230    5.0237
   25.260    5.0026
   25.290    5.2870
   25.320    4.9816
   25.350    5.0448
   25.380    4.9816
   25.410    4.6340
   25.440    5.0553
   25.470    4.7920
   25.500    4.8973
   25.530    4.6761
   25.560    4.6656
   25.590    5.2343
   25.620    4.6761
   25.650    4.6867
   25.680    4.6551
   25.710    5.4134
   25.740    4.9289
   25.770    4.9289
   25.800    4.7393
   25.830    5.3818
   25.860    5.2133
   25.890    5.2659
   25.920    5.0026
   25.950    5.1395
   25.980    4.9289
   26.010    4.8447
   26.040    4.5392
   26.070    5.0448
   26.100    4.8973
   26.130    4.7499
   26.160    4.8763
   26.190    5.0026
   26.220    4.6656
   26.250    4.8552
   26.280    5.0553
   26.310    4.9078
   26.340    4.5498
   26.370    5.2238
   26.400    4.8341
   26.430    4.9500
   26.460    4.6972
   26.490    5.2554
   26.520    5.3923
   26.550    5.0553
   26.580    4.8868
   26.610    4.7393
   26.640    4.6235
   26.670    4.8341
   26.700    4.8552
   26.730    4.6235
   26.760    4.4760
   26.790    4.7499
   26.820    4.6235
   26.850    4.6445
   26.880    4.5182
   26.910    4.5498
   26.940    4.7499
   26.970    4.6235
   27.000    4.8341
   27.030    4.6656
   27.060    4.4655
   27.090    4.7604
   27.120    4.6761
   27.150    4.8341
   27.180    4.9710
   27.210    4.6551
   27.240    4.6445
   27.270    4.4866
   27.300    4.4655
   27.330    4.5287
   27.360    4.6024
   27.390    4.4971
   27.420    4.8341
   27.450    4.6761
   27.480    4.6551
   27.510    4.5182
   27.540    4.6761
   27.570    4.8763
   27.600    4.3602
   27.630    4.9394
   27.660    4.9921
   27.690    4.5498
   27.720    4.6340
   27.750    4.5603
   27.780    4.5392
   27.810    4.6340
   27.840    4.5814
   27.870    4.3391
   27.900    4.5603
   27.930    5.0342
   27.960    4.2865
   27.990    4.6867
   28.020    4.9394
   28.050    4.8868
   28.080    4.3391
   28.110    4.5708
   28.140    4.3181
   28.170    4.8447
   28.200    4.4971
   28.230    4.6867
   28.260    4.6235
   28.290    4.7709
   28.320    4.4023
   28.350    4.2233
   28.380    4.6972
   28.410    4.5392
   28.440    5.0342
   28.470    4.7183
   28.500    4.8657
   28.530    4.5287
   28.560    4.5392
   28.590    4.7077
   28.620    4.1390
   28.650    4.1285
   28.680    4.4550
   28.710    4.4655
   28.740    4.2970
   28.770    4.6340
   28.800    4.3286
   28.830    4.3286
   28.860    4.2970
   28.890    4.4760
   28.920    4.6445
   28.950    4.8868
   28.980    4.2022
   29.010    4.2443
   29.040    4.6235
   29.070    4.4128
   29.100    4.5182
   29.130    4.1180
   29.160    4.3813
   29.190    4.2549
   29.220    3.9916
   29.250    4.3181
   29.280    4.3497
   29.310    4.4234
   29.340    4.8236
   29.370    4.7815
   29.400    4.5287
   29.430    4.4971
   29.460    4.3181
   29.490    4.2970
   29.520    3.9916
   29.550    4.2022
   29.580    4.3286
   29.610    4.4550
   29.640    4.5076
   29.670    4.3497
   29.700    4.3497
   29.730    4.1180
   29.760    4.0758
   29.790    4.0758
   29.820    4.1496
   29.850    4.5076
   29.880    4.3075
   29.910    4.1706
   29.940    4.6235
   29.970    4.5182
   30.000    4.1917
   30.030    4.4128
   30.060    4.2443
   30.090    4.2549
   30.120    4.2759
   30.150    4.0442
   30.180    4.5287
   30.210    4.0337
   30.240    4.0864
   30.270    4.3181
   30.300    4.2127
   30.330    4.2865
   30.360    4.4023
   30.390    4.2127
   30.420    4.1285
   30.450    4.1917
   30.480    4.2549
   30.510    4.1496
   30.540    4.1811
   30.570    4.1496
   30.600    4.2654
   30.630    4.4971
   30.660    4.3918
   30.690    4.2127
   30.720    4.2338
   30.750    4.1917
   30.780    4.0864
   30.810    4.2338
   30.840    4.1180
   30.870    4.1074
   30.900    4.2127
   30.930    4.3286
   30.960    4.1285
   30.990    4.0864
   31.020    4.0442
   31.050    4.0758
   31.080    3.9916
   31.110    4.1285
   31.140    4.1706
   31.170    4.1390
   31.200    3.9810
   31.230    3.8863
   31.260    4.0126
   31.290    4.2338
   31.320    3.8652
   31.350    4.2127
   31.380    4.3075
   31.410    4.3918
   31.440    3.9284
   31.470    3.9284
   31.500    3.8336
   31.530    4.1601
   31.560    4.0969
   31.590    4.1601
   31.620    4.1496
   31.650    3.9179
   31.680    4.1074
   31.710    4.3918
   31.740    4.0864
   31.770    4.2970
   31.800    3.8336
   31.830    3.8968
   31.860    3.7809
   31.890    4.1917
   31.920    3.9494
   31.950    3.7809
   31.980    3.9494
   32.010    3.6019
   32.040    4.1074
   32.070    4.1496
   32.100    4.1390
   32.130    4.0548
   32.160    4.0864
   32.190    3.9916
   32.220    4.0548
   32.250    3.7915
   32.280    3.7915
   32.310    3.8547
   32.340    3.9073
   32.370    3.7915
   32.400    3.8652
   32.430    3.8020
   32.460    3.7493
   32.490    3.9916
   32.520    3.7493
   32.550    3.8547
   32.580    3.9705
   32.610    3.6651
   32.640    3.6756
   32.670    3.9705
   32.700    3.7704
   32.730    3.5598
   32.760    3.9389
   32.790    3.6862
   32.820    3.8125
   32.850    3.6967
   32.880    3.7493
   32.910    3.8231
   32.940    3.9494
   32.970    3.5176
   33.000    3.8125
   33.030    3.7809
   33.060    3.8336
   33.090    3.6862
   33.120    3.9179
   33.150    4.0969
   33.180    4.0126
   33.210    3.6756
   33.240    3.6335
   33.270    3.5914
   33.300    3.8441
   33.330    3.6124
   33.360    3.7599
   33.390    3.7493
   33.420    3.8441
   33.450    3.3491
   33.480    3.4755
   33.510    3.7809
   33.540    3.7599
   33.570    3.9600
   33.600    3.8757
   33.630    3.5598
   33.660    3.4334
   33.690    3.4439
   33.720    3.4966
   33.750    3.6967
   33.780    3.9389
   33.810    3.6019
   33.840    3.8757
   33.870    3.8757
   33.900    3.6440
   33.930    3.8547
   33.960    3.8125
   33.990    3.8125
   34.020    3.7283
   34.050    3.7599
   34.080    3.7599
   34.110    3.4650
   34.140    3.5492
   34.170    3.7072
   34.200    4.1496
   34.230    3.6230
   34.260    3.8968
   34.290    3.5808
   34.320    3.4966
   34.350    3.4966
   34.380    3.5703
   34.410    3.4544
   34.440    3.3807
   34.470    3.5176
   34.500    3.7599
   34.530    3.6440
   34.560    3.3070
   34.590    3.3175
   34.620    3.2859
   34.650    3.5492
   34.680    3.7704
   34.710    3.1069
   34.740    3.3702
   34.770    3.4755
   34.800    3.4860
   34.830    3.5282
   34.860    3.6335
   34.890    3.6124
   34.920    3.4439
   34.950    3.5176
   34.980    3.4755
   35.010    3.5176
   35.040    3.7809
   35.070    3.4123
   35.100    3.3175
   35.130    3.2333
   35.160    3.4966
   35.190    3.2754
   35.220    3.3386
   35.250    3.3807
   35.280    3.1806
   35.310    3.5071
   35.340    3.3702
   35.370    3.4755
   35.400    3.5598
   35.430    3.2965
   35.460    3.4334
   35.490    3.3386
   35.520    3.4439
   35.550    3.2122
   35.580    3.4229
   35.610    3.0437
   35.640    3.6019
   35.670    3.5914
   35.700    3.3597
   35.730    3.5071
   35.760    3.1596
   35.790    3.2017
   35.820    3.2965
   35.850    3.0753
   35.880    3.4650
   35.910    3.2543
   35.940    3.4334
   35.970    3.2543
   36.000    3.2227
   36.030    3.5071
   36.060    3.2543
   36.090    3.1174
   36.120    3.2333
   36.150    3.4544
   36.180    3.3070
   36.210    3.2438
   36.240    3.5492
   36.270    3.1912
   36.300    3.2017
   36.330    3.1280
   36.360    3.2859
   36.390    3.2333
   36.420    3.3281
   36.450    3.1912
   36.480    3.4439
   36.510    3.2438
   36.540    3.0437
   36.570    3.2438
   36.600    3.2649
   36.630    3.2122
   36.660    3.3597
   36.690    2.9910
   36.720    3.1280
   36.750    3.2543
   36.780    3.0858
   36.810    3.2543
   36.840    3.4123
   36.870    3.1490
   36.900    3.3491
   36.930    3.4650
   36.960    3.1912
   36.990    3.1806
   37.020    3.2333
   37.050    3.4018
   37.080    3.1069
   37.110    3.2649
   37.140    3.1174
   37.170    3.0332
   37.200    3.2965
   37.230    3.0542
   37.260    3.1806
   37.290    2.9068
   37.320    3.1596
   37.350    3.2122
   37.380    3.0753
   37.410    3.0226
   37.440    3.1280
   37.470    3.3913
   37.500    3.2227
   37.530    3.0648
   37.560    3.1280
   37.590    3.0226
   37.620    3.1280
   37.650    3.0437
   37.680    3.2543
   37.710    3.0542
   37.740    2.9700
   37.770    3.0226
   37.800    3.3281
   37.830    3.1806
   37.860    3.3597
   37.890    3.1385
   37.920    3.1280
   37.950    3.2227
   37.980    3.2965
   38.010    3.2122
   38.040    2.8857
   38.070    3.2438
   38.100    3.0858
   38.130    3.0858
   38.160    3.1385
   38.190    3.1280
   38.220    3.1806
   38.250    3.1280
   38.280    3.1806
   38.310    2.9489
   38.340    2.8647
   38.370    3.0121
   38.400    3.0858
   38.430    3.3070
   38.460    3.0753
   38.490    3.1069
   38.520    3.1174
   38.550    3.1596
   38.580    3.0542
   38.610    3.0964
   38.640    3.0753
   38.670    3.2122
   38.700    3.1280
   38.730    2.9700
   38.760    2.7804
   38.790    2.8857
   38.820    3.1912
   38.850    3.1490
   38.880    2.9173
   38.910    3.0121
   38.940    2.9068
   38.970    3.3070
   39.000    3.2333
   39.030    2.8647
   39.060    3.2859
   39.090    3.2122
   39.120    3.0332
   39.150    3.3913
   39.180    3.0858
   39.210    3.0753
   39.240    3.0226
   39.270    3.1596
   39.300    3.1912
   39.330    3.0542
   39.360    2.7383
   39.390    2.9489
   39.420    2.8331
   39.450    2.8120
   39.480    3.1385
   39.510    2.9068
   39.540    3.1280
   39.570    2.8752
   39.600    3.0753
   39.630    3.0753
   39.660    2.9489
   39.690    2.9384
   39.720    3.0437
   39.750    3.0121
   39.780    3.1701
   39.810    2.8436
   39.840    2.9173
   39.870    3.1912
   39.900    2.9700
   39.930    2.8647
   39.960    2.8963
   39.990    3.1490