File: data/MOCOF-1/PXRD/PXRD_KE-111_Cu-Ka1_capillary-1mm_5s-deg.xyd
    1.500   13.6177
    1.530   13.9863
    1.560   13.0174
    1.590   12.5434
    1.620   11.9115
    1.650   11.3428
    1.680   11.1638
    1.710   10.9531
    1.740   10.3423
    1.770   10.2264
    1.800   10.1632
    1.830    9.4365
    1.860    9.6472
    1.890    9.1943
    1.920    9.3944
    1.950    8.6783
    1.980    8.6151
    2.010    8.7309
    2.040    8.5203
    2.070    8.4992
    2.100    8.3202
    2.130    7.9200
    2.160    8.1306
    2.190    8.0042
    2.220    8.1727
    2.250    7.8778
    2.280    7.3618
    2.310    7.7304
    2.340    7.3512
    2.370    7.5513
    2.400    7.3723
    2.430    7.0879
    2.460    7.2143
    2.490    6.8246
    2.520    6.9932
    2.550    7.0142
    2.580    7.0037
    2.610    6.8246
    2.640    7.1933
    2.670    6.6245
    2.700    6.9510
    2.730    7.0563
    2.760    6.5192
    2.790    6.6245
    2.820    6.6035
    2.850    6.7930
    2.880    6.6245
    2.910    6.4560
    2.940    6.8562
    2.970    6.6456
    3.000    6.6561
    3.030    6.5403
    3.060    6.3402
    3.090    6.2770
    3.120    6.4982
    3.150    6.5403
    3.180    6.5824
    3.210    6.1611
    3.240    6.6456
    3.270    6.5613
    3.300    6.3823
    3.330    6.5298
    3.360    6.3507
    3.390    6.5298
    3.420    6.4666
    3.450    6.4350
    3.480    6.3928
    3.510    6.1611
    3.540    6.5824
    3.570    6.5403
    3.600    6.2243
    3.630    6.2349
    3.660    6.5403
    3.690    6.5508
    3.720    6.8352
    3.750    7.0037
    3.780    6.9721
    3.810    6.2981
    3.840    7.2038
    3.870    7.1617
    3.900    7.3512
    3.930    6.8668
    3.960    6.1295
    3.990    5.8768
    4.020    5.8452
    4.050    6.1717
    4.080    6.3086
    4.110    5.7609
    4.140    6.1927
    4.170    5.9926
    4.200    5.9610
    4.230    5.9821
    4.260    6.2138
    4.290    6.1611
    4.320    6.2559
    4.350    6.3507
    4.380    6.2033
    4.410    6.0874
    4.440    6.0453
    4.470    6.2349
    4.500    5.8768
    4.530    5.7504
    4.560    5.9400
    4.590    6.2138
    4.620    5.9716
    4.650    6.1085
    4.680    5.9716
    4.710    6.0979
    4.740    5.9400
    4.770    5.7925
    4.800    6.0664
    4.830    5.8452
    4.860    5.8768
    4.890    5.8978
    4.920    5.5924
    4.950    6.0979
    4.980    6.0242
    5.010    5.5924
    5.040    5.8136
    5.070    5.9400
    5.100    6.1506
    5.130    5.9400
    5.160    5.9294
    5.190    6.0558
    5.220    6.0453
    5.250    5.9821
    5.280    5.9294
    5.310    6.0979
    5.340    5.5714
    5.370    5.5398
    5.400    6.0664
    5.430    6.2243
    5.460    6.4982
    5.490    5.7188
    5.520    6.0874
    5.550    5.8452
    5.580    5.5187
    5.610    6.4876
    5.640    5.8873
    5.670    6.1295
    5.700    5.8768
    5.730    5.7083
    5.760    5.8768
    5.790    5.9821
    5.820    5.9505
    5.850    5.6135
    5.880    5.8978
    5.910    5.6767
    5.940    5.7715
    5.970    5.7188
    6.000    5.8452
    6.030    5.7399
    6.060    6.0874
    6.090    5.5187
    6.120    5.8873
    6.150    5.6451
    6.180    6.1085
    6.210    5.7293
    6.240    6.1190
    6.270    6.0453
    6.300    5.9400
    6.330    5.8873
    6.360    5.9610
    6.390    5.7609
    6.420    5.9610
    6.450    5.9716
    6.480    5.9294
    6.510    6.0769
    6.540    5.7925
    6.570    6.0348
    6.600    5.8452
    6.630    5.5608
    6.660    5.9505
    6.690    5.7715
    6.720    5.4450
    6.750    6.0979
    6.780    6.0979
    6.810    6.0453
    6.840    5.7504
    6.870    5.9821
    6.900    5.7083
    6.930    6.0979
    6.960    5.6451
    6.990    5.9294
    7.020    6.1085
    7.050    6.0558
    7.080    6.5929
    7.110    5.8241
    7.140    6.2665
    7.170    5.8452
    7.200    6.0453
    7.230    6.1506
    7.260    5.8136
    7.290    5.7083
    7.320    6.1506
    7.350    6.1611
    7.380    6.0558
    7.410    6.1506
    7.440    6.0558
    7.470    6.4034
    7.500    5.9400
    7.530    6.3928
    7.560    6.2559
    7.590    5.8768
    7.620    6.0558
    7.650    5.9716
    7.680    6.4771
    7.710    6.3402
    7.740    5.9716
    7.770    6.2349
    7.800    6.1190
    7.830    6.2770
    7.860    6.0979
    7.890    6.1506
    7.920    6.5613
    7.950    6.3928
    7.980    6.2349
    8.010    6.2138
    8.040    5.9926
    8.070    6.1927
    8.100    6.5298
    8.130    6.2138
    8.160    6.3296
    8.190    6.3191
    8.220    6.0874
    8.250    5.8978
    8.280    6.6035
    8.310    5.9821
    8.340    6.5824
    8.370    6.1401
    8.400    6.3191
    8.430    6.1717
    8.460    6.2981
    8.490    6.4139
    8.520    6.4244
    8.550    6.1611
    8.580    6.4560
    8.610    6.2981
    8.640    6.1401
    8.670    6.2349
    8.700    6.5087
    8.730    6.6667
    8.760    6.8457
    8.790    6.0979
    8.820    6.9721
    8.850    6.4876
    8.880    6.8773
    8.910    6.6877
    8.940    6.6561
    8.970    6.5087
    9.000    6.6561
    9.030    6.7088
    9.060    6.7825
    9.090    6.7615
    9.120    6.4666
    9.150    6.3191
    9.180    6.5508
    9.210    6.6561
    9.240    6.6667
    9.270    6.9089
    9.300    6.6667
    9.330    6.5929
    9.360    7.0142
    9.390    6.8352
    9.420    6.5613
    9.450    6.3823
    9.480    6.8773
    9.510    7.1617
    9.540    7.0774
    9.570    6.6667
    9.600    7.1090
    9.630    6.9932
    9.660    6.4666
    9.690    6.6351
    9.720    6.6456
    9.750    6.9826
    9.780    7.0458
    9.810    6.6772
    9.840    7.1827
    9.870    6.8141
    9.900    6.9826
    9.930    6.8352
    9.960    7.0353
    9.990    6.7615
   10.020    7.0669
   10.050    6.9721
   10.080    7.0985
   10.110    6.9405
   10.140    7.1722
   10.170    6.9089
   10.200    7.2459
   10.230    6.9405
   10.260    7.2565
   10.290    7.3407
   10.320    7.3302
   10.350    6.9089
   10.380    6.7088
   10.410    6.8668
   10.440    6.7720
   10.470    7.2459
   10.500    7.0248
   10.530    7.0142
   10.560    6.7299
   10.590    6.4982
   10.620    6.8141
   10.650    6.8457
   10.680    6.8036
   10.710    6.8036
   10.740    6.8878
   10.770    6.8668
   10.800    7.0563
   10.830    6.8562
   10.860    6.8246
   10.890    7.0985
   10.920    6.3507
   10.950    6.7720
   10.980    6.7193
   11.010    6.9194
   11.040    7.0563
   11.070    6.8668
   11.100    6.7404
   11.130    6.7509
   11.160    6.5613
   11.190    6.3507
   11.220    6.5824
   11.250    6.6245
   11.280    6.2138
   11.310    6.4455
   11.340    6.6351
   11.370    6.6245
   11.400    6.3086
   11.430    6.6351
   11.460    6.7720
   11.490    6.0242
   11.520    6.4350
   11.550    6.6456
   11.580    6.3402
   11.610    6.2243
   11.640    6.4560
   11.670    6.4982
   11.700    6.0453
   11.730    6.4034
   11.760    6.4139
   11.790    6.1927
   11.820    6.0242
   11.850    6.3718
   11.880    6.5298
   11.910    6.6140
   11.940    6.2559
   11.970    6.0769
   12.000    6.0769
   12.030    6.2349
   12.060    6.1295
   12.090    5.8347
   12.120    6.2875
   12.150    6.2875
   12.180    6.0348
   12.210    5.7820
   12.240    6.1611
   12.270    6.1717
   12.300    5.9400
   12.330    6.0137
   12.360    5.9716
   12.390    5.9400
   12.420    6.1611
   12.450    6.2454
   12.480    5.9400
   12.510    6.0769
   12.540    6.2349
   12.570    5.7504
   12.600    5.9294
   12.630    6.0242
   12.660    5.9084
   12.690    5.9716
   12.720    5.6029
   12.750    5.8031
   12.780    6.0769
   12.810    6.1295
   12.840    5.6661
   12.870    5.6767
   12.900    6.0979
   12.930    5.7188
   12.960    5.5714
   12.990    5.8557
   13.020    5.5398
   13.050    5.8557
   13.080    5.8978
   13.110    5.8557
   13.140    5.8768
   13.170    5.9716
   13.200    5.6556
   13.230    5.5398
   13.260    5.6029
   13.290    5.4976
   13.320    5.6556
   13.350    5.5082
   13.380    5.8662
   13.410    5.3923
   13.440    5.7399
   13.470    5.4766
   13.500    5.7820
   13.530    5.4239
   13.560    5.8662
   13.590    5.4871
   13.620    5.7293
   13.650    5.4028
   13.680    5.8031
   13.710    5.6872
   13.740    5.6661
   13.770    5.5924
   13.800    6.0137
   13.830    5.8031
   13.860    5.8241
   13.890    5.3081
   13.920    5.4976
   13.950    5.6556
   13.980    5.6451
   14.010    5.8136
   14.040    5.5924
   14.070    5.0237
   14.100    5.2449
   14.130    5.6135
   14.160    5.3818
   14.190    5.3712
   14.220    5.4766
   14.250    5.5714
   14.280    5.4555
   14.310    5.5503
   14.340    5.8347
   14.370    5.8873
   14.400    5.5187
   14.430    5.6029
   14.460    5.3923
   14.490    5.4450
   14.520    5.8452
   14.550    5.3502
   14.580    5.6451
   14.610    5.2659
   14.640    5.5819
   14.670    5.9084
   14.700    5.9505
   14.730    5.4450
   14.760    6.0979
   14.790    5.2554
   14.820    5.2870
   14.850    5.2449
   14.880    5.8768
   14.910    5.5082
   14.940    5.5187
   14.970    5.7925
   15.000    5.7504
   15.030    5.3818
   15.060    5.2870
   15.090    5.7925
   15.120    5.7188
   15.150    5.3291
   15.180    5.5819
   15.210    5.3818
   15.240    5.5714
   15.270    5.5819
   15.300    5.5187
   15.330    5.7083
   15.360    5.6872
   15.390    5.1606
   15.420    5.5819
   15.450    5.5503
   15.480    5.5398
   15.510    5.6345
   15.540    5.4660
   15.570    5.6451
   15.600    5.5187
   15.630    5.6556
   15.660    5.7399
   15.690    5.6029
   15.720    5.2343
   15.750    5.4344
   15.780    5.2027
   15.810    5.6451
   15.840    5.4660
   15.870    5.5292
   15.900    5.5503
   15.930    5.1606
   15.960    5.7399
   15.990    5.8452
   16.020    5.4134
   16.050    5.5292
   16.080    5.7820
   16.110    5.4871
   16.140    5.6345
   16.170    5.4660
   16.200    5.7083
   16.230    5.6240
   16.260    5.7504
   16.290    5.5292
   16.320    5.4450
   16.350    5.6029
   16.380    5.5503
   16.410    5.7083
   16.440    5.6345
   16.470    5.7293
   16.500    5.2870
   16.530    5.5503
   16.560    5.6977
   16.590    5.7504
   16.620    5.6556
   16.650    5.5503
   16.680    5.5714
   16.710    5.6345
   16.740    5.8031
   16.770    5.7083
   16.800    5.1501
   16.830    5.8241
   16.860    5.1922
   16.890    5.4344
   16.920    5.6872
   16.950    5.5503
   16.980    5.5398
   17.010    5.4239
   17.040    5.6556
   17.070    5.3818
   17.100    5.6029
   17.130    5.4134
   17.160    5.6556
   17.190    5.5714
   17.220    6.1085
   17.250    5.6767
   17.280    5.7925
   17.310    5.4134
   17.340    5.2659
   17.370    5.7188
   17.400    5.8557
   17.430    5.4660
   17.460    5.7083
   17.490    5.4239
   17.520    5.8031
   17.550    5.7504
   17.580    5.3291
   17.610    5.7925
   17.640    5.8768
   17.670    5.5608
   17.700    5.8452
   17.730    5.8768
   17.760    5.5714
   17.790    5.5398
   17.820    5.5924
   17.850    5.2133
   17.880    5.2870
   17.910    5.5714
   17.940    5.3186
   17.970    5.5608
   18.000    5.2659
   18.030    5.6661
   18.060    5.8031
   18.090    5.2343
   18.120    5.1711
   18.150    5.7188
   18.180    5.2765
   18.210    5.5398
   18.240    5.9716
   18.270    5.6240
   18.300    5.6767
   18.330    5.9294
   18.360    5.1185
   18.390    5.4976
   18.420    5.6135
   18.450    5.6872
   18.480    5.8347
   18.510    5.7715
   18.540    5.7188
   18.570    5.4660
   18.600    5.5819
   18.630    5.4871
   18.660    5.7083
   18.690    5.5292
   18.720    5.4239
   18.750    5.6029
   18.780    5.8241
   18.810    5.8241
   18.840    5.6029
   18.870    5.7715
   18.900    5.4555
   18.930    5.6556
   18.960    5.7820
   18.990    6.0874
   19.020    6.0558
   19.050    5.8452
   19.080    5.6451
   19.110    5.7188
   19.140    5.9505
   19.170    5.8031
   19.200    5.6872
   19.230    6.0242
   19.260    5.8452
   19.290    5.5608
   19.320    6.0137
   19.350    5.9294
   19.380    5.8768
   19.410    5.6977
   19.440    5.6977
   19.470    5.8031
   19.500    5.9294
   19.530    6.1506
   19.560    5.7293
   19.590    5.5924
   19.620    6.0242
   19.650    5.4344
   19.680    5.7609
   19.710    5.5292
   19.740    5.6451
   19.770    6.0242
   19.800    6.2033
   19.830    5.9294
   19.860    5.6872
   19.890    5.7188
   19.920    6.1401
   19.950    5.9505
   19.980    5.8136
   20.010    5.7188
   20.040    5.8136
   20.070    5.7820
   20.100    5.9505
   20.130    5.5503
   20.160    6.0032
   20.190    5.9821
   20.220    5.8768
   20.250    6.2033
   20.280    5.7925
   20.310    5.6661
   20.340    5.9821
   20.370    6.1190
   20.400    6.2875
   20.430    6.0032
   20.460    6.2454
   20.490    5.8978
   20.520    5.8978
   20.550    5.8241
   20.580    5.9400
   20.610    6.0453
   20.640    5.8452
   20.670    5.5924
   20.700    6.0664
   20.730    6.0032
   20.760    5.9189
   20.790    5.9505
   20.820    5.7925
   20.850    6.0242
   20.880    5.6977
   20.910    5.9716
   20.940    5.9400
   20.970    6.4034
   21.000    5.8768
   21.030    5.9926
   21.060    5.8662
   21.090    6.0032
   21.120    6.0558
   21.150    6.2033
   21.180    6.3296
   21.210    6.1611
   21.240    5.6556
   21.270    5.7399
   21.300    6.2033
   21.330    5.7293
   21.360    6.0664
   21.390    5.9084
   21.420    6.0874
   21.450    6.1506
   21.480    6.1190
   21.510    6.2770
   21.540    5.8662
   21.570    6.2770
   21.600    5.9716
   21.630    5.9400
   21.660    6.1506
   21.690    6.0874
   21.720    6.0558
   21.750    6.0032
   21.780    6.6140
   21.810    6.1401
   21.840    5.3712
   21.870    5.7925
   21.900    6.0769
   21.930    6.1717
   21.960    6.0558
   21.990    6.4244
   22.020    6.0558
   22.050    6.0769
   22.080    6.4771
   22.110    6.0769
   22.140    5.8557
   22.170    6.3086
   22.200    6.1085
   22.230    6.1401
   22.260    6.1717
   22.290    6.3718
   22.320    6.3191
   22.350    6.2770
   22.380    6.3507
   22.410    5.9505
   22.440    6.2770
   22.470    5.9505
   22.500    5.8136
   22.530    6.1611
   22.560    6.4350
   22.590    6.3612
   22.620    6.1717
   22.650    6.0558
   22.680    6.3191
   22.710    6.0874
   22.740    6.5719
   22.770    5.9294
   22.800    6.1506
   22.830    6.1190
   22.860    6.1717
   22.890    6.1611
   22.920    5.6345
   22.950    6.1717
   22.980    6.4876
   23.010    6.2349
   23.040    6.2875
   23.070    6.1506
   23.100    6.2454
   23.130    6.1717
   23.160    6.4139
   23.190    6.3823
   23.220    6.3823
   23.250    6.0453
   23.280    6.0558
   23.310    5.7925
   23.340    5.9716
   23.370    6.4876
   23.400    6.0032
   23.430    6.0558
   23.460    6.2349
   23.490    5.9505
   23.520    6.4244
   23.550    6.2559
   23.580    6.2454
   23.610    5.8241
   23.640    6.0348
   23.670    6.2875
   23.700    5.9505
   23.730    5.8031
   23.760    6.0453
   23.790    6.2454
   23.820    6.1190
   23.850    6.1506
   23.880    6.3507
   23.910    5.9821
   23.940    6.0558
   23.970    5.6556
   24.000    5.8031
   24.030    5.9821
   24.060    5.9821
   24.090    6.2559
   24.120    6.1717
   24.150    6.2243
   24.180    6.1401
   24.210    6.0558
   24.240    6.5192
   24.270    6.2875
   24.300    5.9926
   24.330    5.9610
   24.360    6.4244
   24.390    6.0558
   24.420    6.0137
   24.450    6.0769
   24.480    6.0242
   24.510    5.6872
   24.540    6.0664
   24.570    6.1190
   24.600    6.1085
   24.630    6.1611
   24.660    5.9610
   24.690    6.0032
   24.720    6.2243
   24.750    5.9505
   24.780    5.9189
   24.810    5.7083
   24.840    6.3612
   24.870    5.8978
   24.900    5.5398
   24.930    6.1927
   24.960    5.9084
   24.990    6.0242
   25.020    5.7820
   25.050    6.1927
   25.080    6.1401
   25.110    5.8452
   25.140    5.9400
   25.170    5.9400
   25.200    5.8557
   25.230    6.2138
   25.260    6.2243
   25.290    6.3296
   25.320    6.1401
   25.350    5.4344
   25.380    5.7504
   25.410    5.9926
   25.440    5.9821
   25.470    6.0137
   25.500    5.9716
   25.530    5.6029
   25.560    6.1190
   25.590    5.8873
   25.620    6.2138
   25.650    5.8452
   25.680    5.8978
   25.710    5.2975
   25.740    6.1611
   25.770    5.6451
   25.800    5.8031
   25.830    5.9610
   25.860    5.8136
   25.890    6.0874
   25.920    5.7715
   25.950    5.5503
   25.980    6.0032
   26.010    5.8241
   26.040    5.9926
   26.070    5.8241
   26.100    5.8241
   26.130    5.6345
   26.160    5.7609
   26.190    5.5082
   26.220    5.8136
   26.250    5.7188
   26.280    5.8452
   26.310    5.7925
   26.340    5.8452
   26.370    5.9189
   26.400    5.9189
   26.430    5.6661
   26.460    5.4555
   26.490    5.8452
   26.520    5.9084
   26.550    5.7399
   26.580    5.7399
   26.610    5.7504
   26.640    5.7925
   26.670    5.5608
   26.700    5.7188
   26.730    5.6661
   26.760    6.1401
   26.790    5.8662
   26.820    5.5714
   26.850    5.5398
   26.880    5.5819
   26.910    5.8873
   26.940    5.9926
   26.970    5.5819
   27.000    5.6872
   27.030    5.5292
   27.060    5.3397
   27.090    5.8768
   27.120    5.7925
   27.150    5.7504
   27.180    5.8241
   27.210    5.6029
   27.240    5.7399
   27.270    5.5398
   27.300    5.5503
   27.330    5.9400
   27.360    5.3923
   27.390    5.7504
   27.420    5.5819
   27.450    5.5608
   27.480    5.8031
   27.510    5.4766
   27.540    5.6345
   27.570    5.7820
   27.600    5.0237
   27.630    5.4976
   27.660    5.7293
   27.690    5.4450
   27.720    5.5503
   27.750    5.6029
   27.780    5.6872
   27.810    5.4555
   27.840    5.4134
   27.870    5.6029
   27.900    5.1395
   27.930    5.8136
   27.960    5.4344
   27.990    5.3818
   28.020    5.6661
   28.050    5.4450
   28.080    5.6345
   28.110    5.2238
   28.140    5.2343
   28.170    5.5924
   28.200    5.5503
   28.230    5.4555
   28.260    5.7083
   28.290    5.3607
   28.320    5.5714
   28.350    5.4134
   28.380    5.8557
   28.410    5.3186
   28.440    5.4555
   28.470    5.4660
   28.500    5.2343
   28.530    5.0553
   28.560    5.2870
   28.590    5.6451
   28.620    5.3081
   28.650    5.3923
   28.680    5.1711
   28.710    5.5503
   28.740    5.5503
   28.770    5.4766
   28.800    5.2870
   28.830    5.4028
   28.860    5.1711
   28.890    5.0869
   28.920    5.3607
   28.950    5.6029
   28.980    5.2343
   29.010    5.3712
   29.040    5.3291
   29.070    5.1711
   29.100    5.1501
   29.130    5.1080
   29.160    5.5503
   29.190    5.1395
   29.220    5.1080
   29.250    5.1711
   29.280    5.2238
   29.310    5.3607
   29.340    5.0448
   29.370    5.0658
   29.400    5.2449
   29.430    5.1606
   29.460    5.2870
   29.490    5.6029
   29.520    5.1606
   29.550    5.5187
   29.580    5.1080
   29.610    5.1817
   29.640    5.1080
   29.670    5.0342
   29.700    5.2027
   29.730    5.4239
   29.760    5.2449
   29.790    5.0026
   29.820    4.6656
   29.850    5.1606
   29.880    5.5608
   29.910    5.2343
   29.940    5.3397
   29.970    5.1395
   30.000    5.4028
   30.030    5.0658
   30.060    5.2554
   30.090    4.9289
   30.120    4.9921
   30.150    5.2343
   30.180    5.2870
   30.210    4.8025
   30.240    4.9816
   30.270    5.0658
   30.300    5.2554
   30.330    4.8657
   30.360    5.3712
   30.390    5.2343
   30.420    5.2343
   30.450    5.2975
   30.480    4.8763
   30.510    5.0553
   30.540    5.0026
   30.570    5.0026
   30.600    4.7077
   30.630    4.7604
   30.660    4.6340
   30.690    4.6761
   30.720    5.0974
   30.750    4.9078
   30.780    5.1080
   30.810    4.7920
   30.840    4.7709
   30.870    4.8447
   30.900    5.0448
   30.930    5.2765
   30.960    4.7183
   30.990    4.8341
   31.020    4.9921
   31.050    4.4550
   31.080    5.2659
   31.110    4.8657
   31.140    4.8447
   31.170    4.9605
   31.200    4.7183
   31.230    4.8236
   31.260    4.5708
   31.290    4.9605
   31.320    4.6867
   31.350    4.8657
   31.380    4.8447
   31.410    4.7604
   31.440    4.7499
   31.470    4.6656
   31.500    4.7709
   31.530    5.2765
   31.560    5.0342
   31.590    4.7183
   31.620    4.8973
   31.650    4.7499
   31.680    4.8868
   31.710    5.0869
   31.740    4.6761
   31.770    4.6656
   31.800    4.7077
   31.830    4.7499
   31.860    4.9816
   31.890    4.7815
   31.920    4.7815
   31.950    4.7815
   31.980    4.9605
   32.010    4.7183
   32.040    4.8552
   32.070    4.8341
   32.100    5.0342
   32.130    4.8657
   32.160    4.8973
   32.190    4.8236
   32.220    4.9605
   32.250    4.7604
   32.280    4.4866
   32.310    4.7183
   32.340    4.6551
   32.370    4.7183
   32.400    5.0237
   32.430    4.6130
   32.460    4.7393
   32.490    4.5919
   32.520    4.6445
   32.550    4.7920
   32.580    4.6551
   32.610    4.6235
   32.640    4.6972
   32.670    4.9921
   32.700    4.7709
   32.730    4.6024
   32.760    4.9078
   32.790    4.7499
   32.820    4.6024
   32.850    4.6656
   32.880    4.8657
   32.910    4.3497
   32.940    4.7709
   32.970    4.7920
   33.000    4.4234
   33.030    4.6972
   33.060    4.7920
   33.090    4.5919
   33.120    4.7288
   33.150    4.6656
   33.180    4.2549
   33.210    4.5919
   33.240    4.5182
   33.270    4.4550
   33.300    4.5708
   33.330    4.1390
   33.360    4.5392
   33.390    4.4234
   33.420    4.2759
   33.450    4.3918
   33.480    4.4866
   33.510    4.6130
   33.540    4.1811
   33.570    4.7709
   33.600    4.6340
   33.630    4.4971
   33.660    4.4128
   33.690    4.4971
   33.720    4.5603
   33.750    4.1285
   33.780    4.8552
   33.810    4.4234
   33.840    4.4760
   33.870    4.5287
   33.900    4.6235
   33.930    4.8657
   33.960    4.5603
   33.990    4.5814
   34.020    4.5392
   34.050    4.7604
   34.080    4.2654
   34.110    4.5708
   34.140    4.5392
   34.170    4.6761
   34.200    4.6235
   34.230    4.3707
   34.260    4.3391
   34.290    4.4655
   34.320    4.5498
   34.350    4.5708
   34.380    4.2022
   34.410    4.6340
   34.440    4.5814
   34.470    4.3391
   34.500    4.4655
   34.530    4.6235
   34.560    4.5076
   34.590    4.4866
   34.620    4.6340
   34.650    4.6340
   34.680    4.1496
   34.710    4.4971
   34.740    4.5708
   34.770    4.2022
   34.800    4.3286
   34.830    4.2338
   34.860    4.4234
   34.890    4.7920
   34.920    4.4444
   34.950    4.3707
   34.980    3.9705
   35.010    4.1811
   35.040    4.3602
   35.070    4.4128
   35.100    4.5708
   35.130    4.8131
   35.160    4.2759
   35.190    4.4866
   35.220    4.1601
   35.250    4.5392
   35.280    4.3391
   35.310    4.3918
   35.340    4.4234
   35.370    4.1074
   35.400    4.3813
   35.430    4.2549
   35.460    4.3075
   35.490    4.2970
   35.520    4.4023
   35.550    4.2970
   35.580    4.3918
   35.610    4.1390
   35.640    4.2654
   35.670    4.2022
   35.700    3.9705
   35.730    4.7077
   35.760    4.0653
   35.790    4.1496
   35.820    3.8757
   35.850    4.4655
   35.880    4.6340
   35.910    4.4655
   35.940    4.2549
   35.970    4.3707
   36.000    4.2233
   36.030    4.0864
   36.060    4.0969
   36.090    4.4971
   36.120    4.2865
   36.150    4.4971
   36.180    4.2338
   36.210    4.0653
   36.240    4.4550
   36.270    4.3918
   36.300    4.1917
   36.330    4.0864
   36.360    4.2654
   36.390    4.1180
   36.420    4.1601
   36.450    4.2338
   36.480    4.0126
   36.510    4.3602
   36.540    4.1074
   36.570    4.2443
   36.600    4.4128
   36.630    4.4760
   36.660    3.9600
   36.690    4.2970
   36.720    4.0442
   36.750    4.2865
   36.780    4.2233
   36.810    4.2127
   36.840    4.4339
   36.870    4.0232
   36.900    4.0126
   36.930    4.3075
   36.960    4.1180
   36.990    4.0864
   37.020    3.8125
   37.050    4.0021
   37.080    4.3602
   37.110    4.0021
   37.140    4.1811
   37.170    4.4023
   37.200    4.1601
   37.230    4.1706
   37.260    4.1496
   37.290    4.1180
   37.320    4.0548
   37.350    4.1917
   37.380    4.2022
   37.410    3.9810
   37.440    4.1811
   37.470    3.9705
   37.500    4.3602
   37.530    4.2865
   37.560    4.5076
   37.590    3.9600
   37.620    4.1180
   37.650    4.3286
   37.680    3.9600
   37.710    4.3075
   37.740    4.2970
   37.770    3.9073
   37.800    3.9916
   37.830    4.3286
   37.860    3.8968
   37.890    4.2233
   37.920    4.2233
   37.950    4.4128
   37.980    4.0442
   38.010    4.1601
   38.040    4.2654
   38.070    4.1074
   38.100    3.7704
   38.130    3.9179
   38.160    4.2127
   38.190    4.1706
   38.220    4.3602
   38.250    4.3707
   38.280    4.0653
   38.310    4.2233
   38.340    4.5603
   38.370    4.1917
   38.400    4.0548
   38.430    4.0337
   38.460    4.1285
   38.490    4.0548
   38.520    4.1390
   38.550    4.0864
   38.580    3.8968
   38.610    4.1074
   38.640    4.2233
   38.670    3.9810
   38.700    4.1811
   38.730    4.0548
   38.760    4.1917
   38.790    4.1180
   38.820    3.8336
   38.850    3.8441
   38.880    3.9284
   38.910    3.8441
   38.940    3.8231
   38.970    4.2338
   39.000    3.9179
   39.030    4.4234
   39.060    4.1390
   39.090    4.3181
   39.120    4.0021
   39.150    3.8757
   39.180    4.1917
   39.210    4.3181
   39.240    4.2127
   39.270    3.7599
   39.300    3.9494
   39.330    4.2022
   39.360    4.1496
   39.390    4.0864
   39.420    4.0864
   39.450    3.8968
   39.480    3.9916
   39.510    3.8968
   39.540    3.8336
   39.570    4.1811
   39.600    4.0548
   39.630    3.8968
   39.660    4.0337
   39.690    4.0442
   39.720    4.1074
   39.750    4.1601
   39.780    4.1496
   39.810    4.1074
   39.840    4.2127
   39.870    4.0969
   39.900    3.9179
   39.930    4.0442
   39.960    4.0232
   39.990    3.8652