File: data/MOCOF-1/PXRD/PXRD_KE-191_Cu-Ka1_capillary-1mm_5s-deg.xyd
    1.500   17.7567
    1.530   17.8199
    1.560   17.2933
    1.590   16.8194
    1.620   16.4508
    1.650   16.2296
    1.680   15.1975
    1.710   15.1027
    1.740   14.7235
    1.770   13.8705
    1.800   13.9547
    1.830   13.8705
    1.860   13.3965
    1.890   12.5434
    1.920   13.0595
    1.950   12.8067
    1.980   11.4060
    2.010   11.4481
    2.040   11.3744
    2.070   11.9642
    2.100   10.5213
    2.130   10.5951
    2.160   10.8689
    2.190   10.3423
    2.220   10.3844
    2.250   10.2370
    2.280    9.8473
    2.310    9.7736
    2.340    9.4155
    2.370    8.6783
    2.400    9.1732
    2.430    9.1943
    2.460    8.7520
    2.490    8.3623
    2.520    8.6677
    2.550    8.0990
    2.580    8.3834
    2.610    8.1201
    2.640    8.3202
    2.670    8.0885
    2.700    8.0674
    2.730    7.7830
    2.760    8.1938
    2.790    7.3196
    2.820    8.1411
    2.850    7.7199
    2.880    7.8041
    2.910    7.7514
    2.940    7.5303
    2.970    7.9726
    3.000    8.2675
    3.030    7.8989
    3.060    8.1727
    3.090    8.8046
    3.120    9.2680
    3.150    8.8468
    3.180    9.2364
    3.210    9.6998
    3.240   10.5951
    3.270   11.4692
    3.300   12.6172
    3.330   13.3123
    3.360   15.3976
    3.390   16.3033
    3.420   18.6519
    3.450   20.0527
    3.480   19.5471
    3.510   17.0090
    3.540   16.6193
    3.570   18.2096
    3.600   20.4318
    3.630   21.1796
    3.660   22.4013
    3.690   26.4771
    3.720   32.2591
    3.750   39.2101
    3.780   49.9105
    3.810   68.2254
    3.840   93.0069
    3.870   91.0163
    3.900   56.9563
    3.930   13.5229
    3.960    8.7520
    3.990    8.1411
    4.020    8.7414
    4.050    7.8673
    4.080    7.9410
    4.110    7.5619
    4.140    7.2249
    4.170    6.9194
    4.200    6.4139
    4.230    6.2243
    4.260    5.7715
    4.290    5.4555
    4.320    5.4028
    4.350    5.0026
    4.380    4.6024
    4.410    4.6761
    4.440    4.7920
    4.470    4.5498
    4.500    4.2865
    4.530    4.6235
    4.560    4.5287
    4.590    4.3918
    4.620    4.3813
    4.650    4.4444
    4.680    4.3497
    4.710    3.9284
    4.740    4.4023
    4.770    4.3391
    4.800    4.0337
    4.830    4.3497
    4.860    4.0969
    4.890    4.1917
    4.920    4.1074
    4.950    4.1601
    4.980    4.3286
    5.010    4.0864
    5.040    4.3497
    5.070    4.6130
    5.100    4.5287
    5.130    4.7920
    5.160    5.2975
    5.190    5.2554
    5.220    5.4450
    5.250    6.3612
    5.280    6.7193
    5.310    7.9937
    5.340    9.2154
    5.370   11.1954
    5.400   12.7120
    5.430   19.7894
    5.460   25.9294
    5.490   26.6456
    5.520   15.8715
    5.550    5.8347
    5.580    3.8547
    5.610    3.5492
    5.640    3.6862
    5.670    3.7599
    5.700    3.4334
    5.730    3.5808
    5.760    3.8547
    5.790    3.0648
    5.820    3.7072
    5.850    3.5492
    5.880    3.2333
    5.910    3.4755
    5.940    3.6335
    5.970    3.3491
    6.000    3.4439
    6.030    3.5071
    6.060    3.2649
    6.090    3.4966
    6.120    3.7283
    6.150    3.8652
    6.180    3.3175
    6.210    3.3807
    6.240    3.6440
    6.270    3.5703
    6.300    3.5176
    6.330    3.4966
    6.360    3.5703
    6.390    3.5071
    6.420    3.6230
    6.450    3.4123
    6.480    3.7388
    6.510    4.0758
    6.540    4.2233
    6.570    4.6761
    6.600    4.8341
    6.630    5.3081
    6.660    6.1822
    6.690    7.7725
    6.720    9.0785
    6.750    8.2149
    6.780    5.5819
    6.810    3.7599
    6.840    4.0021
    6.870    3.8547
    6.900    4.0548
    6.930    3.9600
    6.960    3.9916
    6.990    4.2233
    7.020    3.9284
    7.050    3.4755
    7.080    3.3807
    7.110    3.5914
    7.140    3.6230
    7.170    3.2333
    7.200    3.5282
    7.230    3.6019
    7.260    3.3070
    7.290    3.3070
    7.320    3.5282
    7.350    3.7072
    7.380    3.5492
    7.410    3.5492
    7.440    3.7283
    7.470    3.2438
    7.500    3.4966
    7.530    3.5914
    7.560    3.7809
    7.590    4.1180
    7.620    4.5076
    7.650    4.3181
    7.680    5.2975
    7.710    6.0769
    7.740    7.0248
    7.770    8.2780
    7.800    8.4466
    7.830    5.1290
    7.860    3.7599
    7.890    3.6546
    7.920    3.4650
    7.950    3.6440
    7.980    3.4860
    8.010    3.6019
    8.040    3.4123
    8.070    3.8020
    8.100    3.8231
    8.130    3.7072
    8.160    3.5282
    8.190    3.5071
    8.220    3.4860
    8.250    3.8441
    8.280    3.6651
    8.310    3.6546
    8.340    3.8652
    8.370    3.6756
    8.400    3.7388
    8.430    3.6756
    8.460    3.4966
    8.490    3.4650
    8.520    3.5914
    8.550    3.6335
    8.580    3.5282
    8.610    3.6546
    8.640    3.8125
    8.670    3.7283
    8.700    3.8968
    8.730    3.8020
    8.760    3.6230
    8.790    3.1806
    8.820    3.5282
    8.850    2.9910
    8.880    3.4229
    8.910    3.4334
    8.940    3.3386
    8.970    3.2754
    9.000    3.2438
    9.030    3.3807
    9.060    3.3597
    9.090    3.4755
    9.120    3.5176
    9.150    3.1596
    9.180    3.4966
    9.210    3.4123
    9.240    3.5071
    9.270    3.4966
    9.300    3.4018
    9.330    3.8441
    9.360    4.1601
    9.390    4.3391
    9.420    4.8763
    9.450    5.8873
    9.480    7.7936
    9.510   11.7852
    9.540   14.0284
    9.570   10.2264
    9.600    5.4344
    9.630    3.7072
    9.660    3.2017
    9.690    3.3175
    9.720    3.3702
    9.750    3.2227
    9.780    3.2754
    9.810    3.3281
    9.840    3.1174
    9.870    3.1280
    9.900    2.9279
    9.930    3.4229
    9.960    3.3913
    9.990    3.4334
   10.020    3.1280
   10.050    2.8963
   10.080    3.6440
   10.110    3.4544
   10.140    3.6335
   10.170    3.6440
   10.200    3.9073
   10.230    4.1180
   10.260    5.0448
   10.290    6.4034
   10.320    6.4244
   10.350    5.1711
   10.380    3.7704
   10.410    3.5492
   10.440    3.1069
   10.470    3.3386
   10.500    3.2122
   10.530    3.3597
   10.560    3.2649
   10.590    3.2438
   10.620    3.3281
   10.650    3.3597
   10.680    3.3913
   10.710    3.4439
   10.740    3.1806
   10.770    3.1806
   10.800    3.2965
   10.830    3.3597
   10.860    3.4966
   10.890    3.6756
   10.920    3.8231
   10.950    4.3918
   10.980    5.2765
   11.010    5.8347
   11.040    6.0874
   11.070    4.7604
   11.100    3.5071
   11.130    3.5598
   11.160    3.1912
   11.190    2.9489
   11.220    3.0226
   11.250    3.1806
   11.280    3.0121
   11.310    3.0016
   11.340    3.1490
   11.370    3.1806
   11.400    3.2017
   11.430    3.0858
   11.460    3.4123
   11.490    3.2438
   11.520    3.2017
   11.550    3.2333
   11.580    3.7177
   11.610    4.3391
   11.640    4.7393
   11.670    5.7399
   11.700    6.8668
   11.730    6.3402
   11.760    4.2233
   11.790    3.1596
   11.820    2.9489
   11.850    3.0437
   11.880    3.2754
   11.910    2.9384
   11.940    3.4966
   11.970    3.2649
   12.000    3.0964
   12.030    2.9910
   12.060    3.1280
   12.090    3.0226
   12.120    3.0648
   12.150    3.1385
   12.180    3.1490
   12.210    3.0964
   12.240    2.9384
   12.270    3.3491
   12.300    3.3597
   12.330    3.4966
   12.360    3.5598
   12.390    3.4018
   12.420    2.9700
   12.450    3.1280
   12.480    3.0121
   12.510    3.0016
   12.540    3.0858
   12.570    3.1490
   12.600    2.9173
   12.630    2.8541
   12.660    3.1174
   12.690    3.0016
   12.720    3.0226
   12.750    2.9384
   12.780    3.1069
   12.810    3.2965
   12.840    3.2333
   12.870    3.4966
   12.900    4.3075
   12.930    4.9394
   12.960    5.4976
   12.990    4.2443
   13.020    3.3913
   13.050    3.0332
   13.080    3.0437
   13.110    3.2649
   13.140    3.1385
   13.170    2.9173
   13.200    2.9173
   13.230    3.0858
   13.260    3.0648
   13.290    2.8752
   13.320    2.8752
   13.350    2.8963
   13.380    2.8015
   13.410    3.1069
   13.440    3.3386
   13.470    3.5598
   13.500    4.0021
   13.530    4.0337
   13.560    3.7072
   13.590    3.1912
   13.620    3.2859
   13.650    3.0226
   13.680    2.7699
   13.710    3.1490
   13.740    3.0121
   13.770    3.0753
   13.800    3.2017
   13.830    3.2859
   13.860    2.9595
   13.890    3.0226
   13.920    3.1912
   13.950    2.9700
   13.980    3.3281
   14.010    3.3597
   14.040    4.2338
   14.070    4.6130
   14.100    4.7499
   14.130    4.0864
   14.160    3.3281
   14.190    3.0016
   14.220    2.9068
   14.250    3.0542
   14.280    2.8647
   14.310    3.0753
   14.340    2.7699
   14.370    2.9068
   14.400    2.8857
   14.430    2.9068
   14.460    2.9068
   14.490    2.8331
   14.520    2.9173
   14.550    2.8647
   14.580    2.6330
   14.610    3.1596
   14.640    2.8857
   14.670    2.7699
   14.700    2.8331
   14.730    3.2122
   14.760    3.0753
   14.790    2.9173
   14.820    3.0332
   14.850    2.9068
   14.880    2.9384
   14.910    2.9700
   14.940    2.9068
   14.970    2.9173
   15.000    3.0753
   15.030    2.9805
   15.060    3.0226
   15.090    3.0753
   15.120    3.3175
   15.150    3.5387
   15.180    3.1069
   15.210    2.8857
   15.240    3.0226
   15.270    3.1385
   15.300    3.0753
   15.330    3.0437
   15.360    2.8015
   15.390    3.0858
   15.420    2.7699
   15.450    2.9384
   15.480    3.1280
   15.510    3.0016
   15.540    3.0648
   15.570    2.8225
   15.600    3.1069
   15.630    3.0016
   15.660    2.9805
   15.690    2.9173
   15.720    3.1069
   15.750    3.0016
   15.780    2.9173
   15.810    3.2649
   15.840    2.8963
   15.870    2.7804
   15.900    3.0226
   15.930    2.8857
   15.960    3.1490
   15.990    2.9595
   16.020    2.9805
   16.050    3.2122
   16.080    3.4018
   16.110    3.3070
   16.140    3.6124
   16.170    3.2438
   16.200    2.8120
   16.230    2.9279
   16.260    3.1490
   16.290    2.7909
   16.320    2.9910
   16.350    2.5698
   16.380    2.8963
   16.410    2.8963
   16.440    2.9700
   16.470    3.0332
   16.500    3.1490
   16.530    2.9595
   16.560    3.6440
   16.590    3.6440
   16.620    3.4650
   16.650    3.3175
   16.680    2.9595
   16.710    2.9279
   16.740    2.9384
   16.770    3.0753
   16.800    3.0016
   16.830    2.8225
   16.860    2.9173
   16.890    2.9489
   16.920    2.9489
   16.950    3.0858
   16.980    3.2122
   17.010    3.8231
   17.040    4.4234
   17.070    4.5814
   17.100    4.0548
   17.130    3.3597
   17.160    3.0016
   17.190    3.0226
   17.220    2.9173
   17.250    3.0121
   17.280    3.0121
   17.310    2.8225
   17.340    2.8225
   17.370    2.8225
   17.400    2.8331
   17.430    3.0332
   17.460    3.0542
   17.490    3.3175
   17.520    3.3702
   17.550    3.0121
   17.580    2.9173
   17.610    3.1385
   17.640    2.9279
   17.670    2.8015
   17.700    3.0016
   17.730    2.6751
   17.760    2.8541
   17.790    2.8857
   17.820    3.1280
   17.850    3.0016
   17.880    3.2859
   17.910    3.3597
   17.940    3.3281
   17.970    3.1912
   18.000    3.2859
   18.030    2.9805
   18.060    2.9595
   18.090    3.0226
   18.120    3.1069
   18.150    2.7909
   18.180    3.0226
   18.210    2.9279
   18.240    3.1701
   18.270    2.7383
   18.300    3.2754
   18.330    3.1280
   18.360    3.5492
   18.390    3.4966
   18.420    3.2754
   18.450    2.8436
   18.480    2.9910
   18.510    2.7383
   18.540    3.1490
   18.570    2.8436
   18.600    2.9805
   18.630    2.9384
   18.660    3.2122
   18.690    2.8015
   18.720    2.9173
   18.750    2.8963
   18.780    3.0332
   18.810    3.0332
   18.840    2.9595
   18.870    2.9068
   18.900    3.3913
   18.930    3.4229
   18.960    3.7493
   18.990    4.2338
   19.020    3.7493
   19.050    3.3597
   19.080    3.1701
   19.110    3.1280
   19.140    3.1490
   19.170    3.0648
   19.200    2.9910
   19.230    2.8225
   19.260    3.2122
   19.290    3.2754
   19.320    3.2859
   19.350    2.8331
   19.380    3.1385
   19.410    2.8120
   19.440    2.9805
   19.470    3.1912
   19.500    3.1806
   19.530    3.0542
   19.560    3.4123
   19.590    3.2754
   19.620    3.7283
   19.650    3.2438
   19.680    3.2438
   19.710    3.0648
   19.740    2.8331
   19.770    2.9805
   19.800    3.0332
   19.830    2.7699
   19.860    2.8225
   19.890    3.0016
   19.920    3.0437
   19.950    3.1385
   19.980    3.0121
   20.010    3.0753
   20.040    3.3386
   20.070    3.0964
   20.100    3.0648
   20.130    2.8647
   20.160    3.1490
   20.190    3.0542
   20.220    3.1385
   20.250    2.9068
   20.280    3.0858
   20.310    3.1701
   20.340    4.0653
   20.370    4.0969
   20.400    4.0548
   20.430    3.3597
   20.460    3.4544
   20.490    2.8647
   20.520    2.9805
   20.550    2.8857
   20.580    2.9700
   20.610    3.0121
   20.640    3.1701
   20.670    3.1490
   20.700    3.0964
   20.730    3.1280
   20.760    3.2227
   20.790    3.0858
   20.820    3.0964
   20.850    2.9910
   20.880    3.2122
   20.910    3.1069
   20.940    3.1912
   20.970    2.8225
   21.000    3.2649
   21.030    3.1069
   21.060    3.1490
   21.090    2.8857
   21.120    3.0121
   21.150    3.0121
   21.180    3.0542
   21.210    3.0226
   21.240    3.0753
   21.270    3.0121
   21.300    2.9595
   21.330    3.0121
   21.360    2.8331
   21.390    3.0332
   21.420    3.3070
   21.450    2.8647
   21.480    3.3175
   21.510    3.1280
   21.540    3.0437
   21.570    2.7699
   21.600    2.8647
   21.630    3.0226
   21.660    3.1385
   21.690    3.0858
   21.720    3.0648
   21.750    3.0016
   21.780    3.0858
   21.810    3.4755
   21.840    3.5914
   21.870    3.6230
   21.900    3.2754
   21.930    3.1490
   21.960    2.9279
   21.990    3.0753
   22.020    3.1596
   22.050    3.3807
   22.080    2.9595
   22.110    3.0016
   22.140    3.3702
   22.170    3.5282
   22.200    3.4018
   22.230    3.2543
   22.260    3.2754
   22.290    3.1385
   22.320    3.0858
   22.350    2.7067
   22.380    2.9700
   22.410    3.0964
   22.440    3.1069
   22.470    3.4755
   22.500    3.4860
   22.530    4.2338
   22.560    4.4128
   22.590    4.6130
   22.620    3.8547
   22.650    3.5387
   22.680    2.7699
   22.710    3.1385
   22.740    2.8857
   22.770    3.0016
   22.800    2.9279
   22.830    3.4755
   22.860    3.8231
   22.890    4.2970
   22.920    4.5498
   22.950    4.3391
   22.980    3.7493
   23.010    3.1174
   23.040    3.3386
   23.070    2.9595
   23.100    3.3597
   23.130    3.2017
   23.160    3.2965
   23.190    3.4018
   23.220    3.4860
   23.250    3.6230
   23.280    3.6651
   23.310    3.0437
   23.340    3.1806
   23.370    3.2965
   23.400    3.1490
   23.430    3.2227
   23.460    3.0226
   23.490    2.9384
   23.520    3.2017
   23.550    2.9595
   23.580    3.1490
   23.610    3.2965
   23.640    3.0016
   23.670    2.7804
   23.700    2.9910
   23.730    3.0226
   23.760    3.0437
   23.790    3.1596
   23.820    2.9910
   23.850    3.0437
   23.880    3.3070
   23.910    3.6440
   23.940    3.1912
   23.970    2.9489
   24.000    2.8647
   24.030    3.0648
   24.060    2.8225
   24.090    2.9805
   24.120    3.0858
   24.150    3.0121
   24.180    2.9805
   24.210    3.0437
   24.240    3.0016
   24.270    3.1701
   24.300    3.0858
   24.330    3.0016
   24.360    3.0964
   24.390    2.8331
   24.420    2.8647
   24.450    2.9279
   24.480    3.0226
   24.510    3.1912
   24.540    3.2965
   24.570    3.1806
   24.600    3.1069
   24.630    3.0226
   24.660    3.0964
   24.690    3.1490
   24.720    2.9700
   24.750    2.7488
   24.780    3.0332
   24.810    3.0648
   24.840    3.0964
   24.870    2.9805
   24.900    3.1490
   24.930    3.2122
   24.960    3.0332
   24.990    2.9279
   25.020    2.9384
   25.050    2.8857
   25.080    2.7383
   25.110    2.9279
   25.140    2.9068
   25.170    3.3702
   25.200    3.1490
   25.230    3.1596
   25.260    3.2754
   25.290    2.9279
   25.320    3.0121
   25.350    2.8752
   25.380    2.9910
   25.410    2.8541
   25.440    2.8963
   25.470    3.2543
   25.500    2.9700
   25.530    3.2122
   25.560    3.1912
   25.590    2.9279
   25.620    2.8857
   25.650    2.8647
   25.680    2.8225
   25.710    3.2227
   25.740    3.2227
   25.770    3.6862
   25.800    3.9073
   25.830    3.6124
   25.860    3.5176
   25.890    3.2122
   25.920    2.8120
   25.950    2.8120
   25.980    2.6962
   26.010    2.9489
   26.040    2.6962
   26.070    2.5908
   26.100    2.7593
   26.130    2.5803
   26.160    3.2227
   26.190    2.9173
   26.220    3.0648
   26.250    2.8436
   26.280    2.7909
   26.310    2.9595
   26.340    2.9173
   26.370    2.9910
   26.400    3.0437
   26.430    2.8225
   26.460    3.2122
   26.490    3.0648
   26.520    2.6119
   26.550    2.7593
   26.580    2.7278
   26.610    3.0332
   26.640    2.9489
   26.670    2.8120
   26.700    2.7067
   26.730    2.7488
   26.760    2.8541
   26.790    2.6330
   26.820    2.9384
   26.850    2.7699
   26.880    2.9489
   26.910    2.7804
   26.940    2.9384
   26.970    3.1280
   27.000    3.1069
   27.030    2.9279
   27.060    3.3175
   27.090    2.9489
   27.120    2.7383
   27.150    2.8647
   27.180    2.7488
   27.210    2.6856
   27.240    2.8331
   27.270    2.8436
   27.300    2.8436
   27.330    2.8963
   27.360    2.8331
   27.390    2.6540
   27.420    3.0648
   27.450    2.8331
   27.480    2.7804
   27.510    2.7593
   27.540    2.8752
   27.570    3.0226
   27.600    3.1912
   27.630    2.8752
   27.660    2.9700
   27.690    2.6751
   27.720    2.7593
   27.750    2.4750
   27.780    2.8541
   27.810    2.7699
   27.840    2.6014
   27.870    3.1701
   27.900    2.9279
   27.930    2.9279
   27.960    3.4229
   27.990    3.4860
   28.020    3.3491
   28.050    3.2122
   28.080    3.2122
   28.110    3.1069
   28.140    3.2333
   28.170    3.0437
   28.200    3.1069
   28.230    3.0753
   28.260    3.2227
   28.290    2.6856
   28.320    2.6330
   28.350    2.7593
   28.380    2.8436
   28.410    2.7488
   28.440    3.0437
   28.470    2.8225
   28.500    3.0753
   28.530    3.0648
   28.560    2.8963
   28.590    2.7172
   28.620    2.8857
   28.650    2.7804
   28.680    2.7699
   28.710    2.7172
   28.740    2.9279
   28.770    2.9489
   28.800    2.6224
   28.830    2.8436
   28.860    2.8541
   28.890    3.1280
   28.920    3.0858
   28.950    3.2227
   28.980    3.2438
   29.010    3.3491
   29.040    3.1701
   29.070    2.7593
   29.100    2.8436
   29.130    2.8120
   29.160    2.7278
   29.190    2.8857
   29.220    2.8541
   29.250    2.8752
   29.280    3.0542
   29.310    2.7067
   29.340    3.0226
   29.370    2.9595
   29.400    2.6014
   29.430    2.6856
   29.460    2.8857
   29.490    2.4961
   29.520    2.4539
   29.550    2.4961
   29.580    2.6330
   29.610    2.7804
   29.640    2.7804
   29.670    2.4961
   29.700    2.6224
   29.730    2.8331
   29.760    2.5592
   29.790    2.7488
   29.820    2.6856
   29.850    2.7172
   29.880    2.6330
   29.910    2.8331
   29.940    2.6646
   29.970    2.6435
   30.000    2.5908
   30.030    2.6646
   30.060    2.6856
   30.090    2.7488
   30.120    2.7699
   30.150    2.6751
   30.180    2.7593
   30.210    2.3907
   30.240    2.6540
   30.270    2.7383
   30.300    2.7488
   30.330    2.5171
   30.360    2.4223
   30.390    2.6119
   30.420    2.8436
   30.450    2.8963
   30.480    2.6751
   30.510    2.4118
   30.540    2.6435
   30.570    2.4855
   30.600    2.8541
   30.630    2.5066
   30.660    2.8857
   30.690    2.8331
   30.720    2.3170
   30.750    2.6962
   30.780    2.7172
   30.810    2.3381
   30.840    2.6962
   30.870    2.4539
   30.900    2.6119
   30.930    2.5908
   30.960    2.5382
   30.990    2.3486
   31.020    2.6435
   31.050    2.6119
   31.080    2.4434
   31.110    2.7488
   31.140    2.4961
   31.170    2.3697
   31.200    2.2959
   31.230    2.1801
   31.260    2.3802
   31.290    2.5803
   31.320    2.6330
   31.350    2.5803
   31.380    2.6119
   31.410    2.3697
   31.440    2.7067
   31.470    2.5066
   31.500    2.4013
   31.530    2.6014
   31.560    2.7172
   31.590    2.6330
   31.620    2.2959
   31.650    2.5487
   31.680    2.4645
   31.710    2.6751
   31.740    2.6330
   31.770    2.6435
   31.800    2.8015
   31.830    2.8120
   31.860    2.6751
   31.890    2.5066
   31.920    2.7488
   31.950    2.6646
   31.980    2.9384
   32.010    2.9068
   32.040    3.5071
   32.070    4.2865
   32.100    4.0969
   32.130    3.8336
   32.160    3.6124
   32.190    2.9173
   32.220    2.5908
   32.250    2.3591
   32.280    2.2117
   32.310    2.7593
   32.340    2.2117
   32.370    2.4855
   32.400    2.3907
   32.430    2.5592
   32.460    2.3802
   32.490    2.3065
   32.520    2.4118
   32.550    2.2643
   32.580    2.4855
   32.610    2.4013
   32.640    2.3486
   32.670    2.2433
   32.700    2.4645
   32.730    2.3170
   32.760    2.4434
   32.790    2.4434
   32.820    2.4223
   32.850    2.4855
   32.880    2.4961
   32.910    2.7699
   32.940    2.4013
   32.970    2.3486
   33.000    2.6751
   33.030    2.3697
   33.060    2.3697
   33.090    2.3275
   33.120    2.2959
   33.150    2.3697
   33.180    2.1801
   33.210    2.4961
   33.240    2.2012
   33.270    2.2433
   33.300    2.3591
   33.330    2.3170
   33.360    2.6646
   33.390    2.2222
   33.420    2.3065
   33.450    2.2012
   33.480    2.2012
   33.510    2.2433
   33.540    2.3275
   33.570    2.4118
   33.600    2.3170
   33.630    2.1696
   33.660    2.3381
   33.690    2.6224
   33.720    2.5908
   33.750    2.7488
   33.780    3.0121
   33.810    2.9910
   33.840    3.3175
   33.870    3.2122
   33.900    2.7699
   33.930    2.4539
   33.960    2.4645
   33.990    2.3697
   34.020    2.4539
   34.050    2.2643
   34.080    2.2959
   34.110    2.4329
   34.140    2.2433
   34.170    2.6330
   34.200    2.2433
   34.230    2.2538
   34.260    2.2854
   34.290    2.2538
   34.320    2.2854
   34.350    2.1696
   34.380    2.3697
   34.410    2.3697
   34.440    2.3486
   34.470    2.4961
   34.500    2.2854
   34.530    2.1696
   34.560    2.2749
   34.590    2.1064
   34.620    2.1380
   34.650    2.3591
   34.680    2.5066
   34.710    2.3697
   34.740    2.5487
   34.770    2.2117
   34.800    2.4539
   34.830    2.4434
   34.860    2.3697
   34.890    2.2749
   34.920    2.1696
   34.950    2.1169
   34.980    2.3697
   35.010    2.2959
   35.040    2.4013
   35.070    2.1590
   35.100    2.1064
   35.130    2.1906
   35.160    2.3591
   35.190    2.0748
   35.220    2.1169
   35.250    2.3065
   35.280    2.0748
   35.310    2.4118
   35.340    2.2328
   35.370    2.4961
   35.400    2.1801
   35.430    2.0748
   35.460    2.0642
   35.490    2.3275
   35.520    2.2222
   35.550    2.1906
   35.580    2.2959
   35.610    2.3591
   35.640    2.0958
   35.670    2.3486
   35.700    2.1906
   35.730    2.3486
   35.760    2.1801
   35.790    2.2959
   35.820    2.0537
   35.850    2.0326
   35.880    2.0116
   35.910    2.2328
   35.940    2.1696
   35.970    2.0326
   36.000    2.5171
   36.030    2.2433
   36.060    2.2538
   36.090    2.2433
   36.120    2.1906
   36.150    2.3381
   36.180    2.2012
   36.210    2.3065
   36.240    2.2117
   36.270    2.1274
   36.300    2.2012
   36.330    2.1801
   36.360    2.0011
   36.390    2.0748
   36.420    2.0221
   36.450    2.4223
   36.480    2.0432
   36.510    2.0011
   36.540    2.1274
   36.570    2.3170
   36.600    2.1696
   36.630    2.1274
   36.660    2.3170
   36.690    2.2959
   36.720    2.2117
   36.750    2.1380
   36.780    2.1906
   36.810    1.9484
   36.840    2.1380
   36.870    1.9273
   36.900    1.9379
   36.930    2.2328
   36.960    2.0853
   36.990    2.0011
   37.020    2.2222
   37.050    2.2222
   37.080    2.4329
   37.110    2.3697
   37.140    2.2328
   37.170    2.0537
   37.200    2.3697
   37.230    2.1274
   37.260    2.2749
   37.290    2.0958
   37.320    2.0642
   37.350    2.2117
   37.380    2.2959
   37.410    2.0537
   37.440    2.2117
   37.470    2.0432
   37.500    2.1485
   37.530    2.3907
   37.560    2.0537
   37.590    2.1696
   37.620    2.0853
   37.650    2.1274
   37.680    2.0326
   37.710    2.0432
   37.740    2.1064
   37.770    1.9905
   37.800    2.2328
   37.830    2.0642
   37.860    2.0116
   37.890    2.1906
   37.920    2.0326
   37.950    2.1064
   37.980    2.1801
   38.010    2.0642
   38.040    2.1906
   38.070    2.1380
   38.100    2.3275
   38.130    1.7904
   38.160    2.3591
   38.190    2.0853
   38.220    2.1590
   38.250    2.0326
   38.280    2.0116
   38.310    2.2222
   38.340    2.2222
   38.370    2.2012
   38.400    2.3275
   38.430    2.0958
   38.460    2.0011
   38.490    2.3486
   38.520    2.3802
   38.550    2.3275
   38.580    2.2854
   38.610    2.1696
   38.640    2.1485
   38.670    2.1696
   38.700    2.1906
   38.730    1.9695
   38.760    2.0432
   38.790    2.0326
   38.820    2.1169
   38.850    2.0326
   38.880    2.1485
   38.910    2.0011
   38.940    2.0116
   38.970    1.9484
   39.000    2.0116
   39.030    1.9905
   39.060    1.9695
   39.090    2.2117
   39.120    2.2538
   39.150    1.9905
   39.180    1.9484
   39.210    2.3065
   39.240    2.2222
   39.270    2.1485
   39.300    2.0958
   39.330    2.0432
   39.360    2.0432
   39.390    2.1485
   39.420    2.0642
   39.450    2.0432
   39.480    2.0011
   39.510    1.8957
   39.540    2.1064
   39.570    2.2328
   39.600    1.8957
   39.630    2.0958
   39.660    2.0958
   39.690    2.1274
   39.720    2.0221
   39.750    2.1801
   39.780    2.1380
   39.810    2.1590
   39.840    1.9484
   39.870    2.1590
   39.900    2.1064
   39.930    2.2222
   39.960    2.0221
   39.990    2.0642