File: data/MOCOF-1/PXRD/PXRD_KE-040_Cu-Ka1_film-3mm_5s-deg.xyd
    1.500    9.2522
    1.530    9.2417
    1.560    9.1732
    1.590    9.0258
    1.620    9.0574
    1.650    9.0311
    1.680    8.5571
    1.710    8.5835
    1.740    8.3465
    1.770    8.6783
    1.800    8.2622
    1.830    8.1253
    1.860    7.7778
    1.890    7.9463
    1.920    7.8094
    1.950    7.6672
    1.980    7.5935
    2.010    7.7357
    2.040    7.5777
    2.070    7.6251
    2.100    7.2933
    2.130    7.1143
    2.160    7.2249
    2.190    7.0827
    2.220    6.9721
    2.250    7.2196
    2.280    7.2038
    2.310    6.9774
    2.340    7.1301
    2.370    7.2143
    2.400    7.0142
    2.430    6.6140
    2.460    6.7509
    2.490    6.9194
    2.520    6.7720
    2.550    6.6825
    2.580    6.7878
    2.610    6.5982
    2.640    6.8194
    2.670    6.7193
    2.700    6.9089
    2.730    6.6193
    2.760    7.0458
    2.790    6.9668
    2.820    6.7930
    2.850    6.8615
    2.880    7.0616
    2.910    7.2091
    2.940    7.1406
    2.970    7.5355
    3.000    7.5513
    3.030    8.1306
    3.060    8.0937
    3.090    8.1569
    3.120    8.5677
    3.150    8.9679
    3.180    9.4945
    3.210   10.0053
    3.240   10.6319
    3.270   11.5377
    3.300   11.9537
    3.330   12.2854
    3.360   13.8863
    3.390   14.4339
    3.420   15.7715
    3.450   16.2770
    3.480   17.0669
    3.510   16.8878
    3.540   16.1664
    3.570   14.2970
    3.600   12.9595
    3.630   12.6593
    3.660   11.3586
    3.690   11.0953
    3.720   10.8583
    3.750   10.8268
    3.780   10.6003
    3.810   11.0058
    3.840   10.9057
    3.870   10.8636
    3.900   10.9847
    3.930   10.3160
    3.960    9.8631
    3.990    9.5577
    4.020    9.3102
    4.050    8.8889
    4.080    8.2096
    4.110    7.7409
    4.140    7.1459
    4.170    7.2143
    4.200    6.7351
    4.230    6.6614
    4.260    6.4086
    4.290    6.2138
    4.320    6.2928
    4.350    5.9031
    4.380    6.4613
    4.410    6.1032
    4.440    6.2612
    4.470    6.0190
    4.500    6.0979
    4.530    6.0927
    4.560    6.0874
    4.590    6.1927
    4.620    6.1243
    4.650    6.3454
    4.680    6.2349
    4.710    5.9874
    4.740    6.2401
    4.770    6.0874
    4.800    5.9189
    4.830    6.2507
    4.860    6.1032
    4.890    6.0506
    4.920    6.1295
    4.950    6.1295
    4.980    6.3138
    5.010    6.2823
    5.040    6.3560
    5.070    6.5350
    5.100    6.7141
    5.130    6.7404
    5.160    6.6825
    5.190    6.9668
    5.220    7.2459
    5.250    7.3670
    5.280    7.0827
    5.310    7.3881
    5.340    7.5145
    5.370    7.6145
    5.400    7.7199
    5.430    7.8041
    5.460    7.8673
    5.490    8.2938
    5.520    7.9989
    5.550    7.9831
    5.580    7.6777
    5.610    7.9358
    5.640    8.1148
    5.670    8.0147
    5.700    7.9937
    5.730    7.7199
    5.760    7.6356
    5.790    7.6935
    5.820    7.1195
    5.850    7.1143
    5.880    7.2459
    5.910    6.7825
    5.940    6.6298
    5.970    6.8141
    6.000    6.2033
    6.030    6.0453
    6.060    6.3296
    6.090    6.2401
    6.120    6.0979
    6.150    6.0558
    6.180    6.0506
    6.210    6.0979
    6.240    5.8031
    6.270    5.9084
    6.300    5.7504
    6.330    5.7399
    6.360    5.4976
    6.390    5.5134
    6.420    5.7293
    6.450    5.5134
    6.480    5.3923
    6.510    5.5608
    6.540    5.7451
    6.570    5.5082
    6.600    5.4713
    6.630    5.2080
    6.660    5.5134
    6.690    5.3923
    6.720    5.7083
    6.750    5.5398
    6.780    5.8978
    6.810    5.7609
    6.840    5.9768
    6.870    6.2033
    6.900    5.9558
    6.930    6.4560
    6.960    6.6509
    6.990    6.2823
    7.020    6.3928
    7.050    6.1243
    7.080    5.8347
    7.110    5.5082
    7.140    5.4292
    7.170    5.2343
    7.200    4.9289
    7.230    5.0184
    7.260    4.7288
    7.290    4.8394
    7.320    4.7235
    7.350    4.7973
    7.380    4.4971
    7.410    4.5340
    7.440    4.8183
    7.470    4.5498
    7.500    4.5972
    7.530    4.4971
    7.560    4.6077
    7.590    4.4181
    7.620    4.6445
    7.650    4.9131
    7.680    4.6603
    7.710    4.6603
    7.740    4.7973
    7.770    4.9500
    7.800    4.7130
    7.830    4.7077
    7.860    4.7815
    7.890    4.4339
    7.920    4.8552
    7.950    4.6024
    7.980    4.3918
    8.010    4.6340
    8.040    4.3760
    8.070    4.1654
    8.100    4.1548
    8.130    4.1969
    8.160    4.0179
    8.190    4.0284
    8.220    4.0442
    8.250    3.8810
    8.280    4.1548
    8.310    4.0758
    8.340    3.6914
    8.370    3.7125
    8.400    3.7704
    8.430    3.6756
    8.460    3.8073
    8.490    3.5440
    8.520    3.5018
    8.550    3.4755
    8.580    3.7704
    8.610    3.5176
    8.640    3.5598
    8.670    3.5914
    8.700    3.7230
    8.730    3.5387
    8.760    3.5387
    8.790    3.6335
    8.820    3.6651
    8.850    3.5282
    8.880    3.4860
    8.910    3.5387
    8.940    3.6072
    8.970    3.4439
    9.000    3.5176
    9.030    3.4860
    9.060    3.4702
    9.090    3.6704
    9.120    3.3439
    9.150    3.5492
    9.180    3.4597
    9.210    3.4966
    9.240    3.4544
    9.270    3.4860
    9.300    3.5650
    9.330    3.2385
    9.360    3.1069
    9.390    3.5966
    9.420    3.4229
    9.450    3.3386
    9.480    3.3913
    9.510    3.2070
    9.540    3.6335
    9.570    3.3913
    9.600    3.3860
    9.630    3.2965
    9.660    3.4176
    9.690    3.4808
    9.720    3.4650
    9.750    3.4123
    9.780    3.2385
    9.810    3.2965
    9.840    3.3597
    9.870    3.4387
    9.900    3.3491
    9.930    3.3123
    9.960    3.4229
    9.990    3.3333
   10.020    3.4597
   10.050    3.4387
   10.080    3.4544
   10.110    3.5176
   10.140    3.3017
   10.170    3.4755
   10.200    3.3755
   10.230    3.3649
   10.260    3.3281
   10.290    3.3702
   10.320    3.6230
   10.350    3.5387
   10.380    3.4492
   10.410    3.3597
   10.440    3.6493
   10.470    3.2543
   10.500    3.5124
   10.530    3.5071
   10.560    3.5334
   10.590    3.6546
   10.620    3.5387
   10.650    3.5756
   10.680    3.5808
   10.710    3.6862
   10.740    3.7125
   10.770    3.4966
   10.800    3.5176
   10.830    3.5756
   10.860    3.8389
   10.890    3.6072
   10.920    3.7704
   10.950    3.5387
   10.980    3.7967
   11.010    3.5808
   11.040    3.8283
   11.070    3.3860
   11.100    3.6756
   11.130    3.8599
   11.160    3.6177
   11.190    3.7125
   11.220    3.6862
   11.250    3.7493
   11.280    3.6704
   11.310    3.7335
   11.340    3.6177
   11.370    3.7441
   11.400    3.6072
   11.430    3.8231
   11.460    3.7335
   11.490    3.7177
   11.520    3.6335
   11.550    3.8231
   11.580    3.7335
   11.610    3.5492
   11.640    3.5861
   11.670    3.6598
   11.700    3.6546
   11.730    3.6388
   11.760    3.6809
   11.790    3.6019
   11.820    3.5229
   11.850    3.5440
   11.880    3.5808
   11.910    3.8599
   11.940    3.6914
   11.970    3.4492
   12.000    3.4597
   12.030    3.5018
   12.060    3.4966
   12.090    3.3386
   12.120    3.5598
   12.150    3.4334
   12.180    3.4650
   12.210    3.5598
   12.240    3.5071
   12.270    3.5861
   12.300    3.4018
   12.330    3.3175
   12.360    3.4755
   12.390    3.3491
   12.420    3.4439
   12.450    3.3860
   12.480    3.2754
   12.510    3.6967
   12.540    3.5018
   12.570    3.5124
   12.600    3.4071
   12.630    3.4018
   12.660    3.5492
   12.690    3.2333
   12.720    3.5545
   12.750    3.4597
   12.780    3.4018
   12.810    3.4229
   12.840    3.3017
   12.870    3.2017
   12.900    3.5492
   12.930    3.2385
   12.960    3.3860
   12.990    3.2122
   13.020    3.2649
   13.050    3.4808
   13.080    3.4860
   13.110    3.4755
   13.140    3.2227
   13.170    3.2491
   13.200    3.3123
   13.230    3.3175
   13.260    3.4650
   13.290    3.3649
   13.320    3.3386
   13.350    3.1438
   13.380    3.3228
   13.410    3.3070
   13.440    3.5018
   13.470    3.6493
   13.500    3.2965
   13.530    3.1912
   13.560    3.5071
   13.590    3.4387
   13.620    3.4755
   13.650    3.3860
   13.680    3.5229
   13.710    3.4597
   13.740    3.4860
   13.770    3.2807
   13.800    3.4492
   13.830    3.2649
   13.860    3.4018
   13.890    3.4702
   13.920    3.4808
   13.950    3.6493
   13.980    3.3386
   14.010    3.4176
   14.040    3.5229
   14.070    3.4492
   14.100    3.6072
   14.130    3.7230
   14.160    3.6809
   14.190    3.6862
   14.220    3.6335
   14.250    3.6124
   14.280    3.9231
   14.310    3.8231
   14.340    3.8283
   14.370    3.7651
   14.400    3.6809
   14.430    3.8441
   14.460    3.7177
   14.490    3.8283
   14.520    3.5861
   14.550    3.8652
   14.580    3.7862
   14.610    3.6809
   14.640    3.6019
   14.670    3.8073
   14.700    3.5598
   14.730    3.4966
   14.760    3.5018
   14.790    3.4439
   14.820    3.6809
   14.850    3.3386
   14.880    3.5018
   14.910    3.5914
   14.940    3.2122
   14.970    3.5282
   15.000    3.6177
   15.030    3.5334
   15.060    3.5492
   15.090    3.5650
   15.120    3.2491
   15.150    3.4860
   15.180    3.4071
   15.210    3.4176
   15.240    3.5650
   15.270    3.3965
   15.300    3.2017
   15.330    3.4966
   15.360    3.4755
   15.390    3.2280
   15.420    3.4702
   15.450    3.5545
   15.480    3.4071
   15.510    3.3491
   15.540    3.3965
   15.570    3.2070
   15.600    3.2807
   15.630    3.4229
   15.660    3.3860
   15.690    3.2754
   15.720    3.4650
   15.750    3.2649
   15.780    3.3333
   15.810    3.3439
   15.840    3.4544
   15.870    3.2912
   15.900    3.3860
   15.930    3.3913
   15.960    3.3702
   15.990    3.4387
   16.020    3.2070
   16.050    3.2227
   16.080    3.1280
   16.110    3.4966
   16.140    3.4808
   16.170    3.4387
   16.200    3.3175
   16.230    3.4123
   16.260    3.3913
   16.290    3.4439
   16.320    3.1964
   16.350    3.1438
   16.380    3.4018
   16.410    3.3913
   16.440    3.4913
   16.470    3.2385
   16.500    3.3281
   16.530    3.0911
   16.560    3.3070
   16.590    3.1859
   16.620    3.1859
   16.650    3.1122
   16.680    3.4913
   16.710    3.3491
   16.740    3.2701
   16.770    3.3965
   16.800    3.4492
   16.830    3.2017
   16.860    3.3913
   16.890    3.3755
   16.920    3.3175
   16.950    3.2912
   16.980    3.2754
   17.010    3.3597
   17.040    3.6493
   17.070    3.4334
   17.100    3.4281
   17.130    3.2754
   17.160    3.2859
   17.190    3.1701
   17.220    3.2070
   17.250    3.4334
   17.280    3.2543
   17.310    3.3597
   17.340    3.4755
   17.370    3.3755
   17.400    3.2070
   17.430    3.3597
   17.460    3.1227
   17.490    3.3123
   17.520    3.1701
   17.550    3.0700
   17.580    3.2543
   17.610    3.3333
   17.640    3.3123
   17.670    3.1754
   17.700    3.3175
   17.730    3.3386
   17.760    3.2807
   17.790    2.9700
   17.820    3.1543
   17.850    3.2965
   17.880    3.3333
   17.910    3.1332
   17.940    3.2701
   17.970    3.2491
   18.000    3.2491
   18.030    3.2701
   18.060    3.1964
   18.090    3.1385
   18.120    3.2649
   18.150    3.2175
   18.180    3.0648
   18.210    3.2859
   18.240    3.1438
   18.270    3.1174
   18.300    3.2965
   18.330    3.1438
   18.360    3.1016
   18.390    3.1490
   18.420    3.3544
   18.450    3.3017
   18.480    3.1069
   18.510    3.2017
   18.540    3.1596
   18.570    3.1174
   18.600    3.1385
   18.630    3.2385
   18.660    3.0806
   18.690    3.0753
   18.720    3.0964
   18.750    3.2543
   18.780    3.0332
   18.810    3.2754
   18.840    3.1438
   18.870    3.1438
   18.900    3.1332
   18.930    3.1859
   18.960    3.0490
   18.990    3.2807
   19.020    3.2280
   19.050    3.2280
   19.080    3.2649
   19.110    3.3228
   19.140    3.2122
   19.170    3.1122
   19.200    3.0068
   19.230    3.2491
   19.260    3.1016
   19.290    3.0332
   19.320    3.0016
   19.350    3.0542
   19.380    2.9700
   19.410    3.1385
   19.440    3.1227
   19.470    3.0226
   19.500    2.9858
   19.530    3.1596
   19.560    3.0437
   19.590    3.0332
   19.620    3.1280
   19.650    3.3544
   19.680    3.2122
   19.710    3.1754
   19.740    2.7225
   19.770    3.3123
   19.800    2.9489
   19.830    3.0911
   19.860    2.8489
   19.890    3.0332
   19.920    3.0384
   19.950    3.0332
   19.980    2.9647
   20.010    2.8173
   20.040    3.0648
   20.070    2.9858
   20.100    2.9753
   20.130    2.8699
   20.160    3.0068
   20.190    2.9910
   20.220    3.0121
   20.250    2.9279
   20.280    2.7962
   20.310    3.0753
   20.340    2.9753
   20.370    3.1122
   20.400    2.8963
   20.430    3.0595
   20.460    2.9910
   20.490    2.9384
   20.520    2.9173
   20.550    2.8436
   20.580    2.8699
   20.610    2.9384
   20.640    2.9226
   20.670    2.7699
   20.700    2.9384
   20.730    3.0279
   20.760    2.7751
   20.790    2.8015
   20.820    2.9226
   20.850    2.8752
   20.880    3.0384
   20.910    2.7962
   20.940    2.8225
   20.970    2.7067
   21.000    2.8857
   21.030    2.7909
   21.060    3.0174
   21.090    2.9384
   21.120    2.9753
   21.150    2.9331
   21.180    2.8752
   21.210    2.7909
   21.240    2.8647
   21.270    2.9489
   21.300    2.8173
   21.330    2.8594
   21.360    2.9279
   21.390    2.7646
   21.420    2.9489
   21.450    2.7804
   21.480    2.7383
   21.510    2.8173
   21.540    2.7699
   21.570    2.8278
   21.600    2.8067
   21.630    2.9173
   21.660    2.8541
   21.690    2.8015
   21.720    2.7225
   21.750    2.8436
   21.780    2.6698
   21.810    2.7646
   21.840    2.7488
   21.870    2.7909
   21.900    2.9226
   21.930    2.5961
   21.960    2.7067
   21.990    2.9331
   22.020    2.8489
   22.050    2.8120
   22.080    2.6172
   22.110    2.8120
   22.140    2.6909
   22.170    2.5592
   22.200    2.7278
   22.230    2.8805
   22.260    2.7909
   22.290    2.8383
   22.320    2.7909
   22.350    2.7172
   22.380    2.8278
   22.410    2.6540
   22.440    2.6382
   22.470    2.7541
   22.500    2.5856
   22.530    2.5750
   22.560    2.5224
   22.590    2.5066
   22.620    2.5698
   22.650    2.8383
   22.680    2.6382
   22.710    2.7172
   22.740    2.6698
   22.770    2.6540
   22.800    2.7014
   22.830    2.6119
   22.860    2.4276
   22.890    2.5066
   22.920    2.7383
   22.950    2.7067
   22.980    2.5224
   23.010    2.4961
   23.040    2.6066
   23.070    2.5434
   23.100    2.4592
   23.130    2.5698
   23.160    2.7541
   23.190    2.5487
   23.220    2.3749
   23.250    2.7172
   23.280    2.5803
   23.310    2.6014
   23.340    2.4381
   23.370    2.4645
   23.400    2.3855
   23.430    2.5592
   23.460    2.5329
   23.490    2.7383
   23.520    2.4592
   23.550    2.4223
   23.580    2.4645
   23.610    2.4329
   23.640    2.4697
   23.670    2.4908
   23.700    2.7120
   23.730    2.4065
   23.760    2.5224
   23.790    2.6014
   23.820    2.4171
   23.850    2.3328
   23.880    2.4118
   23.910    2.4908
   23.940    2.3960
   23.970    2.4645
   24.000    2.4276
   24.030    2.4487
   24.060    2.2643
   24.090    2.4592
   24.120    2.4539
   24.150    2.3433
   24.180    2.3328
   24.210    2.2907
   24.240    2.3802
   24.270    2.5118
   24.300    2.4223
   24.330    2.4276
   24.360    2.4171
   24.390    2.2643
   24.420    2.4697
   24.450    2.4013
   24.480    2.2907
   24.510    2.2801
   24.540    2.3381
   24.570    2.1959
   24.600    2.2275
   24.630    2.3802
   24.660    2.4961
   24.690    2.3170
   24.720    2.4908
   24.750    2.3275
   24.780    2.3170
   24.810    2.2486
   24.840    2.2328
   24.870    2.2591
   24.900    2.4118
   24.930    2.2538
   24.960    2.3381
   24.990    2.2170
   25.020    2.1959
   25.050    2.3697
   25.080    2.2012
   25.110    2.3697
   25.140    2.3065
   25.170    2.2222
   25.200    2.3960
   25.230    2.2591
   25.260    2.2696
   25.290    2.4013
   25.320    2.3644
   25.350    2.2380
   25.380    2.3697
   25.410    2.1748
   25.440    2.3697
   25.470    2.1380
   25.500    2.3275
   25.530    2.2749
   25.560    2.1538
   25.590    2.1538
   25.620    2.1274
   25.650    2.2117
   25.680    2.1854
   25.710    2.1854
   25.740    2.1906
   25.770    2.2275
   25.800    2.1169
   25.830    2.1485
   25.860    2.0748
   25.890    2.1854
   25.920    2.1380
   25.950    2.1274
   25.980    2.1274
   26.010    2.2275
   26.040    2.1801
   26.070    2.2012
   26.100    2.0011
   26.130    2.1696
   26.160    2.1432
   26.190    2.0221
   26.220    2.0432
   26.250    2.2433
   26.280    2.0484
   26.310    2.0379
   26.340    2.1169
   26.370    2.1906
   26.400    2.0958
   26.430    2.2380
   26.460    2.0642
   26.490    2.1011
   26.520    2.1169
   26.550    2.0958
   26.580    2.0800
   26.610    2.0326
   26.640    2.0011
   26.670    1.9326
   26.700    2.0274
   26.730    2.1696
   26.760    2.0748
   26.790    2.2064
   26.820    2.1485
   26.850    1.9905
   26.880    2.2170
   26.910    2.0695
   26.940    1.9326
   26.970    2.1064
   27.000    2.0326
   27.030    2.0063
   27.060    2.0116
   27.090    1.9905
   27.120    2.2064
   27.150    1.9063
   27.180    2.0537
   27.210    2.0958
   27.240    2.0432
   27.270    1.8694
   27.300    1.9853
   27.330    2.0800
   27.360    2.1064
   27.390    1.9168
   27.420    1.8431
   27.450    2.1222
   27.480    1.8852
   27.510    1.9958
   27.540    2.0432
   27.570    2.0537
   27.600    1.9115
   27.630    1.8747
   27.660    2.0011
   27.690    1.9537
   27.720    1.9273
   27.750    2.0906
   27.780    1.7957
   27.810    1.9431
   27.840    2.0484
   27.870    1.8852
   27.900    2.0906
   27.930    1.9063
   27.960    1.9273
   27.990    2.0274
   28.020    1.7694
   28.050    1.9484
   28.080    1.9273
   28.110    1.9273
   28.140    1.9221
   28.170    1.9431
   28.200    1.8325
   28.230    1.7272
   28.260    1.8852
   28.290    1.9747
   28.320    1.6166
   28.350    1.8852
   28.380    1.7957
   28.410    1.9958
   28.440    1.7483
   28.470    1.8905
   28.500    1.8220
   28.530    1.9379
   28.560    1.8905
   28.590    1.8641
   28.620    1.8009
   28.650    2.0169
   28.680    1.9115
   28.710    1.9115
   28.740    1.8536
   28.770    1.8799
   28.800    1.9695
   28.830    1.8694
   28.860    2.0116
   28.890    1.9168
   28.920    1.9168
   28.950    1.9642
   28.980    1.8273
   29.010    1.9642
   29.040    1.8009
   29.070    1.8536
   29.100    1.8589
   29.130    2.0958
   29.160    1.6640
   29.190    1.8957
   29.220    1.8957
   29.250    1.9115
   29.280    1.8799
   29.310    1.7430
   29.340    1.9168
   29.370    1.8799
   29.400    1.8062
   29.430    1.6798
   29.460    1.6272
   29.490    1.7483
   29.520    1.6430
   29.550    1.7325
   29.580    1.6272
   29.610    1.6114
   29.640    1.6377
   29.670    1.5166
   29.700    1.6114
   29.730    1.6061
   29.760    1.6640
   29.790    1.6482
   29.820    1.5534
   29.850    1.6166
   29.880    1.5903
   29.910    1.5587
   29.940    1.5850
   29.970    1.5692
   30.000    1.6219
   30.030    1.7062
   30.060    1.7220
   30.090    1.7325
   30.120    1.7430
   30.150    1.5061
   30.180    1.4587
   30.210    1.6061
   30.240    1.5640
   30.270    1.5061
   30.300    1.5798
   30.330    1.5271
   30.360    1.5798
   30.390    1.5482
   30.420    1.6166
   30.450    1.5166
   30.480    1.6377
   30.510    1.4797
   30.540    1.5956
   30.570    1.4481
   30.600    1.5271
   30.630    1.5482
   30.660    1.5587
   30.690    1.5166
   30.720    1.6061
   30.750    1.5166
   30.780    1.5324
   30.810    1.4376
   30.840    1.6166
   30.870    1.5429
   30.900    1.6008
   30.930    1.5377
   30.960    1.5324
   30.990    1.5482
   31.020    1.5008
   31.050    1.5061
   31.080    1.4429
   31.110    1.4797
   31.140    1.2796
   31.170    1.5219
   31.200    1.2533
   31.230    1.3428
   31.260    1.6219
   31.290    1.4113
   31.320    1.4745
   31.350    1.3744
   31.380    1.4429
   31.410    1.4113
   31.440    1.4376
   31.470    1.4007
   31.500    1.4218
   31.530    1.4113
   31.560    1.4534
   31.590    1.3639
   31.620    1.4113
   31.650    1.4376
   31.680    1.4850
   31.710    1.3797
   31.740    1.3375
   31.770    1.3955
   31.800    1.5166
   31.830    1.3797
   31.860    1.3270
   31.890    1.2638
   31.920    1.4587
   31.950    1.4165
   31.980    1.4060
   32.010    1.3586
   32.040    1.3586
   32.070    1.4113
   32.100    1.2902
   32.130    1.3639
   32.160    1.2691
   32.190    1.4323
   32.220    1.3797
   32.250    1.3533
   32.280    1.2954
   32.310    1.4113
   32.340    1.4060
   32.370    1.2322
   32.400    1.3060
   32.430    1.4692
   32.460    1.3112
   32.490    1.2533
   32.520    1.3217
   32.550    1.4376
   32.580    1.2059
   32.610    1.2954
   32.640    1.3217
   32.670    1.3428
   32.700    1.3007
   32.730    1.2217
   32.760    1.3323
   32.790    1.3481
   32.820    1.4218
   32.850    1.2112
   32.880    1.3481
   32.910    1.3112
   32.940    1.1848
   32.970    1.2744
   33.000    1.2638
   33.030    1.3217
   33.060    1.2533
   33.090    1.0479
   33.120    1.2744
   33.150    1.2428
   33.180    1.3007
   33.210    1.2586
   33.240    1.2428
   33.270    1.3112
   33.300    1.2428
   33.330    1.3375
   33.360    1.2270
   33.390    1.3165
   33.420    1.3744
   33.450    1.1532
   33.480    1.1848
   33.510    1.2796
   33.540    1.1848
   33.570    1.2744
   33.600    1.3217
   33.630    1.1058
   33.660    1.2902
   33.690    1.1796
   33.720    1.2586
   33.750    1.1058
   33.780    1.2164
   33.810    1.3060
   33.840    1.2217
   33.870    1.0690
   33.900    1.2217
   33.930    1.2059
   33.960    1.2796
   33.990    1.2112
   34.020    1.1954
   34.050    1.2480
   34.080    1.1427
   34.110    1.1901
   34.140    1.1532
   34.170    1.2691
   34.200    1.1796
   34.230    1.1374
   34.260    1.3007
   34.290    1.2428
   34.320    1.1322
   34.350    1.1585
   34.380    1.2428
   34.410    1.1585
   34.440    1.2428
   34.470    1.2480
   34.500    1.2849
   34.530    1.1111
   34.560    1.2164
   34.590    1.1690
   34.620    1.2059
   34.650    1.1901
   34.680    1.1901
   34.710    1.1796
   34.740    1.1585
   34.770    1.2322
   34.800    1.2217
   34.830    1.2849
   34.860    1.1796
   34.890    1.2059
   34.920    1.2586
   34.950    1.2375
   34.980    1.1743
   35.010    1.1585
   35.040    1.0216
   35.070    1.2270
   35.100    1.1480
   35.130    1.2428
   35.160    1.2428
   35.190    1.1480
   35.220    1.1269
   35.250    1.0742
   35.280    1.2164
   35.310    1.3060
   35.340    1.2059
   35.370    1.1269
   35.400    1.2059
   35.430    1.1216
   35.460    1.1954
   35.490    1.1954
   35.520    1.1690
   35.550    1.1690
   35.580    1.1690
   35.610    1.1374
   35.640    1.1532
   35.670    1.1164
   35.700    1.2112
   35.730    1.1322
   35.760    1.0742
   35.790    1.1322
   35.820    1.0795
   35.850    1.0742
   35.880    1.2270
   35.910    1.1638
   35.940    1.1585
   35.970    1.2059
   36.000    1.2533
   36.030    1.1111
   36.060    1.2112
   36.090    1.1216
   36.120    1.1006
   36.150    1.1690
   36.180    1.2480
   36.210    1.2217
   36.240    1.1638
   36.270    1.1848
   36.300    1.0532
   36.330    1.2059
   36.360    1.1480
   36.390    1.1322
   36.420    1.2006
   36.450    1.1427
   36.480    1.1638
   36.510    1.1954
   36.540    1.2164
   36.570    1.1743
   36.600    1.1585
   36.630    1.2164
   36.660    1.2217
   36.690    1.0848
   36.720    1.0269
   36.750    1.0795
   36.780    1.1374
   36.810    1.2954
   36.840    1.0848
   36.870    1.1058
   36.900    1.1796
   36.930    1.0058
   36.960    1.0269
   36.990    1.1374
   37.020    1.1480
   37.050    1.2480
   37.080    1.0637
   37.110    1.0848
   37.140    1.0795
   37.170    1.1269
   37.200    1.1006
   37.230    1.1374
   37.260    1.0532
   37.290    1.0269
   37.320    1.1269
   37.350    1.0637
   37.380    1.2744
   37.410    1.0848
   37.440    1.0005
   37.470    1.1480
   37.500    1.1269
   37.530    1.1322
   37.560    1.1480
   37.590    1.0900
   37.620    1.1006
   37.650    1.1322
   37.680    1.1585
   37.710    1.0795
   37.740    1.0795
   37.770    1.1532
   37.800    1.2322
   37.830    1.1322
   37.860    1.1480
   37.890    1.0637
   37.920    1.0374
   37.950    1.0795
   37.980    1.0795
   38.010    1.2217
   38.040    1.1374
   38.070    1.0532
   38.100    1.1216
   38.130    1.1585
   38.160    1.1322
   38.190    1.0163
   38.220    1.0216
   38.250    1.1269
   38.280    1.1111
   38.310    1.1164
   38.340    1.1796
   38.370    1.0058
   38.400    1.0848
   38.430    0.9637
   38.460    1.1006
   38.490    1.0690
   38.520    1.2006
   38.550    1.0585
   38.580    1.1743
   38.610    1.0690
   38.640    1.1269
   38.670    1.0216
   38.700    1.0427
   38.730    1.0900
   38.760    1.0374
   38.790    1.1269
   38.820    1.1532
   38.850    1.1269
   38.880    1.0690
   38.910    1.1743
   38.940    0.9795
   38.970    1.0427
   39.000    0.9584
   39.030    1.1322
   39.060    0.9847
   39.090    1.0953
   39.120    1.1374
   39.150    1.0321
   39.180    0.9426
   39.210    1.0216
   39.240    1.0374
   39.270    1.0953
   39.300    0.9847
   39.330    0.9689
   39.360    1.0163
   39.390    1.1269
   39.420    1.0111
   39.450    1.0163
   39.480    1.0321
   39.510    1.0111
   39.540    1.0900
   39.570    1.0163
   39.600    1.0742
   39.630    1.0269
   39.660    1.0953
   39.690    1.0216
   39.720    1.0374
   39.750    1.1006
   39.780    0.9900
   39.810    1.0479
   39.840    0.8952
   39.870    0.9953
   39.900    0.9900
   39.930    0.9584
   39.960    1.0427
   39.990    1.1058