File: data/MOCOF-1/PXRD/PXRD_KE-069_Cu-Ka1_capillary-1mm_5s-deg.xyd
    1.500   16.1032
    1.530   16.0927
    1.560   15.1343
    1.590   15.0606
    1.620   14.4392
    1.650   14.5972
    1.680   14.7025
    1.710   14.5445
    1.740   14.2917
    1.770   13.7967
    1.800   13.9758
    1.830   14.0916
    1.860   13.0490
    1.890   13.2912
    1.920   13.2491
    1.950   12.9963
    1.980   13.1227
    2.010   12.7646
    2.040   12.7436
    2.070   13.3755
    2.100   12.8278
    2.130   13.1016
    2.160   13.2385
    2.190   12.9121
    2.220   13.3965
    2.250   12.9542
    2.280   13.5229
    2.310   13.8073
    2.340   13.7125
    2.370   14.0600
    2.400   14.4708
    2.430   14.1654
    2.460   14.6393
    2.490   14.9342
    2.520   15.7241
    2.550   15.3239
    2.580   15.1448
    2.610   16.1243
    2.640   17.3038
    2.670   17.7357
    2.700   17.4302
    2.730   18.4729
    2.760   18.1359
    2.790   19.3681
    2.820   19.8104
    2.850   20.4423
    2.880   21.6956
    2.910   23.0964
    2.940   23.5387
    2.970   24.6972
    3.000   25.2659
    3.030   27.6461
    3.060   28.8784
    3.090   29.8578
    3.120   31.8167
    3.150   33.6598
    3.180   35.2396
    3.210   38.2517
    3.240   40.7583
    3.270   44.3707
    3.300   46.5508
    3.330   51.9853
    3.360   55.9242
    3.390   61.7904
    3.420   67.2880
    3.450   73.1754
    3.480   76.2507
    3.510   73.5334
    3.540   69.6893
    3.570   60.5371
    3.600   52.3855
    3.630   46.0874
    3.660   41.9695
    3.690   39.0627
    3.720   38.6625
    3.750   39.6103
    3.780   39.3997
    3.810   40.8847
    3.840   44.8236
    3.870   48.9205
    3.900   54.1443
    3.930   52.5119
    3.960   41.4955
    3.990   32.0379
    4.020   30.3844
    4.050   29.5103
    4.080   26.8246
    4.110   25.6240
    4.140   24.0126
    4.170   23.2227
    4.200   21.1480
    4.230   19.2417
    4.260   17.9989
    4.290   16.6298
    4.320   15.4081
    4.350   13.6493
    4.380   12.6593
    4.410   12.2170
    4.440   11.1216
    4.470   10.2159
    4.500    9.8999
    4.530    9.5840
    4.560    9.5629
    4.590    8.9310
    4.620    8.0463
    4.650    8.2043
    4.680    8.0147
    4.710    7.2775
    4.740    7.4776
    4.770    7.6145
    4.800    7.0142
    4.830    6.6877
    4.860    6.8036
    4.890    6.3612
    4.920    6.8773
    4.950    6.4876
    4.980    6.5403
    5.010    6.5403
    5.040    6.6245
    5.070    6.1085
    5.100    6.3928
    5.130    6.2138
    5.160    6.3191
    5.190    6.1506
    5.220    6.5824
    5.250    6.5508
    5.280    6.5929
    5.310    6.7299
    5.340    7.3512
    5.370    7.1301
    5.400    7.3512
    5.430    7.9094
    5.460    8.4887
    5.490   10.1527
    5.520   11.5008
    5.550   10.4160
    5.580    8.0569
    5.610    5.7609
    5.640    4.9500
    5.670    4.7393
    5.700    5.0448
    5.730    5.0974
    5.760    4.8657
    5.790    4.8552
    5.820    5.0237
    5.850    4.7077
    5.880    4.7604
    5.910    4.9078
    5.940    5.1606
    5.970    4.9078
    6.000    4.8236
    6.030    5.0764
    6.060    4.9394
    6.090    5.2027
    6.120    4.8341
    6.150    5.0237
    6.180    5.0132
    6.210    5.2238
    6.240    4.7815
    6.270    5.2343
    6.300    5.2659
    6.330    5.1395
    6.360    5.5819
    6.390    5.5082
    6.420    5.3081
    6.450    5.5398
    6.480    5.2554
    6.510    5.7925
    6.540    6.0032
    6.570    6.0558
    6.600    6.4034
    6.630    6.6667
    6.660    6.8352
    6.690    7.3091
    6.720    7.3828
    6.750    8.3518
    6.780    8.9415
    6.810    8.7836
    6.840    8.5413
    6.870    8.4781
    6.900    8.8257
    6.930   10.6056
    6.960   10.3212
    6.990   10.6372
    7.020    9.8157
    7.050    9.7314
    7.080    8.2886
    7.110    8.6467
    7.140    7.0142
    7.170    6.6983
    7.200    6.5508
    7.230    5.9505
    7.260    6.0874
    7.290    5.9294
    7.320    5.6661
    7.350    5.4871
    7.380    5.6451
    7.410    5.9400
    7.440    5.4871
    7.470    5.5608
    7.500    5.8768
    7.530    5.4660
    7.560    5.6872
    7.590    5.8136
    7.620    5.9926
    7.650    6.0664
    7.680    5.9505
    7.710    6.2033
    7.740    6.4455
    7.770    6.3718
    7.800    7.0669
    7.830    7.3302
    7.860    7.1722
    7.890    6.6772
    7.920    6.5613
    7.950    6.4560
    7.980    6.8141
    8.010    6.9405
    8.040    6.0979
    8.070    6.4982
    8.100    6.7615
    8.130    6.9089
    8.160    6.5508
    8.190    6.7299
    8.220    6.6877
    8.250    6.3191
    8.280    6.0453
    8.310    6.1717
    8.340    6.1611
    8.370    6.6561
    8.400    6.1611
    8.430    6.0664
    8.460    5.9400
    8.490    5.8347
    8.520    5.7399
    8.550    5.6029
    8.580    5.5714
    8.610    5.3712
    8.640    5.3081
    8.670    5.2659
    8.700    5.4344
    8.730    5.1606
    8.760    5.1395
    8.790    5.3081
    8.820    4.9605
    8.850    5.1817
    8.880    4.7288
    8.910    5.0237
    8.940    4.6867
    8.970    4.6867
    9.000    4.5708
    9.030    4.9078
    9.060    5.0974
    9.090    4.6445
    9.120    4.7709
    9.150    4.3707
    9.180    4.7077
    9.210    4.8341
    9.240    4.7499
    9.270    4.4655
    9.300    4.2970
    9.330    4.6551
    9.360    4.7499
    9.390    4.8763
    9.420    4.9605
    9.450    5.3291
    9.480    4.9710
    9.510    5.4976
    9.540    6.0032
    9.570    6.7615
    9.600    6.9932
    9.630    6.4244
    9.660    4.9184
    9.690    4.2759
    9.720    4.9184
    9.750    4.5182
    9.780    4.6130
    9.810    4.6656
    9.840    4.1811
    9.870    4.4023
    9.900    4.0969
    9.930    4.1285
    9.960    4.3918
    9.990    4.3075
   10.020    4.3602
   10.050    4.6024
   10.080    4.4023
   10.110    4.3813
   10.140    4.3391
   10.170    4.5076
   10.200    4.7393
   10.230    4.7815
   10.260    4.7393
   10.290    5.1711
   10.320    5.3291
   10.350    5.2765
   10.380    5.2765
   10.410    5.0658
   10.440    4.8868
   10.470    4.8552
   10.500    4.7288
   10.530    4.5076
   10.560    4.5814
   10.590    4.4234
   10.620    4.0969
   10.650    4.3497
   10.680    4.6235
   10.710    4.2338
   10.740    4.1390
   10.770    4.4234
   10.800    4.4234
   10.830    4.0442
   10.860    4.2970
   10.890    4.0758
   10.920    4.6867
   10.950    4.3286
   10.980    4.4023
   11.010    4.6130
   11.040    4.6761
   11.070    5.0448
   11.100    4.9816
   11.130    4.8236
   11.160    4.4128
   11.190    4.0442
   11.220    4.1390
   11.250    4.4234
   11.280    4.2970
   11.310    4.3918
   11.340    4.4023
   11.370    4.3181
   11.400    4.3918
   11.430    4.6656
   11.460    4.3181
   11.490    4.2022
   11.520    4.2759
   11.550    4.2865
   11.580    4.6235
   11.610    4.5498
   11.640    4.6445
   11.670    4.5182
   11.700    4.9921
   11.730    5.1606
   11.760    5.6240
   11.790    4.7393
   11.820    4.7288
   11.850    4.5814
   11.880    4.4023
   11.910    4.4655
   11.940    4.3286
   11.970    4.5287
   12.000    4.5814
   12.030    4.7393
   12.060    4.5182
   12.090    4.1811
   12.120    4.8236
   12.150    4.4023
   12.180    4.3286
   12.210    4.0548
   12.240    4.5392
   12.270    4.4655
   12.300    4.3075
   12.330    4.3181
   12.360    4.7920
   12.390    4.8131
   12.420    4.3391
   12.450    4.4971
   12.480    4.6972
   12.510    4.2759
   12.540    4.7288
   12.570    4.4866
   12.600    4.4760
   12.630    4.6340
   12.660    4.6024
   12.690    4.3181
   12.720    4.3497
   12.750    4.5392
   12.780    4.6656
   12.810    4.2233
   12.840    4.3707
   12.870    4.4971
   12.900    4.6130
   12.930    4.3813
   12.960    5.0026
   12.990    5.2343
   13.020    5.1080
   13.050    4.6867
   13.080    4.4444
   13.110    4.2759
   13.140    4.2759
   13.170    4.0126
   13.200    4.2970
   13.230    4.4971
   13.260    4.4655
   13.290    4.6130
   13.320    4.3181
   13.350    4.2443
   13.380    4.0442
   13.410    4.3075
   13.440    4.5603
   13.470    4.3391
   13.500    4.4866
   13.530    4.7709
   13.560    4.2865
   13.590    4.6551
   13.620    4.5814
   13.650    4.6972
   13.680    4.4128
   13.710    4.3918
   13.740    4.3075
   13.770    4.2759
   13.800    4.5603
   13.830    4.0232
   13.860    4.2233
   13.890    4.3075
   13.920    4.1074
   13.950    4.4655
   13.980    4.1285
   14.010    4.2654
   14.040    4.5287
   14.070    4.5498
   14.100    4.5708
   14.130    4.6340
   14.160    4.8657
   14.190    4.3707
   14.220    4.2970
   14.250    4.3497
   14.280    4.2759
   14.310    4.3075
   14.340    3.8125
   14.370    4.5603
   14.400    4.1074
   14.430    4.1390
   14.460    4.2127
   14.490    4.1074
   14.520    4.0758
   14.550    4.1180
   14.580    4.1917
   14.610    3.6651
   14.640    4.1601
   14.670    3.9810
   14.700    4.3497
   14.730    4.0232
   14.760    4.1811
   14.790    4.1285
   14.820    3.9810
   14.850    3.7915
   14.880    4.1706
   14.910    3.8547
   14.940    3.8652
   14.970    4.0126
   15.000    3.8863
   15.030    3.9916
   15.060    4.1390
   15.090    4.5287
   15.120    4.2127
   15.150    3.9810
   15.180    4.4234
   15.210    3.9284
   15.240    4.2233
   15.270    4.0548
   15.300    4.2022
   15.330    4.2654
   15.360    4.0337
   15.390    4.1496
   15.420    4.1390
   15.450    3.7704
   15.480    4.3286
   15.510    4.2233
   15.540    3.8231
   15.570    4.1390
   15.600    4.2549
   15.630    3.8547
   15.660    4.2759
   15.690    4.2654
   15.720    4.0021
   15.750    3.9073
   15.780    4.2549
   15.810    4.0126
   15.840    4.3707
   15.870    4.2338
   15.900    4.0758
   15.930    3.9389
   15.960    4.4339
   15.990    4.1180
   16.020    4.1706
   16.050    4.1601
   16.080    4.0337
   16.110    4.1074
   16.140    3.9916
   16.170    4.4234
   16.200    4.1706
   16.230    4.0021
   16.260    4.0864
   16.290    4.1496
   16.320    3.9073
   16.350    4.1285
   16.380    3.7177
   16.410    3.8968
   16.440    4.0337
   16.470    4.1601
   16.500    3.9705
   16.530    4.2654
   16.560    3.8863
   16.590    4.0969
   16.620    3.8863
   16.650    3.8231
   16.680    4.0653
   16.710    4.3391
   16.740    3.8441
   16.770    4.1917
   16.800    3.7388
   16.830    4.1917
   16.860    4.0021
   16.890    4.1811
   16.920    4.3181
   16.950    4.2127
   16.980    3.9494
   17.010    4.1285
   17.040    4.1285
   17.070    4.0021
   17.100    4.5498
   17.130    4.5919
   17.160    4.3286
   17.190    4.3391
   17.220    4.3918
   17.250    3.8231
   17.280    4.2443
   17.310    4.2127
   17.340    4.2654
   17.370    3.8441
   17.400    4.0653
   17.430    3.8757
   17.460    3.9389
   17.490    3.6756
   17.520    4.3497
   17.550    3.8968
   17.580    4.0969
   17.610    3.8441
   17.640    4.2443
   17.670    4.0021
   17.700    4.1706
   17.730    3.9494
   17.760    4.1285
   17.790    4.1180
   17.820    3.9600
   17.850    4.1601
   17.880    3.9600
   17.910    3.9600
   17.940    4.3391
   17.970    4.3181
   18.000    4.2549
   18.030    4.0758
   18.060    4.1811
   18.090    4.4234
   18.120    4.2443
   18.150    4.2022
   18.180    4.2970
   18.210    4.0126
   18.240    4.2759
   18.270    4.1390
   18.300    4.1917
   18.330    4.2759
   18.360    4.2654
   18.390    4.4339
   18.420    4.2759
   18.450    4.2022
   18.480    4.2759
   18.510    4.0232
   18.540    4.1180
   18.570    4.4655
   18.600    4.0337
   18.630    4.4655
   18.660    4.2338
   18.690    4.2338
   18.720    4.0548
   18.750    4.0337
   18.780    4.1180
   18.810    4.2654
   18.840    4.1601
   18.870    4.0969
   18.900    4.3497
   18.930    4.0758
   18.960    4.3181
   18.990    4.7815
   19.020    4.7709
   19.050    4.6130
   19.080    4.4866
   19.110    4.1285
   19.140    3.9810
   19.170    4.3497
   19.200    3.9600
   19.230    4.2338
   19.260    3.9705
   19.290    4.1601
   19.320    3.9073
   19.350    4.5603
   19.380    4.0126
   19.410    4.3918
   19.440    4.3286
   19.470    4.1601
   19.500    4.4866
   19.530    4.5182
   19.560    4.3286
   19.590    4.3602
   19.620    3.9705
   19.650    4.6867
   19.680    4.3286
   19.710    4.1601
   19.740    4.3707
   19.770    4.4760
   19.800    4.4866
   19.830    4.0442
   19.860    4.2549
   19.890    4.3918
   19.920    4.1074
   19.950    4.4023
   19.980    4.3286
   20.010    4.3813
   20.040    4.1811
   20.070    4.3497
   20.100    4.3707
   20.130    4.5076
   20.160    4.0548
   20.190    4.3813
   20.220    4.5392
   20.250    4.0653
   20.280    4.5287
   20.310    4.6445
   20.340    4.6340
   20.370    4.8657
   20.400    4.4971
   20.430    5.1185
   20.460    4.6551
   20.490    4.8131
   20.520    4.5182
   20.550    4.3181
   20.580    4.6130
   20.610    4.2443
   20.640    4.4866
   20.670    4.4550
   20.700    4.3286
   20.730    4.0864
   20.760    4.0969
   20.790    4.4655
   20.820    4.8973
   20.850    4.5392
   20.880    4.4655
   20.910    4.7288
   20.940    4.4339
   20.970    4.2654
   21.000    4.5392
   21.030    4.6551
   21.060    4.6551
   21.090    4.3497
   21.120    4.3707
   21.150    4.2654
   21.180    4.2549
   21.210    4.2233
   21.240    4.3813
   21.270    4.4339
   21.300    4.4866
   21.330    4.6445
   21.360    4.6867
   21.390    4.4971
   21.420    4.5603
   21.450    4.3602
   21.480    4.4866
   21.510    4.2233
   21.540    4.8131
   21.570    4.6235
   21.600    4.6130
   21.630    4.3918
   21.660    4.1917
   21.690    4.0232
   21.720    4.7709
   21.750    4.3391
   21.780    4.2865
   21.810    4.2759
   21.840    4.3918
   21.870    4.6445
   21.900    4.6340
   21.930    4.4760
   21.960    4.8131
   21.990    4.6761
   22.020    4.3918
   22.050    4.4339
   22.080    4.2865
   22.110    4.4339
   22.140    4.2443
   22.170    4.5392
   22.200    4.5076
   22.230    4.6551
   22.260    4.7920
   22.290    4.5287
   22.320    4.4760
   22.350    4.6867
   22.380    4.5603
   22.410    4.4234
   22.440    4.2022
   22.470    4.8552
   22.500    4.8763
   22.530    4.4760
   22.560    4.5814
   22.590    4.7393
   22.620    4.9289
   22.650    4.7288
   22.680    4.9816
   22.710    4.3707
   22.740    4.4760
   22.770    4.4339
   22.800    4.5392
   22.830    4.2549
   22.860    4.5498
   22.890    4.6130
   22.920    4.6130
   22.950    4.5708
   22.980    4.7183
   23.010    4.5919
   23.040    4.4760
   23.070    4.5182
   23.100    4.2654
   23.130    4.3707
   23.160    4.3181
   23.190    4.6761
   23.220    4.4023
   23.250    4.6024
   23.280    4.7077
   23.310    4.5182
   23.340    4.5076
   23.370    4.6235
   23.400    4.0021
   23.430    4.2022
   23.460    4.3497
   23.490    4.1285
   23.520    4.4444
   23.550    4.2865
   23.580    4.3286
   23.610    4.2549
   23.640    4.2127
   23.670    4.6024
   23.700    4.0864
   23.730    4.1811
   23.760    4.1601
   23.790    3.9284
   23.820    4.1390
   23.850    4.4023
   23.880    4.3286
   23.910    4.4866
   23.940    4.0337
   23.970    4.4866
   24.000    3.9810
   24.030    4.5392
   24.060    4.4550
   24.090    4.2338
   24.120    4.5076
   24.150    4.4128
   24.180    4.1917
   24.210    4.1917
   24.240    4.5814
   24.270    4.0442
   24.300    4.3075
   24.330    3.9389
   24.360    4.2443
   24.390    4.0969
   24.420    4.4655
   24.450    4.5182
   24.480    4.1390
   24.510    4.2443
   24.540    4.5076
   24.570    4.6024
   24.600    4.1496
   24.630    4.1180
   24.660    4.4655
   24.690    4.4128
   24.720    4.2022
   24.750    4.1706
   24.780    3.9389
   24.810    4.2233
   24.840    4.0021
   24.870    4.0548
   24.900    4.4444
   24.930    3.9389
   24.960    4.1180
   24.990    4.2233
   25.020    3.9179
   25.050    4.3075
   25.080    4.0969
   25.110    4.1074
   25.140    4.0864
   25.170    4.0442
   25.200    3.8336
   25.230    3.9179
   25.260    3.9916
   25.290    3.9600
   25.320    3.8652
   25.350    4.3075
   25.380    3.8231
   25.410    4.1917
   25.440    4.1390
   25.470    4.1917
   25.500    3.9916
   25.530    3.8441
   25.560    4.1706
   25.590    3.8441
   25.620    4.0442
   25.650    3.8757
   25.680    4.1285
   25.710    4.0864
   25.740    4.0232
   25.770    3.8336
   25.800    4.2549
   25.830    4.1811
   25.860    4.1811
   25.890    4.1706
   25.920    4.0864
   25.950    4.2443
   25.980    4.0548
   26.010    4.0126
   26.040    4.1180
   26.070    4.0548
   26.100    3.7283
   26.130    4.0653
   26.160    4.2338
   26.190    4.1496
   26.220    3.7493
   26.250    3.8441
   26.280    3.7493
   26.310    3.7704
   26.340    3.7915
   26.370    4.1706
   26.400    3.9494
   26.430    3.7072
   26.460    3.8757
   26.490    3.8020
   26.520    3.9179
   26.550    4.0126
   26.580    3.6546
   26.610    3.6440
   26.640    3.8020
   26.670    4.0548
   26.700    3.9073
   26.730    3.8757
   26.760    3.9389
   26.790    3.8863
   26.820    4.0232
   26.850    3.8652
   26.880    4.2549
   26.910    3.7915
   26.940    3.7283
   26.970    3.8441
   27.000    3.5176
   27.030    3.7704
   27.060    3.7704
   27.090    3.9705
   27.120    3.8441
   27.150    4.1285
   27.180    3.8968
   27.210    3.6651
   27.240    3.7599
   27.270    3.5071
   27.300    3.6967
   27.330    3.6546
   27.360    3.6230
   27.390    3.8336
   27.420    3.6756
   27.450    3.8336
   27.480    3.6756
   27.510    3.6335
   27.540    3.6019
   27.570    3.7283
   27.600    3.4334
   27.630    3.8336
   27.660    3.8336
   27.690    4.0969
   27.720    4.0442
   27.750    3.8757
   27.780    3.6862
   27.810    3.8547
   27.840    3.9284
   27.870    3.5598
   27.900    4.0232
   27.930    3.8652
   27.960    3.8336
   27.990    4.0758
   28.020    4.1496
   28.050    3.9705
   28.080    4.0337
   28.110    4.1706
   28.140    3.7283
   28.170    3.7493
   28.200    4.1074
   28.230    3.7599
   28.260    4.3181
   28.290    3.8652
   28.320    4.0548
   28.350    3.8652
   28.380    3.5914
   28.410    3.9600
   28.440    3.9284
   28.470    3.7915
   28.500    3.8441
   28.530    3.6967
   28.560    3.6862
   28.590    3.8757
   28.620    3.5598
   28.650    3.8863
   28.680    3.7283
   28.710    3.7388
   28.740    3.7809
   28.770    3.4650
   28.800    3.6756
   28.830    3.6230
   28.860    3.7493
   28.890    3.5703
   28.920    3.5492
   28.950    3.6440
   28.980    3.8547
   29.010    3.9494
   29.040    3.7493
   29.070    3.6967
   29.100    3.4544
   29.130    3.3913
   29.160    3.6756
   29.190    3.1701
   29.220    3.5492
   29.250    3.5387
   29.280    3.6651
   29.310    3.4966
   29.340    3.3702
   29.370    3.6546
   29.400    3.2122
   29.430    3.4544
   29.460    3.5282
   29.490    3.3070
   29.520    3.4650
   29.550    3.7704
   29.580    3.2754
   29.610    3.4123
   29.640    3.4860
   29.670    3.3386
   29.700    3.5387
   29.730    3.5808
   29.760    3.1806
   29.790    3.5598
   29.820    3.1596
   29.850    3.4544
   29.880    3.5808
   29.910    3.5071
   29.940    3.3491
   29.970    3.3597
   30.000    3.5387
   30.030    3.3807
   30.060    3.4334
   30.090    3.4123
   30.120    3.6019
   30.150    3.4860
   30.180    3.3807
   30.210    3.6756
   30.240    3.5914
   30.270    3.2438
   30.300    3.7915
   30.330    3.2965
   30.360    3.6967
   30.390    3.3491
   30.420    3.5703
   30.450    3.0542
   30.480    3.2543
   30.510    3.4966
   30.540    3.0858
   30.570    3.0121
   30.600    3.3281
   30.630    3.4755
   30.660    3.3702
   30.690    3.3175
   30.720    3.5071
   30.750    3.4334
   30.780    3.3491
   30.810    3.2333
   30.840    3.2122
   30.870    3.3597
   30.900    3.5387
   30.930    3.1806
   30.960    3.2333
   30.990    3.3175
   31.020    3.3175
   31.050    3.3807
   31.080    3.3175
   31.110    3.2859
   31.140    3.2227
   31.170    3.0226
   31.200    3.3386
   31.230    3.4755
   31.260    3.0437
   31.290    3.2438
   31.320    2.9700
   31.350    3.1806
   31.380    3.1490
   31.410    3.4439
   31.440    3.3597
   31.470    3.5492
   31.500    3.1806
   31.530    3.1912
   31.560    3.1385
   31.590    3.6124
   31.620    3.1912
   31.650    3.4755
   31.680    3.5598
   31.710    3.5492
   31.740    3.6124
   31.770    3.7493
   31.800    3.3702
   31.830    3.6546
   31.860    3.3070
   31.890    3.5071
   31.920    3.1806
   31.950    3.2438
   31.980    3.4018
   32.010    3.6335
   32.040    3.3913
   32.070    3.7809
   32.100    4.0548
   32.130    3.8020
   32.160    4.0337
   32.190    4.0337
   32.220    3.9494
   32.250    3.4334
   32.280    3.2543
   32.310    3.1069
   32.340    3.2859
   32.370    2.8120
   32.400    3.3281
   32.430    3.0964
   32.460    3.1069
   32.490    3.1701
   32.520    2.9910
   32.550    3.4966
   32.580    2.9595
   32.610    2.9279
   32.640    3.0542
   32.670    3.2754
   32.700    3.0437
   32.730    2.8331
   32.760    2.9805
   32.790    3.2227
   32.820    3.1912
   32.850    3.2754
   32.880    3.2543
   32.910    3.2333
   32.940    2.8963
   32.970    3.1069
   33.000    3.0858
   33.030    2.8436
   33.060    3.3175
   33.090    2.8541
   33.120    3.1069
   33.150    2.9910
   33.180    3.1385
   33.210    3.0858
   33.240    2.9279
   33.270    2.9805
   33.300    3.1069
   33.330    3.2227
   33.360    2.8436
   33.390    2.7383
   33.420    3.0648
   33.450    2.9068
   33.480    3.0016
   33.510    2.7278
   33.540    3.0016
   33.570    3.1174
   33.600    3.0121
   33.630    3.0542
   33.660    2.9068
   33.690    3.0332
   33.720    2.8963
   33.750    3.0437
   33.780    3.1174
   33.810    3.2859
   33.840    3.3281
   33.870    3.2438
   33.900    3.4229
   33.930    3.0648
   33.960    3.1490
   33.990    2.9279
   34.020    2.8647
   34.050    2.9279
   34.080    2.8963
   34.110    3.0542
   34.140    2.6962
   34.170    2.6330
   34.200    2.7593
   34.230    2.7488
   34.260    2.6224
   34.290    2.9910
   34.320    2.9068
   34.350    2.6540
   34.380    2.8331
   34.410    2.9489
   34.440    3.0121
   34.470    2.9700
   34.500    2.9595
   34.530    2.8225
   34.560    3.0121
   34.590    2.9384
   34.620    2.7383
   34.650    2.8120
   34.680    2.6751
   34.710    2.7593
   34.740    2.8225
   34.770    2.7488
   34.800    2.9279
   34.830    2.9068
   34.860    2.7593
   34.890    2.9700
   34.920    2.8120
   34.950    2.9910
   34.980    2.7593
   35.010    2.8963
   35.040    2.8541
   35.070    2.9068
   35.100    2.6119
   35.130    2.7699
   35.160    2.8436
   35.190    2.6856
   35.220    2.8752
   35.250    2.7593
   35.280    2.8120
   35.310    2.7909
   35.340    2.5698
   35.370    2.6014
   35.400    2.6962
   35.430    2.9489
   35.460    2.7383
   35.490    2.8541
   35.520    2.7278
   35.550    2.8225
   35.580    2.7699
   35.610    2.6330
   35.640    2.5487
   35.670    2.7278
   35.700    2.6962
   35.730    2.8541
   35.760    2.6119
   35.790    2.7699
   35.820    2.6540
   35.850    2.7488
   35.880    2.5908
   35.910    2.4329
   35.940    2.4750
   35.970    2.8436
   36.000    2.4961
   36.030    2.7278
   36.060    2.7699
   36.090    2.5698
   36.120    2.6856
   36.150    2.7488
   36.180    2.6014
   36.210    2.7699
   36.240    2.4329
   36.270    2.5803
   36.300    2.4118
   36.330    2.8120
   36.360    2.5276
   36.390    2.5171
   36.420    2.5803
   36.450    2.7909
   36.480    2.8541
   36.510    2.6330
   36.540    2.8120
   36.570    2.4961
   36.600    2.9805
   36.630    2.8120
   36.660    2.4961
   36.690    2.6330
   36.720    2.4223
   36.750    2.5803
   36.780    2.6540
   36.810    2.5066
   36.840    2.5803
   36.870    2.4961
   36.900    2.7278
   36.930    2.6540
   36.960    2.5276
   36.990    2.5487
   37.020    2.3802
   37.050    2.2012
   37.080    2.6856
   37.110    2.6646
   37.140    2.4855
   37.170    2.5171
   37.200    2.5171
   37.230    2.6330
   37.260    2.6224
   37.290    2.3065
   37.320    2.4750
   37.350    2.4750
   37.380    2.3170
   37.410    2.4329
   37.440    2.4118
   37.470    2.4539
   37.500    2.4013
   37.530    2.7593
   37.560    2.6014
   37.590    2.5276
   37.620    2.6014
   37.650    2.2749
   37.680    2.4961
   37.710    2.4223
   37.740    2.4223
   37.770    2.8120
   37.800    2.4539
   37.830    2.6646
   37.860    2.5066
   37.890    2.6646
   37.920    2.6751
   37.950    2.7172
   37.980    2.4013
   38.010    2.2854
   38.040    2.4434
   38.070    2.4329
   38.100    2.3907
   38.130    2.6435
   38.160    2.4645
   38.190    2.7067
   38.220    2.4118
   38.250    2.6330
   38.280    2.4223
   38.310    2.4645
   38.340    2.4539
   38.370    2.4750
   38.400    2.5382
   38.430    2.4855
   38.460    2.3170
   38.490    2.2538
   38.520    2.7067
   38.550    2.5592
   38.580    2.6014
   38.610    2.7488
   38.640    2.4434
   38.670    2.7278
   38.700    2.5908
   38.730    2.5276
   38.760    2.4855
   38.790    2.5276
   38.820    2.3170
   38.850    2.3486
   38.880    2.5487
   38.910    2.4013
   38.940    2.4750
   38.970    2.4539
   39.000    2.3802
   39.030    2.3065
   39.060    2.3802
   39.090    2.4961
   39.120    2.3697
   39.150    2.5382
   39.180    2.6856
   39.210    2.8120
   39.240    2.7699
   39.270    2.1590
   39.300    2.8015
   39.330    2.5171
   39.360    2.1906
   39.390    2.4645
   39.420    2.1696
   39.450    2.4329
   39.480    2.2643
   39.510    2.4539
   39.540    2.5066
   39.570    2.6962
   39.600    2.4750
   39.630    2.4855
   39.660    2.3802
   39.690    2.6330
   39.720    2.3907
   39.750    2.5487
   39.780    2.2222
   39.810    2.6119
   39.840    2.4855
   39.870    2.3802
   39.900    2.3907
   39.930    2.5276
   39.960    2.4961
   39.990    2.8015