File: data/MOCOF-1/PXRD/PXRD_KE-144_Cu-Ka1_capillary-1mm_5s-deg.xyd
    1.500   56.1980
    1.530   55.8294
    1.560   51.4165
    1.590   49.1311
    1.620   48.1095
    1.650   47.9410
    1.680   45.2027
    1.710   42.6540
    1.740   40.8531
    1.770   39.6209
    1.800   38.8520
    1.830   37.0827
    1.860   34.4076
    1.890   33.3544
    1.920   33.9442
    1.950   32.1327
    1.980   31.5429
    2.010   31.1848
    2.040   30.7741
    2.070   29.3312
    2.100   29.6051
    2.130   28.1727
    2.160   29.0679
    2.190   27.2565
    2.220   27.0142
    2.250   27.6567
    2.280   26.8668
    2.310   27.2459
    2.340   26.4350
    2.370   26.3718
    2.400   26.4876
    2.430   25.9400
    2.460   25.3607
    2.490   25.6977
    2.520   26.0664
    2.550   25.6767
    2.580   25.9610
    2.610   26.8773
    2.640   26.3507
    2.670   27.9832
    2.700   27.6356
    2.730   27.6251
    2.760   29.1101
    2.790   29.3944
    2.820   29.2154
    2.850   30.7109
    2.880   31.1848
    2.910   32.9015
    2.940   32.9226
    2.970   35.4924
    3.000   35.7978
    3.030   38.1991
    3.060   39.1259
    3.090   41.1480
    3.120   43.1490
    3.150   44.9289
    3.180   47.4566
    3.210   49.8578
    3.240   53.0384
    3.270   56.7983
    3.300   60.0632
    3.330   63.7178
    3.360   67.8778
    3.390   71.3007
    3.420   72.8489
    3.450   74.6814
    3.480   74.5866
    3.510   73.1859
    3.540   72.2696
    3.570   67.1827
    3.600   62.8120
    3.630   58.8520
    3.660   54.9658
    3.690   49.5629
    3.720   47.4671
    3.750   44.6446
    3.780   43.3702
    3.810   41.2638
    3.840   40.1580
    3.870   37.0300
    3.900   37.5355
    3.930   36.1559
    3.960   35.4081
    3.990   34.9974
    4.020   33.2491
    4.050   31.4376
    4.080   29.4365
    4.110   28.5835
    4.140   28.0147
    4.170   26.8352
    4.200   25.1501
    4.230   23.8968
    4.260   22.7383
    4.290   21.6535
    4.320   21.0216
    4.350   19.3997
    4.380   17.9884
    4.410   18.3992
    4.440   16.9142
    4.470   15.6187
    4.500   15.4713
    4.530   14.5972
    4.560   14.1338
    4.590   13.3860
    4.620   13.4176
    4.650   12.6909
    4.680   12.5013
    4.710   11.6272
    4.740   11.5850
    4.770   11.1427
    4.800   11.3112
    4.830   10.4897
    4.860   10.4687
    4.890    9.7314
    4.920   10.0263
    4.950    9.3944
    4.980    9.7420
    5.010    9.0890
    5.040    9.2575
    5.070    9.1838
    5.100    9.1101
    5.130    8.7204
    5.160    9.1206
    5.190    8.6993
    5.220    8.3518
    5.250    8.1201
    5.280    8.2886
    5.310    8.2886
    5.340    7.9621
    5.370    7.6461
    5.400    8.3728
    5.430    7.9516
    5.460    7.6567
    5.490    7.8462
    5.520    7.7620
    5.550    7.7936
    5.580    7.7199
    5.610    7.3091
    5.640    7.3828
    5.670    7.3512
    5.700    7.1090
    5.730    7.0458
    5.760    6.9510
    5.790    7.1090
    5.820    7.0353
    5.850    7.0037
    5.880    7.4671
    5.910    7.0985
    5.940    7.3407
    5.970    7.3407
    6.000    7.2354
    6.030    6.6561
    6.060    6.6245
    6.090    6.9721
    6.120    7.3091
    6.150    7.1933
    6.180    7.2143
    6.210    6.8457
    6.240    7.1301
    6.270    7.4460
    6.300    7.2880
    6.330    7.1406
    6.360    7.1406
    6.390    7.2459
    6.420    7.4250
    6.450    7.2354
    6.480    7.5724
    6.510    7.4987
    6.540    7.8462
    6.570    7.7620
    6.600    8.0358
    6.630    8.3939
    6.660    8.3518
    6.690    8.8573
    6.720    9.0995
    6.750    9.2259
    6.780    8.9837
    6.810   10.1527
    6.840   10.3949
    6.870   10.7952
    6.900   10.9742
    6.930   11.5113
    6.960   11.5113
    6.990   11.3533
    7.020   11.2691
    7.050   11.3639
    7.080   10.5529
    7.110   10.7109
    7.140   10.2686
    7.170    9.8999
    7.200    9.4260
    7.230    9.5945
    7.260    8.5097
    7.290    8.7204
    7.320    8.6045
    7.350    7.9726
    7.380    7.9094
    7.410    8.7941
    7.440    8.1833
    7.470    7.6988
    7.500    8.2570
    7.530    7.9305
    7.560    7.7620
    7.590    7.9831
    7.620    7.7199
    7.650    7.3828
    7.680    8.0042
    7.710    7.8357
    7.740    7.8884
    7.770    8.4992
    7.800    7.7936
    7.830    8.1727
    7.860    7.9621
    7.890    8.0779
    7.920    8.0569
    7.950    8.4781
    7.980    8.2991
    8.010    8.5624
    8.040    8.4466
    8.070    8.2886
    8.100    7.6567
    8.130    8.0042
    8.160    7.9937
    8.190    8.0253
    8.220    8.0147
    8.250    8.1306
    8.280    8.0358
    8.310    7.8884
    8.340    7.8884
    8.370    7.6567
    8.400    7.4460
    8.430    7.8357
    8.460    7.7725
    8.490    7.6672
    8.520    7.8989
    8.550    7.4144
    8.580    7.4776
    8.610    7.1933
    8.640    7.1406
    8.670    7.5303
    8.700    7.5092
    8.730    7.1301
    8.760    7.5092
    8.790    7.0879
    8.820    7.1933
    8.850    6.7720
    8.880    6.7930
    8.910    7.0563
    8.940    6.6983
    8.970    7.1090
    9.000    6.7088
    9.030    6.2875
    9.060    6.6877
    9.090    6.5087
    9.120    6.7615
    9.150    6.7825
    9.180    6.3507
    9.210    6.3402
    9.240    6.3928
    9.270    6.9194
    9.300    6.4034
    9.330    6.6351
    9.360    6.4560
    9.390    6.3823
    9.420    6.3612
    9.450    6.4876
    9.480    6.2875
    9.510    6.4350
    9.540    6.2033
    9.570    6.2349
    9.600    6.3612
    9.630    6.7615
    9.660    6.2875
    9.690    6.1611
    9.720    6.6561
    9.750    6.2559
    9.780    6.0032
    9.810    6.3402
    9.840    6.3612
    9.870    6.0979
    9.900    6.0453
    9.930    6.1190
    9.960    6.7930
    9.990    5.9505
   10.020    5.9926
   10.050    6.3086
   10.080    6.1401
   10.110    6.3086
   10.140    6.1401
   10.170    6.3507
   10.200    5.8768
   10.230    6.3402
   10.260    6.2875
   10.290    6.0874
   10.320    6.6140
   10.350    6.5929
   10.380    6.2875
   10.410    6.6351
   10.440    6.0137
   10.470    6.2981
   10.500    6.4876
   10.530    6.1085
   10.560    6.3402
   10.590    6.2770
   10.620    6.3191
   10.650    6.3823
   10.680    6.4350
   10.710    6.3296
   10.740    6.4771
   10.770    6.5719
   10.800    6.3507
   10.830    5.8241
   10.860    6.0979
   10.890    6.2349
   10.920    6.2875
   10.950    6.0348
   10.980    6.0348
   11.010    6.6983
   11.040    6.1085
   11.070    6.3612
   11.100    6.0558
   11.130    6.2138
   11.160    6.3507
   11.190    6.0664
   11.220    6.5508
   11.250    6.2454
   11.280    6.2454
   11.310    5.5924
   11.340    6.2243
   11.370    5.9294
   11.400    5.8662
   11.430    5.9610
   11.460    5.8978
   11.490    6.2243
   11.520    6.2349
   11.550    6.1717
   11.580    6.4560
   11.610    6.3928
   11.640    6.2665
   11.670    6.3823
   11.700    5.8662
   11.730    6.2559
   11.760    6.4560
   11.790    6.1190
   11.820    6.4560
   11.850    6.5087
   11.880    6.0137
   11.910    6.2243
   11.940    5.8452
   11.970    6.1295
   12.000    6.0664
   12.030    6.3191
   12.060    6.4771
   12.090    6.3296
   12.120    6.0979
   12.150    6.1927
   12.180    6.2875
   12.210    5.8768
   12.240    6.2770
   12.270    6.2138
   12.300    6.2875
   12.330    6.1085
   12.360    6.0032
   12.390    6.0979
   12.420    6.1927
   12.450    6.0453
   12.480    6.1401
   12.510    6.4244
   12.540    6.0137
   12.570    6.0137
   12.600    5.5924
   12.630    6.2981
   12.660    6.2665
   12.690    5.9400
   12.720    5.9505
   12.750    6.2665
   12.780    6.1927
   12.810    6.2349
   12.840    5.9400
   12.870    6.3296
   12.900    6.1190
   12.930    5.8452
   12.960    6.3612
   12.990    6.0032
   13.020    6.3612
   13.050    6.0242
   13.080    6.0032
   13.110    5.7820
   13.140    5.9505
   13.170    5.9400
   13.200    6.0664
   13.230    6.0348
   13.260    6.3928
   13.290    6.1611
   13.320    5.9610
   13.350    5.8557
   13.380    6.2665
   13.410    6.4244
   13.440    6.0874
   13.470    5.6556
   13.500    5.7609
   13.530    5.8662
   13.560    5.8452
   13.590    6.1506
   13.620    5.7399
   13.650    6.0348
   13.680    6.1190
   13.710    5.8768
   13.740    5.9189
   13.770    5.9294
   13.800    5.8031
   13.830    6.3928
   13.860    5.8241
   13.890    5.6240
   13.920    5.8136
   13.950    5.9400
   13.980    5.8873
   14.010    6.0242
   14.040    5.8978
   14.070    5.9610
   14.100    6.0874
   14.130    5.9716
   14.160    5.9400
   14.190    5.9189
   14.220    6.2875
   14.250    5.7504
   14.280    6.4771
   14.310    5.9084
   14.340    6.0242
   14.370    6.2665
   14.400    5.7925
   14.430    6.0453
   14.460    5.7609
   14.490    6.2349
   14.520    5.8662
   14.550    6.1506
   14.580    5.7715
   14.610    6.2243
   14.640    5.6240
   14.670    6.0032
   14.700    6.3086
   14.730    6.0769
   14.760    5.8662
   14.790    5.8978
   14.820    5.7399
   14.850    6.0979
   14.880    5.7399
   14.910    5.9610
   14.940    6.0453
   14.970    6.1822
   15.000    6.0242
   15.030    5.8031
   15.060    6.1085
   15.090    5.8662
   15.120    5.9926
   15.150    5.6135
   15.180    5.8031
   15.210    5.8136
   15.240    5.9926
   15.270    5.7820
   15.300    6.0979
   15.330    5.6977
   15.360    5.7820
   15.390    5.9821
   15.420    6.1295
   15.450    5.7399
   15.480    5.6661
   15.510    5.6240
   15.540    6.3086
   15.570    6.0979
   15.600    6.3191
   15.630    6.2454
   15.660    5.8136
   15.690    6.0874
   15.720    5.9084
   15.750    5.9821
   15.780    6.0874
   15.810    5.7925
   15.840    5.8662
   15.870    5.9084
   15.900    6.0558
   15.930    6.2770
   15.960    6.0348
   15.990    6.5613
   16.020    6.1295
   16.050    6.2559
   16.080    6.3402
   16.110    6.4560
   16.140    6.4560
   16.170    6.1085
   16.200    6.3191
   16.230    6.2875
   16.260    6.0032
   16.290    6.1822
   16.320    6.0979
   16.350    5.8136
   16.380    6.0769
   16.410    6.1611
   16.440    6.0242
   16.470    5.7399
   16.500    6.1190
   16.530    6.1611
   16.560    6.0664
   16.590    6.1295
   16.620    6.2454
   16.650    5.5398
   16.680    6.1927
   16.710    5.7820
   16.740    5.6240
   16.770    5.4028
   16.800    5.8241
   16.830    6.0137
   16.860    6.0242
   16.890    6.0453
   16.920    5.8031
   16.950    5.5924
   16.980    6.0979
   17.010    5.7399
   17.040    5.9821
   17.070    5.9400
   17.100    5.8031
   17.130    6.0558
   17.160    6.2243
   17.190    6.0242
   17.220    6.0242
   17.250    6.1822
   17.280    5.7609
   17.310    5.8136
   17.340    6.3718
   17.370    5.8557
   17.400    6.4034
   17.430    5.9716
   17.460    5.6872
   17.490    6.0979
   17.520    6.3296
   17.550    5.9084
   17.580    5.8452
   17.610    5.9084
   17.640    6.1401
   17.670    5.9610
   17.700    6.0558
   17.730    5.6556
   17.760    6.1611
   17.790    6.0242
   17.820    6.2454
   17.850    5.8768
   17.880    5.9084
   17.910    6.0242
   17.940    5.6661
   17.970    6.0979
   18.000    5.8452
   18.030    5.7925
   18.060    5.7820
   18.090    5.7293
   18.120    6.1506
   18.150    5.9926
   18.180    5.8557
   18.210    6.2243
   18.240    5.5608
   18.270    6.3928
   18.300    5.8978
   18.330    5.9505
   18.360    5.8978
   18.390    6.3718
   18.420    6.1717
   18.450    5.8136
   18.480    6.4034
   18.510    6.1085
   18.540    5.8136
   18.570    5.9926
   18.600    6.0874
   18.630    5.9821
   18.660    6.3612
   18.690    6.0032
   18.720    6.2454
   18.750    6.2349
   18.780    5.6345
   18.810    6.2033
   18.840    6.0874
   18.870    5.7925
   18.900    6.4244
   18.930    6.4771
   18.960    6.0558
   18.990    6.2349
   19.020    6.4982
   19.050    6.2665
   19.080    6.4244
   19.110    6.1085
   19.140    6.1295
   19.170    6.4244
   19.200    5.9189
   19.230    5.9716
   19.260    6.4666
   19.290    6.2665
   19.320    6.0664
   19.350    5.9084
   19.380    6.4666
   19.410    6.1822
   19.440    6.1401
   19.470    6.3928
   19.500    6.2875
   19.530    6.3086
   19.560    6.1506
   19.590    6.4771
   19.620    6.3191
   19.650    6.0769
   19.680    6.0558
   19.710    6.2665
   19.740    6.2665
   19.770    6.3928
   19.800    6.0664
   19.830    6.0874
   19.860    6.1506
   19.890    6.3296
   19.920    6.0979
   19.950    6.3086
   19.980    6.5298
   20.010    6.2770
   20.040    6.2981
   20.070    6.4034
   20.100    6.2033
   20.130    6.4034
   20.160    6.4455
   20.190    6.4139
   20.220    6.0348
   20.250    6.5613
   20.280    6.2665
   20.310    6.5403
   20.340    6.2138
   20.370    6.4771
   20.400    6.4455
   20.430    6.0242
   20.460    6.5403
   20.490    6.5087
   20.520    6.4139
   20.550    6.3296
   20.580    6.5403
   20.610    6.6772
   20.640    6.7720
   20.670    6.4244
   20.700    6.2033
   20.730    6.1927
   20.760    6.0453
   20.790    6.2875
   20.820    5.9610
   20.850    6.3402
   20.880    6.4034
   20.910    6.1506
   20.940    6.0348
   20.970    6.3718
   21.000    6.1611
   21.030    6.1401
   21.060    6.5613
   21.090    6.8457
   21.120    6.3191
   21.150    6.1190
   21.180    6.3612
   21.210    6.7720
   21.240    6.1085
   21.270    6.1085
   21.300    5.9926
   21.330    6.6245
   21.360    6.2033
   21.390    6.4982
   21.420    6.4034
   21.450    6.0979
   21.480    6.3191
   21.510    6.0453
   21.540    6.4455
   21.570    6.2243
   21.600    6.1927
   21.630    6.6351
   21.660    6.2243
   21.690    6.2349
   21.720    6.6140
   21.750    6.0664
   21.780    6.3402
   21.810    6.4139
   21.840    6.7930
   21.870    6.1190
   21.900    6.8036
   21.930    6.6140
   21.960    6.5298
   21.990    6.9300
   22.020    6.6351
   22.050    6.3718
   22.080    6.5298
   22.110    6.3507
   22.140    6.5929
   22.170    6.6140
   22.200    6.4560
   22.230    6.4771
   22.260    6.8562
   22.290    6.2559
   22.320    6.3086
   22.350    6.5192
   22.380    6.8141
   22.410    6.7088
   22.440    6.3402
   22.470    6.4560
   22.500    6.5613
   22.530    6.6983
   22.560    6.7825
   22.590    6.2770
   22.620    6.3718
   22.650    6.3086
   22.680    6.7299
   22.710    6.4455
   22.740    6.6561
   22.770    6.4560
   22.800    6.1085
   22.830    6.5192
   22.860    6.5824
   22.890    6.7615
   22.920    6.4771
   22.950    6.2243
   22.980    6.6983
   23.010    6.4876
   23.040    6.7088
   23.070    6.4666
   23.100    6.7825
   23.130    6.4034
   23.160    6.5824
   23.190    6.1717
   23.220    6.2665
   23.250    6.1401
   23.280    6.2665
   23.310    6.0664
   23.340    6.3402
   23.370    6.3823
   23.400    6.3296
   23.430    6.5824
   23.460    6.3928
   23.490    6.2665
   23.520    6.1611
   23.550    6.1401
   23.580    6.5298
   23.610    5.9084
   23.640    6.3086
   23.670    6.1295
   23.700    5.8452
   23.730    6.0664
   23.760    6.1190
   23.790    5.6767
   23.820    6.1190
   23.850    6.0769
   23.880    6.0453
   23.910    5.8768
   23.940    6.1295
   23.970    6.1295
   24.000    6.1611
   24.030    5.8662
   24.060    5.9716
   24.090    6.0453
   24.120    6.0242
   24.150    6.3718
   24.180    5.7609
   24.210    5.7504
   24.240    5.9189
   24.270    5.8347
   24.300    6.0979
   24.330    6.4666
   24.360    6.0453
   24.390    6.4666
   24.420    6.4034
   24.450    6.2243
   24.480    5.9610
   24.510    5.8662
   24.540    5.7504
   24.570    6.3612
   24.600    5.9505
   24.630    6.2349
   24.660    6.2559
   24.690    6.2770
   24.720    5.8347
   24.750    6.2243
   24.780    5.5082
   24.810    5.9716
   24.840    5.8031
   24.870    6.0979
   24.900    5.7609
   24.930    6.0242
   24.960    5.9189
   24.990    6.0664
   25.020    6.0137
   25.050    6.0558
   25.080    5.9610
   25.110    6.1401
   25.140    5.9926
   25.170    6.3507
   25.200    6.2033
   25.230    6.0242
   25.260    5.7820
   25.290    5.7399
   25.320    6.2770
   25.350    5.9189
   25.380    6.4139
   25.410    6.0874
   25.440    5.8452
   25.470    5.7925
   25.500    5.8978
   25.530    6.0979
   25.560    5.8241
   25.590    5.9926
   25.620    5.7399
   25.650    6.0137
   25.680    5.7083
   25.710    5.9926
   25.740    5.8452
   25.770    6.1611
   25.800    5.7715
   25.830    5.7399
   25.860    5.5819
   25.890    6.2875
   25.920    5.9610
   25.950    5.6977
   25.980    5.8452
   26.010    5.9926
   26.040    5.9821
   26.070    5.9294
   26.100    6.0874
   26.130    5.7504
   26.160    5.7820
   26.190    5.5187
   26.220    5.7399
   26.250    5.6451
   26.280    5.5292
   26.310    5.4239
   26.340    5.4871
   26.370    5.4871
   26.400    5.5292
   26.430    5.3291
   26.460    5.7925
   26.490    5.1817
   26.520    5.7188
   26.550    5.5924
   26.580    5.7188
   26.610    5.9716
   26.640    5.9821
   26.670    5.9610
   26.700    5.9084
   26.730    5.5082
   26.760    5.7609
   26.790    5.4766
   26.820    5.6661
   26.850    5.6135
   26.880    5.6661
   26.910    5.7609
   26.940    5.5819
   26.970    5.6345
   27.000    5.4660
   27.030    5.0342
   27.060    5.4239
   27.090    5.4239
   27.120    5.6135
   27.150    5.4976
   27.180    5.4239
   27.210    5.7609
   27.240    5.4766
   27.270    5.4976
   27.300    5.2554
   27.330    5.1922
   27.360    5.5292
   27.390    5.2659
   27.420    5.6240
   27.450    5.3712
   27.480    5.8452
   27.510    5.6240
   27.540    5.2975
   27.570    5.6345
   27.600    5.4871
   27.630    5.4976
   27.660    5.3712
   27.690    5.5398
   27.720    5.4239
   27.750    5.3397
   27.780    5.2343
   27.810    5.3607
   27.840    5.4239
   27.870    5.7609
   27.900    5.5187
   27.930    5.6661
   27.960    5.4871
   27.990    5.6135
   28.020    5.4660
   28.050    5.1606
   28.080    5.4766
   28.110    5.6451
   28.140    5.6345
   28.170    5.4450
   28.200    5.5398
   28.230    5.4028
   28.260    5.4134
   28.290    5.4976
   28.320    5.1185
   28.350    5.6240
   28.380    5.7293
   28.410    5.3923
   28.440    5.0869
   28.470    5.2870
   28.500    5.6872
   28.530    5.2449
   28.560    5.1080
   28.590    5.5082
   28.620    5.5503
   28.650    5.4766
   28.680    5.7504
   28.710    5.4660
   28.740    5.7188
   28.770    5.2027
   28.800    5.2027
   28.830    5.3923
   28.860    5.1290
   28.890    5.8347
   28.920    5.1501
   28.950    5.2659
   28.980    5.2554
   29.010    5.6345
   29.040    5.5187
   29.070    5.0869
   29.100    5.0764
   29.130    5.3186
   29.160    5.3186
   29.190    5.4028
   29.220    5.3712
   29.250    5.3712
   29.280    5.3712
   29.310    5.6556
   29.340    5.2343
   29.370    5.2554
   29.400    5.4134
   29.430    5.4344
   29.460    5.1711
   29.490    5.4028
   29.520    5.5082
   29.550    5.1922
   29.580    5.0342
   29.610    5.1606
   29.640    5.2238
   29.670    5.0658
   29.700    5.3502
   29.730    5.5187
   29.760    5.4134
   29.790    5.4766
   29.820    5.1606
   29.850    5.2238
   29.880    5.1185
   29.910    5.5503
   29.940    5.2554
   29.970    4.9184
   30.000    5.0658
   30.030    5.0026
   30.060    5.4134
   30.090    5.3502
   30.120    4.7183
   30.150    5.3291
   30.180    5.1501
   30.210    5.0553
   30.240    4.9816
   30.270    5.3186
   30.300    4.9816
   30.330    5.0764
   30.360    5.3818
   30.390    5.2027
   30.420    4.9816
   30.450    5.3397
   30.480    4.6656
   30.510    4.8868
   30.540    5.1606
   30.570    5.3502
   30.600    5.2027
   30.630    5.1606
   30.660    5.3502
   30.690    5.5503
   30.720    4.9710
   30.750    4.9394
   30.780    5.3712
   30.810    5.5187
   30.840    5.2238
   30.870    5.1185
   30.900    4.8657
   30.930    5.2870
   30.960    4.9500
   30.990    5.0448
   31.020    4.8763
   31.050    4.9816
   31.080    5.4134
   31.110    5.2870
   31.140    5.2765
   31.170    5.1711
   31.200    5.0658
   31.230    5.1290
   31.260    5.1711
   31.290    5.2554
   31.320    5.0448
   31.350    4.6445
   31.380    5.2975
   31.410    5.2449
   31.440    4.9394
   31.470    5.3397
   31.500    5.0132
   31.530    5.1922
   31.560    5.1395
   31.590    5.4450
   31.620    5.2659
   31.650    5.4134
   31.680    5.1080
   31.710    4.9184
   31.740    5.2449
   31.770    5.4239
   31.800    5.4660
   31.830    5.2870
   31.860    5.7504
   31.890    5.1290
   31.920    5.2554
   31.950    5.0869
   31.980    5.2554
   32.010    5.4239
   32.040    5.5608
   32.070    5.6977
   32.100    5.3712
   32.130    5.2343
   32.160    5.2027
   32.190    5.2343
   32.220    5.1395
   32.250    5.0132
   32.280    5.3186
   32.310    5.2554
   32.340    4.7709
   32.370    5.1395
   32.400    4.6235
   32.430    4.9605
   32.460    4.9816
   32.490    4.7077
   32.520    4.7920
   32.550    4.7393
   32.580    5.1395
   32.610    5.2027
   32.640    4.8341
   32.670    4.8657
   32.700    5.2554
   32.730    4.9500
   32.760    4.9816
   32.790    4.5603
   32.820    4.7288
   32.850    4.6761
   32.880    5.1501
   32.910    4.8657
   32.940    4.8763
   32.970    5.0869
   33.000    4.5287
   33.030    4.6867
   33.060    5.2870
   33.090    4.9710
   33.120    4.8552
   33.150    4.8552
   33.180    4.9605
   33.210    4.7077
   33.240    4.5814
   33.270    4.6235
   33.300    4.8447
   33.330    4.7288
   33.360    5.0342
   33.390    4.8868
   33.420    4.8236
   33.450    4.6235
   33.480    4.6972
   33.510    4.9500
   33.540    4.5498
   33.570    4.9921
   33.600    4.9078
   33.630    4.8552
   33.660    4.7604
   33.690    4.9605
   33.720    4.9078
   33.750    4.6445
   33.780    5.1080
   33.810    4.7499
   33.840    4.8025
   33.870    4.9394
   33.900    4.7288
   33.930    5.0869
   33.960    5.0448
   33.990    4.6761
   34.020    4.5603
   34.050    4.6445
   34.080    4.6445
   34.110    4.5603
   34.140    4.6024
   34.170    4.5498
   34.200    4.7709
   34.230    4.5708
   34.260    4.7604
   34.290    4.6235
   34.320    4.4550
   34.350    4.5287
   34.380    4.5287
   34.410    4.3286
   34.440    4.7393
   34.470    4.6340
   34.500    4.6024
   34.530    4.6761
   34.560    4.6340
   34.590    4.5498
   34.620    4.3181
   34.650    4.7920
   34.680    4.2338
   34.710    4.6130
   34.740    4.8131
   34.770    4.4023
   34.800    4.4866
   34.830    4.4444
   34.860    4.7709
   34.890    4.6130
   34.920    4.7077
   34.950    4.5814
   34.980    4.3391
   35.010    4.2443
   35.040    4.6340
   35.070    5.0764
   35.100    4.3181
   35.130    4.3391
   35.160    4.6761
   35.190    4.3497
   35.220    4.6130
   35.250    4.5919
   35.280    4.6340
   35.310    4.8236
   35.340    4.6551
   35.370    4.5814
   35.400    4.8657
   35.430    4.8236
   35.460    4.3286
   35.490    4.6867
   35.520    4.4128
   35.550    4.4655
   35.580    4.2759
   35.610    4.4971
   35.640    4.3918
   35.670    4.5919
   35.700    4.1811
   35.730    4.6656
   35.760    4.3707
   35.790    4.5498
   35.820    5.0553
   35.850    4.3181
   35.880    4.5603
   35.910    4.4339
   35.940    4.3497
   35.970    4.7499
   36.000    4.5919
   36.030    4.2233
   36.060    4.3602
   36.090    4.4550
   36.120    4.6551
   36.150    4.3181
   36.180    4.4023
   36.210    4.4023
   36.240    4.3286
   36.270    4.1811
   36.300    4.4971
   36.330    4.5498
   36.360    4.1496
   36.390    4.2022
   36.420    4.4655
   36.450    4.4866
   36.480    4.2022
   36.510    4.2759
   36.540    4.3286
   36.570    4.4760
   36.600    4.4023
   36.630    4.4128
   36.660    4.2970
   36.690    4.4444
   36.720    4.2759
   36.750    4.3918
   36.780    4.2865
   36.810    4.3497
   36.840    4.3602
   36.870    4.4760
   36.900    4.6024
   36.930    4.3707
   36.960    4.1390
   36.990    4.3497
   37.020    4.3497
   37.050    5.0237
   37.080    4.2654
   37.110    4.4550
   37.140    4.4655
   37.170    4.3707
   37.200    4.5814
   37.230    4.4866
   37.260    4.2970
   37.290    4.4128
   37.320    4.5287
   37.350    3.9916
   37.380    4.0337
   37.410    4.2759
   37.440    4.6130
   37.470    4.4128
   37.500    4.4023
   37.530    4.3391
   37.560    4.2549
   37.590    4.3813
   37.620    4.1811
   37.650    4.3707
   37.680    3.9494
   37.710    4.1496
   37.740    4.2759
   37.770    4.4234
   37.800    4.3602
   37.830    4.2443
   37.860    4.2549
   37.890    4.3813
   37.920    4.0232
   37.950    4.3181
   37.980    4.6972
   38.010    4.2549
   38.040    4.3181
   38.070    4.1811
   38.100    4.3286
   38.130    4.3286
   38.160    4.3391
   38.190    4.2865
   38.220    4.2233
   38.250    4.2759
   38.280    4.3707
   38.310    4.4655
   38.340    4.0232
   38.370    4.3707
   38.400    4.1496
   38.430    4.3181
   38.460    4.4128
   38.490    4.4234
   38.520    4.1285
   38.550    4.2654
   38.580    4.3918
   38.610    4.3707
   38.640    4.2338
   38.670    4.1917
   38.700    4.3602
   38.730    4.5603
   38.760    4.3391
   38.790    4.7393
   38.820    4.2127
   38.850    4.1285
   38.880    4.2970
   38.910    4.4971
   38.940    4.5814
   38.970    4.2970
   39.000    4.1811
   39.030    4.6972
   39.060    4.1706
   39.090    4.0653
   39.120    4.5498
   39.150    4.6445
   39.180    4.7920
   39.210    4.6656
   39.240    4.3813
   39.270    4.0442
   39.300    4.4655
   39.330    4.4550
   39.360    4.5392
   39.390    4.1601
   39.420    4.5392
   39.450    4.3707
   39.480    4.4339
   39.510    4.2759
   39.540    4.4444
   39.570    4.1496
   39.600    4.3391
   39.630    4.3181
   39.660    4.1706
   39.690    4.5498
   39.720    4.1601
   39.750    4.5708
   39.780    4.0232
   39.810    4.1601
   39.840    4.2970
   39.870    4.3918
   39.900    4.1074
   39.930    4.4128
   39.960    4.1917
   39.990    4.1601