File: data/MOCOF-1/PXRD/PXRD_KE-119-2PhNO2_Cu-Ka1_capillary-1mm_5s-deg.xyd
    1.500   21.6851
    1.530   21.7694
    1.560   20.6424
    1.590   20.0737
    1.620   20.0632
    1.650   19.0416
    1.680   18.0095
    1.710   18.1780
    1.740   17.9147
    1.770   17.2617
    1.800   17.0090
    1.830   16.0190
    1.860   16.0821
    1.890   15.5556
    1.920   15.7978
    1.950   14.9763
    1.980   15.1553
    2.010   14.3655
    2.040   14.0179
    2.070   13.6282
    2.100   13.7125
    2.130   13.2912
    2.160   14.0390
    2.190   13.0279
    2.220   12.5750
    2.250   13.0279
    2.280   12.9121
    2.310   12.7751
    2.340   12.9963
    2.370   12.8067
    2.400   12.3223
    2.430   12.1327
    2.460   12.3749
    2.490   11.8589
    2.520   12.0906
    2.550   12.0274
    2.580   11.9221
    2.610   11.9115
    2.640   12.3960
    2.670   12.1432
    2.700   12.0274
    2.730   12.2170
    2.760   11.8378
    2.790   12.2275
    2.820   12.1748
    2.850   12.3012
    2.880   11.8273
    2.910   12.4065
    2.940   12.1327
    2.970   12.5645
    3.000   12.5540
    3.030   12.9858
    3.060   12.5434
    3.090   12.8910
    3.120   13.1648
    3.150   13.1754
    3.180   13.7651
    3.210   13.8599
    3.240   13.8073
    3.270   14.9763
    3.300   15.0500
    3.330   15.2817
    3.360   15.3660
    3.390   16.6825
    3.420   17.2933
    3.450   17.3670
    3.480   18.1885
    3.510   19.2838
    3.540   19.0837
    3.570   21.4745
    3.600   23.0121
    3.630   23.9916
    3.660   25.1290
    3.690   27.6461
    3.720   30.6372
    3.750   33.3649
    3.780   37.6830
    3.810   42.5803
    3.840   50.6793
    3.870   58.1253
    3.900   52.6066
    3.930   36.7351
    3.960   21.1585
    3.990   15.1132
    4.020   12.2907
    4.050   11.0269
    4.080   10.0579
    4.110   10.0369
    4.140    9.8578
    4.170    9.1311
    4.200    9.4576
    4.230    8.5835
    4.260    9.3734
    4.290    9.0785
    4.320    8.6677
    4.350    8.4255
    4.380    8.8889
    4.410    8.5413
    4.440    8.6993
    4.470    8.9731
    4.500    8.6993
    4.530    8.7520
    4.560    8.7625
    4.590    8.7941
    4.620    9.1522
    4.650    8.7098
    4.680    8.6572
    4.710    8.7309
    4.740    9.3312
    4.770    8.4360
    4.800    8.5729
    4.830    9.2575
    4.860    9.1522
    4.890    8.7836
    4.920    8.8362
    4.950    8.9205
    4.980    9.5945
    5.010    9.2048
    5.040    9.8473
    5.070    9.2891
    5.100    9.8473
    5.130    9.8052
    5.160   10.0369
    5.190   10.3633
    5.220   11.0900
    5.250   11.7536
    5.280   11.7957
    5.310   12.2380
    5.340   13.1122
    5.370   13.6072
    5.400   14.3549
    5.430   16.3139
    5.460   18.4202
    5.490   19.9789
    5.520   19.2101
    5.550   15.9558
    5.580   12.0169
    5.610    9.8157
    5.640    8.8257
    5.670    8.8889
    5.700    8.8468
    5.730    8.3518
    5.760    8.0147
    5.790    8.4360
    5.820    7.8989
    5.850    8.8889
    5.880    8.0990
    5.910    8.3834
    5.940    7.7830
    5.970    7.8778
    6.000    8.1201
    6.030    8.2464
    6.060    7.8146
    6.090    8.3307
    6.120    8.0674
    6.150    8.1306
    6.180    8.3307
    6.210    7.9937
    6.240    8.3202
    6.270    8.8678
    6.300    8.5413
    6.330    8.6572
    6.360    8.3834
    6.390    8.4992
    6.420    8.4466
    6.450    8.3412
    6.480    8.7520
    6.510    8.8573
    6.540    9.3628
    6.570    9.2786
    6.600    9.0469
    6.630    9.5313
    6.660   10.2370
    6.690   10.6688
    6.720   11.3639
    6.750   11.2796
    6.780   10.4897
    6.810    9.7841
    6.840    8.6993
    6.870    8.4150
    6.900    8.8257
    6.930    8.1411
    6.960    8.5940
    6.990    7.8146
    7.020    8.4044
    7.050    8.5308
    7.080    8.3412
    7.110    8.3939
    7.140    8.5413
    7.170    7.9937
    7.200    8.1517
    7.230    8.2991
    7.260    7.8568
    7.290    8.3518
    7.320    8.2780
    7.350    8.3202
    7.380    8.5624
    7.410    8.0779
    7.440    8.3728
    7.470    8.4781
    7.500    8.5097
    7.530    8.6677
    7.560    8.8468
    7.590    9.1101
    7.620    8.8046
    7.650    9.3207
    7.680    9.7420
    7.710    9.5735
    7.740    9.8894
    7.770   10.8268
    7.800   10.5213
    7.830   10.2896
    7.860    9.4576
    7.890    9.1101
    7.920    8.6467
    7.950    8.7414
    7.980    8.5624
    8.010    8.2886
    8.040    8.4466
    8.070    8.2043
    8.100    8.1201
    8.130    8.7098
    8.160    8.5413
    8.190    8.5203
    8.220    8.1727
    8.250    8.3939
    8.280    8.8046
    8.310    8.4466
    8.340    8.5203
    8.370    8.2570
    8.400    8.9521
    8.430    8.5940
    8.460    8.3412
    8.490    8.7520
    8.520    8.5203
    8.550    8.6677
    8.580    8.9205
    8.610    8.8362
    8.640    9.0363
    8.670    8.7309
    8.700    9.3523
    8.730    8.6151
    8.760    9.3628
    8.790    8.8468
    8.820    8.4571
    8.850    8.8152
    8.880    8.8889
    8.910    8.7836
    8.940    8.9731
    8.970    9.0785
    9.000    9.0785
    9.030    8.9100
    9.060    9.2259
    9.090    8.6045
    9.120    8.7204
    9.150    8.7098
    9.180    8.8994
    9.210    9.0995
    9.240    9.5524
    9.270    9.1732
    9.300    9.5313
    9.330    9.7314
    9.360    9.9421
    9.390    9.7104
    9.420   10.5213
    9.450   10.9215
    9.480   12.1222
    9.510   12.8173
    9.540   14.1022
    9.570   13.8073
    9.600   13.1859
    9.630   11.3639
    9.660   10.0685
    9.690    9.4155
    9.720    9.0679
    9.750    9.0047
    9.780    9.1627
    9.810    8.9521
    9.840    8.8994
    9.870    8.7625
    9.900    8.8468
    9.930    8.9415
    9.960    9.0047
    9.990    8.6151
   10.020    8.5729
   10.050    9.0363
   10.080    8.8257
   10.110    9.5629
   10.140    9.4365
   10.170    9.2259
   10.200    9.0574
   10.230    9.6788
   10.260   10.1001
   10.290   10.0474
   10.320   10.4476
   10.350   10.7952
   10.380   10.0790
   10.410    9.4155
   10.440    9.3628
   10.470    9.0679
   10.500    9.0363
   10.530    8.5308
   10.560    8.5835
   10.590    8.2886
   10.620    8.7941
   10.650    8.5940
   10.680    8.9626
   10.710    8.5519
   10.740    8.5519
   10.770    8.5624
   10.800    9.0469
   10.830    8.8994
   10.860    8.6888
   10.890    8.9205
   10.920    8.7520
   10.950    9.2364
   10.980    9.4681
   11.010    9.6788
   11.040   10.3212
   11.070   10.0053
   11.100    9.6051
   11.130    9.2154
   11.160    8.5308
   11.190    8.2886
   11.220    8.2991
   11.250    8.5729
   11.280    8.2675
   11.310    8.6256
   11.340    8.0779
   11.370    8.4781
   11.400    8.7625
   11.430    8.5624
   11.460    8.6677
   11.490    8.2886
   11.520    8.7730
   11.550    8.6151
   11.580    8.4360
   11.610    8.7941
   11.640    9.3102
   11.670    9.6261
   11.700    9.4576
   11.730   10.0895
   11.760    9.6156
   11.790    9.0995
   11.820    8.2886
   11.850    8.2149
   11.880    8.2570
   11.910    8.0990
   11.940    8.1306
   11.970    8.0885
   12.000    7.6883
   12.030    8.2043
   12.060    7.8778
   12.090    8.1938
   12.120    7.8778
   12.150    8.0253
   12.180    7.9726
   12.210    8.0253
   12.240    8.2254
   12.270    8.0885
   12.300    7.6356
   12.330    7.9726
   12.360    8.0463
   12.390    7.9410
   12.420    7.7936
   12.450    8.1306
   12.480    7.9305
   12.510    7.7725
   12.540    7.6461
   12.570    7.3934
   12.600    8.1938
   12.630    7.5724
   12.660    8.0990
   12.690    7.5935
   12.720    7.6461
   12.750    8.0042
   12.780    7.6777
   12.810    8.1622
   12.840    8.0990
   12.870    8.2780
   12.900    8.2464
   12.930    8.5519
   12.960    8.7520
   12.990    8.9415
   13.020    8.5835
   13.050    8.0042
   13.080    7.7830
   13.110    7.6251
   13.140    7.9516
   13.170    7.5935
   13.200    7.5303
   13.230    7.4039
   13.260    7.9621
   13.290    8.0042
   13.320    8.1095
   13.350    7.8884
   13.380    7.7936
   13.410    7.8357
   13.440    8.1517
   13.470    7.6356
   13.500    7.9831
   13.530    8.2886
   13.560    8.2043
   13.590    7.5829
   13.620    8.1411
   13.650    7.9726
   13.680    7.7725
   13.710    7.5197
   13.740    7.6461
   13.770    7.9094
   13.800    7.3302
   13.830    7.3302
   13.860    8.0253
   13.890    7.7409
   13.920    7.3723
   13.950    7.7936
   13.980    7.7725
   14.010    7.2986
   14.040    8.0779
   14.070    8.0569
   14.100    8.4571
   14.130    8.5097
   14.160    7.7936
   14.190    7.9516
   14.220    7.9200
   14.250    7.8673
   14.280    7.4671
   14.310    7.5513
   14.340    7.1090
   14.370    7.3091
   14.400    7.0879
   14.430    7.2670
   14.460    7.0985
   14.490    7.7093
   14.520    7.5197
   14.550    7.5513
   14.580    7.5935
   14.610    7.2354
   14.640    7.4144
   14.670    7.2249
   14.700    7.6040
   14.730    7.3828
   14.760    7.4250
   14.790    7.2880
   14.820    7.2459
   14.850    7.3828
   14.880    7.5935
   14.910    7.8146
   14.940    7.5724
   14.970    7.6777
   15.000    7.3196
   15.030    7.6883
   15.060    7.5092
   15.090    7.4250
   15.120    7.7514
   15.150    7.8989
   15.180    7.7620
   15.210    7.6040
   15.240    7.7199
   15.270    7.6040
   15.300    7.7620
   15.330    7.4039
   15.360    8.1201
   15.390    7.2775
   15.420    7.4355
   15.450    7.7830
   15.480    7.4566
   15.510    7.6356
   15.540    7.8041
   15.570    7.4882
   15.600    7.3934
   15.630    7.7093
   15.660    7.1406
   15.690    7.8146
   15.720    7.1301
   15.750    7.7514
   15.780    7.8778
   15.810    7.5303
   15.840    7.3091
   15.870    7.5935
   15.900    7.2249
   15.930    7.4566
   15.960    7.3934
   15.990    7.4566
   16.020    7.4566
   16.050    7.4776
   16.080    7.4671
   16.110    7.1617
   16.140    7.9094
   16.170    7.9516
   16.200    8.0253
   16.230    7.6461
   16.260    7.7620
   16.290    7.6567
   16.320    7.8357
   16.350    7.5092
   16.380    7.3302
   16.410    7.1301
   16.440    7.6145
   16.470    7.6145
   16.500    7.5513
   16.530    7.6251
   16.560    7.6567
   16.590    7.9305
   16.620    7.5829
   16.650    7.5408
   16.680    7.6356
   16.710    7.5724
   16.740    7.7409
   16.770    7.3407
   16.800    7.7199
   16.830    7.8884
   16.860    7.6145
   16.890    7.7514
   16.920    7.6356
   16.950    7.6356
   16.980    8.0042
   17.010    8.3728
   17.040    7.9831
   17.070    8.1201
   17.100    8.2886
   17.130    8.1411
   17.160    8.0042
   17.190    7.8884
   17.220    7.7304
   17.250    7.2249
   17.280    7.7620
   17.310    7.8568
   17.340    7.6883
   17.370    7.8041
   17.400    7.4882
   17.430    7.5092
   17.460    7.6145
   17.490    8.1095
   17.520    7.4039
   17.550    7.8357
   17.580    7.7620
   17.610    8.0885
   17.640    7.4144
   17.670    7.4987
   17.700    7.4882
   17.730    7.7199
   17.760    7.3407
   17.790    7.4460
   17.820    7.3723
   17.850    7.6040
   17.880    7.6567
   17.910    7.7514
   17.940    7.6251
   17.970    7.4144
   18.000    7.9305
   18.030    7.7199
   18.060    7.2354
   18.090    7.8041
   18.120    7.4250
   18.150    7.3512
   18.180    7.6883
   18.210    7.4987
   18.240    7.9200
   18.270    7.4776
   18.300    8.1622
   18.330    7.6461
   18.360    7.5303
   18.390    7.4882
   18.420    7.4987
   18.450    7.6461
   18.480    7.9200
   18.510    7.7093
   18.540    7.8146
   18.570    7.7409
   18.600    7.4355
   18.630    7.5303
   18.660    7.5829
   18.690    7.1195
   18.720    7.6883
   18.750    7.5303
   18.780    7.3512
   18.810    7.4144
   18.840    7.8989
   18.870    7.5197
   18.900    7.7725
   18.930    7.9305
   18.960    8.2991
   18.990    7.8989
   19.020    7.7936
   19.050    8.0042
   19.080    7.5408
   19.110    7.5724
   19.140    7.8778
   19.170    7.9516
   19.200    7.3618
   19.230    7.3091
   19.260    7.8884
   19.290    7.7093
   19.320    7.1933
   19.350    7.8778
   19.380    7.5619
   19.410    7.7725
   19.440    7.9726
   19.470    7.6567
   19.500    7.7093
   19.530    7.9094
   19.560    7.8252
   19.590    8.2149
   19.620    8.0042
   19.650    7.3828
   19.680    7.5619
   19.710    8.1201
   19.740    7.4776
   19.770    7.7830
   19.800    7.9516
   19.830    7.8462
   19.860    7.8146
   19.890    7.4987
   19.920    7.8357
   19.950    7.3302
   19.980    7.9200
   20.010    7.2986
   20.040    7.6356
   20.070    7.4144
   20.100    7.8146
   20.130    7.3723
   20.160    7.6461
   20.190    8.1411
   20.220    7.7093
   20.250    7.8673
   20.280    8.2780
   20.310    7.8041
   20.340    7.4987
   20.370    8.3412
   20.400    8.5624
   20.430    8.1517
   20.460    8.3728
   20.490    8.1095
   20.520    8.1201
   20.550    7.8778
   20.580    8.1306
   20.610    7.7830
   20.640    8.2464
   20.670    7.6777
   20.700    7.8673
   20.730    8.4360
   20.760    7.7199
   20.790    7.6883
   20.820    8.1833
   20.850    7.5197
   20.880    7.6567
   20.910    7.7304
   20.940    8.1727
   20.970    8.2991
   21.000    8.2254
   21.030    7.1090
   21.060    7.8989
   21.090    8.2780
   21.120    7.7409
   21.150    8.1095
   21.180    8.0569
   21.210    7.6988
   21.240    8.1095
   21.270    7.9410
   21.300    7.5408
   21.330    7.9200
   21.360    8.2464
   21.390    7.7936
   21.420    8.0253
   21.450    7.9094
   21.480    7.8778
   21.510    7.6356
   21.540    7.8568
   21.570    7.7199
   21.600    7.9831
   21.630    8.2675
   21.660    7.9831
   21.690    7.2565
   21.720    7.9937
   21.750    8.0358
   21.780    7.9305
   21.810    8.2991
   21.840    7.7199
   21.870    8.1833
   21.900    8.3202
   21.930    7.6988
   21.960    8.3307
   21.990    8.0885
   22.020    7.7936
   22.050    8.1306
   22.080    7.8568
   22.110    7.9726
   22.140    8.3623
   22.170    8.0990
   22.200    8.2254
   22.230    7.7725
   22.260    8.0674
   22.290    7.7199
   22.320    7.6040
   22.350    8.1833
   22.380    8.5519
   22.410    8.0463
   22.440    7.8252
   22.470    8.1306
   22.500    8.1727
   22.530    8.5519
   22.560    8.7414
   22.590    8.4887
   22.620    8.6993
   22.650    8.5413
   22.680    8.5835
   22.710    8.6045
   22.740    8.0674
   22.770    8.4360
   22.800    8.3834
   22.830    8.0253
   22.860    8.8152
   22.890    8.6045
   22.920    8.6572
   22.950    8.6151
   22.980    8.6151
   23.010    8.7730
   23.040    8.4360
   23.070    8.3202
   23.100    7.8884
   23.130    8.3939
   23.160    8.2780
   23.190    8.4150
   23.220    8.3096
   23.250    8.3096
   23.280    8.0569
   23.310    7.7199
   23.340    7.7725
   23.370    7.8568
   23.400    7.5829
   23.430    8.0042
   23.460    7.7514
   23.490    7.7514
   23.520    8.2149
   23.550    8.1411
   23.580    7.5408
   23.610    8.1411
   23.640    7.8673
   23.670    7.5724
   23.700    7.5092
   23.730    8.0885
   23.760    7.4671
   23.790    8.0569
   23.820    8.0779
   23.850    8.3518
   23.880    7.7093
   23.910    8.3412
   23.940    8.2043
   23.970    7.5092
   24.000    7.5513
   24.030    7.4250
   24.060    8.0569
   24.090    8.1411
   24.120    7.5829
   24.150    7.6883
   24.180    8.1938
   24.210    7.6988
   24.240    8.1095
   24.270    7.2143
   24.300    8.0674
   24.330    7.8462
   24.360    7.6988
   24.390    8.2149
   24.420    7.9200
   24.450    7.6777
   24.480    7.9200
   24.510    7.7409
   24.540    7.6356
   24.570    7.9937
   24.600    7.7725
   24.630    8.3623
   24.660    7.4144
   24.690    7.4039
   24.720    7.8462
   24.750    7.5724
   24.780    7.7093
   24.810    7.8778
   24.840    7.8568
   24.870    7.6777
   24.900    7.5303
   24.930    7.6461
   24.960    7.2670
   24.990    7.8462
   25.020    7.9726
   25.050    7.4144
   25.080    7.4987
   25.110    7.7199
   25.140    7.8041
   25.170    7.6251
   25.200    7.7830
   25.230    7.7199
   25.260    8.0147
   25.290    7.7936
   25.320    7.9516
   25.350    7.8462
   25.380    7.6672
   25.410    7.4250
   25.440    8.0885
   25.470    7.4039
   25.500    7.7093
   25.530    7.5619
   25.560    7.1933
   25.590    7.5197
   25.620    7.3407
   25.650    7.7093
   25.680    7.5513
   25.710    7.7093
   25.740    7.8041
   25.770    8.0569
   25.800    8.4887
   25.830    8.1727
   25.860    7.6883
   25.890    7.6145
   25.920    8.1517
   25.950    7.6883
   25.980    8.0569
   26.010    7.6777
   26.040    7.7409
   26.070    7.7304
   26.100    7.4566
   26.130    7.2038
   26.160    7.4776
   26.190    7.6883
   26.220    7.7830
   26.250    7.2986
   26.280    7.4460
   26.310    7.3407
   26.340    7.4460
   26.370    7.5724
   26.400    7.5935
   26.430    7.7514
   26.460    7.3618
   26.490    7.2565
   26.520    7.3512
   26.550    7.4250
   26.580    7.8462
   26.610    7.4987
   26.640    7.5619
   26.670    7.6251
   26.700    7.5935
   26.730    7.6672
   26.760    7.8568
   26.790    7.2565
   26.820    7.3828
   26.850    7.0774
   26.880    7.6145
   26.910    7.2249
   26.940    7.5935
   26.970    7.4039
   27.000    7.1722
   27.030    7.7514
   27.060    7.5619
   27.090    7.8989
   27.120    7.7830
   27.150    7.5935
   27.180    7.6251
   27.210    7.4987
   27.240    7.5408
   27.270    7.1722
   27.300    7.6461
   27.330    7.1511
   27.360    7.4144
   27.390    7.4776
   27.420    7.2670
   27.450    7.5724
   27.480    7.5513
   27.510    7.1406
   27.540    7.0669
   27.570    7.8357
   27.600    7.8041
   27.630    7.3091
   27.660    7.6040
   27.690    7.4671
   27.720    7.1406
   27.750    7.2038
   27.780    7.4039
   27.810    7.2354
   27.840    7.2143
   27.870    7.4250
   27.900    7.0985
   27.930    7.5303
   27.960    7.6883
   27.990    7.6461
   28.020    7.9726
   28.050    7.6883
   28.080    7.2986
   28.110    7.4460
   28.140    7.2880
   28.170    7.3196
   28.200    7.2986
   28.230    7.4671
   28.260    7.4144
   28.290    7.2459
   28.320    7.2880
   28.350    7.2143
   28.380    6.7299
   28.410    6.8141
   28.440    6.7404
   28.470    7.4039
   28.500    7.2565
   28.530    6.8773
   28.560    7.5303
   28.590    7.2565
   28.620    6.9194
   28.650    7.4987
   28.680    6.9826
   28.710    7.1301
   28.740    6.8668
   28.770    7.0142
   28.800    7.1722
   28.830    7.0879
   28.860    7.0037
   28.890    7.3091
   28.920    7.2143
   28.950    7.2775
   28.980    7.7514
   29.010    7.2775
   29.040    7.2670
   29.070    7.5619
   29.100    6.7825
   29.130    7.0248
   29.160    7.2249
   29.190    7.1722
   29.220    7.4250
   29.250    7.2880
   29.280    7.1511
   29.310    7.3618
   29.340    7.0669
   29.370    7.0037
   29.400    7.0353
   29.430    6.8457
   29.460    7.2354
   29.490    7.3934
   29.520    7.1511
   29.550    7.1933
   29.580    6.8668
   29.610    7.0879
   29.640    6.6140
   29.670    6.7825
   29.700    6.8668
   29.730    6.7720
   29.760    6.9932
   29.790    6.8352
   29.820    7.0774
   29.850    7.0879
   29.880    7.3723
   29.910    7.2459
   29.940    7.1511
   29.970    7.1195
   30.000    6.7299
   30.030    7.0669
   30.060    7.4987
   30.090    6.5508
   30.120    7.0879
   30.150    6.7825
   30.180    6.9826
   30.210    6.7720
   30.240    6.4666
   30.270    6.9405
   30.300    6.6035
   30.330    6.9826
   30.360    6.8878
   30.390    7.4144
   30.420    7.0142
   30.450    6.6456
   30.480    7.1617
   30.510    6.4982
   30.540    6.9300
   30.570    6.9510
   30.600    6.5929
   30.630    7.1301
   30.660    7.0669
   30.690    6.8773
   30.720    6.5192
   30.750    7.0248
   30.780    6.8457
   30.810    6.8984
   30.840    6.5298
   30.870    6.9300
   30.900    6.5508
   30.930    6.7930
   30.960    6.2875
   30.990    6.3928
   31.020    6.8668
   31.050    6.6877
   31.080    6.6456
   31.110    6.6983
   31.140    7.1722
   31.170    6.6245
   31.200    6.7509
   31.230    6.7720
   31.260    6.9721
   31.290    6.5192
   31.320    6.3191
   31.350    6.5824
   31.380    6.7720
   31.410    6.5824
   31.440    6.9932
   31.470    6.8668
   31.500    6.8141
   31.530    6.4455
   31.560    6.4666
   31.590    6.3296
   31.620    6.1295
   31.650    6.2454
   31.680    6.5929
   31.710    6.7509
   31.740    7.0353
   31.770    7.0563
   31.800    7.0037
   31.830    6.9616
   31.860    7.1301
   31.890    6.9089
   31.920    7.0458
   31.950    6.5824
   31.980    6.9721
   32.010    7.0142
   32.040    7.3407
   32.070    7.8146
   32.100    7.6040
   32.130    7.0037
   32.160    7.4776
   32.190    7.2565
   32.220    7.0669
   32.250    6.5087
   32.280    6.4876
   32.310    6.4244
   32.340    6.6035
   32.370    6.6035
   32.400    6.5929
   32.430    6.7404
   32.460    6.7509
   32.490    6.4666
   32.520    6.6983
   32.550    6.3823
   32.580    6.6456
   32.610    6.3191
   32.640    6.3402
   32.670    6.2138
   32.700    6.6351
   32.730    6.0453
   32.760    6.5719
   32.790    6.6772
   32.820    6.5087
   32.850    6.4771
   32.880    6.4666
   32.910    6.4244
   32.940    6.6772
   32.970    6.4350
   33.000    6.2243
   33.030    6.6245
   33.060    6.0242
   33.090    6.2875
   33.120    6.7615
   33.150    6.3612
   33.180    6.3823
   33.210    6.4139
   33.240    6.3402
   33.270    6.1611
   33.300    6.3191
   33.330    5.9505
   33.360    6.1506
   33.390    6.6456
   33.420    6.4771
   33.450    6.8878
   33.480    6.2665
   33.510    6.1717
   33.540    6.5192
   33.570    6.2349
   33.600    6.4034
   33.630    6.1611
   33.660    6.5613
   33.690    6.6983
   33.720    6.2770
   33.750    6.4350
   33.780    6.8457
   33.810    7.1301
   33.840    6.6035
   33.870    7.0458
   33.900    6.7193
   33.930    6.6140
   33.960    6.5087
   33.990    6.5824
   34.020    6.6772
   34.050    6.2559
   34.080    6.1401
   34.110    6.2875
   34.140    6.0874
   34.170    6.3191
   34.200    6.3718
   34.230    6.5298
   34.260    6.2033
   34.290    6.3402
   34.320    5.9189
   34.350    6.6561
   34.380    5.7820
   34.410    6.0032
   34.440    6.2665
   34.470    6.7193
   34.500    6.2981
   34.530    5.9505
   34.560    6.4034
   34.590    6.4876
   34.620    6.1822
   34.650    6.3612
   34.680    6.3612
   34.710    6.2349
   34.740    6.3823
   34.770    6.1085
   34.800    6.2349
   34.830    6.4666
   34.860    6.0348
   34.890    6.4876
   34.920    5.8768
   34.950    6.1611
   34.980    5.8978
   35.010    5.7820
   35.040    5.7609
   35.070    6.3612
   35.100    6.3507
   35.130    6.2875
   35.160    6.1611
   35.190    5.8452
   35.220    5.9400
   35.250    6.3296
   35.280    5.9505
   35.310    6.2981
   35.340    6.1717
   35.370    5.9505
   35.400    5.9821
   35.430    5.9610
   35.460    6.0769
   35.490    6.0874
   35.520    6.0348
   35.550    5.6872
   35.580    6.0137
   35.610    5.8768
   35.640    6.2875
   35.670    6.2559
   35.700    5.8557
   35.730    6.3402
   35.760    6.2033
   35.790    5.9189
   35.820    5.8768
   35.850    5.9610
   35.880    5.9716
   35.910    6.0874
   35.940    5.8768
   35.970    5.9294
   36.000    5.8978
   36.030    6.5298
   36.060    5.6977
   36.090    6.1927
   36.120    5.8452
   36.150    5.9505
   36.180    6.1295
   36.210    5.8873
   36.240    6.0979
   36.270    6.0769
   36.300    6.2243
   36.330    6.1822
   36.360    6.3823
   36.390    5.8557
   36.420    5.8452
   36.450    6.2138
   36.480    5.8978
   36.510    5.9294
   36.540    5.7188
   36.570    6.0453
   36.600    5.9926
   36.630    5.6767
   36.660    5.9610
   36.690    5.9400
   36.720    5.6661
   36.750    5.8978
   36.780    5.6661
   36.810    5.9610
   36.840    6.1717
   36.870    6.0137
   36.900    6.0769
   36.930    6.1190
   36.960    5.9084
   36.990    5.9821
   37.020    6.3191
   37.050    5.8347
   37.080    6.0558
   37.110    5.9821
   37.140    5.6451
   37.170    6.1085
   37.200    6.1927
   37.230    5.7925
   37.260    6.3718
   37.290    5.9084
   37.320    6.6456
   37.350    6.1822
   37.380    6.0137
   37.410    5.4766
   37.440    5.9716
   37.470    5.9400
   37.500    6.1401
   37.530    5.9084
   37.560    5.7083
   37.590    5.7293
   37.620    5.6451
   37.650    5.8768
   37.680    5.4976
   37.710    5.8136
   37.740    6.1401
   37.770    6.1085
   37.800    5.7820
   37.830    6.0979
   37.860    5.8136
   37.890    6.0558
   37.920    6.0032
   37.950    5.6872
   37.980    5.9610
   38.010    5.9505
   38.040    5.7504
   38.070    5.9505
   38.100    5.8241
   38.130    5.8241
   38.160    5.7820
   38.190    5.7504
   38.220    5.7925
   38.250    5.4344
   38.280    6.0137
   38.310    5.9400
   38.340    5.8662
   38.370    6.1927
   38.400    5.8241
   38.430    5.8031
   38.460    6.0242
   38.490    5.9400
   38.520    5.8978
   38.550    5.7715
   38.580    5.8347
   38.610    6.1822
   38.640    5.7609
   38.670    6.4244
   38.700    6.0348
   38.730    5.9294
   38.760    5.8241
   38.790    5.9084
   38.820    5.7715
   38.850    5.9189
   38.880    5.8662
   38.910    5.8978
   38.940    6.1717
   38.970    6.0137
   39.000    5.9400
   39.030    6.0874
   39.060    5.7820
   39.090    6.0558
   39.120    6.0664
   39.150    6.0032
   39.180    5.8241
   39.210    6.1822
   39.240    6.1190
   39.270    6.0137
   39.300    6.2665
   39.330    6.2243
   39.360    5.4450
   39.390    5.7715
   39.420    6.0979
   39.450    6.1611
   39.480    6.0348
   39.510    5.7504
   39.540    6.1822
   39.570    5.6872
   39.600    5.8662
   39.630    5.9926
   39.660    6.4034
   39.690    5.5503
   39.720    5.7399
   39.750    5.6872
   39.780    6.0664
   39.810    6.0874
   39.840    5.7504
   39.870    5.7504
   39.900    5.4766
   39.930    5.9400
   39.960    5.8452
   39.990    6.0558