File: data/MOCOF-1/PXRD/PXRD_KE-126_Cu-Ka1_capillary-1mm_5s-deg.xyd
    1.500   13.5334
    1.530   13.2912
    1.560   13.4492
    1.590   13.1648
    1.620   12.4908
    1.650   13.1648
    1.680   12.5224
    1.710   12.6804
    1.740   12.5434
    1.770   12.6698
    1.800   12.6698
    1.830   12.2380
    1.860   12.2064
    1.890   12.0800
    1.920   12.5013
    1.950   12.3644
    1.980   12.4171
    2.010   12.5856
    2.040   12.7225
    2.070   12.1327
    2.100   12.7225
    2.130   13.1964
    2.160   13.2491
    2.190   13.5229
    2.220   13.5018
    2.250   13.6598
    2.280   13.4913
    2.310   13.7757
    2.340   13.9968
    2.370   14.7446
    2.400   14.8183
    2.430   15.4818
    2.460   16.5034
    2.490   16.1453
    2.520   16.6614
    2.550   16.6298
    2.580   17.4092
    2.610   17.7041
    2.640   18.1885
    2.670   18.3781
    2.700   20.0527
    2.730   21.0321
    2.760   20.5793
    2.790   21.5061
    2.820   22.4223
    2.850   23.1174
    2.880   24.8868
    2.910   25.8873
    2.940   27.1301
    2.970   28.8889
    3.000   29.8473
    3.030   32.0695
    3.060   32.4065
    3.090   36.1875
    3.120   37.5777
    3.150   40.3265
    3.180   43.8125
    3.210   47.2986
    3.240   50.5319
    3.270   55.7767
    3.300   59.9052
    3.330   67.8252
    3.360   76.2612
    3.390   84.5076
    3.420   95.1869
    3.450  102.6962
    3.480   98.5571
    3.510   80.1159
    3.540   59.8104
    3.570   44.5287
    3.600   36.9563
    3.630   33.1859
    3.660   31.5008
    3.690   30.7320
    3.720   31.5850
    3.750   32.6804
    3.780   34.2496
    3.810   35.6819
    3.840   38.0095
    3.870   40.0211
    3.900   40.4107
    3.930   41.8957
    3.960   42.5066
    3.990   44.3391
    4.020   42.8963
    4.050   41.4745
    4.080   39.2101
    4.110   36.4297
    4.140   34.3233
    4.170   30.6793
    4.200   26.6772
    4.230   23.7599
    4.260   21.0005
    4.290   18.7362
    4.320   16.1664
    4.350   15.4186
    4.380   12.9647
    4.410   11.6377
    4.440   11.1006
    4.470    9.8368
    4.500    9.1943
    4.530    8.7520
    4.560    8.4044
    4.590    7.2565
    4.620    7.7199
    4.650    7.5935
    4.680    7.0563
    4.710    6.6456
    4.740    6.4350
    4.770    6.3296
    4.800    6.3191
    4.830    6.0769
    4.860    5.9294
    4.890    6.1506
    4.920    5.9505
    4.950    5.9821
    4.980    6.0769
    5.010    5.4555
    5.040    5.6767
    5.070    6.1190
    5.100    5.6556
    5.130    5.7293
    5.160    5.8031
    5.190    5.8031
    5.220    5.6661
    5.250    5.5714
    5.280    5.4239
    5.310    5.2870
    5.340    5.2870
    5.370    5.3397
    5.400    5.5503
    5.430    5.8031
    5.460    5.1817
    5.490    5.0869
    5.520    5.1606
    5.550    5.3186
    5.580    5.1711
    5.610    5.2343
    5.640    5.4660
    5.670    5.1185
    5.700    5.3291
    5.730    4.7604
    5.760    5.1080
    5.790    4.9816
    5.820    5.1395
    5.850    5.0132
    5.880    5.1711
    5.910    4.9500
    5.940    5.1606
    5.970    5.0026
    6.000    4.9394
    6.030    5.3186
    6.060    5.2027
    6.090    5.3818
    6.120    5.3291
    6.150    5.4450
    6.180    5.2133
    6.210    5.0764
    6.240    5.1711
    6.270    5.2343
    6.300    5.1395
    6.330    5.3712
    6.360    5.6661
    6.390    5.4555
    6.420    5.8136
    6.450    5.6661
    6.480    5.7188
    6.510    6.1927
    6.540    6.1506
    6.570    6.2665
    6.600    6.4982
    6.630    6.6456
    6.660    7.2354
    6.690    7.1722
    6.720    7.9410
    6.750    8.6361
    6.780    8.8046
    6.810    9.8473
    6.840    9.8368
    6.870   11.1216
    6.900   13.1016
    6.930   13.7651
    6.960   14.2180
    6.990   13.8599
    7.020   11.8378
    7.050    9.5103
    7.080    7.9410
    7.110    7.2038
    7.140    6.3612
    7.170    6.2875
    7.200    5.8978
    7.230    5.8241
    7.260    5.5187
    7.290    5.9400
    7.320    6.0453
    7.350    5.3397
    7.380    6.0032
    7.410    5.6767
    7.440    5.9400
    7.470    5.9926
    7.500    6.1190
    7.530    5.9400
    7.560    6.1927
    7.590    6.2981
    7.620    6.4876
    7.650    6.0979
    7.680    6.5403
    7.710    6.4560
    7.740    6.8773
    7.770    6.8457
    7.800    7.1195
    7.830    6.8352
    7.860    7.2249
    7.890    7.9831
    7.920    7.3723
    7.950    7.6883
    7.980    7.6672
    8.010    8.2149
    8.040    8.2149
    8.070    8.4044
    8.100    7.9937
    8.130    7.9726
    8.160    8.1201
    8.190    8.1306
    8.220    7.6461
    8.250    7.7199
    8.280    7.5619
    8.310    7.5197
    8.340    7.3407
    8.370    6.8878
    8.400    7.4776
    8.430    7.2565
    8.460    6.7825
    8.490    6.8878
    8.520    6.6140
    8.550    6.3507
    8.580    6.6983
    8.610    6.3718
    8.640    6.0453
    8.670    6.1611
    8.700    5.7715
    8.730    5.6767
    8.760    5.6345
    8.790    5.6345
    8.820    5.6977
    8.850    5.4239
    8.880    5.7083
    8.910    5.3607
    8.940    5.4871
    8.970    5.2449
    9.000    4.9394
    9.030    5.3186
    9.060    5.2449
    9.090    5.0237
    9.120    5.3712
    9.150    5.1185
    9.180    5.0237
    9.210    4.9394
    9.240    5.2449
    9.270    5.0658
    9.300    4.8657
    9.330    4.8025
    9.360    4.8341
    9.390    5.0237
    9.420    4.8763
    9.450    4.9184
    9.480    4.8657
    9.510    5.2554
    9.540    5.0026
    9.570    4.8447
    9.600    4.8025
    9.630    4.8341
    9.660    4.4866
    9.690    4.7183
    9.720    4.9394
    9.750    4.6761
    9.780    4.8236
    9.810    4.7288
    9.840    4.9710
    9.870    4.9078
    9.900    5.0658
    9.930    4.9078
    9.960    4.9816
    9.990    4.6340
   10.020    4.8552
   10.050    4.6761
   10.080    4.9710
   10.110    4.8341
   10.140    4.5182
   10.170    4.9184
   10.200    5.1290
   10.230    5.0869
   10.260    4.8131
   10.290    5.0658
   10.320    5.3081
   10.350    5.3186
   10.380    5.4450
   10.410    5.5503
   10.440    5.3818
   10.470    5.4450
   10.500    5.5714
   10.530    5.0658
   10.560    5.3291
   10.590    4.9289
   10.620    4.9184
   10.650    4.7709
   10.680    5.1606
   10.710    5.0237
   10.740    4.4550
   10.770    4.7183
   10.800    4.9078
   10.830    4.9289
   10.860    5.0237
   10.890    4.7288
   10.920    4.9605
   10.950    4.7709
   10.980    4.7499
   11.010    5.1711
   11.040    4.6445
   11.070    4.7604
   11.100    4.6024
   11.130    4.8131
   11.160    4.7077
   11.190    4.6235
   11.220    4.6340
   11.250    4.6656
   11.280    4.7604
   11.310    4.7920
   11.340    5.2659
   11.370    4.6761
   11.400    4.7920
   11.430    5.1606
   11.460    4.8763
   11.490    4.9500
   11.520    4.6761
   11.550    4.7288
   11.580    4.9921
   11.610    5.0974
   11.640    5.1080
   11.670    4.8973
   11.700    4.8341
   11.730    4.9710
   11.760    5.0448
   11.790    5.0974
   11.820    4.8131
   11.850    5.1395
   11.880    4.6235
   11.910    5.0764
   11.940    4.7393
   11.970    5.1817
   12.000    5.3186
   12.030    5.2659
   12.060    5.4660
   12.090    5.2975
   12.120    5.7715
   12.150    4.7288
   12.180    5.0132
   12.210    4.9184
   12.240    5.1185
   12.270    5.6872
   12.300    5.1817
   12.330    4.9816
   12.360    5.1606
   12.390    5.2554
   12.420    5.0974
   12.450    5.1080
   12.480    5.2449
   12.510    5.2554
   12.540    5.0764
   12.570    4.9710
   12.600    5.2449
   12.630    5.2554
   12.660    5.1501
   12.690    4.9289
   12.720    5.0342
   12.750    4.8236
   12.780    5.0764
   12.810    5.1395
   12.840    4.6867
   12.870    5.1922
   12.900    5.2133
   12.930    5.0974
   12.960    4.9605
   12.990    4.8973
   13.020    5.1817
   13.050    4.9078
   13.080    4.8868
   13.110    4.9500
   13.140    4.8973
   13.170    5.0764
   13.200    4.9816
   13.230    5.3186
   13.260    4.9500
   13.290    5.0026
   13.320    4.9184
   13.350    5.0237
   13.380    4.9921
   13.410    5.3397
   13.440    4.7183
   13.470    4.7815
   13.500    4.8763
   13.530    5.1817
   13.560    4.7709
   13.590    4.9500
   13.620    4.8552
   13.650    5.0237
   13.680    5.0026
   13.710    4.4760
   13.740    4.9289
   13.770    5.0448
   13.800    5.0237
   13.830    4.9394
   13.860    4.5919
   13.890    4.8131
   13.920    5.1185
   13.950    4.8552
   13.980    5.1501
   14.010    4.9078
   14.040    4.7288
   14.070    4.7920
   14.100    4.7499
   14.130    4.5287
   14.160    4.8868
   14.190    4.6867
   14.220    5.0026
   14.250    4.5392
   14.280    4.5392
   14.310    4.7815
   14.340    4.4023
   14.370    4.5603
   14.400    4.5603
   14.430    4.6445
   14.460    4.6761
   14.490    4.7709
   14.520    4.5814
   14.550    4.4655
   14.580    4.5182
   14.610    4.5814
   14.640    4.6551
   14.670    4.8131
   14.700    4.4760
   14.730    4.7920
   14.760    4.5392
   14.790    4.4339
   14.820    4.4971
   14.850    4.6024
   14.880    4.6656
   14.910    4.7288
   14.940    4.5919
   14.970    4.4444
   15.000    4.6130
   15.030    4.6761
   15.060    4.6024
   15.090    4.4444
   15.120    4.6235
   15.150    4.6130
   15.180    4.6761
   15.210    4.8657
   15.240    4.6761
   15.270    4.4444
   15.300    4.8341
   15.330    4.3918
   15.360    4.5182
   15.390    5.0237
   15.420    4.8341
   15.450    4.6972
   15.480    4.7815
   15.510    4.5919
   15.540    4.6972
   15.570    4.6761
   15.600    4.8973
   15.630    4.8657
   15.660    4.7709
   15.690    4.5182
   15.720    4.5076
   15.750    4.5182
   15.780    4.6656
   15.810    4.8868
   15.840    5.1501
   15.870    4.8763
   15.900    5.0658
   15.930    4.9394
   15.960    4.6761
   15.990    4.4339
   16.020    4.4550
   16.050    4.7920
   16.080    4.9816
   16.110    4.7709
   16.140    4.7709
   16.170    4.7815
   16.200    4.7709
   16.230    5.1290
   16.260    5.2238
   16.290    4.6024
   16.320    4.9184
   16.350    4.6130
   16.380    4.7077
   16.410    4.5603
   16.440    4.8868
   16.470    4.5076
   16.500    4.5919
   16.530    4.6235
   16.560    4.2233
   16.590    4.2549
   16.620    4.4234
   16.650    4.8025
   16.680    4.8552
   16.710    4.3813
   16.740    4.6761
   16.770    4.9078
   16.800    4.5182
   16.830    4.4760
   16.860    4.8025
   16.890    4.6130
   16.920    4.7499
   16.950    4.7709
   16.980    4.6130
   17.010    4.4866
   17.040    4.6972
   17.070    4.5708
   17.100    4.8025
   17.130    4.5287
   17.160    4.6656
   17.190    4.8973
   17.220    4.6445
   17.250    4.8131
   17.280    4.5498
   17.310    4.8447
   17.340    4.8025
   17.370    4.6551
   17.400    4.5603
   17.430    5.0553
   17.460    5.0342
   17.490    4.5498
   17.520    4.5708
   17.550    4.6972
   17.580    4.7499
   17.610    4.5603
   17.640    4.4023
   17.670    4.8868
   17.700    4.7288
   17.730    4.7499
   17.760    4.6551
   17.790    4.5919
   17.820    4.4339
   17.850    4.6867
   17.880    4.8657
   17.910    4.5708
   17.940    4.7077
   17.970    4.9816
   18.000    4.5708
   18.030    4.9710
   18.060    4.7288
   18.090    4.8447
   18.120    4.4339
   18.150    4.5919
   18.180    4.3813
   18.210    4.4339
   18.240    4.6761
   18.270    4.5814
   18.300    4.7604
   18.330    4.8868
   18.360    4.9394
   18.390    4.8131
   18.420    4.7499
   18.450    4.7499
   18.480    4.9500
   18.510    4.9394
   18.540    5.0342
   18.570    4.8025
   18.600    4.8763
   18.630    4.5076
   18.660    4.7183
   18.690    4.4971
   18.720    5.0448
   18.750    4.6445
   18.780    5.0553
   18.810    4.6551
   18.840    4.8868
   18.870    5.0342
   18.900    5.1290
   18.930    4.8025
   18.960    4.8025
   18.990    4.7815
   19.020    5.0237
   19.050    5.0026
   19.080    4.9078
   19.110    4.9078
   19.140    4.8341
   19.170    4.7920
   19.200    4.9816
   19.230    4.8868
   19.260    4.6235
   19.290    5.2870
   19.320    5.0026
   19.350    4.8025
   19.380    4.9394
   19.410    5.0869
   19.440    5.0448
   19.470    5.2133
   19.500    4.6656
   19.530    5.1080
   19.560    4.9816
   19.590    4.9921
   19.620    4.7920
   19.650    4.8868
   19.680    5.0448
   19.710    5.5503
   19.740    5.4766
   19.770    5.2343
   19.800    4.8973
   19.830    5.3186
   19.860    5.5503
   19.890    5.2343
   19.920    5.2238
   19.950    5.3818
   19.980    5.1290
   20.010    5.0764
   20.040    5.2238
   20.070    5.0869
   20.100    5.4028
   20.130    5.2449
   20.160    5.2027
   20.190    5.0974
   20.220    5.2765
   20.250    4.8868
   20.280    5.3818
   20.310    5.1711
   20.340    5.3186
   20.370    5.1185
   20.400    5.3923
   20.430    5.2449
   20.460    5.4239
   20.490    4.9921
   20.520    5.4239
   20.550    5.2027
   20.580    5.3923
   20.610    5.4871
   20.640    5.4028
   20.670    5.2765
   20.700    5.0132
   20.730    5.6135
   20.760    5.0026
   20.790    5.3186
   20.820    4.7393
   20.850    5.2659
   20.880    5.5292
   20.910    5.6029
   20.940    5.4028
   20.970    5.0026
   21.000    5.4555
   21.030    5.2975
   21.060    5.4660
   21.090    5.2975
   21.120    5.0974
   21.150    5.2765
   21.180    4.9184
   21.210    5.2343
   21.240    5.5819
   21.270    5.5398
   21.300    5.1817
   21.330    5.5714
   21.360    5.5292
   21.390    5.1922
   21.420    5.2027
   21.450    5.4660
   21.480    5.3923
   21.510    5.4450
   21.540    5.4134
   21.570    5.5187
   21.600    5.1501
   21.630    5.5608
   21.660    5.2343
   21.690    5.1606
   21.720    5.3607
   21.750    5.6345
   21.780    5.1606
   21.810    5.3291
   21.840    5.2554
   21.870    5.3186
   21.900    5.0764
   21.930    5.7083
   21.960    5.2343
   21.990    5.1606
   22.020    5.2659
   22.050    5.0553
   22.080    5.3081
   22.110    5.3818
   22.140    5.1290
   22.170    5.3186
   22.200    5.1395
   22.230    5.1395
   22.260    5.3818
   22.290    5.1606
   22.320    5.4344
   22.350    4.9500
   22.380    5.4134
   22.410    5.3712
   22.440    5.0553
   22.470    5.0869
   22.500    4.8973
   22.530    5.4871
   22.560    5.5924
   22.590    5.4976
   22.620    5.7188
   22.650    5.1290
   22.680    5.0342
   22.710    5.2238
   22.740    5.1711
   22.770    5.1501
   22.800    5.4134
   22.830    5.2238
   22.860    5.1185
   22.890    5.0132
   22.920    5.3818
   22.950    5.3712
   22.980    5.4766
   23.010    5.1817
   23.040    5.1606
   23.070    5.3186
   23.100    5.0869
   23.130    5.2449
   23.160    4.9394
   23.190    4.8973
   23.220    5.2343
   23.250    5.1711
   23.280    5.3081
   23.310    5.2238
   23.340    5.1606
   23.370    4.9921
   23.400    5.0448
   23.430    5.2343
   23.460    5.1290
   23.490    5.2765
   23.520    4.9921
   23.550    5.1922
   23.580    5.2554
   23.610    4.9078
   23.640    4.7604
   23.670    4.8447
   23.700    5.4134
   23.730    5.0658
   23.760    4.8763
   23.790    5.1711
   23.820    4.9921
   23.850    5.0658
   23.880    5.0869
   23.910    5.4028
   23.940    5.2975
   23.970    4.9816
   24.000    4.9078
   24.030    5.1606
   24.060    4.8236
   24.090    5.1922
   24.120    4.9394
   24.150    5.2027
   24.180    5.0553
   24.210    4.9816
   24.240    4.9710
   24.270    4.8973
   24.300    4.8131
   24.330    4.8763
   24.360    4.9605
   24.390    4.7499
   24.420    4.9184
   24.450    4.9184
   24.480    4.8657
   24.510    5.1817
   24.540    4.8973
   24.570    5.5398
   24.600    5.2449
   24.630    4.9921
   24.660    4.8973
   24.690    4.9289
   24.720    5.0448
   24.750    4.8131
   24.780    4.8447
   24.810    4.9078
   24.840    4.7709
   24.870    5.1711
   24.900    5.1922
   24.930    5.0342
   24.960    4.7499
   24.990    5.1185
   25.020    4.9078
   25.050    4.5603
   25.080    4.3707
   25.110    4.9078
   25.140    4.8763
   25.170    4.9394
   25.200    4.5708
   25.230    4.7815
   25.260    4.7709
   25.290    4.9816
   25.320    4.8131
   25.350    4.8552
   25.380    4.8341
   25.410    4.8552
   25.440    4.9710
   25.470    4.8763
   25.500    4.9184
   25.530    4.7499
   25.560    4.7183
   25.590    5.0658
   25.620    5.1606
   25.650    4.4655
   25.680    4.7709
   25.710    4.7288
   25.740    4.7709
   25.770    4.9500
   25.800    4.3918
   25.830    4.8025
   25.860    4.7604
   25.890    5.0342
   25.920    4.6340
   25.950    4.5076
   25.980    4.7393
   26.010    4.8025
   26.040    4.5287
   26.070    4.7183
   26.100    4.6024
   26.130    4.4760
   26.160    4.7077
   26.190    4.4866
   26.220    4.4971
   26.250    4.6656
   26.280    4.7815
   26.310    4.6867
   26.340    4.4339
   26.370    4.9605
   26.400    4.7815
   26.430    4.4866
   26.460    4.2443
   26.490    4.2549
   26.520    4.7815
   26.550    4.3707
   26.580    4.6235
   26.610    4.5076
   26.640    4.6551
   26.670    4.6656
   26.700    4.6024
   26.730    4.7499
   26.760    4.5392
   26.790    4.4444
   26.820    4.6867
   26.850    4.6656
   26.880    4.3181
   26.910    4.7183
   26.940    4.6867
   26.970    4.2759
   27.000    4.3075
   27.030    4.6551
   27.060    4.7288
   27.090    4.3813
   27.120    4.5287
   27.150    4.7288
   27.180    4.3918
   27.210    4.9394
   27.240    4.3286
   27.270    4.4023
   27.300    4.2865
   27.330    4.0758
   27.360    4.5708
   27.390    4.7499
   27.420    4.2127
   27.450    4.4760
   27.480    4.6551
   27.510    4.4971
   27.540    4.3286
   27.570    4.4234
   27.600    4.3918
   27.630    4.4128
   27.660    4.3813
   27.690    4.6024
   27.720    4.5287
   27.750    4.5498
   27.780    4.7815
   27.810    4.2233
   27.840    4.1180
   27.870    4.7077
   27.900    4.2338
   27.930    4.5814
   27.960    4.6024
   27.990    4.6024
   28.020    4.5392
   28.050    4.3391
   28.080    4.5603
   28.110    4.4128
   28.140    4.5182
   28.170    4.4760
   28.200    4.6551
   28.230    5.0448
   28.260    4.6024
   28.290    4.4023
   28.320    4.6551
   28.350    4.6235
   28.380    4.3391
   28.410    4.5708
   28.440    4.3391
   28.470    4.6972
   28.500    4.5287
   28.530    4.2865
   28.560    4.4550
   28.590    4.3286
   28.620    3.9705
   28.650    4.1285
   28.680    4.6024
   28.710    4.5603
   28.740    4.2970
   28.770    4.0758
   28.800    4.2865
   28.830    4.1390
   28.860    4.4444
   28.890    4.3075
   28.920    4.0758
   28.950    4.4655
   28.980    4.4971
   29.010    4.5392
   29.040    4.3181
   29.070    4.4023
   29.100    4.4234
   29.130    4.2127
   29.160    4.1074
   29.190    4.4023
   29.220    4.1074
   29.250    4.3813
   29.280    4.1180
   29.310    4.2233
   29.340    4.2970
   29.370    4.4550
   29.400    4.1601
   29.430    4.4234
   29.460    4.1706
   29.490    4.1601
   29.520    4.2022
   29.550    4.4550
   29.580    4.3075
   29.610    4.4234
   29.640    4.1917
   29.670    4.2338
   29.700    4.0548
   29.730    4.2443
   29.760    4.1811
   29.790    4.0758
   29.820    4.1285
   29.850    4.1285
   29.880    4.1917
   29.910    4.3181
   29.940    4.1285
   29.970    4.3286
   30.000    4.0864
   30.030    3.8336
   30.060    3.8336
   30.090    4.3497
   30.120    4.1601
   30.150    4.3075
   30.180    4.0758
   30.210    3.8336
   30.240    4.3181
   30.270    4.3813
   30.300    4.2233
   30.330    4.0653
   30.360    4.3075
   30.390    4.0337
   30.420    4.0969
   30.450    4.4234
   30.480    4.3918
   30.510    4.1180
   30.540    4.1390
   30.570    3.9916
   30.600    3.9600
   30.630    3.9705
   30.660    4.3075
   30.690    4.3602
   30.720    3.9389
   30.750    4.2759
   30.780    3.9494
   30.810    4.0969
   30.840    3.9916
   30.870    4.0548
   30.900    3.8757
   30.930    3.7072
   30.960    4.3075
   30.990    3.9284
   31.020    4.0021
   31.050    4.3707
   31.080    3.8757
   31.110    3.9073
   31.140    3.8863
   31.170    3.7283
   31.200    4.2443
   31.230    3.9705
   31.260    3.8863
   31.290    3.9600
   31.320    4.1811
   31.350    4.0969
   31.380    3.9810
   31.410    4.1390
   31.440    3.7704
   31.470    4.2233
   31.500    4.3181
   31.530    4.2233
   31.560    4.1706
   31.590    3.9705
   31.620    4.0653
   31.650    3.9600
   31.680    3.9284
   31.710    4.1601
   31.740    4.1706
   31.770    4.0758
   31.800    4.2759
   31.830    4.2549
   31.860    4.0337
   31.890    4.2970
   31.920    3.8757
   31.950    3.9705
   31.980    3.8863
   32.010    4.1074
   32.040    4.0653
   32.070    4.3286
   32.100    4.0864
   32.130    4.0548
   32.160    3.9600
   32.190    4.0864
   32.220    3.7599
   32.250    3.8547
   32.280    3.7599
   32.310    4.0232
   32.340    3.8652
   32.370    4.0021
   32.400    3.8441
   32.430    4.1496
   32.460    4.0864
   32.490    3.9916
   32.520    3.6230
   32.550    3.8757
   32.580    4.1074
   32.610    3.8968
   32.640    4.0548
   32.670    4.0021
   32.700    3.8125
   32.730    3.7599
   32.760    3.8125
   32.790    3.6019
   32.820    4.0548
   32.850    3.9073
   32.880    3.7599
   32.910    3.7388
   32.940    3.8863
   32.970    3.7283
   33.000    3.7177
   33.030    3.6967
   33.060    3.7704
   33.090    3.5176
   33.120    3.8125
   33.150    3.6124
   33.180    3.8231
   33.210    3.6651
   33.240    3.6862
   33.270    3.8547
   33.300    3.6756
   33.330    3.9916
   33.360    3.5071
   33.390    3.7283
   33.420    3.5703
   33.450    3.6019
   33.480    3.2965
   33.510    3.7493
   33.540    3.7177
   33.570    3.5492
   33.600    3.9494
   33.630    3.8125
   33.660    3.3807
   33.690    3.8652
   33.720    3.8547
   33.750    3.4544
   33.780    3.5808
   33.810    3.8863
   33.840    3.6124
   33.870    3.7704
   33.900    3.8968
   33.930    3.7599
   33.960    3.5176
   33.990    3.6756
   34.020    3.5808
   34.050    3.8547
   34.080    3.5071
   34.110    3.4123
   34.140    3.5071
   34.170    3.3281
   34.200    3.2754
   34.230    3.6967
   34.260    3.4544
   34.290    3.5176
   34.320    3.5703
   34.350    3.8547
   34.380    3.5492
   34.410    3.5808
   34.440    3.5387
   34.470    3.4544
   34.500    3.7283
   34.530    3.5703
   34.560    3.5176
   34.590    3.5492
   34.620    3.5071
   34.650    3.4966
   34.680    3.7388
   34.710    3.3491
   34.740    3.3597
   34.770    3.4018
   34.800    3.4018
   34.830    3.4123
   34.860    3.2649
   34.890    3.3913
   34.920    3.3281
   34.950    3.2333
   34.980    3.6756
   35.010    3.4123
   35.040    3.3175
   35.070    3.4439
   35.100    3.2543
   35.130    3.1912
   35.160    3.4334
   35.190    3.3913
   35.220    3.2333
   35.250    3.8231
   35.280    3.4334
   35.310    3.6124
   35.340    3.3386
   35.370    3.3070
   35.400    3.6440
   35.430    3.4334
   35.460    3.6546
   35.490    3.6230
   35.520    3.2859
   35.550    3.3491
   35.580    3.4229
   35.610    3.2017
   35.640    3.2649
   35.670    3.3070
   35.700    3.3070
   35.730    3.2543
   35.760    3.4018
   35.790    3.6230
   35.820    3.4018
   35.850    3.0542
   35.880    3.3281
   35.910    3.2333
   35.940    3.3491
   35.970    3.3175
   36.000    3.5808
   36.030    3.1490
   36.060    3.3175
   36.090    3.1174
   36.120    3.4755
   36.150    3.3597
   36.180    3.4439
   36.210    3.3807
   36.240    3.1701
   36.270    3.4860
   36.300    3.3807
   36.330    2.8752
   36.360    3.3070
   36.390    3.4755
   36.420    3.2333
   36.450    3.2754
   36.480    3.4439
   36.510    3.2122
   36.540    3.2333
   36.570    2.9279
   36.600    3.5387
   36.630    3.6019
   36.660    3.2754
   36.690    3.1490
   36.720    3.4966
   36.750    3.1596
   36.780    3.0121
   36.810    3.3386
   36.840    3.4439
   36.870    3.4123
   36.900    3.2543
   36.930    3.4123
   36.960    3.0332
   36.990    3.1490
   37.020    3.0332
   37.050    3.1912
   37.080    3.1806
   37.110    3.0226
   37.140    3.1596
   37.170    3.2754
   37.200    3.3491
   37.230    2.8752
   37.260    3.4755
   37.290    3.1280
   37.320    3.1385
   37.350    3.4439
   37.380    3.2122
   37.410    3.1596
   37.440    3.1069
   37.470    2.9910
   37.500    3.2754
   37.530    3.1701
   37.560    3.2122
   37.590    3.2649
   37.620    3.4439
   37.650    3.4650
   37.680    3.0332
   37.710    3.2017
   37.740    3.2543
   37.770    3.0648
   37.800    3.2438
   37.830    3.2965
   37.860    3.2438
   37.890    3.1912
   37.920    3.2227
   37.950    3.0753
   37.980    2.9489
   38.010    3.3070
   38.040    3.2227
   38.070    3.1912
   38.100    2.8752
   38.130    3.0648
   38.160    3.0648
   38.190    3.0542
   38.220    3.4123
   38.250    3.2017
   38.280    3.0121
   38.310    2.9700
   38.340    3.1069
   38.370    3.1280
   38.400    3.1596
   38.430    3.1701
   38.460    3.0858
   38.490    3.0648
   38.520    3.0964
   38.550    3.0648
   38.580    2.9173
   38.610    3.1490
   38.640    3.2227
   38.670    3.1912
   38.700    3.0121
   38.730    3.4650
   38.760    3.4018
   38.790    3.0016
   38.820    3.2965
   38.850    3.4018
   38.880    2.9910
   38.910    3.1490
   38.940    3.1174
   38.970    3.1174
   39.000    3.2754
   39.030    3.1069
   39.060    2.8225
   39.090    3.0753
   39.120    3.0437
   39.150    3.2438
   39.180    3.2965
   39.210    3.2438
   39.240    3.2438
   39.270    3.0964
   39.300    2.8963
   39.330    3.1490
   39.360    3.0542
   39.390    3.2017
   39.420    3.0016
   39.450    2.8015
   39.480    2.9700
   39.510    3.1701
   39.540    3.0332
   39.570    3.0226
   39.600    3.1490
   39.630    2.9595
   39.660    3.2333
   39.690    3.1280
   39.720    3.2333
   39.750    3.2859
   39.780    3.3491
   39.810    3.3702
   39.840    3.0753
   39.870    3.4229
   39.900    3.0648
   39.930    3.1174
   39.960    3.0648
   39.990    2.9068