File: data/MOCOF-1/PXRD/PXRD_KE-310_Cu-Ka1_capillary-1mm_60s-deg.xyd
    1.500    5.8110
    1.530    5.8022
    1.560    5.6600
    1.590    5.5196
    1.620    5.4678
    1.650    5.3326
    1.680    5.2194
    1.710    5.2150
    1.740    5.0772
    1.770    5.0334
    1.800    4.7867
    1.830    4.9087
    1.860    4.7744
    1.890    4.7358
    1.920    4.6051
    1.950    4.6410
    1.980    4.4997
    2.010    4.4594
    2.040    4.4383
    2.070    4.4243
    2.100    4.2549
    2.130    4.3093
    2.160    4.2242
    2.190    4.1899
    2.220    4.1522
    2.250    4.0820
    2.280    4.1206
    2.310    3.9942
    2.340    3.9424
    2.370    3.9056
    2.400    3.8450
    2.430    3.9152
    2.460    3.7564
    2.490    3.7950
    2.520    3.7098
    2.550    3.7388
    2.580    3.7186
    2.610    3.6405
    2.640    3.6352
    2.670    3.6230
    2.700    3.5773
    2.730    3.5405
    2.760    3.5291
    2.790    3.5492
    2.820    3.5010
    2.850    3.5852
    2.880    3.6177
    2.910    3.6563
    2.940    3.6414
    2.970    3.7458
    3.000    3.8871
    3.030    3.9512
    3.060    4.0267
    3.090    4.1302
    3.120    4.3962
    3.150    4.5761
    3.180    4.7788
    3.210    5.0930
    3.240    5.3563
    3.270    5.7355
    3.300    6.1559
    3.330    6.7334
    3.360    7.4715
    3.390    8.1596
    3.420    8.9389
    3.450    9.9860
    3.480   10.9110
    3.510   12.4021
    3.540   14.1653
    3.570   15.9180
    3.600   18.4176
    3.630   20.9672
    3.660   24.6779
    3.690   29.3514
    3.720   35.5828
    3.750   44.0065
    3.780   57.0669
    3.810   79.8236
    3.840   94.8280
    3.870   71.5534
    3.900   33.6984
    3.930   10.9294
    3.960    5.4941
    3.990    4.3023
    4.020    3.7221
    4.050    3.3158
    4.080    3.2491
    4.110    3.0349
    4.140    3.0200
    4.170    2.8743
    4.200    2.9085
    4.230    2.7313
    4.260    2.7813
    4.290    2.7058
    4.320    2.6891
    4.350    2.6804
    4.380    2.7251
    4.410    2.7076
    4.440    2.6768
    4.470    2.6751
    4.500    2.5540
    4.530    2.5742
    4.560    2.5549
    4.590    2.5987
    4.620    2.5952
    4.650    2.5338
    4.680    2.5312
    4.710    2.5619
    4.740    2.5715
    4.770    2.5259
    4.800    2.5759
    4.830    2.6382
    4.860    2.6646
    4.890    2.7225
    4.920    2.6672
    4.950    2.7602
    4.980    2.9050
    5.010    2.9164
    5.040    3.1201
    5.070    3.2833
    5.100    3.4308
    5.130    3.6862
    5.160    4.1548
    5.190    4.4796
    5.220    4.9386
    5.250    5.6977
    5.280    6.4894
    5.310    7.7260
    5.340    9.2654
    5.370   11.4420
    5.400   14.9561
    5.430   20.8583
    5.460   25.7100
    5.490   20.6398
    5.520   11.2366
    5.550    4.7516
    5.580    3.2298
    5.610    2.7541
    5.640    2.5171
    5.670    2.6602
    5.700    2.4969
    5.730    2.5057
    5.760    2.4566
    5.790    2.4074
    5.820    2.4179
    5.850    2.3934
    5.880    2.3591
    5.910    2.4583
    5.940    2.3556
    5.970    2.3934
    6.000    2.3679
    6.030    2.3495
    6.060    2.4136
    6.090    2.3144
    6.120    2.4039
    6.150    2.3951
    6.180    2.3381
    6.210    2.3346
    6.240    2.3784
    6.270    2.3732
    6.300    2.4065
    6.330    2.3951
    6.360    2.4425
    6.390    2.5540
    6.420    2.5215
    6.450    2.5794
    6.480    2.7234
    6.510    2.9551
    6.540    3.0858
    6.570    3.3386
    6.600    3.8257
    6.630    4.3391
    6.660    5.3002
    6.690    6.8755
    6.720    6.8510
    6.750    5.1720
    6.780    3.3579
    6.810    2.5838
    6.840    2.4223
    6.870    2.3267
    6.900    2.2819
    6.930    2.3547
    6.960    2.3284
    6.990    2.3223
    7.020    2.2784
    7.050    2.2652
    7.080    2.2091
    7.110    2.3056
    7.140    2.2547
    7.170    2.1906
    7.200    2.2152
    7.230    2.2459
    7.260    2.2038
    7.290    2.2731
    7.320    2.2591
    7.350    2.2205
    7.380    2.2301
    7.410    2.3495
    7.440    2.3433
    7.470    2.4092
    7.500    2.4961
    7.530    2.5829
    7.560    2.8576
    7.590    2.9937
    7.620    3.2219
    7.650    3.6238
    7.680    4.4392
    7.710    5.5152
    7.740    7.2222
    7.770    7.3863
    7.800    5.7100
    7.830    3.4764
    7.860    2.4609
    7.890    2.2854
    7.920    2.2494
    7.950    2.2292
    7.980    2.1827
    8.010    2.1959
    8.040    2.2257
    8.070    2.1617
    8.100    2.1555
    8.130    2.1792
    8.160    2.1748
    8.190    2.1520
    8.220    2.2231
    8.250    2.1169
    8.280    2.1195
    8.310    2.1239
    8.340    2.1643
    8.370    2.1467
    8.400    2.1187
    8.430    2.1933
    8.460    2.1801
    8.490    2.1573
    8.520    2.2310
    8.550    2.2854
    8.580    2.3267
    8.610    2.3986
    8.640    2.5961
    8.670    2.7997
    8.700    2.7655
    8.730    2.5496
    8.760    2.3767
    8.790    2.0792
    8.820    2.1617
    8.850    2.1248
    8.880    2.1450
    8.910    2.0976
    8.940    2.1283
    8.970    2.1002
    9.000    2.1230
    9.030    2.1678
    9.060    2.1687
    9.090    2.1476
    9.120    2.1871
    9.150    2.1862
    9.180    2.1090
    9.210    2.2319
    9.240    2.3232
    9.270    2.2977
    9.300    2.5294
    9.330    2.7672
    9.360    3.0674
    9.390    3.6774
    9.420    4.3075
    9.450    5.7144
    9.480    8.0060
    9.510   10.9057
    9.540   10.4994
    9.570    7.0932
    9.600    3.8547
    9.630    2.5663
    9.660    2.2845
    9.690    2.2442
    9.720    2.2231
    9.750    2.1055
    9.780    2.1169
    9.810    2.1467
    9.840    2.0976
    9.870    2.0923
    9.900    2.0546
    9.930    2.0599
    9.960    2.0915
    9.990    2.1494
   10.020    2.0046
   10.050    2.1757
   10.080    2.1573
   10.110    2.2020
   10.140    2.3670
   10.170    2.6426
   10.200    2.9015
   10.230    3.4000
   10.260    4.2154
   10.290    5.0123
   10.320    4.4681
   10.350    3.3921
   10.380    2.4987
   10.410    2.2196
   10.440    2.0616
   10.470    2.0370
   10.500    2.0660
   10.530    2.0160
   10.560    2.0783
   10.590    2.0704
   10.620    2.1020
   10.650    2.0414
   10.680    2.0432
   10.710    2.0730
   10.740    2.0607
   10.770    2.0326
   10.800    2.1827
   10.830    2.1827
   10.860    2.3196
   10.890    2.5066
   10.920    2.8533
   10.950    3.4720
   10.980    4.2970
   11.010    4.9666
   11.040    4.4225
   11.070    3.2728
   11.100    2.4179
   11.130    2.1055
   11.160    2.0011
   11.190    2.0607
   11.220    2.0230
   11.250    2.0019
   11.280    2.0177
   11.310    1.9528
   11.340    2.0432
   11.370    1.9940
   11.400    2.0098
   11.430    2.0291
   11.460    2.1011
   11.490    2.1213
   11.520    2.1704
   11.550    2.3767
   11.580    2.6391
   11.610    3.1613
   11.640    4.0372
   11.670    5.0404
   11.700    5.1703
   11.730    3.9951
   11.760    2.7962
   11.790    2.1871
   11.820    2.0897
   11.850    2.0239
   11.880    2.0037
   11.910    2.0432
   11.940    1.9809
   11.970    1.9659
   12.000    1.9493
   12.030    2.0090
   12.060    2.0212
   12.090    1.9853
   12.120    2.0107
   12.150    1.9984
   12.180    2.0204
   12.210    2.0511
   12.240    2.1327
   12.270    2.1353
   12.300    2.4978
   12.330    2.5294
   12.360    2.3828
   12.390    2.1643
   12.420    2.0379
   12.450    2.0037
   12.480    1.9616
   12.510    1.9949
   12.540    1.9809
   12.570    2.0037
   12.600    1.9589
   12.630    1.9589
   12.660    1.9791
   12.690    1.9730
   12.720    2.0379
   12.750    2.0054
   12.780    2.0449
   12.810    2.1889
   12.840    2.4311
   12.870    2.8313
   12.900    3.5150
   12.930    3.8845
   12.960    3.6124
   12.990    2.8664
   13.020    2.2670
   13.050    2.0634
   13.080    1.9756
   13.110    1.9958
   13.140    1.9475
   13.170    2.0467
   13.200    1.9396
   13.230    1.9537
   13.260    2.0212
   13.290    1.9607
   13.320    1.9712
   13.350    1.9800
   13.380    2.0511
   13.410    2.2284
   13.440    2.2775
   13.470    2.5917
   13.500    2.8225
   13.530    2.9015
   13.560    2.5136
   13.590    2.1985
   13.620    2.0651
   13.650    1.9598
   13.680    1.9589
   13.710    1.9905
   13.740    1.9344
   13.770    1.9466
   13.800    1.9466
   13.830    1.9361
   13.860    1.9651
   13.890    2.0072
   13.920    2.0072
   13.950    2.1906
   13.980    2.3319
   14.010    2.7435
   14.040    3.3535
   14.070    3.6309
   14.100    3.3728
   14.130    2.7041
   14.160    2.1099
   14.190    1.9949
   14.220    1.9563
   14.250    1.9256
   14.280    1.9335
   14.310    1.9054
   14.340    1.8975
   14.370    1.9265
   14.400    1.9300
   14.430    1.9598
   14.460    1.8826
   14.490    1.9150
   14.520    1.9203
   14.550    1.8992
   14.580    1.9835
   14.610    1.8957
   14.640    1.9712
   14.670    1.9861
   14.700    1.9475
   14.730    1.9150
   14.760    1.8905
   14.790    1.9791
   14.820    1.9431
   14.850    1.9405
   14.880    1.9001
   14.910    1.8922
   14.940    1.9168
   14.970    1.9256
   15.000    1.9923
   15.030    1.9896
   15.060    2.0748
   15.090    2.2196
   15.120    2.3855
   15.150    2.3793
   15.180    2.2170
   15.210    2.0476
   15.240    1.9572
   15.270    1.9677
   15.300    1.9528
   15.330    1.9501
   15.360    1.9993
   15.390    1.8922
   15.420    1.8773
   15.450    1.8887
   15.480    1.9291
   15.510    1.8966
   15.540    1.9098
   15.570    1.8624
   15.600    1.9475
   15.630    1.9124
   15.660    1.9352
   15.690    1.8527
   15.720    1.8755
   15.750    1.9107
   15.780    1.9326
   15.810    1.9300
   15.840    1.9115
   15.870    2.0063
   15.900    1.9466
   15.930    1.8984
   15.960    1.9589
   15.990    2.0081
   16.020    2.0125
   16.050    2.1046
   16.080    2.1880
   16.110    2.3714
   16.140    2.2591
   16.170    2.1599
   16.200    2.0133
   16.230    1.9782
   16.260    1.9686
   16.290    1.9879
   16.320    1.8975
   16.350    1.9344
   16.380    1.9282
   16.410    1.9335
   16.440    1.9765
   16.470    2.0186
   16.500    2.1169
   16.530    2.1783
   16.560    2.4083
   16.590    2.4258
   16.620    2.2968
   16.650    2.2064
   16.680    1.9747
   16.710    1.9484
   16.740    1.9835
   16.770    1.9844
   16.800    1.9686
   16.830    1.9247
   16.860    2.0256
   16.890    2.0590
   16.920    2.1195
   16.950    2.2433
   16.980    2.5821
   17.010    2.9735
   17.040    3.2895
   17.070    3.2342
   17.100    2.7541
   17.130    2.2854
   17.160    2.0827
   17.190    1.8992
   17.220    1.8861
   17.250    1.9282
   17.280    2.0283
   17.310    1.9782
   17.340    1.9229
   17.370    1.9387
   17.400    1.9870
   17.430    2.0230
   17.460    2.2134
   17.490    2.2845
   17.520    2.2661
   17.550    2.1748
   17.580    2.0721
   17.610    2.0265
   17.640    1.9967
   17.670    1.9914
   17.700    2.0142
   17.730    1.9545
   17.760    1.9107
   17.790    1.9712
   17.820    2.0125
   17.850    2.0493
   17.880    2.0757
   17.910    2.1959
   17.940    2.2064
   17.970    2.1818
   18.000    2.0800
   18.030    2.0405
   18.060    1.9493
   18.090    2.0283
   18.120    1.9423
   18.150    1.9782
   18.180    1.9774
   18.210    1.9686
   18.240    2.0160
   18.270    2.0616
   18.300    2.1353
   18.330    2.2740
   18.360    2.3705
   18.390    2.2942
   18.420    2.1827
   18.450    2.0967
   18.480    2.0090
   18.510    1.9879
   18.540    1.9580
   18.570    1.9896
   18.600    2.0502
   18.630    2.0054
   18.660    1.9563
   18.690    1.9932
   18.720    2.0011
   18.750    2.1625
   18.780    2.1740
   18.810    2.1169
   18.840    2.0011
   18.870    1.9721
   18.900    1.9642
   18.930    1.9186
   18.960    2.0011
   18.990    1.9633
   19.020    2.0142
   19.050    1.9115
   19.080    1.9932
   19.110    2.0037
   19.140    1.9414
   19.170    2.0432
   19.200    2.0256
   19.230    1.9993
   19.260    1.9835
   19.290    1.9712
   19.320    1.9730
   19.350    1.9826
   19.380    1.9940
   19.410    1.9817
   19.440    2.0028
   19.470    2.0028
   19.500    2.1143
   19.530    2.2319
   19.560    2.4136
   19.590    2.4320
   19.620    2.4873
   19.650    2.2679
   19.680    2.0836
   19.710    1.9809
   19.740    2.0642
   19.770    2.0309
   19.800    2.0520
   19.830    2.0265
   19.860    2.0335
   19.890    2.0011
   19.920    2.0028
   19.950    2.0212
   19.980    2.1020
   20.010    2.0405
   20.040    2.0449
   20.070    1.9870
   20.100    2.0186
   20.130    2.0230
   20.160    1.9958
   20.190    1.9747
   20.220    2.1090
   20.250    2.1020
   20.280    2.3144
   20.310    2.5584
   20.340    2.8901
   20.370    3.0305
   20.400    2.9279
   20.430    2.6066
   20.460    2.1994
   20.490    2.1301
   20.520    2.0818
   20.550    2.0546
   20.580    2.0458
   20.610    2.0739
   20.640    2.0449
   20.670    1.9940
   20.700    2.0678
   20.730    2.0563
   20.760    2.0335
   20.790    2.0098
   20.820    2.0177
   20.850    2.0011
   20.880    2.0897
   20.910    2.0142
   20.940    2.0247
   20.970    1.9826
   21.000    2.0230
   21.030    2.0476
   21.060    2.0651
   21.090    2.0704
   21.120    2.0458
   21.150    2.0607
   21.180    2.0642
   21.210    2.0493
   21.240    2.0678
   21.270    1.9949
   21.300    2.0388
   21.330    2.0581
   21.360    2.0660
   21.390    2.0520
   21.420    2.0212
   21.450    2.0528
   21.480    2.0107
   21.510    2.0283
   21.540    2.0932
   21.570    2.0388
   21.600    2.0476
   21.630    2.0370
   21.660    2.0607
   21.690    2.0502
   21.720    2.1467
   21.750    2.1511
   21.780    2.2196
   21.810    2.3705
   21.840    2.4566
   21.870    2.4153
   21.900    2.4039
   21.930    2.2134
   21.960    2.0309
   21.990    2.1353
   22.020    2.0256
   22.050    2.0660
   22.080    2.1257
   22.110    2.1230
   22.140    2.1906
   22.170    2.3512
   22.200    2.3407
   22.230    2.2389
   22.260    2.2178
   22.290    2.1564
   22.320    2.1371
   22.350    2.0388
   22.380    2.0862
   22.410    2.1450
   22.440    2.2371
   22.470    2.4092
   22.500    2.7313
   22.530    3.0762
   22.560    3.1332
   22.590    2.8928
   22.620    2.6698
   22.650    2.3188
   22.680    2.1941
   22.710    2.1459
   22.740    2.0660
   22.770    2.1950
   22.800    2.3153
   22.830    2.5979
   22.860    3.0358
   22.890    3.2789
   22.920    3.2350
   22.950    2.9129
   22.980    2.5847
   23.010    2.1599
   23.040    2.1792
   23.070    2.0932
   23.100    2.0783
   23.130    2.1345
   23.160    2.2845
   23.190    2.2679
   23.220    2.3196
   23.250    2.3907
   23.280    2.3267
   23.310    2.1941
   23.340    2.1222
   23.370    2.0818
   23.400    2.0309
   23.430    2.0291
   23.460    2.0827
   23.490    2.0704
   23.520    2.1283
   23.550    2.1274
   23.580    2.1011
   23.610    2.1011
   23.640    2.1213
   23.670    2.0897
   23.700    2.0177
   23.730    2.0879
   23.760    2.0879
   23.790    2.0019
   23.820    2.1169
   23.850    2.1941
   23.880    2.3249
   23.910    2.3565
   23.940    2.3074
   23.970    2.2398
   24.000    2.1538
   24.030    2.0713
   24.060    2.0046
   24.090    2.0133
   24.120    2.0274
   24.150    2.0484
   24.180    2.0844
   24.210    2.0634
   24.240    2.0704
   24.270    2.0660
   24.300    2.0590
   24.330    2.0142
   24.360    2.0090
   24.390    1.9501
   24.420    1.9545
   24.450    2.0642
   24.480    2.0730
   24.510    2.0906
   24.540    2.0739
   24.570    2.0414
   24.600    2.0634
   24.630    2.0836
   24.660    2.0335
   24.690    1.9774
   24.720    1.9624
   24.750    1.9440
   24.780    1.9695
   24.810    2.0054
   24.840    2.0871
   24.870    2.1652
   24.900    2.0590
   24.930    2.0590
   24.960    2.0063
   24.990    2.0528
   25.020    2.0581
   25.050    2.0300
   25.080    2.0195
   25.110    2.0572
   25.140    2.1116
   25.170    2.0809
   25.200    2.0994
   25.230    2.1002
   25.260    2.0757
   25.290    1.9686
   25.320    1.9949
   25.350    1.9300
   25.380    2.0221
   25.410    1.9809
   25.440    2.0827
   25.470    2.0836
   25.500    2.1108
   25.530    2.0309
   25.560    2.0950
   25.590    2.0125
   25.620    2.0432
   25.650    1.9817
   25.680    1.9782
   25.710    2.1257
   25.740    2.3846
   25.770    2.6119
   25.800    2.7058
   25.830    2.6795
   25.860    2.5162
   25.890    2.2643
   25.920    2.1090
   25.950    2.0739
   25.980    2.0133
   26.010    2.0054
   26.040    2.0160
   26.070    2.0607
   26.100    1.9642
   26.130    2.0721
   26.160    2.0379
   26.190    2.0247
   26.220    1.9537
   26.250    1.9273
   26.280    1.8896
   26.310    1.9686
   26.340    1.9932
   26.370    2.1257
   26.400    2.1678
   26.430    2.2477
   26.460    2.1353
   26.490    2.0353
   26.520    1.9844
   26.550    2.0651
   26.580    1.9396
   26.610    1.9080
   26.640    1.9098
   26.670    1.9361
   26.700    1.8931
   26.730    1.9247
   26.760    1.9308
   26.790    1.8826
   26.820    1.9361
   26.850    1.9370
   26.880    1.9449
   26.910    2.0397
   26.940    2.0660
   26.970    2.2091
   27.000    2.2731
   27.030    2.3003
   27.060    2.1941
   27.090    2.0669
   27.120    1.9133
   27.150    1.8975
   27.180    1.9458
   27.210    1.8966
   27.240    1.9063
   27.270    1.8668
   27.300    1.9212
   27.330    1.8852
   27.360    1.9221
   27.390    1.8966
   27.420    1.8773
   27.450    1.8905
   27.480    1.8782
   27.510    2.0046
   27.540    2.0256
   27.570    2.1230
   27.600    2.1345
   27.630    2.1301
   27.660    2.1081
   27.690    1.9124
   27.720    1.8536
   27.750    1.8808
   27.780    1.9177
   27.810    1.9133
   27.840    1.9572
   27.870    1.9756
   27.900    1.9370
   27.930    1.9817
   27.960    1.9177
   27.990    1.9019
   28.020    1.9142
   28.050    1.9475
   28.080    2.0063
   28.110    2.1195
   28.140    2.1213
   28.170    2.1713
   28.200    2.2196
   28.230    2.0862
   28.260    1.9765
   28.290    1.8791
   28.320    1.8905
   28.350    1.9300
   28.380    2.0616
   28.410    2.1239
   28.440    2.1748
   28.470    2.1415
   28.500    2.0555
   28.530    1.9932
   28.560    1.8755
   28.590    1.8799
   28.620    1.8211
   28.650    1.8633
   28.680    1.8940
   28.710    1.8764
   28.740    1.7948
   28.770    1.8747
   28.800    1.8896
   28.830    1.8343
   28.860    1.8606
   28.890    1.8009
   28.920    1.8071
   28.950    1.8290
   28.980    1.9291
   29.010    1.9642
   29.040    1.8738
   29.070    1.8729
   29.100    1.8650
   29.130    1.8694
   29.160    1.9133
   29.190    1.8905
   29.220    1.9177
   29.250    1.9493
   29.280    2.0300
   29.310    2.0247
   29.340    1.9940
   29.370    1.8922
   29.400    1.7974
   29.430    1.8062
   29.460    1.7571
   29.490    1.8124
   29.520    1.8211
   29.550    1.8150
   29.580    1.8009
   29.610    1.8045
   29.640    1.7615
   29.670    1.7650
   29.700    1.7808
   29.730    1.8001
   29.760    1.8475
   29.790    1.9028
   29.820    1.8887
   29.850    1.8448
   29.880    1.9089
   29.910    1.8404
   29.940    1.7509
   29.970    1.8062
   30.000    1.8536
   30.030    1.8238
   30.060    1.8282
   30.090    1.8422
   30.120    1.8273
   30.150    1.7571
   30.180    1.8159
   30.210    1.7413
   30.240    1.7702
   30.270    1.8791
   30.300    1.8185
   30.330    1.8167
   30.360    1.8317
   30.390    1.8150
   30.420    1.7667
   30.450    1.7764
   30.480    1.7623
   30.510    1.7658
   30.540    1.8255
   30.570    1.8097
   30.600    1.8615
   30.630    1.8317
   30.660    1.8492
   30.690    1.8334
   30.720    1.7483
   30.750    1.7500
   30.780    1.7316
   30.810    1.7404
   30.840    1.7316
   30.870    1.7843
   30.900    1.7263
   30.930    1.7360
   30.960    1.7299
   30.990    1.7246
   31.020    1.6430
   31.050    1.6596
   31.080    1.7009
   31.110    1.7465
   31.140    1.6482
   31.170    1.7263
   31.200    1.6956
   31.230    1.6948
   31.260    1.6605
   31.290    1.6684
   31.320    1.7676
   31.350    1.7378
   31.380    1.8361
   31.410    1.8334
   31.440    1.7202
   31.470    1.7035
   31.500    1.7105
   31.530    1.7457
   31.560    1.7158
   31.590    1.7018
   31.620    1.7018
   31.650    1.7299
   31.680    1.6421
   31.710    1.6877
   31.740    1.6877
   31.770    1.7167
   31.800    1.6948
   31.830    1.7070
   31.860    1.6816
   31.890    1.7623
   31.920    1.7088
   31.950    1.7027
   31.980    1.6377
   32.010    1.6658
   32.040    1.6948
   32.070    1.6070
   32.100    1.6816
   32.130    1.6965
   32.160    1.6886
   32.190    1.6438
   32.220    1.6570
   32.250    1.6316
   32.280    1.6798
   32.310    1.6070
   32.340    1.6491
   32.370    1.6316
   32.400    1.6816
   32.430    1.5868
   32.460    1.6237
   32.490    1.6123
   32.520    1.6000
   32.550    1.5798
   32.580    1.5315
   32.610    1.6131
   32.640    1.6640
   32.670    1.6298
   32.700    1.6500
   32.730    1.6395
   32.760    1.5649
   32.790    1.6096
   32.820    1.6544
   32.850    1.6561
   32.880    1.7632
   32.910    1.6588
   32.940    1.7465
   32.970    1.5710
   33.000    1.6307
   33.030    1.5157
   33.060    1.5929
   33.090    1.4455
   33.120    1.5613
   33.150    1.5298
   33.180    1.5728
   33.210    1.5298
   33.240    1.5034
   33.270    1.5613
   33.300    1.5315
   33.330    1.5298
   33.360    1.5368
   33.390    1.5175
   33.420    1.5385
   33.450    1.5675
   33.480    1.4657
   33.510    1.5587
   33.540    1.5420
   33.570    1.5254
   33.600    1.5394
   33.630    1.5377
   33.660    1.5175
   33.690    1.5166
   33.720    1.5412
   33.750    1.5912
   33.780    1.5894
   33.810    1.5886
   33.840    1.6526
   33.870    1.6412
   33.900    1.6886
   33.930    1.6245
   33.960    1.5368
   33.990    1.5508
   34.020    1.4631
   34.050    1.5306
   34.080    1.5096
   34.110    1.5341
   34.140    1.5517
   34.170    1.5078
   34.200    1.4674
   34.230    1.4692
   34.260    1.5201
   34.290    1.5078
   34.320    1.4288
   34.350    1.4376
   34.380    1.4867
   34.410    1.5017
   34.440    1.4622
   34.470    1.4358
   34.500    1.4420
   34.530    1.4701
   34.560    1.4622
   34.590    1.4534
   34.620    1.4429
   34.650    1.4236
   34.680    1.4341
   34.710    1.4692
   34.740    1.4490
   34.770    1.4999
   34.800    1.5061
   34.830    1.4815
   34.860    1.5245
   34.890    1.5052
   34.920    1.4402
   34.950    1.4104
   34.980    1.3902
   35.010    1.3709
   35.040    1.3876
   35.070    1.4446
   35.100    1.3823
   35.130    1.4455
   35.160    1.3744
   35.190    1.4183
   35.220    1.4437
   35.250    1.3806
   35.280    1.3700
   35.310    1.3920
   35.340    1.4385
   35.370    1.3762
   35.400    1.3814
   35.430    1.4236
   35.460    1.3709
   35.490    1.3849
   35.520    1.3858
   35.550    1.3437
   35.580    1.3683
   35.610    1.3955
   35.640    1.3621
   35.670    1.3691
   35.700    1.4674
   35.730    1.4253
   35.760    1.3832
   35.790    1.3902
   35.820    1.3735
   35.850    1.4104
   35.880    1.4078
   35.910    1.3691
   35.940    1.3727
   35.970    1.4060
   36.000    1.3946
   36.030    1.4007
   36.060    1.3735
   36.090    1.3621
   36.120    1.3279
   36.150    1.3314
   36.180    1.4060
   36.210    1.4095
   36.240    1.3367
   36.270    1.3261
   36.300    1.3674
   36.330    1.3639
   36.360    1.3200
   36.390    1.3375
   36.420    1.3446
   36.450    1.3340
   36.480    1.3393
   36.510    1.3086
   36.540    1.3665
   36.570    1.3779
   36.600    1.3454
   36.630    1.3217
   36.660    1.3621
   36.690    1.3209
   36.720    1.3516
   36.750    1.3393
   36.780    1.3226
   36.810    1.2928
   36.840    1.2682
   36.870    1.2814
   36.900    1.2787
   36.930    1.2199
   36.960    1.3332
   36.990    1.3560
   37.020    1.3841
   37.050    1.3744
   37.080    1.4358
   37.110    1.4104
   37.140    1.4034
   37.170    1.4209
   37.200    1.3261
   37.230    1.3103
   37.260    1.2963
   37.290    1.2954
   37.320    1.3244
   37.350    1.2498
   37.380    1.2665
   37.410    1.2559
   37.440    1.3103
   37.470    1.2823
   37.500    1.3525
   37.530    1.3060
   37.560    1.3130
   37.590    1.2998
   37.620    1.3147
   37.650    1.3182
   37.680    1.2963
   37.710    1.3121
   37.740    1.3437
   37.770    1.3060
   37.800    1.2875
   37.830    1.3112
   37.860    1.2761
   37.890    1.2884
   37.920    1.3191
   37.950    1.3007
   37.980    1.3419
   38.010    1.2366
   38.040    1.2963
   38.070    1.2647
   38.100    1.2612
   38.130    1.2419
   38.160    1.2954
   38.190    1.2638
   38.220    1.2287
   38.250    1.2296
   38.280    1.2322
   38.310    1.2436
   38.340    1.2735
   38.370    1.2858
   38.400    1.2796
   38.430    1.2638
   38.460    1.2515
   38.490    1.2489
   38.520    1.2691
   38.550    1.2375
   38.580    1.2313
   38.610    1.1954
   38.640    1.1962
   38.670    1.2366
   38.700    1.2542
   38.730    1.2296
   38.760    1.2471
   38.790    1.2138
   38.820    1.2603
   38.850    1.2191
   38.880    1.2322
   38.910    1.2059
   38.940    1.2208
   38.970    1.1743
   39.000    1.2910
   39.030    1.1962
   39.060    1.1945
   39.090    1.1541
   39.120    1.2559
   39.150    1.2094
   39.180    1.2823
   39.210    1.2726
   39.240    1.2243
   39.270    1.2831
   39.300    1.2849
   39.330    1.2349
   39.360    1.2577
   39.390    1.1585
   39.420    1.1980
   39.450    1.2120
   39.480    1.1778
   39.510    1.2305
   39.540    1.1927
   39.570    1.2480
   39.600    1.2384
   39.630    1.2691
   39.660    1.2691
   39.690    1.2313
   39.720    1.1866
   39.750    1.2410
   39.780    1.2366
   39.810    1.1541
   39.840    1.2392
   39.870    1.2673
   39.900    1.2191
   39.930    1.2621
   39.960    1.2059
   39.990    1.2708