File: data/MOCOF-1/PXRD/PXRD_KE-022_Cu-Ka1_capillary-1mm_5s-deg.xyd
    1.500   19.8736
    1.530   19.8947
    1.560   18.7994
    1.590   18.0516
    1.620   18.1569
    1.650   17.7988
    1.680   17.9252
    1.710   17.3881
    1.740   18.2622
    1.770   17.0195
    1.800   16.9142
    1.830   16.6509
    1.860   16.6298
    1.890   16.0716
    1.920   16.4508
    1.950   16.0611
    1.980   15.8820
    2.010   16.1980
    2.040   15.6503
    2.070   15.6503
    2.100   15.0606
    2.130   14.6182
    2.160   14.3655
    2.190   14.5024
    2.220   14.9974
    2.250   15.3028
    2.280   14.9868
    2.310   14.1232
    2.340   14.3023
    2.370   14.7446
    2.400   14.6498
    2.430   14.1127
    2.460   13.7125
    2.490   14.1969
    2.520   14.2075
    2.550   13.7230
    2.580   14.4076
    2.610   13.8810
    2.640   14.1232
    2.670   14.3339
    2.700   14.3023
    2.730   14.1232
    2.760   14.4813
    2.790   13.8915
    2.820   14.2601
    2.850   14.0916
    2.880   14.1864
    2.910   14.5024
    2.940   13.9547
    2.970   14.3128
    3.000   14.3023
    3.030   15.0184
    3.060   14.6393
    3.090   15.2607
    3.120   15.3765
    3.150   15.5766
    3.180   15.9136
    3.210   16.6614
    3.240   16.6930
    3.270   16.7035
    3.300   17.8304
    3.330   18.4202
    3.360   19.2628
    3.390   19.3681
    3.420   20.5898
    3.450   20.8531
    3.480   20.4318
    3.510   20.8215
    3.540   18.7362
    3.570   17.4513
    3.600   17.4829
    3.630   16.7246
    3.660   15.9663
    3.690   16.4192
    3.720   16.4613
    3.750   16.4402
    3.780   16.3033
    3.810   16.9247
    3.840   16.9458
    3.870   17.0405
    3.900   17.0090
    3.930   15.8294
    3.960   15.5661
    3.990   14.9658
    4.020   14.1022
    4.050   13.5124
    4.080   13.1543
    4.110   12.3960
    4.140   12.4697
    4.170   12.9963
    4.200   12.2801
    4.230   11.3955
    4.260   11.4587
    4.290   11.4271
    4.320   12.1011
    4.350   10.9847
    4.380   11.5219
    4.410   11.1848
    4.440   11.4692
    4.470   10.8689
    4.500   11.1743
    4.530   11.3323
    4.560   11.2586
    4.590   10.7320
    4.620   11.1848
    4.650   11.0163
    4.680   10.8268
    4.710   11.4692
    4.740   10.3318
    4.770   11.3955
    4.800   11.4587
    4.830   10.8794
    4.860   10.7320
    4.890   11.1638
    4.920   11.1427
    4.950   11.2164
    4.980   10.9742
    5.010   11.1638
    5.040   11.3428
    5.070   11.1006
    5.100   11.2164
    5.130   11.6272
    5.160   11.1743
    5.190   11.0585
    5.220   10.5003
    5.250   10.8373
    5.280   10.5108
    5.310   10.2686
    5.340   10.7952
    5.370   11.3217
    5.400   10.7952
    5.430   10.7636
    5.460   11.1532
    5.490   11.3744
    5.520   11.2375
    5.550   10.9847
    5.580   11.0269
    5.610   10.6056
    5.640   11.1743
    5.670   11.3639
    5.700   10.8794
    5.730   10.7636
    5.760   10.8583
    5.790   10.9742
    5.820   10.6793
    5.850   10.7425
    5.880   10.7425
    5.910   10.8899
    5.940   11.1111
    5.970   11.1532
    6.000   11.1427
    6.030   10.8268
    6.060   10.9110
    6.090   11.3639
    6.120   10.9531
    6.150   11.2059
    6.180   10.5003
    6.210   10.8899
    6.240   10.5740
    6.270   10.7320
    6.300   11.0900
    6.330   11.1216
    6.360   11.3112
    6.390   10.7004
    6.420   10.7952
    6.450   10.9215
    6.480   11.5324
    6.510   11.3323
    6.540   10.7741
    6.570   11.7746
    6.600   11.5113
    6.630   11.6272
    6.660   11.2796
    6.690   11.3533
    6.720   11.5850
    6.750   11.4903
    6.780   12.2591
    6.810   12.8805
    6.840   12.8910
    6.870   13.0490
    6.900   13.8178
    6.930   14.1443
    6.960   13.8915
    6.990   14.1969
    7.020   14.4602
    7.050   14.8289
    7.080   15.3133
    7.110   15.1132
    7.140   16.2085
    7.170   16.2823
    7.200   16.6614
    7.230   18.5255
    7.260   19.9789
    7.290   22.0221
    7.320   23.2333
    7.350   26.5508
    7.380   31.4376
    7.410   39.5261
    7.440   50.1422
    7.470   53.5334
    7.500   39.9684
    7.530   18.4939
    7.560   12.3328
    7.590   11.8799
    7.620   11.3955
    7.650   11.6061
    7.680   12.4381
    7.710   11.7430
    7.740   12.3012
    7.770   11.9853
    7.800   12.4065
    7.830   11.8694
    7.860   12.2275
    7.890   11.9221
    7.920   11.9537
    7.950   12.1538
    7.980   12.2380
    8.010   12.6277
    8.040   11.9853
    8.070   12.3012
    8.100   12.8278
    8.130   12.6488
    8.160   13.0806
    8.190   14.0074
    8.220   14.3760
    8.250   14.9868
    8.280   16.1243
    8.310   17.0511
    8.340   18.7678
    8.370   22.4961
    8.400   26.2033
    8.430   28.4044
    8.460   24.9500
    8.490   17.3460
    8.520   12.9963
    8.550   11.7957
    8.580   11.6061
    8.610   10.9637
    8.640   11.0269
    8.670   11.4376
    8.700   11.1532
    8.730   11.4481
    8.760   11.5429
    8.790   11.5745
    8.820   11.7114
    8.850   11.3639
    8.880   10.9005
    8.910   11.1427
    8.940   11.9747
    8.970   11.0690
    9.000   11.4903
    9.030   11.2902
    9.060   11.4165
    9.090   11.1532
    9.120   11.1954
    9.150   11.2691
    9.180   11.1848
    9.210   11.2270
    9.240   11.5429
    9.270   11.7325
    9.300   11.8905
    9.330   11.2480
    9.360   11.2480
    9.390   11.6693
    9.420   11.5640
    9.450   11.4165
    9.480   11.7114
    9.510   11.6272
    9.540   11.5534
    9.570   11.7220
    9.600   11.2691
    9.630   11.4271
    9.660   11.5956
    9.690   11.8589
    9.720   11.9958
    9.750   11.4903
    9.780   11.7852
    9.810   10.9215
    9.840   11.1848
    9.870   11.5640
    9.900   11.4376
    9.930   11.6482
    9.960   11.3849
    9.990   11.9642
   10.020   11.9537
   10.050   11.9221
   10.080   12.0800
   10.110   11.3849
   10.140   11.7325
   10.170   11.6482
   10.200   11.7220
   10.230   11.5956
   10.260   11.6588
   10.290   11.7009
   10.320   11.4797
   10.350   11.1111
   10.380   11.7114
   10.410   11.6166
   10.440   11.8589
   10.470   11.1216
   10.500   11.5534
   10.530   11.3639
   10.560   12.0063
   10.590   11.6061
   10.620   12.1327
   10.650   11.4692
   10.680   11.4797
   10.710   11.3639
   10.740   11.8694
   10.770   11.7325
   10.800   11.8905
   10.830   12.1538
   10.860   11.6272
   10.890   11.7325
   10.920   11.6798
   10.950   12.0274
   10.980   12.6066
   11.010   12.7962
   11.040   12.8173
   11.070   13.2596
   11.100   13.9968
   11.130   14.7025
   11.160   16.3560
   11.190   18.5045
   11.220   21.3375
   11.250   24.6130
   11.280   24.9816
   11.310   20.4213
   11.340   14.3760
   11.370   11.9326
   11.400   11.5640
   11.430   10.9426
   11.460   11.6272
   11.490   11.3639
   11.520   10.7109
   11.550   11.5324
   11.580   10.9742
   11.610   11.1427
   11.640   11.1427
   11.670   11.1848
   11.700   11.1216
   11.730   11.1954
   11.760   11.1111
   11.790   10.9215
   11.820   10.7530
   11.850   11.1743
   11.880   11.3007
   11.910   10.8373
   11.940   11.1743
   11.970   10.8162
   12.000   11.0374
   12.030   11.2691
   12.060   11.0795
   12.090   11.1848
   12.120   10.9426
   12.150   11.2480
   12.180   10.6898
   12.210   10.9005
   12.240   11.5008
   12.270   10.5529
   12.300   10.3844
   12.330   11.1111
   12.360   10.5003
   12.390   10.9637
   12.420   10.6688
   12.450   10.3002
   12.480   10.7109
   12.510   10.2896
   12.540   10.1632
   12.570   11.1216
   12.600   10.7109
   12.630   10.8057
   12.660   10.9742
   12.690   10.9321
   12.720   10.6793
   12.750   10.8373
   12.780   10.5108
   12.810   10.5213
   12.840   10.8268
   12.870    9.9737
   12.900   10.3949
   12.930   10.6688
   12.960   10.2896
   12.990   11.2480
   13.020   10.7952
   13.050   10.6266
   13.080   10.7846
   13.110   10.4160
   13.140   10.6688
   13.170   10.6793
   13.200   10.3212
   13.230   10.5213
   13.260   10.4897
   13.290   10.5424
   13.320   10.5635
   13.350   10.4371
   13.380   10.8478
   13.410   11.0374
   13.440   10.8057
   13.470   10.7109
   13.500   10.7109
   13.530   11.1638
   13.560   11.0795
   13.590   10.5319
   13.620   10.7741
   13.650   10.7004
   13.680   11.1006
   13.710   10.4265
   13.740   10.4581
   13.770   10.3318
   13.800   10.2896
   13.830   10.9531
   13.860   10.5319
   13.890   10.8057
   13.920   10.1843
   13.950   11.0690
   13.980   10.0369
   14.010   10.8794
   14.040   10.2580
   14.070   10.3844
   14.100   10.7952
   14.130   10.4265
   14.160   10.0685
   14.190   10.8689
   14.220   10.4687
   14.250   10.7952
   14.280   10.4687
   14.310   10.4897
   14.340   10.3739
   14.370   11.1638
   14.400   10.5951
   14.430   10.9426
   14.460   11.1427
   14.490   10.4476
   14.520   10.4897
   14.550   10.2580
   14.580   10.7004
   14.610   10.3528
   14.640   10.6582
   14.670    9.8789
   14.700   10.2580
   14.730   10.7741
   14.760   10.8478
   14.790   10.3949
   14.820   10.6688
   14.850   10.5635
   14.880   10.9637
   14.910   11.6377
   14.940   11.1111
   14.970   11.8905
   15.000   11.4271
   15.030   10.7952
   15.060   10.6898
   15.090   10.4055
   15.120   10.8373
   15.150   10.4160
   15.180   10.5845
   15.210   10.7109
   15.240   10.4371
   15.270   10.6793
   15.300   11.1216
   15.330   10.6793
   15.360   10.7741
   15.390   11.1638
   15.420   11.8273
   15.450   12.5434
   15.480   12.6804
   15.510   11.4903
   15.540   11.9431
   15.570   10.6266
   15.600   10.3949
   15.630   10.5635
   15.660    9.9842
   15.690   10.8794
   15.720   11.1427
   15.750   10.1422
   15.780   10.5635
   15.810   10.4371
   15.840   10.6477
   15.870   10.4055
   15.900   10.4476
   15.930   10.4265
   15.960   10.7004
   15.990   10.5003
   16.020   10.2896
   16.050   10.9637
   16.080   10.6898
   16.110   10.6477
   16.140   10.2580
   16.170    9.8157
   16.200   10.3633
   16.230   10.1948
   16.260   10.6266
   16.290   10.2370
   16.320   10.5003
   16.350   10.5635
   16.380   10.7004
   16.410   10.3949
   16.440   10.8162
   16.470   10.6582
   16.500   10.9426
   16.530   10.6582
   16.560   10.1527
   16.590   10.8899
   16.620   10.4160
   16.650   10.8162
   16.680   10.8373
   16.710   11.4060
   16.740   11.3217
   16.770   11.5745
   16.800   11.2691
   16.830   11.1954
   16.860   10.8899
   16.890   11.1848
   16.920   11.7536
   16.950   11.1532
   16.980   10.4687
   17.010   10.7425
   17.040   11.0269
   17.070   11.0058
   17.100   11.0374
   17.130   10.8689
   17.160   10.7741
   17.190    9.9631
   17.220   10.7214
   17.250   10.2475
   17.280    9.9947
   17.310   10.9953
   17.340   11.3428
   17.370   10.0474
   17.400   10.4160
   17.430   10.7109
   17.460   10.2686
   17.490   10.5319
   17.520   10.4792
   17.550   10.5740
   17.580   10.5319
   17.610   10.1843
   17.640   11.2059
   17.670   10.6056
   17.700   10.3739
   17.730   10.7214
   17.760   10.4476
   17.790   10.5213
   17.820   10.2686
   17.850   10.3423
   17.880   10.6582
   17.910   11.0058
   17.940   10.3528
   17.970   10.3633
   18.000   10.8373
   18.030   10.4371
   18.060   10.7530
   18.090   10.8268
   18.120    9.9526
   18.150   10.4581
   18.180   10.5951
   18.210   10.5951
   18.240   10.8268
   18.270   10.4581
   18.300   10.0579
   18.330   10.6266
   18.360   10.7425
   18.390   10.3528
   18.420   10.7320
   18.450   11.1216
   18.480   10.7004
   18.510   10.8689
   18.540   10.2475
   18.570   10.7846
   18.600   10.8689
   18.630   10.7320
   18.660    9.9842
   18.690   10.2580
   18.720   10.5635
   18.750   10.3844
   18.780   10.1948
   18.810   10.4897
   18.840   10.2791
   18.870   10.4476
   18.900   10.4581
   18.930   10.2475
   18.960   10.4265
   18.990   10.8162
   19.020   10.7636
   19.050   10.6688
   19.080   10.2475
   19.110   10.4160
   19.140   10.8162
   19.170   10.8583
   19.200   10.7109
   19.230   10.2791
   19.260   10.1843
   19.290   10.8478
   19.320   10.3107
   19.350   10.3528
   19.380   11.1111
   19.410   10.8583
   19.440   10.4581
   19.470   10.4581
   19.500   10.2370
   19.530   10.3107
   19.560   10.5003
   19.590    9.9315
   19.620   10.6161
   19.650   10.7425
   19.680   10.9531
   19.710   10.3318
   19.740   10.7846
   19.770   10.7530
   19.800   10.4055
   19.830   10.7846
   19.860   10.6898
   19.890   10.0263
   19.920   10.7846
   19.950   10.8794
   19.980   10.5845
   20.010   10.7425
   20.040   10.2475
   20.070   10.6898
   20.100   10.9215
   20.130   10.7214
   20.160   11.3744
   20.190   12.1748
   20.220   12.1011
   20.250   12.1854
   20.280   11.8273
   20.310   11.2480
   20.340   10.8162
   20.370   10.6898
   20.400   11.0374
   20.430   10.6372
   20.460   10.3844
   20.490   10.8162
   20.520   10.6056
   20.550   10.9110
   20.580   10.8689
   20.610   10.9321
   20.640   11.0795
   20.670   10.4476
   20.700   11.0585
   20.730   10.6793
   20.760   10.8373
   20.790   10.7530
   20.820   10.0158
   20.850   10.1948
   20.880   10.7004
   20.910   10.3739
   20.940   10.5740
   20.970   10.9742
   21.000   11.1006
   21.030   10.7109
   21.060   10.9531
   21.090   11.4587
   21.120   10.9742
   21.150   11.2270
   21.180   11.4903
   21.210   11.3112
   21.240   10.9321
   21.270   11.5429
   21.300   10.9531
   21.330   10.8794
   21.360   11.3428
   21.390   11.3007
   21.420   11.4903
   21.450   11.2691
   21.480   11.3112
   21.510   11.9326
   21.540   11.6482
   21.570   11.7746
   21.600   11.6482
   21.630   11.6588
   21.660   11.4165
   21.690   10.5424
   21.720   10.9531
   21.750   10.7530
   21.780   10.6688
   21.810   10.9531
   21.840   11.5219
   21.870   11.2059
   21.900   10.7952
   21.930   10.9215
   21.960   11.3744
   21.990   10.8583
   22.020   11.8062
   22.050   10.7109
   22.080   11.2164
   22.110   10.8478
   22.140   11.0795
   22.170   11.0058
   22.200   10.8162
   22.230   10.7109
   22.260   11.1006
   22.290   10.6161
   22.320   11.0690
   22.350   10.6372
   22.380   10.9953
   22.410   10.7109
   22.440   10.4897
   22.470   11.1954
   22.500   11.0690
   22.530   10.7741
   22.560   10.8478
   22.590   11.1743
   22.620   10.8478
   22.650   10.8373
   22.680   10.5951
   22.710   10.4371
   22.740   10.9215
   22.770   10.7320
   22.800   10.5740
   22.830   11.3849
   22.860   11.3533
   22.890   10.9742
   22.920   10.7741
   22.950   11.3112
   22.980   10.8583
   23.010   10.7846
   23.040   10.5319
   23.070   10.8162
   23.100   10.9110
   23.130   11.1322
   23.160   10.9953
   23.190   11.0900
   23.220   10.8899
   23.250   11.0058
   23.280   10.9531
   23.310   10.5529
   23.340   10.7530
   23.370   10.8583
   23.400   10.7004
   23.430   10.7425
   23.460   10.7530
   23.490   10.7425
   23.520   10.3528
   23.550   10.8057
   23.580   10.9953
   23.610   11.1006
   23.640   10.7320
   23.670   10.9426
   23.700   11.2586
   23.730   11.4165
   23.760   11.8589
   23.790   11.2586
   23.820   11.2059
   23.850   11.0585
   23.880   11.5219
   23.910   10.8162
   23.940   11.0479
   23.970   11.3217
   24.000   11.3217
   24.030   10.8057
   24.060   10.9847
   24.090   10.4371
   24.120   11.1111
   24.150   10.9321
   24.180   11.1216
   24.210   11.2270
   24.240   11.1532
   24.270   11.6482
   24.300   12.4803
   24.330   12.4487
   24.360   12.2380
   24.390   12.8278
   24.420   12.2591
   24.450   12.3117
   24.480   13.1754
   24.510   12.2696
   24.540   11.7852
   24.570   10.8268
   24.600   10.5951
   24.630   10.3528
   24.660   11.1427
   24.690   10.7425
   24.720   10.7530
   24.750   10.4055
   24.780   10.7952
   24.810   11.0690
   24.840   10.8162
   24.870   10.1211
   24.900   11.0374
   24.930   10.8794
   24.960   10.5740
   24.990   10.9637
   25.020   10.5424
   25.050   11.0479
   25.080   10.4476
   25.110   10.2686
   25.140   10.7425
   25.170   10.7425
   25.200   10.4371
   25.230   11.0900
   25.260   10.6372
   25.290   10.8794
   25.320   10.6793
   25.350   10.4371
   25.380   10.1738
   25.410   10.1632
   25.440   10.4371
   25.470    9.9737
   25.500   11.3007
   25.530   10.6056
   25.560   10.8057
   25.590   10.4265
   25.620   10.4265
   25.650   10.6477
   25.680   10.4792
   25.710   10.5108
   25.740   10.4687
   25.770   10.5529
   25.800   10.2475
   25.830   10.8162
   25.860   10.8268
   25.890   10.4897
   25.920   10.3107
   25.950   10.6688
   25.980   10.0895
   26.010   10.2791
   26.040   11.0900
   26.070   10.5003
   26.100   10.9005
   26.130   11.2375
   26.160   10.4160
   26.190   10.7952
   26.220   10.5424
   26.250   10.6266
   26.280   10.8689
   26.310   11.6798
   26.340   11.6904
   26.370   12.2170
   26.400   12.1538
   26.430   11.5324
   26.460   11.1006
   26.490   11.3323
   26.520   11.5640
   26.550   11.4692
   26.580   10.9321
   26.610   11.3744
   26.640   11.3428
   26.670   10.9426
   26.700   11.1532
   26.730   10.5424
   26.760   10.7425
   26.790   10.7952
   26.820   10.1632
   26.850   10.3633
   26.880   10.5635
   26.910   10.5951
   26.940   10.6688
   26.970   10.9215
   27.000   10.6688
   27.030   10.6793
   27.060   10.1211
   27.090   10.7004
   27.120   10.3212
   27.150   10.3318
   27.180   10.2686
   27.210   10.6056
   27.240   10.3423
   27.270   10.5740
   27.300   10.1738
   27.330   10.8899
   27.360   10.4160
   27.390   10.6161
   27.420   10.4581
   27.450   10.8162
   27.480   10.7530
   27.510   10.6161
   27.540   10.5529
   27.570   10.3528
   27.600   11.3112
   27.630   10.7214
   27.660   11.5008
   27.690   11.5324
   27.720   10.9742
   27.750   11.1006
   27.780   10.9215
   27.810   10.4265
   27.840   10.6898
   27.870   10.3107
   27.900   10.1316
   27.930   10.2264
   27.960   10.9005
   27.990   10.0895
   28.020   10.3107
   28.050   10.4792
   28.080   10.4055
   28.110   10.4792
   28.140   10.1632
   28.170   10.3633
   28.200   10.5951
   28.230   10.2475
   28.260   10.3002
   28.290   11.1111
   28.320   10.5424
   28.350   10.5951
   28.380    9.9947
   28.410   11.0479
   28.440   10.6898
   28.470   10.7530
   28.500   10.7530
   28.530   10.4581
   28.560   10.7425
   28.590   10.1948
   28.620   10.0369
   28.650   10.3212
   28.680   10.5635
   28.710   10.1422
   28.740    9.8894
   28.770   10.2264
   28.800   10.6688
   28.830   10.3423
   28.860   10.3107
   28.890   10.2686
   28.920   10.3844
   28.950    9.6788
   28.980   10.4371
   29.010   10.0895
   29.040   10.2580
   29.070   10.3949
   29.100   10.4265
   29.130   10.1001
   29.160   10.1843
   29.190   10.1738
   29.220   10.1316
   29.250   10.0790
   29.280   10.0895
   29.310   10.1001
   29.340    9.8999
   29.370   10.9426
   29.400   10.4160
   29.430    9.9421
   29.460    9.8789
   29.490   10.3002
   29.520   10.1001
   29.550   10.2370
   29.580   10.3002
   29.610   10.3318
   29.640   10.7741
   29.670   11.0479
   29.700   10.8162
   29.730   11.3217
   29.760   10.3528
   29.790   10.7741
   29.820   10.3633
   29.850   10.1001
   29.880   10.0790
   29.910   10.1738
   29.940   10.2896
   29.970    9.6577
   30.000    9.6156
   30.030   10.4371
   30.060   10.2896
   30.090   10.2159
   30.120    9.7314
   30.150   10.4476
   30.180    9.7630
   30.210   10.2475
   30.240   10.3107
   30.270   10.0369
   30.300    9.9526
   30.330   10.5319
   30.360   10.2791
   30.390   10.3318
   30.420   10.4265
   30.450   10.8478
   30.480   10.3107
   30.510   10.5213
   30.540   10.9005
   30.570   10.3528
   30.600    9.9737
   30.630   10.3423
   30.660   10.3528
   30.690   10.6266
   30.720   10.7425
   30.750   10.7741
   30.780   11.1848
   30.810   10.1422
   30.840   10.3739
   30.870   10.0474
   30.900    9.5313
   30.930    9.7420
   30.960    9.9421
   30.990    9.9526
   31.020   10.3107
   31.050    9.7104
   31.080   10.2896
   31.110   10.1316
   31.140   10.2054
   31.170   10.3318
   31.200   10.3528
   31.230   11.0374
   31.260    9.8789
   31.290   10.4476
   31.320   10.0053
   31.350   10.0053
   31.380   10.6266
   31.410   10.0474
   31.440   10.1106
   31.470   10.1001
   31.500   10.1948
   31.530    9.6682
   31.560    9.8789
   31.590   10.0053
   31.620   10.1211
   31.650   10.1738
   31.680   10.2686
   31.710    9.9421
   31.740   10.1527
   31.770    9.9842
   31.800   10.1422
   31.830   10.1632
   31.860   10.1422
   31.890    9.8157
   31.920   10.0053
   31.950    9.8052
   31.980    9.8052
   32.010   10.3002
   32.040    9.9105
   32.070   10.3844
   32.100   10.2686
   32.130    9.9210
   32.160    9.9526
   32.190   10.3002
   32.220   10.0474
   32.250    9.9526
   32.280    9.9526
   32.310   10.1738
   32.340   10.3528
   32.370    9.3523
   32.400   10.1632
   32.430    9.9631
   32.460   10.0263
   32.490   10.5635
   32.520    9.7420
   32.550   10.0053
   32.580    9.9105
   32.610   10.0790
   32.640    9.9315
   32.670    9.7841
   32.700   10.1106
   32.730   10.0685
   32.760    9.8578
   32.790   10.1422
   32.820    9.7630
   32.850    9.8262
   32.880   10.2159
   32.910    9.9421
   32.940   10.0158
   32.970   10.2686
   33.000    9.6156
   33.030    9.9842
   33.060    9.6472
   33.090    9.8578
   33.120   10.0053
   33.150    9.5208
   33.180   10.0685
   33.210   10.3528
   33.240    9.6367
   33.270   10.5740
   33.300   10.1422
   33.330   10.5003
   33.360   10.5003
   33.390   10.1001
   33.420   10.4792
   33.450   10.2370
   33.480   10.0579
   33.510    9.9737
   33.540    9.8578
   33.570    9.9631
   33.600    9.6261
   33.630    9.8368
   33.660    9.5629
   33.690    9.7736
   33.720    9.3734
   33.750    9.4787
   33.780   10.0685
   33.810   10.1527
   33.840    9.2575
   33.870   10.2159
   33.900    9.6893
   33.930    9.9210
   33.960    9.9315
   33.990   10.1316
   34.020   10.4160
   34.050    9.7104
   34.080    9.9421
   34.110   10.6477
   34.140    9.4155
   34.170   10.4160
   34.200   10.0895
   34.230   10.3107
   34.260   10.3002
   34.290   10.4055
   34.320    9.8473
   34.350   10.2054
   34.380    9.7104
   34.410    9.5208
   34.440    9.8157
   34.470   10.0158
   34.500    9.7630
   34.530    9.5735
   34.560   10.0579
   34.590    9.4787
   34.620    9.3207
   34.650   10.1001
   34.680    9.7946
   34.710    9.7736
   34.740   10.0790
   34.770   10.9742
   34.800   10.7425
   34.830   10.1632
   34.860   10.9953
   34.890   10.4160
   34.920   10.7846
   34.950   10.0053
   34.980   10.1001
   35.010    9.6156
   35.040    9.8578
   35.070    9.5419
   35.100   10.0053
   35.130    9.7630
   35.160   10.3949
   35.190    9.9315
   35.220    9.7525
   35.250    9.3312
   35.280    9.8052
   35.310    9.6472
   35.340    9.6998
   35.370    9.2996
   35.400    9.3944
   35.430    9.8368
   35.460    9.4155
   35.490    9.4787
   35.520    9.7525
   35.550    9.5629
   35.580    9.5419
   35.610    9.7314
   35.640    9.9315
   35.670   10.3107
   35.700   10.3633
   35.730    9.8999
   35.760    9.3102
   35.790   10.0579
   35.820   10.1106
   35.850    9.4365
   35.880    9.8473
   35.910    9.3944
   35.940    9.5840
   35.970    9.6472
   36.000    9.4787
   36.030    9.5735
   36.060    9.4050
   36.090    9.7841
   36.120    9.0469
   36.150    9.5840
   36.180    9.6051
   36.210    8.8784
   36.240    9.9526
   36.270    9.3628
   36.300    8.8784
   36.330    9.6577
   36.360    9.2259
   36.390    9.4681
   36.420    9.8052
   36.450    9.0047
   36.480    9.5419
   36.510    9.3734
   36.540    9.8789
   36.570    9.3628
   36.600    9.1627
   36.630    9.4576
   36.660    9.4787
   36.690    9.6051
   36.720    9.6261
   36.750    9.5735
   36.780    9.4681
   36.810    8.9731
   36.840    9.0890
   36.870    9.4260
   36.900    9.1838
   36.930    9.3839
   36.960    9.5735
   36.990    9.4681
   37.020    9.2680
   37.050    9.3734
   37.080    9.5103
   37.110    9.3734
   37.140    9.3523
   37.170    9.2470
   37.200   10.1001
   37.230   10.0895
   37.260    9.3944
   37.290    9.3523
   37.320    9.2364
   37.350    9.3312
   37.380    9.8578
   37.410    9.5945
   37.440    9.5103
   37.470    9.3418
   37.500    9.5945
   37.530    9.6788
   37.560    9.8789
   37.590    9.6682
   37.620   10.1843
   37.650    9.9210
   37.680    9.2891
   37.710    9.7736
   37.740    9.7630
   37.770    9.6577
   37.800    9.6367
   37.830    9.4155
   37.860    9.4155
   37.890    9.6577
   37.920    9.8473
   37.950    9.5524
   37.980    9.9105
   38.010    9.7946
   38.040    9.6577
   38.070    9.6051
   38.100    9.5840
   38.130    9.4471
   38.160    9.4260
   38.190    9.2786
   38.220    9.4576
   38.250    9.5103
   38.280   10.0474
   38.310    9.7630
   38.340    9.7841
   38.370   10.2370
   38.400    9.7841
   38.430    9.8684
   38.460    9.6788
   38.490    9.5313
   38.520    9.2680
   38.550    9.3839
   38.580    9.4365
   38.610    9.7630
   38.640    9.2154
   38.670    9.4997
   38.700    9.8262
   38.730    9.5945
   38.760   10.5635
   38.790    9.6051
   38.820    9.9105
   38.850    9.6156
   38.880    9.4576
   38.910    9.2575
   38.940    9.4155
   38.970    9.6788
   39.000    9.3523
   39.030    9.9315
   39.060    9.9737
   39.090    9.9947
   39.120    9.6367
   39.150   10.1106
   39.180    9.9526
   39.210   10.2896
   39.240    9.6998
   39.270    9.8368
   39.300    9.6472
   39.330    9.6472
   39.360    8.8994
   39.390    9.9210
   39.420    9.7736
   39.450    9.4155
   39.480    9.5313
   39.510    9.5208
   39.540    9.0363
   39.570    9.0469
   39.600    9.4787
   39.630    8.8362
   39.660    9.6051
   39.690    9.5945
   39.720    9.2786
   39.750    9.7630
   39.780    9.4892
   39.810    9.5208
   39.840    9.5419
   39.870    9.2470
   39.900   10.0053
   39.930    9.7841
   39.960    9.6367
   39.990    9.5840