File: data/MOCOF-1/PXRD/PXRD_KE-132-1-2_Cu-Ka1_film-3mm_5s-deg.xyd
    1.500   28.8889
    1.530   28.6993
    1.560   28.0463
    1.590   26.0664
    1.620   25.8662
    1.650   25.3607
    1.680   24.0548
    1.710   22.5382
    1.740   23.3281
    1.770   21.7694
    1.800   21.4113
    1.830   20.5582
    1.860   20.0632
    1.890   19.4313
    1.920   19.7788
    1.950   18.7256
    1.980   18.2412
    2.010   18.7256
    2.040   17.1880
    2.070   16.8404
    2.100   17.3670
    2.130   16.4297
    2.160   16.3033
    2.190   16.3349
    2.220   15.5029
    2.250   15.4292
    2.280   15.9452
    2.310   15.4292
    2.340   15.2923
    2.370   15.1237
    2.400   15.0500
    2.430   15.1764
    2.460   15.7662
    2.490   14.6709
    2.520   15.0606
    2.550   15.2817
    2.580   15.4397
    2.610   15.1553
    2.640   15.1237
    2.670   16.6087
    2.700   16.4086
    2.730   16.3139
    2.760   17.5566
    2.790   18.3465
    2.820   19.7262
    2.850   19.5682
    2.880   21.3902
    2.910   22.7804
    2.940   24.0021
    2.970   25.3818
    3.000   27.8673
    3.030   31.1638
    3.060   32.3960
    3.090   36.0295
    3.120   40.7899
    3.150   44.3075
    3.180   49.1311
    3.210   56.2823
    3.240   63.6756
    3.270   70.9215
    3.300   82.0748
    3.330   94.2285
    3.360  108.1517
    3.390  123.4966
    3.420  141.5482
    3.450  145.5924
    3.480  134.1970
    3.510  113.8810
    3.540   87.0037
    3.570   67.9094
    3.600   53.8599
    3.630   45.0132
    3.660   42.4645
    3.690   39.8420
    3.720   39.9789
    3.750   40.2001
    3.780   40.9268
    3.810   41.4218
    3.840   43.8125
    3.870   47.0985
    3.900   48.4887
    3.930   51.1954
    3.960   53.5124
    3.990   55.3133
    4.020   55.6819
    4.050   57.0616
    4.080   55.7135
    4.110   55.1975
    4.140   52.9331
    4.170   51.0585
    4.200   47.6988
    4.230   43.7388
    4.260   39.7999
    4.290   35.5029
    4.320   32.0590
    4.350   27.7199
    4.380   24.6656
    4.410   21.8747
    4.440   18.8520
    4.470   17.3776
    4.500   15.5240
    4.530   14.4918
    4.560   13.7967
    4.590   12.5224
    4.620   12.1854
    4.650   11.2480
    4.680   10.7004
    4.710   10.3318
    4.740   10.1632
    4.770   10.0474
    4.800    9.6682
    4.830    9.2786
    4.860    9.2364
    4.890    9.4997
    4.920    9.4892
    4.950    8.7414
    4.980    8.7836
    5.010    8.8468
    5.040    8.7730
    5.070    8.2570
    5.100    8.2570
    5.130    8.6361
    5.160    8.6467
    5.190    8.6993
    5.220    8.7941
    5.250    8.6572
    5.280    8.4992
    5.310    8.5308
    5.340    8.8046
    5.370    8.7309
    5.400    8.8994
    5.430    8.2780
    5.460    8.4466
    5.490    8.4466
    5.520    8.5203
    5.550    8.0990
    5.580    7.8884
    5.610    8.3834
    5.640    8.0358
    5.670    7.9621
    5.700    7.6040
    5.730    7.6040
    5.760    7.8041
    5.790    7.7725
    5.820    7.5829
    5.850    7.2143
    5.880    7.0985
    5.910    6.8036
    5.940    7.2670
    5.970    6.9616
    6.000    6.8352
    6.030    6.4666
    6.060    6.6245
    6.090    6.4350
    6.120    6.6245
    6.150    6.6877
    6.180    6.8141
    6.210    6.7930
    6.240    6.9300
    6.270    6.7404
    6.300    6.5087
    6.330    6.4034
    6.360    6.9932
    6.390    6.3191
    6.420    6.9194
    6.450    6.3402
    6.480    6.6245
    6.510    6.8457
    6.540    7.0248
    6.570    6.8457
    6.600    6.9932
    6.630    7.0142
    6.660    7.4460
    6.690    8.4571
    6.720    8.6783
    6.750    9.3207
    6.780    9.9526
    6.810   11.4481
    6.840   13.3228
    6.870   14.8289
    6.900   16.6193
    6.930   18.1569
    6.960   18.8099
    6.990   16.8088
    7.020   15.3765
    7.050   12.7120
    7.080   10.6056
    7.110    9.1838
    7.140    8.3623
    7.170    7.9621
    7.200    7.8146
    7.230    7.2986
    7.260    6.8352
    7.290    7.0563
    7.320    6.4560
    7.350    6.4244
    7.380    6.5613
    7.410    6.4350
    7.440    6.6772
    7.470    6.6772
    7.500    6.7193
    7.530    6.3191
    7.560    6.4560
    7.590    6.4982
    7.620    6.2770
    7.650    6.4350
    7.680    6.8984
    7.710    6.2138
    7.740    6.9932
    7.770    7.0563
    7.800    7.4776
    7.830    7.0669
    7.860    7.2880
    7.890    7.5619
    7.920    7.2565
    7.950    7.9305
    7.980    8.0674
    8.010    7.6672
    8.040    8.4887
    8.070    7.9831
    8.100    8.4255
    8.130    8.3834
    8.160    8.6572
    8.190    8.5624
    8.220    8.8468
    8.250    8.6677
    8.280    8.7204
    8.310    8.8468
    8.340    8.6993
    8.370    8.9415
    8.400    8.2359
    8.430    8.7309
    8.460    9.1101
    8.490    8.4360
    8.520    8.3307
    8.550    7.8252
    8.580    8.0569
    8.610    7.8568
    8.640    7.3934
    8.670    7.2986
    8.700    7.3407
    8.730    7.1827
    8.760    6.6456
    8.790    6.3928
    8.820    6.3402
    8.850    6.2981
    8.880    5.9084
    8.910    6.0137
    8.940    5.7083
    8.970    6.0769
    9.000    5.4028
    9.030    5.5503
    9.060    5.7820
    9.090    5.4660
    9.120    5.1395
    9.150    5.4555
    9.180    5.4555
    9.210    5.4976
    9.240    5.4450
    9.270    4.9921
    9.300    5.0974
    9.330    5.3397
    9.360    5.0658
    9.390    5.0237
    9.420    5.3291
    9.450    5.0658
    9.480    5.1817
    9.510    4.9605
    9.540    5.0237
    9.570    5.4555
    9.600    5.2449
    9.630    4.9078
    9.660    5.0553
    9.690    4.9078
    9.720    5.1606
    9.750    4.9816
    9.780    4.6972
    9.810    5.0764
    9.840    4.8341
    9.870    4.8868
    9.900    4.4866
    9.930    5.0237
    9.960    4.6972
    9.990    5.1395
   10.020    5.3291
   10.050    4.9500
   10.080    5.1817
   10.110    4.9816
   10.140    5.1817
   10.170    4.8341
   10.200    5.3502
   10.230    5.0342
   10.260    4.6972
   10.290    5.3186
   10.320    5.2765
   10.350    5.4976
   10.380    5.5187
   10.410    6.1401
   10.440    5.6977
   10.470    5.4766
   10.500    5.7083
   10.530    5.6345
   10.560    5.6451
   10.590    5.1711
   10.620    5.7399
   10.650    5.0237
   10.680    5.2554
   10.710    4.7815
   10.740    5.2765
   10.770    5.2659
   10.800    5.4344
   10.830    5.2975
   10.860    5.2449
   10.890    5.2975
   10.920    5.1185
   10.950    5.4660
   10.980    4.8025
   11.010    5.1711
   11.040    5.0342
   11.070    4.9500
   11.100    5.2027
   11.130    5.3712
   11.160    5.0974
   11.190    5.3186
   11.220    5.2449
   11.250    5.2343
   11.280    4.9394
   11.310    5.1290
   11.340    5.0974
   11.370    5.3291
   11.400    5.1922
   11.430    5.0764
   11.460    4.8236
   11.490    5.0764
   11.520    5.0658
   11.550    4.8763
   11.580    5.2449
   11.610    5.0974
   11.640    5.2449
   11.670    5.0974
   11.700    5.3818
   11.730    5.3291
   11.760    5.0553
   11.790    5.1817
   11.820    5.2765
   11.850    5.1290
   11.880    5.2870
   11.910    5.2975
   11.940    5.1922
   11.970    5.0026
   12.000    5.4660
   12.030    5.2975
   12.060    5.6872
   12.090    5.2659
   12.120    5.0764
   12.150    5.6451
   12.180    5.4239
   12.210    5.2765
   12.240    5.2238
   12.270    5.4660
   12.300    5.3923
   12.330    5.5187
   12.360    5.3186
   12.390    5.4766
   12.420    5.3818
   12.450    5.7504
   12.480    5.7715
   12.510    5.8768
   12.540    5.2765
   12.570    5.5714
   12.600    5.6977
   12.630    5.3607
   12.660    5.3923
   12.690    5.6872
   12.720    5.8557
   12.750    6.0664
   12.780    5.5082
   12.810    5.4766
   12.840    5.4871
   12.870    5.3291
   12.900    5.5187
   12.930    5.3291
   12.960    5.1185
   12.990    5.2027
   13.020    5.5503
   13.050    5.6767
   13.080    5.6240
   13.110    5.5819
   13.140    5.4976
   13.170    5.5503
   13.200    5.4766
   13.230    5.1395
   13.260    5.5714
   13.290    5.3291
   13.320    5.4660
   13.350    5.4344
   13.380    5.1606
   13.410    5.0237
   13.440    5.5187
   13.470    5.1395
   13.500    5.7188
   13.530    5.1501
   13.560    4.8868
   13.590    5.0658
   13.620    5.3923
   13.650    5.1711
   13.680    5.2975
   13.710    5.3397
   13.740    5.1290
   13.770    5.2659
   13.800    5.1606
   13.830    5.5398
   13.860    5.5082
   13.890    5.1501
   13.920    5.1185
   13.950    4.9078
   13.980    5.3291
   14.010    5.5398
   14.040    5.2554
   14.070    5.3712
   14.100    5.2975
   14.130    4.9710
   14.160    5.2343
   14.190    4.9078
   14.220    5.4134
   14.250    5.2870
   14.280    5.1185
   14.310    5.3923
   14.340    5.4976
   14.370    5.4239
   14.400    5.4134
   14.430    4.9921
   14.460    5.2659
   14.490    5.1606
   14.520    5.3186
   14.550    4.8447
   14.580    5.2343
   14.610    5.0026
   14.640    5.1711
   14.670    5.0764
   14.700    5.1080
   14.730    5.2554
   14.760    4.6867
   14.790    4.8025
   14.820    5.0764
   14.850    4.8763
   14.880    4.8763
   14.910    5.0132
   14.940    4.8763
   14.970    4.5603
   15.000    5.1185
   15.030    4.8131
   15.060    4.9710
   15.090    5.1606
   15.120    5.2343
   15.150    4.9078
   15.180    4.8552
   15.210    4.9394
   15.240    5.1817
   15.270    5.2343
   15.300    4.9289
   15.330    4.8868
   15.360    5.2554
   15.390    4.7077
   15.420    5.5187
   15.450    4.9500
   15.480    5.1080
   15.510    4.9078
   15.540    5.3607
   15.570    5.0026
   15.600    5.3397
   15.630    5.1080
   15.660    4.6867
   15.690    5.4660
   15.720    5.1501
   15.750    5.0869
   15.780    5.2659
   15.810    4.9605
   15.840    5.0658
   15.870    5.2343
   15.900    5.0658
   15.930    4.8341
   15.960    5.3186
   15.990    5.0553
   16.020    5.3923
   16.050    4.9184
   16.080    4.9078
   16.110    5.2027
   16.140    5.3607
   16.170    4.9078
   16.200    4.7393
   16.230    4.8973
   16.260    4.8552
   16.290    5.0342
   16.320    4.7288
   16.350    4.9078
   16.380    4.8131
   16.410    5.0342
   16.440    4.9184
   16.470    5.1501
   16.500    5.0658
   16.530    5.0237
   16.560    4.8657
   16.590    4.7815
   16.620    5.0764
   16.650    4.8763
   16.680    4.9078
   16.710    4.5603
   16.740    4.5814
   16.770    4.8131
   16.800    4.7499
   16.830    4.8447
   16.860    4.9289
   16.890    5.0237
   16.920    4.7077
   16.950    5.0342
   16.980    4.9500
   17.010    4.8657
   17.040    4.6340
   17.070    4.8341
   17.100    4.9078
   17.130    4.6972
   17.160    5.0553
   17.190    4.8868
   17.220    5.0764
   17.250    4.8236
   17.280    5.0869
   17.310    4.8763
   17.340    4.8447
   17.370    4.8552
   17.400    5.0553
   17.430    5.1501
   17.460    5.0658
   17.490    4.6445
   17.520    4.9289
   17.550    4.8763
   17.580    4.7499
   17.610    4.4971
   17.640    5.2343
   17.670    5.0026
   17.700    4.7393
   17.730    5.2554
   17.760    5.0237
   17.790    4.8868
   17.820    4.8552
   17.850    4.9078
   17.880    5.0974
   17.910    4.8973
   17.940    5.1080
   17.970    5.3397
   18.000    4.8025
   18.030    5.1185
   18.060    5.3502
   18.090    4.8973
   18.120    5.0974
   18.150    4.9078
   18.180    4.9184
   18.210    5.0448
   18.240    5.0237
   18.270    4.9710
   18.300    4.8868
   18.330    5.0658
   18.360    4.9710
   18.390    4.4128
   18.420    4.9078
   18.450    5.0658
   18.480    5.0869
   18.510    4.9605
   18.540    4.6024
   18.570    4.7183
   18.600    4.9394
   18.630    4.7920
   18.660    5.1290
   18.690    4.6130
   18.720    4.8131
   18.750    5.1185
   18.780    5.0132
   18.810    4.8341
   18.840    5.1290
   18.870    5.0869
   18.900    4.9394
   18.930    4.8868
   18.960    5.2554
   18.990    5.0237
   19.020    5.0764
   19.050    4.7393
   19.080    5.0342
   19.110    4.9921
   19.140    5.0026
   19.170    4.7499
   19.200    5.0764
   19.230    4.7393
   19.260    4.8973
   19.290    5.2659
   19.320    5.1290
   19.350    4.9605
   19.380    4.6972
   19.410    5.2449
   19.440    5.0658
   19.470    4.9710
   19.500    5.3081
   19.530    5.2027
   19.560    5.3291
   19.590    4.9184
   19.620    5.2343
   19.650    5.4028
   19.680    5.4450
   19.710    5.2659
   19.740    5.2765
   19.770    5.1922
   19.800    5.0869
   19.830    5.5187
   19.860    5.2027
   19.890    5.2133
   19.920    5.5082
   19.950    5.6135
   19.980    5.2975
   20.010    5.2027
   20.040    5.5082
   20.070    5.4976
   20.100    5.4239
   20.130    5.6135
   20.160    5.2027
   20.190    5.2343
   20.220    5.2975
   20.250    5.1817
   20.280    5.1606
   20.310    5.7293
   20.340    5.3712
   20.370    5.3186
   20.400    5.2554
   20.430    5.0553
   20.460    5.1185
   20.490    5.2870
   20.520    5.1817
   20.550    5.0342
   20.580    5.5187
   20.610    5.3081
   20.640    5.2659
   20.670    5.1290
   20.700    5.0342
   20.730    5.0974
   20.760    5.0132
   20.790    5.5187
   20.820    5.1711
   20.850    5.3397
   20.880    5.4028
   20.910    5.2765
   20.940    5.1922
   20.970    5.4766
   21.000    5.2133
   21.030    5.0974
   21.060    5.3186
   21.090    5.1501
   21.120    5.5608
   21.150    5.2975
   21.180    5.2133
   21.210    5.0448
   21.240    5.1817
   21.270    5.3923
   21.300    5.1711
   21.330    4.8973
   21.360    5.2870
   21.390    5.0974
   21.420    5.0026
   21.450    5.2870
   21.480    5.1711
   21.510    5.1080
   21.540    4.9184
   21.570    4.9078
   21.600    5.3186
   21.630    4.8236
   21.660    5.1817
   21.690    5.3818
   21.720    4.9921
   21.750    5.2765
   21.780    4.7709
   21.810    4.9394
   21.840    4.9184
   21.870    5.3923
   21.900    5.0658
   21.930    4.8447
   21.960    5.0974
   21.990    4.9921
   22.020    5.5714
   22.050    5.1606
   22.080    5.1290
   22.110    5.0869
   22.140    4.8341
   22.170    5.0869
   22.200    5.1080
   22.230    5.2238
   22.260    5.1501
   22.290    4.8025
   22.320    4.9184
   22.350    5.0132
   22.380    5.1922
   22.410    5.1711
   22.440    4.6867
   22.470    4.9289
   22.500    4.8341
   22.530    4.8025
   22.560    5.0026
   22.590    5.0553
   22.620    5.0448
   22.650    4.9816
   22.680    4.8447
   22.710    5.1395
   22.740    5.2238
   22.770    5.0764
   22.800    4.5708
   22.830    4.9921
   22.860    4.8973
   22.890    5.1922
   22.920    5.0342
   22.950    4.8552
   22.980    4.7815
   23.010    4.9289
   23.040    4.5498
   23.070    4.7499
   23.100    4.5498
   23.130    4.6551
   23.160    4.9078
   23.190    4.7499
   23.220    4.8236
   23.250    4.6235
   23.280    5.2027
   23.310    4.6445
   23.340    4.5392
   23.370    4.8552
   23.400    4.9921
   23.430    4.6867
   23.460    4.9921
   23.490    4.4550
   23.520    4.8657
   23.550    4.6656
   23.580    4.3075
   23.610    4.5603
   23.640    4.7815
   23.670    4.6024
   23.700    4.6024
   23.730    4.8025
   23.760    4.6445
   23.790    4.7604
   23.820    4.4234
   23.850    4.7183
   23.880    5.0553
   23.910    4.6761
   23.940    4.5287
   23.970    4.7920
   24.000    4.2970
   24.030    4.6972
   24.060    4.6551
   24.090    4.8657
   24.120    4.5814
   24.150    4.7920
   24.180    4.6024
   24.210    4.4234
   24.240    4.7815
   24.270    4.2338
   24.300    4.8131
   24.330    4.7077
   24.360    4.3497
   24.390    4.6445
   24.420    4.5814
   24.450    4.6656
   24.480    5.1185
   24.510    4.8236
   24.540    4.7288
   24.570    4.8447
   24.600    4.7815
   24.630    4.5287
   24.660    4.4866
   24.690    4.3602
   24.720    4.5498
   24.750    4.6235
   24.780    4.3813
   24.810    4.8236
   24.840    4.6445
   24.870    4.3497
   24.900    4.5498
   24.930    4.3391
   24.960    4.4550
   24.990    4.4971
   25.020    4.4866
   25.050    4.4655
   25.080    4.4971
   25.110    4.5076
   25.140    4.4655
   25.170    4.6761
   25.200    4.3286
   25.230    4.3181
   25.260    4.4971
   25.290    4.2022
   25.320    4.3602
   25.350    4.5603
   25.380    4.3707
   25.410    4.6445
   25.440    4.2654
   25.470    4.0126
   25.500    4.3707
   25.530    4.1706
   25.560    4.3075
   25.590    4.1917
   25.620    4.2233
   25.650    4.3286
   25.680    4.3918
   25.710    4.3602
   25.740    3.9810
   25.770    4.1074
   25.800    4.4655
   25.830    4.0653
   25.860    3.9073
   25.890    4.2127
   25.920    4.0758
   25.950    4.1496
   25.980    3.9073
   26.010    4.3602
   26.040    3.9600
   26.070    4.0758
   26.100    4.0758
   26.130    4.0442
   26.160    4.3497
   26.190    4.0653
   26.220    4.2233
   26.250    4.3602
   26.280    4.1180
   26.310    4.4550
   26.340    4.1390
   26.370    3.9494
   26.400    3.9810
   26.430    4.3075
   26.460    4.0969
   26.490    4.1285
   26.520    3.9179
   26.550    4.0653
   26.580    4.2865
   26.610    3.8547
   26.640    4.2654
   26.670    4.1180
   26.700    4.3181
   26.730    4.0864
   26.760    4.3497
   26.790    3.8336
   26.820    4.0337
   26.850    4.0653
   26.880    3.9810
   26.910    4.3602
   26.940    3.9179
   26.970    3.9810
   27.000    4.0126
   27.030    4.3391
   27.060    3.9494
   27.090    4.2127
   27.120    3.9916
   27.150    4.1496
   27.180    4.1706
   27.210    3.9494
   27.240    4.1285
   27.270    3.8757
   27.300    4.0232
   27.330    3.8441
   27.360    3.6862
   27.390    3.6230
   27.420    3.8441
   27.450    3.9389
   27.480    3.8020
   27.510    3.9179
   27.540    4.0337
   27.570    4.0548
   27.600    3.6967
   27.630    4.1496
   27.660    3.7809
   27.690    3.8547
   27.720    3.8863
   27.750    3.8020
   27.780    3.8863
   27.810    3.5914
   27.840    4.2338
   27.870    3.8863
   27.900    4.0126
   27.930    4.2127
   27.960    3.9179
   27.990    4.0969
   28.020    4.0232
   28.050    4.2970
   28.080    3.9916
   28.110    4.4444
   28.140    4.4023
   28.170    3.9810
   28.200    4.0232
   28.230    3.9179
   28.260    4.0337
   28.290    4.2654
   28.320    4.1917
   28.350    4.2443
   28.380    4.1706
   28.410    3.8231
   28.440    4.1390
   28.470    4.1917
   28.500    3.9494
   28.530    3.8547
   28.560    3.7915
   28.590    4.1074
   28.620    3.8125
   28.650    3.7493
   28.680    3.9284
   28.710    3.8652
   28.740    4.1390
   28.770    3.9810
   28.800    4.2022
   28.830    4.0232
   28.860    3.8968
   28.890    3.9179
   28.920    3.6335
   28.950    4.0548
   28.980    3.9073
   29.010    3.9073
   29.040    3.7177
   29.070    3.7809
   29.100    3.9810
   29.130    3.8652
   29.160    3.9810
   29.190    4.1285
   29.220    3.9916
   29.250    3.7809
   29.280    3.9705
   29.310    3.8441
   29.340    3.9494
   29.370    3.6862
   29.400    3.7283
   29.430    3.7177
   29.460    3.7599
   29.490    3.8336
   29.520    4.0337
   29.550    3.6335
   29.580    3.9600
   29.610    3.8863
   29.640    3.6019
   29.670    3.8336
   29.700    3.9916
   29.730    3.6546
   29.760    3.6546
   29.790    3.8652
   29.820    3.6335
   29.850    3.7599
   29.880    3.7915
   29.910    3.4439
   29.940    3.6230
   29.970    3.7493
   30.000    3.7915
   30.030    3.5808
   30.060    3.7493
   30.090    3.7177
   30.120    3.8757
   30.150    3.6230
   30.180    3.5176
   30.210    3.5914
   30.240    3.9389
   30.270    3.8652
   30.300    3.7177
   30.330    3.5914
   30.360    3.7177
   30.390    3.7072
   30.420    3.8020
   30.450    3.5914
   30.480    3.4755
   30.510    3.6230
   30.540    3.4650
   30.570    3.6335
   30.600    3.7177
   30.630    3.5703
   30.660    3.8336
   30.690    3.4860
   30.720    3.6651
   30.750    3.7809
   30.780    3.7072
   30.810    3.6124
   30.840    3.3913
   30.870    3.7704
   30.900    3.2859
   30.930    3.7072
   30.960    3.4860
   30.990    3.6124
   31.020    3.5598
   31.050    3.6967
   31.080    3.5914
   31.110    3.6335
   31.140    3.8652
   31.170    3.6862
   31.200    3.4123
   31.230    3.4966
   31.260    3.6862
   31.290    3.6546
   31.320    3.3281
   31.350    3.6019
   31.380    3.6230
   31.410    3.5808
   31.440    3.6230
   31.470    3.9600
   31.500    3.2649
   31.530    3.7072
   31.560    3.7177
   31.590    3.5914
   31.620    3.9810
   31.650    3.6124
   31.680    3.4229
   31.710    3.8441
   31.740    4.0864
   31.770    3.6335
   31.800    3.4018
   31.830    3.9600
   31.860    3.8652
   31.890    3.3281
   31.920    3.4544
   31.950    3.4334
   31.980    3.6862
   32.010    3.3386
   32.040    3.3702
   32.070    3.5598
   32.100    3.4860
   32.130    3.3913
   32.160    3.5176
   32.190    2.9910
   32.220    3.5914
   32.250    3.5176
   32.280    3.6862
   32.310    3.4966
   32.340    3.5282
   32.370    3.5492
   32.400    3.6651
   32.430    3.5176
   32.460    3.5492
   32.490    3.4229
   32.520    3.6440
   32.550    3.4755
   32.580    3.4544
   32.610    3.5914
   32.640    3.6019
   32.670    3.7915
   32.700    3.4755
   32.730    3.5071
   32.760    3.4439
   32.790    3.1596
   32.820    3.4229
   32.850    3.6019
   32.880    3.2859
   32.910    3.3175
   32.940    3.3807
   32.970    3.6019
   33.000    3.4966
   33.030    3.8020
   33.060    3.4229
   33.090    3.4755
   33.120    3.6019
   33.150    3.6546
   33.180    3.3913
   33.210    3.4755
   33.240    3.6019
   33.270    3.3702
   33.300    3.4544
   33.330    3.5387
   33.360    3.4018
   33.390    3.3386
   33.420    3.1385
   33.450    3.4123
   33.480    3.2227
   33.510    3.4439
   33.540    3.5176
   33.570    3.6756
   33.600    3.3597
   33.630    3.4860
   33.660    2.9384
   33.690    3.3386
   33.720    3.3491
   33.750    3.4229
   33.780    3.5703
   33.810    3.1490
   33.840    3.4439
   33.870    3.3807
   33.900    3.5492
   33.930    3.2017
   33.960    3.3597
   33.990    3.4334
   34.020    3.5282
   34.050    3.1280
   34.080    3.2333
   34.110    3.2333
   34.140    3.2859
   34.170    3.5282
   34.200    3.3597
   34.230    3.4860
   34.260    3.2227
   34.290    3.1912
   34.320    3.4123
   34.350    3.2965
   34.380    3.6124
   34.410    3.4755
   34.440    3.4650
   34.470    3.1596
   34.500    3.3175
   34.530    3.5914
   34.560    3.2017
   34.590    3.3913
   34.620    3.6651
   34.650    3.2017
   34.680    3.1174
   34.710    3.4860
   34.740    3.3386
   34.770    3.3386
   34.800    3.4018
   34.830    3.4439
   34.860    3.5282
   34.890    3.3913
   34.920    3.2438
   34.950    3.3597
   34.980    3.6124
   35.010    3.6756
   35.040    3.5282
   35.070    3.4229
   35.100    3.3807
   35.130    3.2965
   35.160    3.6440
   35.190    3.2965
   35.220    3.5492
   35.250    3.3491
   35.280    3.3070
   35.310    3.3913
   35.340    3.4439
   35.370    3.2965
   35.400    3.2543
   35.430    3.2438
   35.460    3.5492
   35.490    3.4544
   35.520    3.5071
   35.550    3.2754
   35.580    3.2965
   35.610    3.3070
   35.640    3.2438
   35.670    3.2754
   35.700    3.3807
   35.730    3.3807
   35.760    3.1701
   35.790    3.2965
   35.820    3.3386
   35.850    3.0121
   35.880    3.3070
   35.910    3.1806
   35.940    3.4650
   35.970    3.2965
   36.000    3.3491
   36.030    3.3702
   36.060    3.3702
   36.090    3.3281
   36.120    3.3281
   36.150    3.1806
   36.180    3.1280
   36.210    3.2122
   36.240    3.2543
   36.270    3.3175
   36.300    3.4229
   36.330    3.3386
   36.360    3.4334
   36.390    3.3281
   36.420    3.1912
   36.450    3.2333
   36.480    3.3386
   36.510    3.3175
   36.540    3.2965
   36.570    3.3597
   36.600    3.2649
   36.630    3.2227
   36.660    3.1701
   36.690    3.1490
   36.720    3.2333
   36.750    3.2227
   36.780    3.3597
   36.810    3.5387
   36.840    3.6967
   36.870    3.6862
   36.900    3.4229
   36.930    3.4018
   36.960    3.3913
   36.990    3.2438
   37.020    3.3597
   37.050    3.0016
   37.080    3.1174
   37.110    3.5071
   37.140    3.1912
   37.170    3.2859
   37.200    3.3913
   37.230    3.2965
   37.260    3.3702
   37.290    2.9279
   37.320    3.0332
   37.350    3.0753
   37.380    3.4966
   37.410    3.2333
   37.440    3.2438
   37.470    3.2438
   37.500    3.2543
   37.530    3.2543
   37.560    3.0542
   37.590    3.0858
   37.620    3.4334
   37.650    3.3070
   37.680    3.3597
   37.710    3.3491
   37.740    3.3491
   37.770    3.3175
   37.800    3.6019
   37.830    3.1280
   37.860    3.2122
   37.890    3.4018
   37.920    3.0121
   37.950    3.2017
   37.980    3.0753
   38.010    2.9910
   38.040    3.3702
   38.070    3.5282
   38.100    3.1701
   38.130    3.1912
   38.160    3.4334
   38.190    3.0332
   38.220    3.1174
   38.250    3.2017
   38.280    3.0964
   38.310    3.1701
   38.340    3.0858
   38.370    3.3702
   38.400    3.2754
   38.430    3.4334
   38.460    3.2859
   38.490    3.0858
   38.520    3.4439
   38.550    3.1174
   38.580    3.2333
   38.610    3.3386
   38.640    3.1806
   38.670    3.0753
   38.700    3.2543
   38.730    3.1174
   38.760    3.1701
   38.790    3.1280
   38.820    3.3913
   38.850    3.3281
   38.880    3.0332
   38.910    3.1069
   38.940    3.2543
   38.970    3.1280
   39.000    3.3175
   39.030    3.4650
   39.060    3.3281
   39.090    3.1069
   39.120    3.3070
   39.150    3.1174
   39.180    3.3281
   39.210    3.1490
   39.240    3.2017
   39.270    3.5071
   39.300    3.2227
   39.330    3.2017
   39.360    3.4544
   39.390    3.1912
   39.420    2.9805
   39.450    3.5071
   39.480    3.2438
   39.510    3.1385
   39.540    3.1069
   39.570    3.1912
   39.600    3.2333
   39.630    3.2017
   39.660    3.2965
   39.690    3.1701
   39.720    3.3807
   39.750    3.1806
   39.780    3.1174
   39.810    3.2122
   39.840    3.6124
   39.870    3.1490
   39.900    3.2543
   39.930    3.3702
   39.960    3.2122
   39.990    3.2017