File: data/MOCOF-1/PXRD/PXRD_KE-140_Cu-Ka1_capillary-1mm_5s-deg.xyd
    1.500   19.0100
    1.530   19.0521
    1.560   17.9358
    1.590   17.2091
    1.620   16.5350
    1.650   15.8189
    1.680   16.4613
    1.710   15.5977
    1.740   14.9342
    1.770   14.5972
    1.800   14.2075
    1.830   13.8178
    1.860   13.5756
    1.890   13.5124
    1.920   13.4913
    1.950   13.1964
    1.980   12.8910
    2.010   12.6698
    2.040   12.3117
    2.070   11.4060
    2.100   11.8378
    2.130   11.9326
    2.160   11.1427
    2.190   11.4692
    2.220   11.3323
    2.250   10.8057
    2.280   11.2270
    2.310   10.3739
    2.340   10.9742
    2.370   10.9953
    2.400   10.9847
    2.430   10.6372
    2.460   10.6793
    2.490   11.2691
    2.520   10.3949
    2.550   10.3949
    2.580    9.8157
    2.610    9.7946
    2.640   10.0790
    2.670    9.9737
    2.700   10.1843
    2.730    9.7314
    2.760   10.0685
    2.790    9.7209
    2.820   10.1106
    2.850   10.0895
    2.880    9.4471
    2.910    9.4681
    2.940    9.8578
    2.970    9.5629
    3.000   10.1106
    3.030    9.9210
    3.060    9.6472
    3.090   10.0053
    3.120   10.0895
    3.150    9.9526
    3.180    9.9631
    3.210    9.8473
    3.240   10.2159
    3.270   10.2580
    3.300   10.3002
    3.330   11.0163
    3.360   10.3002
    3.390   10.6477
    3.420   10.7636
    3.450   11.0795
    3.480   10.7530
    3.510   11.5113
    3.540   11.6693
    3.570   11.1954
    3.600   11.7641
    3.630   11.8905
    3.660   11.9642
    3.690   13.1859
    3.720   13.5334
    3.750   13.1754
    3.780   13.7862
    3.810   16.3665
    3.840   18.8942
    3.870   20.6214
    3.900   17.2617
    3.930   12.3223
    3.960    9.5945
    3.990    8.9731
    4.020    8.4676
    4.050    9.0469
    4.080    8.2043
    4.110    8.4571
    4.140    8.3623
    4.170    8.2464
    4.200    8.3518
    4.230    8.4150
    4.260    8.3412
    4.290    8.3518
    4.320    8.6045
    4.350    8.6783
    4.380    8.5097
    4.410    8.5413
    4.440    8.4360
    4.470    8.1622
    4.500    8.5203
    4.530    8.6572
    4.560    8.5624
    4.590    7.8778
    4.620    8.3834
    4.650    8.5203
    4.680    8.2886
    4.710    8.3518
    4.740    8.3307
    4.770    8.1938
    4.800    8.0569
    4.830    8.3096
    4.860    8.4466
    4.890    8.1938
    4.920    8.5203
    4.950    8.2886
    4.980    8.5097
    5.010    8.4044
    5.040    8.8889
    5.070    8.5729
    5.100    8.7941
    5.130    8.6572
    5.160    8.7730
    5.190    8.7730
    5.220    8.4676
    5.250    8.8046
    5.280    8.6572
    5.310    8.9205
    5.340    9.5735
    5.370    9.1206
    5.400    9.5208
    5.430   10.0158
    5.460   10.9953
    5.490   11.4903
    5.520   11.5956
    5.550    9.5313
    5.580    8.0253
    5.610    7.6461
    5.640    8.0147
    5.670    8.0990
    5.700    8.2570
    5.730    7.9410
    5.760    8.2886
    5.790    7.8146
    5.820    8.2043
    5.850    8.4255
    5.880    7.9937
    5.910    7.8884
    5.940    8.3728
    5.970    8.0674
    6.000    7.8989
    6.030    7.6251
    6.060    7.7725
    6.090    7.9726
    6.120    7.8673
    6.150    7.9831
    6.180    8.2254
    6.210    8.0779
    6.240    7.9410
    6.270    8.3518
    6.300    8.1727
    6.330    8.4255
    6.360    8.2991
    6.390    8.6993
    6.420    8.3518
    6.450    8.2886
    6.480    7.9516
    6.510    8.2254
    6.540    8.1833
    6.570    8.8046
    6.600    8.4781
    6.630    8.5519
    6.660    8.2570
    6.690    8.8257
    6.720    9.3628
    6.750    8.5413
    6.780    8.7520
    6.810    7.9831
    6.840    8.3623
    6.870    8.2991
    6.900    8.3202
    6.930    7.7620
    6.960    8.1517
    6.990    8.1727
    7.020    8.1517
    7.050    8.0990
    7.080    8.2464
    7.110    8.3412
    7.140    8.3623
    7.170    8.0885
    7.200    7.7830
    7.230    7.9831
    7.260    8.6045
    7.290    8.0779
    7.320    8.2043
    7.350    8.0463
    7.380    8.1938
    7.410    8.2675
    7.440    8.4466
    7.470    8.2675
    7.500    8.3728
    7.530    8.3623
    7.560    8.2570
    7.590    8.2886
    7.620    8.3096
    7.650    8.4360
    7.680    9.0363
    7.710    8.9415
    7.740    8.9310
    7.770    9.1101
    7.800    9.1627
    7.830    8.5519
    7.860    8.1411
    7.890    8.6256
    7.920    8.2675
    7.950    8.3834
    7.980    8.2043
    8.010    8.0569
    8.040    8.2991
    8.070    8.4676
    8.100    7.8462
    8.130    8.4781
    8.160    8.1411
    8.190    8.3518
    8.220    8.1411
    8.250    8.3518
    8.280    7.8146
    8.310    7.9094
    8.340    8.5624
    8.370    8.3728
    8.400    8.1306
    8.430    8.0463
    8.460    8.4044
    8.490    8.4676
    8.520    8.9521
    8.550    8.2464
    8.580    8.8362
    8.610    8.7414
    8.640    8.8678
    8.670    8.4571
    8.700    8.6888
    8.730    8.3202
    8.760    8.7625
    8.790    8.1938
    8.820    8.8468
    8.850    8.7625
    8.880    9.2996
    8.910    8.3096
    8.940    8.0779
    8.970    8.2464
    9.000    8.6045
    9.030    8.5624
    9.060    8.0885
    9.090    8.2886
    9.120    8.4466
    9.150    7.9305
    9.180    8.5729
    9.210    8.3939
    9.240    8.7625
    9.270    8.8994
    9.300    7.9621
    9.330    8.8784
    9.360    8.8152
    9.390    8.8889
    9.420    9.1522
    9.450    9.2680
    9.480    9.6051
    9.510    9.6472
    9.540    9.8262
    9.570   10.1211
    9.600    8.9942
    9.630    8.5308
    9.660    8.4571
    9.690    8.5624
    9.720    8.5413
    9.750    8.5519
    9.780    8.4255
    9.810    8.6045
    9.840    8.1622
    9.870    8.9731
    9.900    8.3518
    9.930    8.2570
    9.960    8.4992
    9.990    8.4466
   10.020    8.3518
   10.050    8.7730
   10.080    8.5519
   10.110    8.0885
   10.140    8.8678
   10.170    8.7414
   10.200    8.4571
   10.230    8.3202
   10.260    9.1838
   10.290    8.7730
   10.320    9.2364
   10.350    8.7098
   10.380    8.8889
   10.410    8.8889
   10.440    8.7941
   10.470    8.8994
   10.500    8.7309
   10.530    8.3202
   10.560    8.8152
   10.590    8.1938
   10.620    8.7098
   10.650    8.3623
   10.680    8.1622
   10.710    8.9521
   10.740    8.4992
   10.770    8.6151
   10.800    8.3518
   10.830    7.8989
   10.860    8.2464
   10.890    8.4466
   10.920    8.1095
   10.950    8.1095
   10.980    8.5729
   11.010    8.6783
   11.040    8.8994
   11.070    8.7836
   11.100    7.8673
   11.130    8.3307
   11.160    8.3096
   11.190    8.4466
   11.220    8.2359
   11.250    8.1306
   11.280    8.2886
   11.310    8.2991
   11.340    7.8357
   11.370    7.8778
   11.400    8.1833
   11.430    8.2254
   11.460    8.3202
   11.490    8.4255
   11.520    8.0779
   11.550    8.5097
   11.580    8.2254
   11.610    8.4781
   11.640    7.7936
   11.670    8.4044
   11.700    8.9415
   11.730    8.6256
   11.760    8.2675
   11.790    8.0042
   11.820    8.2254
   11.850    8.4992
   11.880    8.3412
   11.910    7.5935
   11.940    8.4887
   11.970    8.1201
   12.000    8.3518
   12.030    8.1517
   12.060    7.9516
   12.090    8.2780
   12.120    8.4887
   12.150    8.1095
   12.180    7.8568
   12.210    7.8568
   12.240    7.7409
   12.270    8.0253
   12.300    7.7936
   12.330    8.1938
   12.360    8.1201
   12.390    8.5519
   12.420    8.0990
   12.450    8.0463
   12.480    7.5303
   12.510    8.0042
   12.540    7.6040
   12.570    7.9305
   12.600    8.1411
   12.630    7.9831
   12.660    7.8673
   12.690    8.1306
   12.720    8.3518
   12.750    7.8568
   12.780    7.9621
   12.810    8.0042
   12.840    8.0674
   12.870    8.2675
   12.900    8.2149
   12.930    8.3202
   12.960    8.2780
   12.990    7.9305
   13.020    8.0885
   13.050    8.0358
   13.080    7.6040
   13.110    8.0569
   13.140    8.1411
   13.170    8.1727
   13.200    7.7093
   13.230    7.9200
   13.260    8.0463
   13.290    7.8146
   13.320    8.2359
   13.350    8.1095
   13.380    7.6040
   13.410    7.7725
   13.440    8.0990
   13.470    8.0463
   13.500    8.1411
   13.530    8.0885
   13.560    7.9305
   13.590    7.9621
   13.620    8.1517
   13.650    8.1306
   13.680    7.8673
   13.710    7.8673
   13.740    7.8146
   13.770    7.7093
   13.800    8.1201
   13.830    8.1201
   13.860    7.5829
   13.890    7.4144
   13.920    8.3834
   13.950    8.0147
   13.980    8.0569
   14.010    8.2043
   14.040    8.4992
   14.070    7.9831
   14.100    8.3834
   14.130    7.8146
   14.160    7.7830
   14.190    7.9937
   14.220    7.7620
   14.250    8.1727
   14.280    7.8357
   14.310    7.5197
   14.340    7.7620
   14.370    7.9621
   14.400    7.6040
   14.430    7.6040
   14.460    7.8884
   14.490    7.7199
   14.520    7.8041
   14.550    7.9726
   14.580    7.9726
   14.610    8.0042
   14.640    7.7409
   14.670    7.5935
   14.700    8.0042
   14.730    8.3096
   14.760    7.7514
   14.790    7.9621
   14.820    7.8568
   14.850    7.9410
   14.880    7.9200
   14.910    7.7725
   14.940    7.4671
   14.970    8.1517
   15.000    7.8146
   15.030    7.6461
   15.060    7.7620
   15.090    7.8146
   15.120    8.4360
   15.150    7.8041
   15.180    7.5513
   15.210    7.7093
   15.240    7.7093
   15.270    7.7093
   15.300    7.8673
   15.330    7.8884
   15.360    8.0779
   15.390    7.9726
   15.420    7.6251
   15.450    8.1095
   15.480    8.1622
   15.510    7.5197
   15.540    8.0779
   15.570    8.4571
   15.600    8.0463
   15.630    8.0779
   15.660    8.0674
   15.690    8.1727
   15.720    8.4360
   15.750    8.6572
   15.780    8.9100
   15.810    8.8678
   15.840    8.7730
   15.870    8.9942
   15.900    8.9415
   15.930    8.7309
   15.960    9.3628
   15.990    9.4155
   16.020    9.5840
   16.050    9.6788
   16.080    9.4471
   16.110    9.6472
   16.140    9.7209
   16.170    9.8368
   16.200   10.0053
   16.230    9.5313
   16.260    9.9315
   16.290    9.4892
   16.320    9.4155
   16.350    8.8678
   16.380    9.0574
   16.410    8.9310
   16.440    8.5835
   16.470    8.6993
   16.500    8.7520
   16.530    8.4676
   16.560    8.1938
   16.590    8.8468
   16.620    8.2886
   16.650    8.5097
   16.680    7.5092
   16.710    8.4571
   16.740    8.4255
   16.770    8.6256
   16.800    8.3307
   16.830    8.1833
   16.860    8.2675
   16.890    7.6356
   16.920    8.1095
   16.950    8.0885
   16.980    8.2675
   17.010    8.5729
   17.040    8.4255
   17.070    8.1938
   17.100    8.0147
   17.130    8.4887
   17.160    8.5940
   17.190    7.7936
   17.220    8.1411
   17.250    7.7620
   17.280    8.3202
   17.310    8.7836
   17.340    8.0358
   17.370    7.7936
   17.400    8.3412
   17.430    7.7725
   17.460    7.8041
   17.490    8.1938
   17.520    8.0042
   17.550    8.2254
   17.580    8.1833
   17.610    8.2991
   17.640    8.0569
   17.670    7.8568
   17.700    8.6677
   17.730    7.9831
   17.760    8.6572
   17.790    8.6783
   17.820    8.3412
   17.850    8.0147
   17.880    7.5303
   17.910    8.1938
   17.940    8.4150
   17.970    7.9305
   18.000    8.3939
   18.030    8.4466
   18.060    8.0253
   18.090    7.5935
   18.120    8.6361
   18.150    7.9937
   18.180    8.2149
   18.210    8.7625
   18.240    7.8778
   18.270    8.2464
   18.300    7.7304
   18.330    7.9621
   18.360    8.4044
   18.390    8.0463
   18.420    7.8673
   18.450    8.0042
   18.480    7.8568
   18.510    7.8041
   18.540    8.0358
   18.570    7.8884
   18.600    8.2464
   18.630    8.2043
   18.660    8.0779
   18.690    8.0253
   18.720    8.1833
   18.750    8.0674
   18.780    8.1411
   18.810    8.1201
   18.840    8.3202
   18.870    8.2043
   18.900    8.8046
   18.930    8.4992
   18.960    8.7941
   18.990    9.1943
   19.020    8.8889
   19.050    8.2149
   19.080    8.2043
   19.110    7.8357
   19.140    8.0147
   19.170    8.0358
   19.200    7.5829
   19.230    8.2886
   19.260    7.7936
   19.290    8.0358
   19.320    8.1201
   19.350    8.2675
   19.380    8.2570
   19.410    7.9094
   19.440    8.0147
   19.470    7.8884
   19.500    8.1622
   19.530    7.9410
   19.560    7.9831
   19.590    8.2043
   19.620    8.3202
   19.650    7.7409
   19.680    8.0253
   19.710    8.3096
   19.740    8.4044
   19.770    8.0569
   19.800    7.7409
   19.830    8.1833
   19.860    8.1411
   19.890    8.2359
   19.920    8.0990
   19.950    8.3728
   19.980    8.1201
   20.010    8.1938
   20.040    8.0147
   20.070    7.9200
   20.100    8.3728
   20.130    7.8989
   20.160    8.0147
   20.190    7.8778
   20.220    8.3307
   20.250    7.8568
   20.280    8.0042
   20.310    7.7409
   20.340    7.8884
   20.370    8.2991
   20.400    8.3307
   20.430    8.0463
   20.460    8.0358
   20.490    7.6356
   20.520    7.9726
   20.550    7.8568
   20.580    8.0990
   20.610    7.7514
   20.640    7.4776
   20.670    7.8041
   20.700    7.9094
   20.730    7.8041
   20.760    7.8884
   20.790    8.0042
   20.820    8.5519
   20.850    8.1727
   20.880    7.5513
   20.910    7.8462
   20.940    7.6672
   20.970    8.0253
   21.000    7.9516
   21.030    7.9621
   21.060    7.9831
   21.090    7.9200
   21.120    7.8884
   21.150    8.0253
   21.180    8.1938
   21.210    8.2675
   21.240    7.9410
   21.270    8.3728
   21.300    8.2675
   21.330    8.0463
   21.360    7.9200
   21.390    8.0042
   21.420    8.1095
   21.450    8.0674
   21.480    8.4887
   21.510    8.2675
   21.540    7.9831
   21.570    7.6672
   21.600    8.0569
   21.630    8.1727
   21.660    8.5308
   21.690    8.2675
   21.720    7.9200
   21.750    8.2464
   21.780    8.6572
   21.810    8.1517
   21.840    8.5097
   21.870    8.7309
   21.900    7.7409
   21.930    8.4150
   21.960    8.4044
   21.990    8.5835
   22.020    8.4360
   22.050    8.1622
   22.080    8.6256
   22.110    8.0779
   22.140    8.3939
   22.170    8.4255
   22.200    8.6783
   22.230    7.9516
   22.260    8.3518
   22.290    8.2675
   22.320    8.4887
   22.350    8.4466
   22.380    8.3728
   22.410    8.4150
   22.440    8.0358
   22.470    8.1517
   22.500    8.5940
   22.530    8.5729
   22.560    8.5203
   22.590    8.2886
   22.620    8.8889
   22.650    8.4992
   22.680    8.4466
   22.710    7.7514
   22.740    8.2780
   22.770    8.2780
   22.800    8.3202
   22.830    8.2570
   22.860    8.2991
   22.890    8.4466
   22.920    8.4781
   22.950    8.6256
   22.980    8.5308
   23.010    8.2043
   23.040    8.1201
   23.070    8.1938
   23.100    8.4044
   23.130    8.4044
   23.160    8.5940
   23.190    8.7309
   23.220    8.3096
   23.250    8.2570
   23.280    8.2780
   23.310    8.4150
   23.340    8.4887
   23.370    8.4676
   23.400    7.9200
   23.430    7.9305
   23.460    8.6888
   23.490    8.2780
   23.520    8.1411
   23.550    8.5519
   23.580    8.2359
   23.610    8.5729
   23.640    8.2675
   23.670    8.1306
   23.700    8.2149
   23.730    7.8778
   23.760    7.6356
   23.790    8.1622
   23.820    8.4992
   23.850    8.4466
   23.880    8.6572
   23.910    8.2149
   23.940    8.2675
   23.970    8.4255
   24.000    8.0042
   24.030    8.4150
   24.060    8.3834
   24.090    7.9305
   24.120    7.9410
   24.150    7.4460
   24.180    7.9621
   24.210    8.1095
   24.240    8.4150
   24.270    8.0042
   24.300    7.6988
   24.330    7.9410
   24.360    7.8462
   24.390    7.8357
   24.420    7.8884
   24.450    7.7514
   24.480    8.4360
   24.510    7.8462
   24.540    7.8146
   24.570    7.9410
   24.600    8.0990
   24.630    7.9831
   24.660    8.1833
   24.690    8.2675
   24.720    7.9831
   24.750    8.1833
   24.780    8.4466
   24.810    8.2570
   24.840    8.3202
   24.870    7.8884
   24.900    7.8989
   24.930    8.1622
   24.960    8.1201
   24.990    8.1833
   25.020    8.3096
   25.050    7.8778
   25.080    8.0147
   25.110    8.0885
   25.140    7.9410
   25.170    7.5619
   25.200    8.1306
   25.230    8.2886
   25.260    7.9621
   25.290    8.2570
   25.320    7.8357
   25.350    8.2359
   25.380    7.8884
   25.410    8.1833
   25.440    7.8357
   25.470    7.9621
   25.500    8.2570
   25.530    8.0990
   25.560    7.7304
   25.590    8.1938
   25.620    7.8462
   25.650    7.9305
   25.680    7.8252
   25.710    8.5624
   25.740    7.8989
   25.770    8.4992
   25.800    8.0779
   25.830    8.0147
   25.860    7.6567
   25.890    8.1517
   25.920    7.9831
   25.950    7.7725
   25.980    8.0569
   26.010    7.9621
   26.040    7.9410
   26.070    8.0147
   26.100    8.3307
   26.130    8.1411
   26.160    7.7725
   26.190    8.2254
   26.220    8.3412
   26.250    7.8568
   26.280    8.0358
   26.310    8.1411
   26.340    7.5724
   26.370    7.8673
   26.400    8.3518
   26.430    7.6988
   26.460    7.4882
   26.490    7.6040
   26.520    8.2359
   26.550    7.9937
   26.580    7.7830
   26.610    7.9831
   26.640    7.8884
   26.670    8.0779
   26.700    8.0358
   26.730    7.9831
   26.760    8.1201
   26.790    7.5092
   26.820    7.8673
   26.850    8.4044
   26.880    8.1201
   26.910    7.9726
   26.940    7.8673
   26.970    7.8778
   27.000    7.4987
   27.030    7.7199
   27.060    8.0358
   27.090    8.2991
   27.120    7.7725
   27.150    7.5619
   27.180    7.9937
   27.210    8.0042
   27.240    7.8884
   27.270    7.8357
   27.300    7.9410
   27.330    7.5935
   27.360    8.1095
   27.390    7.5092
   27.420    8.0147
   27.450    7.3723
   27.480    7.5197
   27.510    7.8568
   27.540    8.1833
   27.570    8.0569
   27.600    7.8673
   27.630    7.7725
   27.660    8.3096
   27.690    7.9726
   27.720    7.4566
   27.750    7.8884
   27.780    7.8041
   27.810    8.0463
   27.840    7.4355
   27.870    7.9305
   27.900    7.7725
   27.930    8.0885
   27.960    8.5203
   27.990    8.6677
   28.020    8.6677
   28.050    7.9621
   28.080    8.1095
   28.110    8.2359
   28.140    7.8462
   28.170    7.8568
   28.200    7.4460
   28.230    7.5935
   28.260    7.4776
   28.290    7.8989
   28.320    7.9410
   28.350    8.1306
   28.380    8.0463
   28.410    7.9094
   28.440    8.0253
   28.470    8.2991
   28.500    7.9831
   28.530    7.7620
   28.560    7.8989
   28.590    7.7199
   28.620    7.5513
   28.650    7.7620
   28.680    7.8041
   28.710    7.5408
   28.740    7.7830
   28.770    8.0042
   28.800    7.4250
   28.830    7.8462
   28.860    7.8252
   28.890    8.2570
   28.920    8.3623
   28.950    8.4150
   28.980    8.8994
   29.010    8.0779
   29.040    7.9094
   29.070    8.0042
   29.100    7.7725
   29.130    7.7620
   29.160    7.8884
   29.190    7.5829
   29.220    8.0042
   29.250    7.8462
   29.280    7.7093
   29.310    7.0774
   29.340    7.5935
   29.370    7.9726
   29.400    7.9094
   29.430    7.7199
   29.460    7.5303
   29.490    7.6988
   29.520    7.3723
   29.550    7.6672
   29.580    7.2775
   29.610    7.7514
   29.640    7.8778
   29.670    7.6883
   29.700    7.5197
   29.730    7.6883
   29.760    7.5092
   29.790    7.6777
   29.820    7.7199
   29.850    7.4882
   29.880    7.6461
   29.910    7.8462
   29.940    7.8778
   29.970    8.0674
   30.000    7.9410
   30.030    8.0779
   30.060    7.6356
   30.090    7.8884
   30.120    7.3723
   30.150    7.4671
   30.180    7.9726
   30.210    7.6040
   30.240    7.8041
   30.270    7.9305
   30.300    7.7514
   30.330    8.3307
   30.360    7.9410
   30.390    8.0042
   30.420    7.5935
   30.450    7.9305
   30.480    7.5829
   30.510    7.8357
   30.540    7.6988
   30.570    7.7199
   30.600    7.6567
   30.630    8.2359
   30.660    7.8462
   30.690    7.9516
   30.720    7.8462
   30.750    8.1517
   30.780    8.1095
   30.810    7.9410
   30.840    7.6040
   30.870    8.0569
   30.900    7.6777
   30.930    7.8462
   30.960    8.1517
   30.990    7.7409
   31.020    8.0990
   31.050    7.4987
   31.080    7.7830
   31.110    7.6777
   31.140    7.8884
   31.170    7.7514
   31.200    8.2359
   31.230    7.8357
   31.260    7.9621
   31.290    8.1938
   31.320    7.9726
   31.350    7.8146
   31.380    7.9831
   31.410    7.9410
   31.440    7.8462
   31.470    7.5619
   31.500    8.0779
   31.530    7.6883
   31.560    7.6883
   31.590    7.8462
   31.620    8.4571
   31.650    7.4882
   31.680    8.8994
   31.710    8.4676
   31.740    8.6361
   31.770    8.9521
   31.800    8.6045
   31.830    8.4150
   31.860    8.5203
   31.890    8.7730
   31.920    8.4571
   31.950    8.5413
   31.980    9.2996
   32.010    9.1417
   32.040    9.1732
   32.070    9.3418
   32.100    9.5313
   32.130   10.2370
   32.160    9.3312
   32.190    8.9205
   32.220    7.8884
   32.250    7.8041
   32.280    7.8462
   32.310    7.3934
   32.340    8.1727
   32.370    7.6777
   32.400    7.9094
   32.430    7.9305
   32.460    7.6672
   32.490    7.9200
   32.520    8.0885
   32.550    7.9831
   32.580    7.8146
   32.610    7.9831
   32.640    7.6988
   32.670    7.5408
   32.700    7.7936
   32.730    7.8041
   32.760    7.9937
   32.790    7.5303
   32.820    7.6461
   32.850    7.4671
   32.880    7.3196
   32.910    7.3407
   32.940    8.0042
   32.970    7.4671
   33.000    7.0774
   33.030    7.6461
   33.060    7.4460
   33.090    7.6777
   33.120    7.3618
   33.150    7.3512
   33.180    7.2670
   33.210    7.2670
   33.240    7.3723
   33.270    7.5092
   33.300    7.2565
   33.330    7.5513
   33.360    7.0037
   33.390    7.0563
   33.420    7.1301
   33.450    7.5724
   33.480    7.5303
   33.510    7.6145
   33.540    7.2565
   33.570    7.4987
   33.600    7.3618
   33.630    7.4144
   33.660    7.2880
   33.690    7.4460
   33.720    7.4039
   33.750    7.7093
   33.780    7.5197
   33.810    7.9726
   33.840    7.6356
   33.870    7.4882
   33.900    7.5935
   33.930    7.7514
   33.960    7.7725
   33.990    7.6988
   34.020    7.7725
   34.050    7.6251
   34.080    7.1195
   34.110    7.3828
   34.140    7.2986
   34.170    7.5092
   34.200    7.1195
   34.230    7.8989
   34.260    7.2354
   34.290    7.3934
   34.320    7.5197
   34.350    7.3618
   34.380    7.3618
   34.410    7.2459
   34.440    7.2565
   34.470    7.4566
   34.500    7.2143
   34.530    7.3934
   34.560    7.0879
   34.590    7.2880
   34.620    7.1090
   34.650    7.0037
   34.680    6.7193
   34.710    7.2249
   34.740    6.9932
   34.770    7.3512
   34.800    6.9194
   34.830    7.3407
   34.860    7.2880
   34.890    7.1511
   34.920    7.4776
   34.950    7.2986
   34.980    7.1617
   35.010    7.0458
   35.040    7.0774
   35.070    6.8457
   35.100    7.1301
   35.130    7.4250
   35.160    6.8562
   35.190    7.0353
   35.220    7.0563
   35.250    7.1617
   35.280    7.3407
   35.310    7.0563
   35.340    7.5092
   35.370    7.3723
   35.400    7.2459
   35.430    7.0774
   35.460    7.2565
   35.490    7.3196
   35.520    7.1406
   35.550    7.4355
   35.580    7.4460
   35.610    7.4566
   35.640    7.0563
   35.670    6.8036
   35.700    7.0985
   35.730    7.3723
   35.760    7.4039
   35.790    7.2143
   35.820    6.9300
   35.850    7.5092
   35.880    7.1195
   35.910    7.3934
   35.940    7.1301
   35.970    7.4776
   36.000    6.7930
   36.030    7.3196
   36.060    7.3512
   36.090    6.9510
   36.120    7.2986
   36.150    7.0142
   36.180    7.1511
   36.210    6.9932
   36.240    7.3091
   36.270    7.3723
   36.300    6.9405
   36.330    6.8036
   36.360    7.3407
   36.390    7.2880
   36.420    7.2459
   36.450    7.3091
   36.480    7.3407
   36.510    7.2565
   36.540    6.5719
   36.570    7.1617
   36.600    7.1406
   36.630    7.2775
   36.660    7.0879
   36.690    7.3091
   36.720    7.3302
   36.750    7.1827
   36.780    7.1195
   36.810    6.9932
   36.840    6.8141
   36.870    7.2249
   36.900    7.3196
   36.930    7.0037
   36.960    7.1195
   36.990    7.3828
   37.020    7.3934
   37.050    7.1827
   37.080    7.1722
   37.110    7.0985
   37.140    7.6040
   37.170    7.0669
   37.200    6.5824
   37.230    7.3934
   37.260    6.9616
   37.290    7.2775
   37.320    6.9194
   37.350    6.9616
   37.380    6.8562
   37.410    6.8141
   37.440    6.8984
   37.470    6.8984
   37.500    6.8984
   37.530    7.5303
   37.560    6.9089
   37.590    6.9721
   37.620    7.1090
   37.650    7.0879
   37.680    7.4250
   37.710    6.7404
   37.740    6.9721
   37.770    7.4776
   37.800    7.2249
   37.830    7.0774
   37.860    6.6772
   37.890    7.3091
   37.920    6.8984
   37.950    6.7193
   37.980    7.1617
   38.010    7.4776
   38.040    6.8036
   38.070    6.8878
   38.100    7.3828
   38.130    7.1617
   38.160    7.1406
   38.190    7.0248
   38.220    6.9826
   38.250    6.7825
   38.280    7.2565
   38.310    7.1933
   38.340    7.5408
   38.370    6.9089
   38.400    7.1933
   38.430    7.1301
   38.460    7.5197
   38.490    7.3302
   38.520    7.4671
   38.550    7.4776
   38.580    7.8989
   38.610    7.4250
   38.640    7.7620
   38.670    7.5513
   38.700    7.7304
   38.730    7.2565
   38.760    7.5303
   38.790    7.1933
   38.820    7.4671
   38.850    7.8252
   38.880    7.9937
   38.910    7.7409
   38.940    7.8146
   38.970    7.5303
   39.000    7.6461
   39.030    7.9831
   39.060    7.7199
   39.090    8.6045
   39.120    8.1201
   39.150    8.3096
   39.180    8.5203
   39.210    8.0990
   39.240    8.3728
   39.270    8.8257
   39.300    8.2570
   39.330    8.3202
   39.360    8.2991
   39.390    7.7725
   39.420    7.6040
   39.450    7.6988
   39.480    7.8041
   39.510    7.7936
   39.540    7.7409
   39.570    7.5935
   39.600    8.0885
   39.630    7.9305
   39.660    8.0463
   39.690    7.2565
   39.720    7.1722
   39.750    7.5935
   39.780    7.3828
   39.810    7.4882
   39.840    7.3302
   39.870    7.4460
   39.900    7.1301
   39.930    7.0458
   39.960    6.8773
   39.990    7.4039