File: data/MOCOF-1/PXRD/PXRD_KE-235_Co-Ka1_capillary-1mm_5s-deg.xyd
    1.500    7.2873
    1.530    7.0198
    1.560    6.4526
    1.590    6.8272
    1.620    6.2814
    1.650    5.9390
    1.680    5.5859
    1.710    5.4575
    1.740    4.9652
    1.770    4.7940
    1.800    4.5693
    1.830    4.1841
    1.860    4.1520
    1.890    4.2697
    1.920    4.0770
    1.950    3.8202
    1.980    3.6811
    2.010    3.5206
    2.040    3.6169
    2.070    3.2531
    2.100    2.9749
    2.130    3.3173
    2.160    3.2317
    2.190    2.5361
    2.220    2.9213
    2.250    2.4184
    2.280    2.5361
    2.310    2.3649
    2.340    2.3649
    2.370    2.3649
    2.400    2.2365
    2.430    2.0546
    2.460    1.9797
    2.490    2.0546
    2.520    2.1402
    2.550    2.0118
    2.580    2.0439
    2.610    1.9904
    2.640    1.7014
    2.670    1.8620
    2.700    1.8513
    2.730    1.7228
    2.760    1.6907
    2.790    1.6265
    2.820    1.6158
    2.850    1.4446
    2.880    1.7014
    2.910    1.5944
    2.940    1.4660
    2.970    1.5195
    3.000    1.4446
    3.030    1.5302
    3.060    1.2520
    3.090    1.3804
    3.120    1.3804
    3.150    1.3590
    3.180    1.4018
    3.210    1.3269
    3.240    1.1878
    3.270    1.3376
    3.300    1.4339
    3.330    1.1985
    3.360    1.1771
    3.390    1.2413
    3.420    0.9738
    3.450    1.1022
    3.480    1.0808
    3.510    1.1129
    3.540    1.1343
    3.570    1.0915
    3.600    1.1557
    3.630    1.1343
    3.660    1.0808
    3.690    1.1022
    3.720    0.9952
    3.750    0.9524
    3.780    1.0808
    3.810    1.0808
    3.840    0.8668
    3.870    0.9631
    3.900    0.9310
    3.930    1.0701
    3.960    0.9203
    3.990    0.9738
    4.020    1.1557
    4.050    0.9524
    4.080    0.9631
    4.110    1.1450
    4.140    0.8133
    4.170    0.8454
    4.200    0.9417
    4.230    0.9096
    4.260    0.9524
    4.290    0.8026
    4.320    0.9631
    4.350    0.9096
    4.380    0.9310
    4.410    0.9096
    4.440    0.9310
    4.470    0.9203
    4.500    0.9952
    4.530    0.9631
    4.560    1.0487
    4.590    1.1022
    4.620    0.9096
    4.650    0.9738
    4.680    0.7277
    4.710    0.8240
    4.740    1.0487
    4.770    0.6956
    4.800    1.0380
    4.830    0.9524
    4.860    0.9310
    4.890    0.9524
    4.920    0.7598
    4.950    0.8347
    4.980    0.9738
    5.010    0.8775
    5.040    0.9096
    5.070    0.7919
    5.100    0.8347
    5.130    0.9952
    5.160    0.8668
    5.190    0.9310
    5.220    0.9417
    5.250    0.8668
    5.280    0.8668
    5.310    0.8347
    5.340    0.7812
    5.370    0.8347
    5.400    0.8561
    5.430    0.9203
    5.460    0.9631
    5.490    0.8561
    5.520    0.9738
    5.550    0.9096
    5.580    0.9417
    5.610    0.8347
    5.640    0.6956
    5.670    0.8347
    5.700    0.8454
    5.730    0.9524
    5.760    0.9631
    5.790    0.8454
    5.820    0.7919
    5.850    0.9203
    5.880    0.8454
    5.910    0.6956
    5.940    0.8775
    5.970    0.9096
    6.000    0.8347
    6.030    0.8347
    6.060    0.7598
    6.090    0.8882
    6.120    0.8775
    6.150    0.7384
    6.180    0.8454
    6.210    0.9631
    6.240    1.0487
    6.270    0.6956
    6.300    0.8882
    6.330    1.0059
    6.360    0.8668
    6.390    0.8989
    6.420    0.7919
    6.450    0.8026
    6.480    0.8989
    6.510    0.7705
    6.540    0.9096
    6.570    0.8882
    6.600    0.8989
    6.630    0.9524
    6.660    0.8133
    6.690    0.8561
    6.720    0.8240
    6.750    0.8347
    6.780    0.7063
    6.810    0.8882
    6.840    0.8026
    6.870    0.9310
    6.900    0.7812
    6.930    0.7277
    6.960    0.9096
    6.990    0.6528
    7.020    0.8454
    7.050    0.8133
    7.080    0.8989
    7.110    0.7170
    7.140    0.8347
    7.170    0.8561
    7.200    0.7384
    7.230    0.8775
    7.260    0.9631
    7.290    0.8561
    7.320    0.8989
    7.350    0.7598
    7.380    0.8026
    7.410    0.7277
    7.440    0.7812
    7.470    0.9845
    7.500    0.7919
    7.530    0.8026
    7.560    0.8240
    7.590    0.9738
    7.620    0.9310
    7.650    0.7063
    7.680    0.8133
    7.710    0.7598
    7.740    0.8347
    7.770    0.8989
    7.800    0.8240
    7.830    0.7705
    7.860    0.7491
    7.890    0.7812
    7.920    0.8454
    7.950    0.8775
    7.980    0.8026
    8.010    0.8133
    8.040    0.7063
    8.070    0.8454
    8.100    0.7919
    8.130    0.8989
    8.160    0.7384
    8.190    0.6849
    8.220    0.8454
    8.250    0.8240
    8.280    0.8454
    8.310    0.9310
    8.340    0.8026
    8.370    0.8026
    8.400    0.6956
    8.430    0.9524
    8.460    0.9952
    8.490    0.8454
    8.520    0.8347
    8.550    0.8668
    8.580    0.9631
    8.610    0.7598
    8.640    0.8989
    8.670    0.7705
    8.700    0.8026
    8.730    0.8882
    8.760    0.7063
    8.790    0.8989
    8.820    0.9203
    8.850    0.8133
    8.880    0.7598
    8.910    0.7598
    8.940    0.8026
    8.970    0.6956
    9.000    0.9952
    9.030    0.8775
    9.060    0.7491
    9.090    0.8882
    9.120    0.9417
    9.150    0.9417
    9.180    0.9631
    9.210    0.9738
    9.240    0.8347
    9.270    0.9738
    9.300    0.8454
    9.330    0.9096
    9.360    0.8240
    9.390    0.7598
    9.420    0.8133
    9.450    0.8454
    9.480    0.7919
    9.510    0.8561
    9.540    0.8561
    9.570    0.7598
    9.600    0.7812
    9.630    0.9310
    9.660    0.7170
    9.690    0.8882
    9.720    1.0166
    9.750    0.9417
    9.780    0.7919
    9.810    1.0273
    9.840    0.9096
    9.870    0.7170
    9.900    0.9096
    9.930    0.9096
    9.960    0.9738
    9.990    0.8775
   10.020    0.8454
   10.050    0.8026
   10.080    0.9096
   10.110    0.8989
   10.140    0.8668
   10.170    0.9845
   10.200    0.8775
   10.230    0.9310
   10.260    0.9845
   10.290    0.9845
   10.320    0.9096
   10.350    1.0380
   10.380    0.8882
   10.410    0.8775
   10.440    0.8347
   10.470    1.0059
   10.500    0.8775
   10.530    0.9417
   10.560    0.9845
   10.590    1.0701
   10.620    0.9952
   10.650    0.9952
   10.680    0.9524
   10.710    0.9096
   10.740    1.0059
   10.770    0.8133
   10.800    0.9417
   10.830    1.0594
   10.860    0.8561
   10.890    0.8347
   10.920    0.8775
   10.950    0.9524
   10.980    0.9738
   11.010    0.9310
   11.040    0.9845
   11.070    0.7705
   11.100    0.8882
   11.130    0.9310
   11.160    0.8989
   11.190    0.7598
   11.220    0.7919
   11.250    1.0059
   11.280    0.9524
   11.310    1.0166
   11.340    0.9738
   11.370    0.9952
   11.400    0.9203
   11.430    0.8882
   11.460    0.9631
   11.490    0.9738
   11.520    0.7919
   11.550    1.0166
   11.580    0.8026
   11.610    1.0380
   11.640    0.9738
   11.670    1.0059
   11.700    1.0166
   11.730    0.7384
   11.760    0.9096
   11.790    0.8454
   11.820    0.7384
   11.850    0.9417
   11.880    0.7170
   11.910    1.0166
   11.940    0.9631
   11.970    0.9203
   12.000    0.7919
   12.030    0.8668
   12.060    0.9952
   12.090    0.7919
   12.120    0.7384
   12.150    0.9631
   12.180    1.0059
   12.210    0.8133
   12.240    0.8561
   12.270    0.8454
   12.300    0.8240
   12.330    0.7277
   12.360    0.7812
   12.390    1.0380
   12.420    0.8026
   12.450    0.7598
   12.480    0.8347
   12.510    0.7170
   12.540    0.9524
   12.570    0.6742
   12.600    0.8561
   12.630    0.6956
   12.660    0.8561
   12.690    0.8026
   12.720    0.8454
   12.750    0.7598
   12.780    0.8561
   12.810    0.9096
   12.840    0.8347
   12.870    0.7812
   12.900    0.8347
   12.930    0.8775
   12.960    0.8454
   12.990    0.8026
   13.020    0.7384
   13.050    0.8882
   13.080    0.8668
   13.110    0.8561
   13.140    0.7705
   13.170    0.8882
   13.200    0.8454
   13.230    0.8240
   13.260    0.8454
   13.290    0.8240
   13.320    0.7919
   13.350    0.7812
   13.380    0.6742
   13.410    0.7705
   13.440    0.8240
   13.470    0.6956
   13.500    0.8133
   13.530    0.7919
   13.560    0.7491
   13.590    0.7919
   13.620    0.8133
   13.650    0.7384
   13.680    0.8454
   13.710    0.5993
   13.740    0.7491
   13.770    0.7277
   13.800    0.7598
   13.830    0.7491
   13.860    0.7705
   13.890    0.7705
   13.920    0.5671
   13.950    0.7919
   13.980    0.7491
   14.010    0.8668
   14.040    0.8133
   14.070    0.7491
   14.100    0.8347
   14.130    0.6421
   14.160    0.8347
   14.190    0.6528
   14.220    0.8240
   14.250    0.7919
   14.280    0.7170
   14.310    0.6849
   14.340    0.7598
   14.370    0.9096
   14.400    0.7705
   14.430    0.7277
   14.460    0.7491
   14.490    0.7170
   14.520    0.7063
   14.550    0.6207
   14.580    0.6635
   14.610    0.6956
   14.640    0.7812
   14.670    0.7705
   14.700    0.8026
   14.730    0.8133
   14.760    0.7705
   14.790    0.6635
   14.820    0.6314
   14.850    0.6207
   14.880    0.7919
   14.910    0.7170
   14.940    0.8454
   14.970    0.7384
   15.000    0.6742
   15.030    0.8240
   15.060    0.6849
   15.090    0.7063
   15.120    0.9524
   15.150    0.6528
   15.180    0.6849
   15.210    0.6100
   15.240    0.7384
   15.270    0.6849
   15.300    0.7277
   15.330    0.6849
   15.360    0.6100
   15.390    0.8240
   15.420    0.6314
   15.450    0.8133
   15.480    0.5993
   15.510    0.7384
   15.540    0.6635
   15.570    0.7384
   15.600    0.5778
   15.630    0.6849
   15.660    0.8989
   15.690    0.6207
   15.720    0.6956
   15.750    0.6849
   15.780    0.6849
   15.810    0.7491
   15.840    0.6421
   15.870    0.8454
   15.900    0.7491
   15.930    0.6742
   15.960    0.7384
   15.990    0.6956
   16.020    0.6849
   16.050    0.6956
   16.080    0.6314
   16.110    0.5886
   16.140    0.6207
   16.170    0.6314
   16.200    0.8026
   16.230    0.7812
   16.260    0.7063
   16.290    0.6849
   16.320    0.6956
   16.350    0.6956
   16.380    0.6100
   16.410    0.7170
   16.440    0.6421
   16.470    0.7277
   16.500    0.7277
   16.530    0.7812
   16.560    0.6314
   16.590    0.7705
   16.620    0.6956
   16.650    0.7705
   16.680    0.6528
   16.710    0.6100
   16.740    0.5993
   16.770    0.7384
   16.800    0.7705
   16.830    0.7063
   16.860    0.6528
   16.890    0.6207
   16.920    0.7491
   16.950    0.6849
   16.980    0.5243
   17.010    0.5993
   17.040    0.6100
   17.070    0.6742
   17.100    0.6421
   17.130    0.6207
   17.160    0.5886
   17.190    0.7277
   17.220    0.6528
   17.250    0.8133
   17.280    0.5457
   17.310    0.5993
   17.340    0.4922
   17.370    0.6956
   17.400    0.5136
   17.430    0.4708
   17.460    0.6635
   17.490    0.7063
   17.520    0.7063
   17.550    0.6956
   17.580    0.6742
   17.610    0.7598
   17.640    0.6849
   17.670    0.6314
   17.700    0.6635
   17.730    0.7491
   17.760    0.7705
   17.790    0.6742
   17.820    0.6421
   17.850    0.7170
   17.880    0.7491
   17.910    0.7063
   17.940    0.6421
   17.970    0.7705
   18.000    0.5350
   18.030    0.7705
   18.060    0.6207
   18.090    0.6635
   18.120    0.5136
   18.150    0.7063
   18.180    0.6849
   18.210    0.7384
   18.240    0.6528
   18.270    0.5993
   18.300    0.9203
   18.330    0.6742
   18.360    0.7384
   18.390    0.7063
   18.420    0.6421
   18.450    0.5886
   18.480    0.7277
   18.510    0.7170
   18.540    0.7170
   18.570    0.6849
   18.600    0.8240
   18.630    0.6742
   18.660    0.6635
   18.690    0.6635
   18.720    0.6635
   18.750    0.6849
   18.780    0.6849
   18.810    0.7277
   18.840    0.7384
   18.870    0.6849
   18.900    0.6635
   18.930    0.7277
   18.960    0.6528
   18.990    0.8240
   19.020    0.6421
   19.050    0.6849
   19.080    0.7705
   19.110    0.7598
   19.140    0.7491
   19.170    0.7277
   19.200    0.7919
   19.230    0.6528
   19.260    0.6421
   19.290    0.6314
   19.320    0.6742
   19.350    0.6849
   19.380    0.6100
   19.410    0.6956
   19.440    0.6849
   19.470    0.6956
   19.500    0.7919
   19.530    0.6956
   19.560    0.6635
   19.590    0.5886
   19.620    0.6742
   19.650    0.7384
   19.680    0.6849
   19.710    0.6100
   19.740    0.6849
   19.770    0.6314
   19.800    0.7277
   19.830    0.6635
   19.860    0.5778
   19.890    0.6207
   19.920    0.6742
   19.950    0.6528
   19.980    0.8347
   20.010    0.7491
   20.040    0.6100
   20.070    0.5671
   20.100    0.7598
   20.130    0.5886
   20.160    0.6528
   20.190    0.5993
   20.220    0.6635
   20.250    0.6849
   20.280    0.7384
   20.310    0.7170
   20.340    0.6421
   20.370    0.8775
   20.400    0.6528
   20.430    0.7063
   20.460    0.7277
   20.490    0.7063
   20.520    0.6849
   20.550    0.5778
   20.580    0.6528
   20.610    0.6849
   20.640    0.7170
   20.670    0.5457
   20.700    0.7598
   20.730    0.6956
   20.760    0.5886
   20.790    0.6635
   20.820    0.7170
   20.850    0.6100
   20.880    0.6314
   20.910    0.6635
   20.940    0.6528
   20.970    0.6635
   21.000    0.6100
   21.030    0.7491
   21.060    0.7384
   21.090    0.6421
   21.120    0.6528
   21.150    0.7063
   21.180    0.7170
   21.210    0.7063
   21.240    0.7598
   21.270    0.8133
   21.300    0.7277
   21.330    0.7277
   21.360    0.7170
   21.390    0.7491
   21.420    0.5886
   21.450    0.7277
   21.480    0.6742
   21.510    0.7277
   21.540    0.6956
   21.570    0.7063
   21.600    0.8240
   21.630    0.7170
   21.660    0.6742
   21.690    0.6314
   21.720    0.7170
   21.750    0.7705
   21.780    0.6207
   21.810    0.7384
   21.840    0.6528
   21.870    0.9203
   21.900    0.8347
   21.930    0.7277
   21.960    0.7277
   21.990    0.7277
   22.020    0.8347
   22.050    0.7277
   22.080    0.9631
   22.110    0.8347
   22.140    0.6956
   22.170    0.6742
   22.200    0.7812
   22.230    0.8561
   22.260    0.6956
   22.290    0.6956
   22.320    0.8026
   22.350    0.8026
   22.380    0.6100
   22.410    0.7705
   22.440    0.6742
   22.470    0.7384
   22.500    0.8026
   22.530    0.8882
   22.560    0.6635
   22.590    0.5886
   22.620    0.8240
   22.650    0.7170
   22.680    0.8240
   22.710    0.6207
   22.740    0.6528
   22.770    0.7919
   22.800    0.5993
   22.830    0.8347
   22.860    0.7919
   22.890    0.6207
   22.920    0.7812
   22.950    0.6207
   22.980    0.6421
   23.010    0.7277
   23.040    0.7491
   23.070    0.6635
   23.100    0.7384
   23.130    0.7170
   23.160    0.9096
   23.190    0.7277
   23.220    0.7598
   23.250    0.8026
   23.280    0.7063
   23.310    0.8561
   23.340    0.8026
   23.370    0.6207
   23.400    0.7919
   23.430    0.7384
   23.460    0.5993
   23.490    0.6207
   23.520    0.6742
   23.550    0.8240
   23.580    0.6635
   23.610    0.7384
   23.640    0.7919
   23.670    0.7384
   23.700    0.6528
   23.730    0.6421
   23.760    0.8240
   23.790    0.7277
   23.820    0.7705
   23.850    0.6421
   23.880    0.6849
   23.910    0.6849
   23.940    0.6742
   23.970    0.9738
   24.000    0.8240
   24.030    0.6956
   24.060    0.6100
   24.090    0.7705
   24.120    0.8668
   24.150    0.7491
   24.180    0.7063
   24.210    0.6207
   24.240    0.6956
   24.270    0.7277
   24.300    0.7170
   24.330    0.7170
   24.360    0.9096
   24.390    0.6956
   24.420    0.6849
   24.450    0.8347
   24.480    0.7063
   24.510    0.6742
   24.540    0.7170
   24.570    0.7919
   24.600    0.7598
   24.630    0.7598
   24.660    0.6849
   24.690    0.8026
   24.720    0.5886
   24.750    0.9524
   24.780    0.8240
   24.810    0.9310
   24.840    0.7491
   24.870    0.8026
   24.900    0.8347
   24.930    0.7063
   24.960    0.6100
   24.990    0.7919
   25.020    0.7277
   25.050    0.7063
   25.080    0.7919
   25.110    0.7598
   25.140    0.8026
   25.170    0.8240
   25.200    0.6742
   25.230    0.6956
   25.260    0.8668
   25.290    0.7277
   25.320    0.6956
   25.350    0.7919
   25.380    0.7170
   25.410    0.8240
   25.440    0.5886
   25.470    0.7812
   25.500    0.8026
   25.530    0.8133
   25.560    0.7384
   25.590    0.8882
   25.620    0.7705
   25.650    0.7277
   25.680    0.8989
   25.710    0.9310
   25.740    0.8561
   25.770    0.8561
   25.800    0.8240
   25.830    0.7812
   25.860    0.7170
   25.890    0.8133
   25.920    0.9952
   25.950    0.7063
   25.980    0.8133
   26.010    0.7705
   26.040    0.9203
   26.070    0.6956
   26.100    0.7063
   26.130    0.9631
   26.160    0.8240
   26.190    0.8133
   26.220    0.7491
   26.250    0.7705
   26.280    0.7598
   26.310    0.7491
   26.340    0.6956
   26.370    0.6528
   26.400    0.7277
   26.430    0.6207
   26.460    0.7919
   26.490    0.8561
   26.520    0.7170
   26.550    0.8026
   26.580    0.8668
   26.610    0.6742
   26.640    0.8561
   26.670    0.6421
   26.700    0.7170
   26.730    0.7277
   26.760    0.7384
   26.790    0.8561
   26.820    0.8775
   26.850    0.7705
   26.880    0.7705
   26.910    0.7598
   26.940    0.8347
   26.970    0.6849
   27.000    0.7491
   27.030    0.6849
   27.060    0.7812
   27.090    0.8668
   27.120    0.9310
   27.150    0.8347
   27.180    0.8133
   27.210    0.8026
   27.240    0.7384
   27.270    0.7170
   27.300    0.6742
   27.330    0.6742
   27.360    0.7491
   27.390    0.7384
   27.420    0.6207
   27.450    0.8775
   27.480    0.7170
   27.510    0.7812
   27.540    0.8026
   27.570    0.7705
   27.600    0.5993
   27.630    0.7170
   27.660    0.7598
   27.690    0.6956
   27.720    0.6742
   27.750    0.7812
   27.780    0.7598
   27.810    0.7919
   27.840    0.7812
   27.870    0.7705
   27.900    0.6742
   27.930    0.6742
   27.960    0.8240
   27.990    0.7170
   28.020    0.7277
   28.050    0.6742
   28.080    0.7812
   28.110    0.6635
   28.140    0.7491
   28.170    0.7919
   28.200    0.6956
   28.230    0.7277
   28.260    0.6956
   28.290    0.6849
   28.320    0.7598
   28.350    0.6100
   28.380    0.6849
   28.410    0.6528
   28.440    0.5671
   28.470    0.6421
   28.500    0.7277
   28.530    0.7277
   28.560    0.7384
   28.590    0.8240
   28.620    0.6956
   28.650    0.6956
   28.680    0.7491
   28.710    0.7277
   28.740    0.7705
   28.770    0.7384
   28.800    0.7812
   28.830    0.6956
   28.860    0.5993
   28.890    0.7491
   28.920    0.6849
   28.950    0.7384
   28.980    0.7812
   29.010    0.6849
   29.040    0.6956
   29.070    0.7598
   29.100    0.7812
   29.130    0.8026
   29.160    0.7063
   29.190    0.6100
   29.220    0.5778
   29.250    0.6956
   29.280    0.6635
   29.310    0.7705
   29.340    0.6207
   29.370    0.6314
   29.400    0.5886
   29.430    0.8026
   29.460    0.6100
   29.490    0.7063
   29.520    0.5778
   29.550    0.6100
   29.580    0.6100
   29.610    0.6314
   29.640    0.6849
   29.670    0.6528
   29.700    0.7170
   29.730    0.6528
   29.760    0.6635
   29.790    0.7384
   29.820    0.7491
   29.850    0.7705
   29.880    0.6956
   29.910    0.7705
   29.940    0.6421
   29.970    0.7277
   30.000    0.7491
   30.030    0.6100
   30.060    0.6956
   30.090    0.6528
   30.120    0.6849
   30.150    0.6100
   30.180    0.5243
   30.210    0.7384
   30.240    0.6528
   30.270    0.6100
   30.300    0.7063
   30.330    0.7598
   30.360    0.7063
   30.390    0.6956
   30.420    0.6100
   30.450    0.6528
   30.480    0.6528
   30.510    0.7170
   30.540    0.7919
   30.570    0.6314
   30.600    0.6100
   30.630    0.5993
   30.660    0.5671
   30.690    0.8454
   30.720    0.6528
   30.750    0.7919
   30.780    0.6742
   30.810    0.5993
   30.840    0.5993
   30.870    0.7170
   30.900    0.6849
   30.930    0.5564
   30.960    0.7063
   30.990    0.6207
   31.020    0.5457
   31.050    0.6314
   31.080    0.7705
   31.110    0.6528
   31.140    0.6421
   31.170    0.6314
   31.200    0.5993
   31.230    0.5671
   31.260    0.6100
   31.290    0.6100
   31.320    0.6635
   31.350    0.6742
   31.380    0.6528
   31.410    0.5671
   31.440    0.5136
   31.470    0.7919
   31.500    0.5457
   31.530    0.5778
   31.560    0.5886
   31.590    0.7598
   31.620    0.5993
   31.650    0.5564
   31.680    0.4815
   31.710    0.7063
   31.740    0.6528
   31.770    0.6207
   31.800    0.6849
   31.830    0.5778
   31.860    0.5886
   31.890    0.6528
   31.920    0.5778
   31.950    0.7812
   31.980    0.6528
   32.010    0.7063
   32.040    0.5564
   32.070    0.6421
   32.100    0.5350
   32.130    0.6421
   32.160    0.6207
   32.190    0.6100
   32.220    0.5671
   32.250    0.5778
   32.280    0.5350
   32.310    0.5671
   32.340    0.5993
   32.370    0.5778
   32.400    0.6314
   32.430    0.6100
   32.460    0.5886
   32.490    0.7277
   32.520    0.5350
   32.550    0.5993
   32.580    0.6635
   32.610    0.7063
   32.640    0.7491
   32.670    0.6849
   32.700    0.5886
   32.730    0.5457
   32.760    0.5671
   32.790    0.4708
   32.820    0.6100
   32.850    0.6207
   32.880    0.5243
   32.910    0.6528
   32.940    0.6635
   32.970    0.4815
   33.000    0.5457
   33.030    0.5564
   33.060    0.6207
   33.090    0.6207
   33.120    0.5778
   33.150    0.7063
   33.180    0.5671
   33.210    0.5243
   33.240    0.5886
   33.270    0.5136
   33.300    0.4494
   33.330    0.5886
   33.360    0.5350
   33.390    0.6421
   33.420    0.6314
   33.450    0.6314
   33.480    0.4601
   33.510    0.4601
   33.540    0.5993
   33.570    0.5886
   33.600    0.5886
   33.630    0.4922
   33.660    0.6528
   33.690    0.5136
   33.720    0.6528
   33.750    0.5457
   33.780    0.5243
   33.810    0.6528
   33.840    0.6742
   33.870    0.5029
   33.900    0.6421
   33.930    0.5886
   33.960    0.4922
   33.990    0.4387
   34.020    0.5457
   34.050    0.5564
   34.080    0.5350
   34.110    0.6421
   34.140    0.6207
   34.170    0.5886
   34.200    0.5136
   34.230    0.5993
   34.260    0.5243
   34.290    0.5671
   34.320    0.6314
   34.350    0.5136
   34.380    0.6421
   34.410    0.6314
   34.440    0.4815
   34.470    0.5886
   34.500    0.5457
   34.530    0.6742
   34.560    0.5886
   34.590    0.4601
   34.620    0.6314
   34.650    0.5778
   34.680    0.6421
   34.710    0.5350
   34.740    0.5886
   34.770    0.5029
   34.800    0.4173
   34.830    0.5029
   34.860    0.5029
   34.890    0.5457
   34.920    0.4601
   34.950    0.6421
   34.980    0.4708
   35.010    0.5564
   35.040    0.6100
   35.070    0.5457
   35.100    0.4173
   35.130    0.5886
   35.160    0.4280
   35.190    0.5350
   35.220    0.5029
   35.250    0.4922
   35.280    0.4601
   35.310    0.4922
   35.340    0.5136
   35.370    0.5457
   35.400    0.5564
   35.430    0.6635
   35.460    0.5136
   35.490    0.5886
   35.520    0.4066
   35.550    0.4494
   35.580    0.4601
   35.610    0.5457
   35.640    0.5029
   35.670    0.4601
   35.700    0.5350
   35.730    0.5457
   35.760    0.4601
   35.790    0.5564
   35.820    0.4815
   35.850    0.4922
   35.880    0.4601
   35.910    0.5993
   35.940    0.4173
   35.970    0.4173
   36.000    0.4280
   36.030    0.4708
   36.060    0.4173
   36.090    0.4494
   36.120    0.5564
   36.150    0.5029
   36.180    0.4280
   36.210    0.5350
   36.240    0.3210
   36.270    0.4708
   36.300    0.3959
   36.330    0.5029
   36.360    0.4387
   36.390    0.4708
   36.420    0.4815
   36.450    0.3852
   36.480    0.4280
   36.510    0.5243
   36.540    0.4815
   36.570    0.4922
   36.600    0.3959
   36.630    0.5778
   36.660    0.4815
   36.690    0.4387
   36.720    0.4922
   36.750    0.4173
   36.780    0.4708
   36.810    0.4387
   36.840    0.4601
   36.870    0.4815
   36.900    0.4815
   36.930    0.4387
   36.960    0.5029
   36.990    0.3531
   37.020    0.4494
   37.050    0.5778
   37.080    0.3638
   37.110    0.4815
   37.140    0.5886
   37.170    0.4173
   37.200    0.5457
   37.230    0.4922
   37.260    0.5457
   37.290    0.3317
   37.320    0.5457
   37.350    0.4815
   37.380    0.5029
   37.410    0.4815
   37.440    0.4173
   37.470    0.5457
   37.500    0.4922
   37.530    0.6207
   37.560    0.4066
   37.590    0.4815
   37.620    0.4173
   37.650    0.4066
   37.680    0.4387
   37.710    0.4173
   37.740    0.3852
   37.770    0.3959
   37.800    0.4280
   37.830    0.3852
   37.860    0.3959
   37.890    0.4173
   37.920    0.4066
   37.950    0.5457
   37.980    0.3959
   38.010    0.4066
   38.040    0.3103
   38.070    0.3531
   38.100    0.4494
   38.130    0.3852
   38.160    0.4387
   38.190    0.4066
   38.220    0.4173
   38.250    0.4173
   38.280    0.4494
   38.310    0.3638
   38.340    0.3638
   38.370    0.3424
   38.400    0.4494
   38.430    0.3638
   38.460    0.3317
   38.490    0.4815
   38.520    0.3745
   38.550    0.4066
   38.580    0.3103
   38.610    0.4173
   38.640    0.3745
   38.670    0.4815
   38.700    0.4922
   38.730    0.4708
   38.760    0.3531
   38.790    0.3638
   38.820    0.3210
   38.850    0.4922
   38.880    0.4922
   38.910    0.3959
   38.940    0.3638
   38.970    0.4387
   39.000    0.3210
   39.030    0.3103
   39.060    0.3638
   39.090    0.4173
   39.120    0.3638
   39.150    0.3424
   39.180    0.4601
   39.210    0.4815
   39.240    0.4066
   39.270    0.3638
   39.300    0.4387
   39.330    0.3531
   39.360    0.4708
   39.390    0.4280
   39.420    0.4173
   39.450    0.5778
   39.480    0.3103
   39.510    0.3531
   39.540    0.3959
   39.570    0.5243
   39.600    0.4280
   39.630    0.4815
   39.660    0.4387
   39.690    0.4601
   39.720    0.3852
   39.750    0.2782
   39.780    0.4280
   39.810    0.3531
   39.840    0.3745
   39.870    0.2675
   39.900    0.4066
   39.930    0.4173
   39.960    0.2568
   39.990    0.4173