File: data/MOCOF-1/PXRD/PXRD_KE-114_Cu-Ka1_capillary-1mm_5s-deg.xyd
    1.500   30.0685
    1.530   29.9526
    1.560   27.8462
    1.590   28.1095
    1.620   27.3723
    1.650   26.3718
    1.680   25.3397
    1.710   25.4239
    1.740   23.9179
    1.770   24.0442
    1.800   23.5808
    1.830   23.6862
    1.860   23.0648
    1.890   21.8641
    1.920   22.2538
    1.950   21.8220
    1.980   20.8741
    2.010   20.8215
    2.040   20.3370
    2.070   20.8741
    2.100   20.5477
    2.130   20.9057
    2.160   20.5161
    2.190   20.9900
    2.220   21.1374
    2.250   21.2006
    2.280   21.2322
    2.310   21.2954
    2.340   21.5377
    2.370   21.7694
    2.400   22.1801
    2.430   22.8752
    2.460   22.9068
    2.490   23.3597
    2.520   24.4339
    2.550   25.0132
    2.580   24.7183
    2.610   26.0769
    2.640   25.8452
    2.670   27.7830
    2.700   28.7625
    2.730   29.2259
    2.760   29.8473
    2.790   30.6477
    2.820   31.8167
    2.850   34.2075
    2.880   35.1553
    2.910   36.9352
    2.940   40.1790
    2.970   41.4639
    3.000   43.8863
    3.030   45.4766
    3.060   48.6361
    3.090   51.1322
    3.120   56.6298
    3.150   59.3049
    3.180   64.0653
    3.210   68.6572
    3.240   74.6919
    3.270   81.6324
    3.300   90.6161
    3.330   99.1153
    3.360  111.8273
    3.390  125.1922
    3.420  137.8831
    3.450  142.2538
    3.480  134.7551
    3.510  111.3744
    3.540   88.2570
    3.570   67.8884
    3.600   56.5982
    3.630   49.6156
    3.660   46.0874
    3.690   46.1822
    3.720   45.7188
    3.750   45.3397
    3.780   47.8673
    3.810   48.0463
    3.840   51.6061
    3.870   52.6593
    3.900   53.2807
    3.930   55.6714
    3.960   55.9768
    3.990   57.0616
    4.020   57.5987
    4.050   55.5872
    4.080   55.2291
    4.110   52.3012
    4.140   49.5629
    4.170   45.9821
    4.200   41.6324
    4.230   38.4939
    4.260   34.7551
    4.290   30.7952
    4.320   26.8878
    4.350   23.9600
    4.380   22.1485
    4.410   18.5993
    4.440   17.3144
    4.470   15.8926
    4.500   14.7446
    4.530   12.5540
    4.560   12.3433
    4.590   11.5008
    4.620   10.6372
    4.650    9.8262
    4.680   10.0369
    4.710    9.6051
    4.740    9.2048
    4.770    9.2786
    4.800    8.9521
    4.830    8.1622
    4.860    8.2886
    4.890    8.1201
    4.920    8.0147
    4.950    7.7409
    4.980    7.2459
    5.010    7.7199
    5.040    7.4250
    5.070    7.3512
    5.100    7.2880
    5.130    6.9300
    5.160    7.2565
    5.190    7.1511
    5.220    6.9616
    5.250    6.5613
    5.280    7.0774
    5.310    6.6351
    5.340    6.5298
    5.370    6.2138
    5.400    6.3823
    5.430    6.6140
    5.460    6.6456
    5.490    6.5192
    5.520    6.4560
    5.550    6.3402
    5.580    6.2454
    5.610    5.9926
    5.640    6.0032
    5.670    5.9505
    5.700    6.2665
    5.730    5.9610
    5.760    5.8978
    5.790    6.0137
    5.820    5.8347
    5.850    5.7820
    5.880    6.0664
    5.910    5.7399
    5.940    5.9926
    5.970    6.2033
    6.000    5.7609
    6.030    5.9716
    6.060    5.8031
    6.090    6.2559
    6.120    5.7293
    6.150    5.8557
    6.180    6.2770
    6.210    5.7715
    6.240    5.9189
    6.270    6.3296
    6.300    6.3507
    6.330    6.1822
    6.360    6.7825
    6.390    6.8562
    6.420    6.8246
    6.450    6.8036
    6.480    7.2986
    6.510    7.3512
    6.540    7.1090
    6.570    7.5513
    6.600    8.3623
    6.630    8.2359
    6.660    8.9205
    6.690    9.7946
    6.720   10.5003
    6.750   10.8373
    6.780   11.3639
    6.810   12.9226
    6.840   13.7019
    6.870   14.7130
    6.900   17.3144
    6.930   17.9674
    6.960   17.3986
    6.990   15.8715
    7.020   15.0079
    7.050   12.4803
    7.080   10.4265
    7.110    8.4466
    7.140    8.3202
    7.170    7.6567
    7.200    6.8352
    7.230    7.2565
    7.260    7.0142
    7.290    6.6667
    7.320    6.8984
    7.350    6.9300
    7.380    6.3823
    7.410    6.8352
    7.440    7.0879
    7.470    7.0879
    7.500    6.5087
    7.530    6.7088
    7.560    7.0669
    7.590    7.0458
    7.620    7.1617
    7.650    6.7825
    7.680    7.4144
    7.710    7.2038
    7.740    7.6251
    7.770    8.1306
    7.800    7.6251
    7.830    8.2570
    7.860    8.3412
    7.890    8.5624
    7.920    8.6783
    7.950    8.7414
    7.980    9.2048
    8.010    9.2259
    8.040    9.7525
    8.070    8.8468
    8.100    9.7736
    8.130    9.3102
    8.160    9.9210
    8.190    9.5629
    8.220   10.0369
    8.250    9.7736
    8.280    9.6998
    8.310    9.5735
    8.340    9.8262
    8.370    9.2786
    8.400    9.3944
    8.430    9.3628
    8.460    8.9837
    8.490    8.8994
    8.520    8.7414
    8.550    8.4676
    8.580    7.8357
    8.610    7.9621
    8.640    7.8146
    8.670    7.5197
    8.700    7.1827
    8.730    6.9194
    8.760    7.2565
    8.790    6.4244
    8.820    6.6456
    8.850    6.6667
    8.880    6.5087
    8.910    6.4560
    8.940    6.4666
    8.970    5.8662
    9.000    6.1295
    9.030    5.7609
    9.060    5.9505
    9.090    5.9294
    9.120    5.7083
    9.150    5.6872
    9.180    5.6767
    9.210    5.2975
    9.240    5.6767
    9.270    5.6345
    9.300    5.5503
    9.330    5.9294
    9.360    5.2870
    9.390    5.5187
    9.420    5.3923
    9.450    5.6345
    9.480    5.5819
    9.510    5.6240
    9.540    5.3397
    9.570    5.6767
    9.600    5.5503
    9.630    5.4344
    9.660    5.4555
    9.690    5.5819
    9.720    5.3712
    9.750    5.5187
    9.780    5.4028
    9.810    5.2975
    9.840    5.1922
    9.870    5.4344
    9.900    5.7504
    9.930    5.6345
    9.960    5.2870
    9.990    5.2554
   10.020    5.4134
   10.050    5.3186
   10.080    5.5608
   10.110    5.8031
   10.140    5.2765
   10.170    5.3502
   10.200    5.4660
   10.230    5.7293
   10.260    5.7293
   10.290    5.9294
   10.320    6.0242
   10.350    5.7293
   10.380    6.0874
   10.410    6.1717
   10.440    6.6667
   10.470    6.4455
   10.500    6.1822
   10.530    6.1717
   10.560    6.0348
   10.590    5.8136
   10.620    5.2765
   10.650    5.6872
   10.680    5.2870
   10.710    5.3712
   10.740    5.4450
   10.770    5.3607
   10.800    5.4239
   10.830    5.4239
   10.860    5.1395
   10.890    5.0237
   10.920    5.5082
   10.950    5.6556
   10.980    5.2133
   11.010    5.2659
   11.040    5.5714
   11.070    5.4871
   11.100    5.3818
   11.130    5.3607
   11.160    5.5819
   11.190    4.8657
   11.220    5.3397
   11.250    5.5187
   11.280    5.1395
   11.310    5.4239
   11.340    5.6029
   11.370    5.4344
   11.400    5.6240
   11.430    5.4239
   11.460    5.3923
   11.490    5.1080
   11.520    5.3607
   11.550    5.4134
   11.580    5.7820
   11.610    5.1922
   11.640    5.7399
   11.670    5.5608
   11.700    5.6345
   11.730    5.2238
   11.760    5.7715
   11.790    5.2449
   11.820    5.8768
   11.850    5.8241
   11.880    5.5608
   11.910    5.6872
   11.940    5.6451
   11.970    5.5819
   12.000    5.5608
   12.030    6.0664
   12.060    5.9716
   12.090    5.7188
   12.120    5.7925
   12.150    5.5924
   12.180    5.8347
   12.210    5.9294
   12.240    5.3818
   12.270    5.9926
   12.300    6.1190
   12.330    5.8347
   12.360    6.1190
   12.390    6.0032
   12.420    6.0137
   12.450    6.0979
   12.480    5.8136
   12.510    5.9821
   12.540    6.0558
   12.570    5.6451
   12.600    5.9926
   12.630    5.7925
   12.660    6.2454
   12.690    6.0558
   12.720    5.8452
   12.750    5.8136
   12.780    5.6872
   12.810    6.1401
   12.840    5.7715
   12.870    5.5292
   12.900    5.7188
   12.930    5.6661
   12.960    5.7504
   12.990    5.7293
   13.020    5.6661
   13.050    5.4660
   13.080    5.5924
   13.110    5.9189
   13.140    5.7609
   13.170    5.5503
   13.200    5.5924
   13.230    5.7083
   13.260    5.5398
   13.290    5.5292
   13.320    5.6977
   13.350    5.6240
   13.380    5.4766
   13.410    5.5714
   13.440    5.2975
   13.470    5.5082
   13.500    5.7609
   13.530    5.3397
   13.560    5.6767
   13.590    5.6240
   13.620    5.8452
   13.650    5.5714
   13.680    5.7083
   13.710    5.2554
   13.740    5.5714
   13.770    5.4871
   13.800    5.6135
   13.830    5.4134
   13.860    5.3502
   13.890    5.8768
   13.920    5.6977
   13.950    5.6135
   13.980    5.5608
   14.010    5.7188
   14.040    5.8557
   14.070    5.3081
   14.100    5.4660
   14.130    5.3712
   14.160    5.2975
   14.190    5.3397
   14.220    5.1606
   14.250    5.4344
   14.280    5.1290
   14.310    5.2975
   14.340    4.9184
   14.370    5.2449
   14.400    5.1922
   14.430    5.3291
   14.460    5.3397
   14.490    5.5292
   14.520    4.8868
   14.550    5.3502
   14.580    4.9816
   14.610    5.2975
   14.640    4.8025
   14.670    5.5924
   14.700    5.1606
   14.730    4.7815
   14.760    4.9605
   14.790    4.9289
   14.820    5.1606
   14.850    5.2765
   14.880    5.0553
   14.910    5.6556
   14.940    5.3397
   14.970    5.0448
   15.000    5.2765
   15.030    5.1922
   15.060    5.1395
   15.090    5.5608
   15.120    5.5819
   15.150    5.3186
   15.180    5.2133
   15.210    5.2449
   15.240    4.7815
   15.270    5.4239
   15.300    5.4028
   15.330    5.2027
   15.360    5.0658
   15.390    5.3186
   15.420    5.2027
   15.450    5.4450
   15.480    5.0237
   15.510    5.1080
   15.540    5.1290
   15.570    5.3712
   15.600    5.7925
   15.630    5.0026
   15.660    5.0448
   15.690    5.0342
   15.720    5.4660
   15.750    5.4028
   15.780    5.3081
   15.810    5.8347
   15.840    5.3712
   15.870    5.4028
   15.900    5.3712
   15.930    5.1290
   15.960    5.3186
   15.990    5.5398
   16.020    5.1817
   16.050    4.9605
   16.080    5.2554
   16.110    5.1290
   16.140    5.1606
   16.170    5.7399
   16.200    5.3397
   16.230    5.2659
   16.260    5.5608
   16.290    5.4134
   16.320    5.2343
   16.350    5.2975
   16.380    5.3291
   16.410    5.3291
   16.440    5.1395
   16.470    4.8973
   16.500    5.2975
   16.530    5.6345
   16.560    4.9078
   16.590    5.2343
   16.620    5.0764
   16.650    5.1080
   16.680    5.4871
   16.710    4.9184
   16.740    5.0553
   16.770    4.8763
   16.800    5.0869
   16.830    5.1290
   16.860    5.2343
   16.890    5.3607
   16.920    5.2238
   16.950    5.0974
   16.980    5.3607
   17.010    5.5082
   17.040    4.8657
   17.070    5.0658
   17.100    4.8973
   17.130    5.3502
   17.160    5.2659
   17.190    5.0553
   17.220    5.4134
   17.250    5.1290
   17.280    5.4660
   17.310    5.0448
   17.340    4.9710
   17.370    5.3502
   17.400    4.9816
   17.430    5.6767
   17.460    5.2449
   17.490    5.1290
   17.520    4.8657
   17.550    5.1711
   17.580    5.3291
   17.610    5.4555
   17.640    5.3923
   17.670    5.2027
   17.700    5.1922
   17.730    5.1501
   17.760    5.3502
   17.790    4.9500
   17.820    5.2449
   17.850    5.0974
   17.880    5.0869
   17.910    5.7609
   17.940    5.4555
   17.970    5.6240
   18.000    5.6451
   18.030    5.3818
   18.060    5.5608
   18.090    5.2343
   18.120    5.1606
   18.150    4.8447
   18.180    5.4976
   18.210    4.8025
   18.240    4.9394
   18.270    5.4450
   18.300    5.1395
   18.330    5.0553
   18.360    5.3081
   18.390    5.2659
   18.420    5.2975
   18.450    5.6767
   18.480    5.3081
   18.510    5.4766
   18.540    5.5292
   18.570    5.2343
   18.600    5.3712
   18.630    5.4766
   18.660    5.3818
   18.690    5.1080
   18.720    5.5082
   18.750    5.3712
   18.780    5.7293
   18.810    5.3607
   18.840    5.1501
   18.870    5.2975
   18.900    4.8763
   18.930    5.5082
   18.960    5.1922
   18.990    5.4976
   19.020    5.5924
   19.050    5.2870
   19.080    5.2659
   19.110    5.4555
   19.140    5.1290
   19.170    5.5187
   19.200    5.6556
   19.230    5.4450
   19.260    5.5082
   19.290    5.7188
   19.320    5.2449
   19.350    5.3818
   19.380    5.5503
   19.410    5.5924
   19.440    5.8031
   19.470    5.4344
   19.500    5.6029
   19.530    5.5398
   19.560    5.6872
   19.590    5.9610
   19.620    5.6767
   19.650    5.8241
   19.680    5.6977
   19.710    5.9926
   19.740    5.4976
   19.770    5.7715
   19.800    5.8662
   19.830    5.6872
   19.860    6.3086
   19.890    5.7925
   19.920    5.8136
   19.950    5.9821
   19.980    5.8452
   20.010    5.6135
   20.040    5.9189
   20.070    5.9400
   20.100    5.7925
   20.130    6.2138
   20.160    5.6345
   20.190    6.1611
   20.220    5.6135
   20.250    6.0874
   20.280    6.2138
   20.310    5.7609
   20.340    5.6029
   20.370    6.0348
   20.400    5.6767
   20.430    5.8347
   20.460    5.7399
   20.490    5.9610
   20.520    5.6240
   20.550    5.7399
   20.580    5.8873
   20.610    5.7293
   20.640    5.9610
   20.670    5.8347
   20.700    5.5398
   20.730    5.8978
   20.760    5.3607
   20.790    5.8347
   20.820    5.9716
   20.850    5.8557
   20.880    5.6872
   20.910    6.1611
   20.940    5.6556
   20.970    6.3718
   21.000    6.0664
   21.030    6.1190
   21.060    5.7925
   21.090    5.7504
   21.120    5.7293
   21.150    5.8241
   21.180    5.8768
   21.210    6.0979
   21.240    5.8347
   21.270    5.5082
   21.300    5.7399
   21.330    5.8662
   21.360    5.8241
   21.390    6.1822
   21.420    5.6556
   21.450    6.1085
   21.480    6.0032
   21.510    5.8557
   21.540    5.7609
   21.570    5.6872
   21.600    5.9084
   21.630    5.8241
   21.660    5.7609
   21.690    5.8031
   21.720    5.8031
   21.750    6.2138
   21.780    5.8452
   21.810    5.9926
   21.840    5.9294
   21.870    6.0242
   21.900    5.7399
   21.930    5.8978
   21.960    5.8136
   21.990    5.9505
   22.020    5.9716
   22.050    5.9926
   22.080    5.6977
   22.110    5.9716
   22.140    6.5087
   22.170    5.9294
   22.200    6.2875
   22.230    5.8768
   22.260    5.7609
   22.290    6.3928
   22.320    5.7083
   22.350    6.0348
   22.380    6.0664
   22.410    6.0032
   22.440    5.9505
   22.470    6.0137
   22.500    5.9821
   22.530    6.0769
   22.560    6.0664
   22.590    5.9189
   22.620    5.6240
   22.650    5.9926
   22.680    6.1822
   22.710    5.9400
   22.740    6.1717
   22.770    5.8768
   22.800    5.7715
   22.830    5.6240
   22.860    5.4344
   22.890    5.8768
   22.920    5.7925
   22.950    5.4660
   22.980    5.5714
   23.010    5.5503
   23.040    6.0348
   23.070    5.6345
   23.100    6.1190
   23.130    6.0137
   23.160    5.6029
   23.190    5.6767
   23.220    6.0242
   23.250    5.5082
   23.280    6.0558
   23.310    5.8978
   23.340    5.5503
   23.370    5.7083
   23.400    5.5398
   23.430    5.7504
   23.460    5.4555
   23.490    5.8662
   23.520    5.7293
   23.550    5.6240
   23.580    5.4766
   23.610    5.3923
   23.640    5.5608
   23.670    5.7715
   23.700    5.3923
   23.730    5.7293
   23.760    5.7399
   23.790    5.7083
   23.820    5.4344
   23.850    5.5714
   23.880    5.6661
   23.910    5.4028
   23.940    5.6767
   23.970    5.6872
   24.000    5.3818
   24.030    5.6451
   24.060    5.5187
   24.090    5.6451
   24.120    5.7925
   24.150    5.5187
   24.180    5.3081
   24.210    5.6872
   24.240    5.2659
   24.270    5.7820
   24.300    5.4239
   24.330    5.9610
   24.360    5.7609
   24.390    5.8241
   24.420    5.5608
   24.450    5.6240
   24.480    5.7293
   24.510    5.6661
   24.540    5.5398
   24.570    5.9505
   24.600    5.4766
   24.630    5.3186
   24.660    5.4239
   24.690    5.5503
   24.720    5.5398
   24.750    5.5398
   24.780    5.4766
   24.810    5.8031
   24.840    5.4660
   24.870    5.4028
   24.900    5.7188
   24.930    5.6135
   24.960    5.5187
   24.990    5.2238
   25.020    5.6240
   25.050    5.2870
   25.080    4.9184
   25.110    4.9816
   25.140    5.2975
   25.170    5.1395
   25.200    5.0237
   25.230    5.1185
   25.260    5.5608
   25.290    5.5187
   25.320    5.2870
   25.350    5.3397
   25.380    5.3923
   25.410    5.3291
   25.440    5.2975
   25.470    5.0974
   25.500    5.1080
   25.530    5.1185
   25.560    5.1185
   25.590    5.2133
   25.620    5.1711
   25.650    5.3502
   25.680    5.1711
   25.710    5.2975
   25.740    5.3923
   25.770    5.4028
   25.800    5.3186
   25.830    5.1080
   25.860    5.0974
   25.890    4.9710
   25.920    5.0342
   25.950    5.2554
   25.980    5.0448
   26.010    4.8131
   26.040    5.4134
   26.070    5.0448
   26.100    4.8868
   26.130    5.1290
   26.160    5.0132
   26.190    4.8973
   26.220    5.1395
   26.250    5.0764
   26.280    4.8763
   26.310    5.2027
   26.340    5.3607
   26.370    5.0974
   26.400    5.2975
   26.430    4.9289
   26.460    5.0658
   26.490    5.1080
   26.520    5.1080
   26.550    5.1395
   26.580    5.1711
   26.610    4.6867
   26.640    4.7709
   26.670    5.2238
   26.700    4.9500
   26.730    4.7920
   26.760    5.3818
   26.790    4.8657
   26.820    4.6551
   26.850    5.1395
   26.880    5.1080
   26.910    5.0553
   26.940    4.7920
   26.970    5.4134
   27.000    5.0026
   27.030    5.2133
   27.060    4.8131
   27.090    4.9816
   27.120    4.8341
   27.150    4.8236
   27.180    4.9500
   27.210    4.7920
   27.240    4.7288
   27.270    4.6340
   27.300    4.9289
   27.330    4.9710
   27.360    5.0026
   27.390    4.8025
   27.420    4.9184
   27.450    4.5498
   27.480    4.5498
   27.510    4.6972
   27.540    4.7709
   27.570    4.9816
   27.600    4.9921
   27.630    4.4550
   27.660    5.0026
   27.690    5.0026
   27.720    4.7920
   27.750    4.7920
   27.780    5.0448
   27.810    4.7393
   27.840    5.0448
   27.870    4.5287
   27.900    4.8973
   27.930    4.7920
   27.960    4.7709
   27.990    5.3186
   28.020    4.6656
   28.050    5.2238
   28.080    5.0658
   28.110    5.3923
   28.140    5.2765
   28.170    5.5608
   28.200    5.2238
   28.230    5.2449
   28.260    5.0342
   28.290    5.5503
   28.320    5.2133
   28.350    4.9500
   28.380    4.8447
   28.410    4.9816
   28.440    4.9394
   28.470    4.5919
   28.500    5.0026
   28.530    4.9078
   28.560    4.5498
   28.590    4.8131
   28.620    4.8025
   28.650    4.9605
   28.680    4.9184
   28.710    5.1711
   28.740    4.9289
   28.770    4.5182
   28.800    4.6656
   28.830    4.7288
   28.860    4.6761
   28.890    4.5603
   28.920    5.0237
   28.950    4.8868
   28.980    4.8025
   29.010    4.9605
   29.040    4.7604
   29.070    4.7604
   29.100    4.8657
   29.130    4.7288
   29.160    4.8025
   29.190    4.3707
   29.220    4.6656
   29.250    4.6024
   29.280    4.7393
   29.310    4.6445
   29.340    4.9921
   29.370    4.8973
   29.400    4.8025
   29.430    4.5708
   29.460    4.4023
   29.490    4.5498
   29.520    4.6445
   29.550    4.7815
   29.580    4.5814
   29.610    4.6972
   29.640    4.9710
   29.670    4.6761
   29.700    4.8025
   29.730    4.8131
   29.760    4.8025
   29.790    4.6972
   29.820    4.5919
   29.850    4.3707
   29.880    4.9816
   29.910    4.7815
   29.940    4.3181
   29.970    4.6024
   30.000    4.7288
   30.030    4.6130
   30.060    4.7499
   30.090    4.7815
   30.120    4.6972
   30.150    4.5814
   30.180    4.5182
   30.210    4.7499
   30.240    4.7920
   30.270    4.7815
   30.300    4.6024
   30.330    4.4339
   30.360    4.5919
   30.390    4.6235
   30.420    4.2865
   30.450    4.4339
   30.480    4.8341
   30.510    4.6551
   30.540    4.6340
   30.570    4.4339
   30.600    4.6024
   30.630    4.4550
   30.660    4.5919
   30.690    4.3707
   30.720    4.5919
   30.750    4.5076
   30.780    4.6130
   30.810    4.5392
   30.840    4.4128
   30.870    4.4128
   30.900    4.5603
   30.930    5.1080
   30.960    4.6972
   30.990    4.4339
   31.020    4.5498
   31.050    4.3707
   31.080    4.4023
   31.110    4.3707
   31.140    4.4023
   31.170    4.6130
   31.200    4.2759
   31.230    4.4971
   31.260    4.3391
   31.290    4.4760
   31.320    4.6130
   31.350    4.6656
   31.380    4.8131
   31.410    4.4655
   31.440    4.2759
   31.470    4.4023
   31.500    4.8447
   31.530    4.3391
   31.560    4.4444
   31.590    4.5182
   31.620    4.5182
   31.650    4.5498
   31.680    4.5814
   31.710    4.4655
   31.740    4.5287
   31.770    4.6972
   31.800    4.3075
   31.830    4.8236
   31.860    4.4655
   31.890    4.4971
   31.920    4.6972
   31.950    4.3813
   31.980    4.3497
   32.010    4.5498
   32.040    4.5287
   32.070    4.5814
   32.100    4.4866
   32.130    4.6235
   32.160    4.4128
   32.190    4.5076
   32.220    4.7077
   32.250    4.2443
   32.280    4.9289
   32.310    4.1706
   32.340    4.3286
   32.370    4.4128
   32.400    4.4760
   32.430    4.2549
   32.460    4.1496
   32.490    4.3707
   32.520    4.3286
   32.550    4.2759
   32.580    4.1601
   32.610    4.5814
   32.640    4.2970
   32.670    4.3602
   32.700    4.2549
   32.730    4.6551
   32.760    4.1285
   32.790    4.5708
   32.820    4.4655
   32.850    3.9494
   32.880    4.2970
   32.910    4.3391
   32.940    4.3918
   32.970    4.0442
   33.000    3.9494
   33.030    4.3391
   33.060    4.3497
   33.090    4.1285
   33.120    4.0758
   33.150    4.1706
   33.180    4.0969
   33.210    4.0864
   33.240    4.4339
   33.270    4.2022
   33.300    4.2338
   33.330    4.1917
   33.360    4.2127
   33.390    3.8968
   33.420    4.2022
   33.450    4.2127
   33.480    4.5076
   33.510    4.1601
   33.540    4.1917
   33.570    4.0969
   33.600    3.9600
   33.630    4.0232
   33.660    4.3286
   33.690    4.1601
   33.720    4.2865
   33.750    4.2022
   33.780    4.7183
   33.810    4.1706
   33.840    4.2127
   33.870    4.1390
   33.900    4.3181
   33.930    3.7599
   33.960    4.3707
   33.990    3.8441
   34.020    3.9179
   34.050    4.0864
   34.080    4.0126
   34.110    4.1917
   34.140    4.2865
   34.170    4.2233
   34.200    3.9600
   34.230    4.1390
   34.260    3.9810
   34.290    4.0442
   34.320    4.0864
   34.350    4.2233
   34.380    4.2022
   34.410    4.0969
   34.440    3.8968
   34.470    4.0232
   34.500    4.2654
   34.530    3.9073
   34.560    3.9600
   34.590    3.6019
   34.620    3.7809
   34.650    3.9284
   34.680    3.9494
   34.710    3.7493
   34.740    3.9916
   34.770    3.8020
   34.800    4.1496
   34.830    4.1285
   34.860    3.7915
   34.890    4.0548
   34.920    4.2970
   34.950    4.1074
   34.980    4.0021
   35.010    4.2865
   35.040    3.9284
   35.070    3.9494
   35.100    3.8652
   35.130    4.0442
   35.160    4.1180
   35.190    4.1706
   35.220    3.8968
   35.250    3.7283
   35.280    4.0442
   35.310    4.2759
   35.340    3.8757
   35.370    3.8757
   35.400    4.0653
   35.430    3.9494
   35.460    4.0758
   35.490    3.7072
   35.520    4.2865
   35.550    3.9916
   35.580    3.9073
   35.610    4.3181
   35.640    4.1390
   35.670    3.8231
   35.700    4.1706
   35.730    4.0126
   35.760    3.8231
   35.790    3.9494
   35.820    3.9179
   35.850    3.8441
   35.880    4.0758
   35.910    4.0337
   35.940    3.7599
   35.970    4.0337
   36.000    4.0126
   36.030    3.7283
   36.060    4.0337
   36.090    4.2654
   36.120    3.7072
   36.150    3.8125
   36.180    4.1917
   36.210    3.8020
   36.240    3.8336
   36.270    3.8441
   36.300    3.9179
   36.330    3.8863
   36.360    3.7388
   36.390    3.4966
   36.420    3.9179
   36.450    3.8125
   36.480    3.8757
   36.510    4.1285
   36.540    4.0969
   36.570    3.5387
   36.600    3.7388
   36.630    3.8757
   36.660    3.8020
   36.690    4.0337
   36.720    3.6967
   36.750    3.8336
   36.780    3.4966
   36.810    3.6546
   36.840    3.9705
   36.870    3.8863
   36.900    3.9916
   36.930    3.9073
   36.960    4.0548
   36.990    3.6546
   37.020    3.7704
   37.050    3.9284
   37.080    3.8863
   37.110    3.7599
   37.140    3.8125
   37.170    3.8231
   37.200    3.6124
   37.230    3.7599
   37.260    4.0653
   37.290    3.6230
   37.320    3.7388
   37.350    4.0864
   37.380    3.8020
   37.410    3.7283
   37.440    3.9494
   37.470    3.6756
   37.500    3.5808
   37.530    3.8547
   37.560    3.8652
   37.590    3.9810
   37.620    3.6546
   37.650    3.8020
   37.680    3.5598
   37.710    3.6124
   37.740    3.7809
   37.770    3.8125
   37.800    3.8441
   37.830    3.6124
   37.860    3.6440
   37.890    3.7493
   37.920    3.6756
   37.950    3.7915
   37.980    3.7177
   38.010    3.8231
   38.040    3.8020
   38.070    3.9389
   38.100    3.4544
   38.130    3.7388
   38.160    3.5914
   38.190    3.3702
   38.220    3.8547
   38.250    3.7493
   38.280    3.6651
   38.310    3.7283
   38.340    3.6230
   38.370    3.4860
   38.400    3.5176
   38.430    3.7493
   38.460    3.7072
   38.490    3.8757
   38.520    3.4439
   38.550    3.7809
   38.580    3.6756
   38.610    3.8020
   38.640    3.7072
   38.670    3.3386
   38.700    3.9073
   38.730    3.7599
   38.760    3.8652
   38.790    3.5808
   38.820    3.5598
   38.850    3.3491
   38.880    3.6756
   38.910    3.9179
   38.940    3.3386
   38.970    3.7915
   39.000    3.6440
   39.030    3.6335
   39.060    3.7704
   39.090    3.5176
   39.120    3.9600
   39.150    3.6862
   39.180    3.4439
   39.210    3.9810
   39.240    3.6440
   39.270    3.6756
   39.300    3.5808
   39.330    3.5808
   39.360    3.7388
   39.390    3.6124
   39.420    3.5492
   39.450    3.6967
   39.480    3.5598
   39.510    3.7283
   39.540    3.6230
   39.570    3.5387
   39.600    3.3913
   39.630    3.6651
   39.660    3.6440
   39.690    3.5914
   39.720    3.5914
   39.750    3.6651
   39.780    3.6230
   39.810    3.5492
   39.840    3.8125
   39.870    3.8547
   39.900    3.6335
   39.930    3.5387
   39.960    3.9494
   39.990    3.5808