File: data/MOCOF-1/PXRD/PXRD_KE-281_Cu-Ka1_film-3mm_3s-deg.xyd
    1.500   18.0621
    1.530   17.6935
    1.560   16.0435
    1.590   15.9558
    1.620   15.4467
    1.650   16.1489
    1.680   15.1659
    1.710   14.8675
    1.740   14.2882
    1.770   14.0425
    1.800   13.1999
    1.830   13.5685
    1.860   12.8138
    1.890   12.6207
    1.920   12.1994
    1.950   11.6728
    1.980   12.4803
    2.010   12.1643
    2.040   11.8132
    2.070   10.9180
    2.100   10.9180
    2.130   10.9005
    2.160   10.6547
    2.190   10.4968
    2.220   10.9180
    2.250   10.6547
    2.280    9.5313
    2.310    9.5489
    2.340    9.6542
    2.370   10.0579
    2.400   10.1281
    2.430    9.7420
    2.460    9.9702
    2.490    9.9877
    2.520    9.2329
    2.550    9.6191
    2.580    9.3382
    2.610    8.6712
    2.640    9.3207
    2.670    8.5659
    2.700    8.6537
    2.730    8.7590
    2.760    8.1973
    2.790    8.5308
    2.820    8.3553
    2.850    9.0925
    2.880    8.4606
    2.910    8.4255
    2.940    8.8292
    2.970    8.8994
    3.000    8.3728
    3.030    8.1622
    3.060    8.1973
    3.090    8.2324
    3.120    7.7058
    3.150    7.8287
    3.180    8.3026
    3.210    8.5835
    3.240    8.1446
    3.270    8.1622
    3.300    8.3202
    3.330    7.6532
    3.360    7.8462
    3.390    8.0042
    3.420    7.3723
    3.450    8.0920
    3.480    7.8462
    3.510    8.3377
    3.540    7.4074
    3.570    7.8462
    3.600    7.9164
    3.630    7.7058
    3.660    8.0920
    3.690    8.0393
    3.720    8.1622
    3.750    8.4255
    3.780    7.8989
    3.810    7.8111
    3.840    7.8287
    3.870    7.6356
    3.900    7.6532
    3.930    7.9691
    3.960    8.1973
    3.990    7.8462
    4.020    8.3377
    4.050    7.6883
    4.080    8.3377
    4.110    7.7936
    4.140    8.0042
    4.170    8.0569
    4.200    7.8287
    4.230    8.0920
    4.260    7.8287
    4.290    8.0218
    4.320    8.5484
    4.350    7.7936
    4.380    7.5478
    4.410    7.7936
    4.440    7.6883
    4.470    8.7941
    4.500    8.1271
    4.530    7.6180
    4.560    8.1973
    4.590    7.8813
    4.620    7.9164
    4.650    7.9691
    4.680    8.2324
    4.710    8.3904
    4.740    7.7760
    4.770    7.9867
    4.800    7.9164
    4.830    8.5835
    4.860    8.1973
    4.890    8.6010
    4.920    8.4781
    4.950    8.3728
    4.980    8.7765
    5.010    8.6010
    5.040    9.3207
    5.070    8.9521
    5.100    9.6542
    5.130    9.8297
    5.160    9.7946
    5.190    9.5489
    5.220    9.4787
    5.250    9.6367
    5.280   10.0930
    5.310    9.8824
    5.340   10.1106
    5.370   10.9882
    5.400   10.7249
    5.430   10.4616
    5.460   10.3212
    5.490   10.8829
    5.520   10.6723
    5.550   10.6021
    5.580   11.0058
    5.610   10.4090
    5.640   10.0930
    5.670    9.3031
    5.700   10.1281
    5.730    9.9877
    5.760   10.3739
    5.790    9.4260
    5.820    9.2680
    5.850    8.9872
    5.880    9.5138
    5.910    8.6361
    5.940    8.5659
    5.970    8.6888
    6.000    8.9872
    6.030    7.8638
    6.060    8.4430
    6.090    8.1446
    6.120    7.9691
    6.150    7.8638
    6.180    7.7409
    6.210    8.3377
    6.240    7.6180
    6.270    8.1797
    6.300    7.8287
    6.330    8.2324
    6.360    7.7936
    6.390    8.0393
    6.420    7.6005
    6.450    7.2670
    6.480    7.5829
    6.510    7.3196
    6.540    7.1968
    6.570    6.7930
    6.600    7.2319
    6.630    6.9159
    6.660    6.6351
    6.690    6.8457
    6.720    6.3542
    6.750    6.8984
    6.780    6.6877
    6.810    6.8984
    6.840    6.7053
    6.870    6.6877
    6.900    6.3542
    6.930    6.8984
    6.960    6.4595
    6.990    7.0739
    7.020    6.7053
    7.050    6.0383
    7.080    6.4244
    7.110    6.3367
    7.140    6.8106
    7.170    6.9510
    7.200    6.4771
    7.230    6.6175
    7.260    6.5649
    7.290    6.1436
    7.320    5.9681
    7.350    5.6521
    7.380    6.3016
    7.410    6.2489
    7.440    6.1962
    7.470    6.3542
    7.500    5.9856
    7.530    5.5468
    7.560    5.9329
    7.590    5.7399
    7.620    5.7750
    7.650    5.7574
    7.680    5.7399
    7.710    6.0734
    7.740    5.5994
    7.770    5.3712
    7.800    5.9505
    7.830    5.4941
    7.860    5.1255
    7.890    5.3888
    7.920    5.6170
    7.950    5.2835
    7.980    5.8452
    8.010    5.7750
    8.040    5.4064
    8.070    5.3361
    8.100    5.1606
    8.130    5.0904
    8.160    5.7574
    8.190    5.2484
    8.220    5.2133
    8.250    5.6872
    8.280    5.0377
    8.310    5.0553
    8.340    5.2308
    8.370    5.5468
    8.400    5.2133
    8.430    5.1957
    8.460    5.0377
    8.490    5.7223
    8.520    5.4415
    8.550    5.5468
    8.580    5.1606
    8.610    5.1782
    8.640    5.0202
    8.670    5.2133
    8.700    4.7042
    8.730    4.8622
    8.760    5.1606
    8.790    4.5989
    8.820    4.4760
    8.850    5.3537
    8.880    4.9149
    8.910    4.7569
    8.940    5.2308
    8.970    5.2484
    9.000    5.1606
    9.030    5.1782
    9.060    5.0377
    9.090    5.1080
    9.120    5.0202
    9.150    4.7042
    9.180    5.0904
    9.210    5.0904
    9.240    4.6340
    9.270    4.9149
    9.300    4.7393
    9.330    4.8271
    9.360    4.6691
    9.390    5.4590
    9.420    5.2308
    9.450    4.6867
    9.480    4.7569
    9.510    5.5819
    9.540    5.2308
    9.570    4.7744
    9.600    4.7744
    9.630    5.3712
    9.660    4.7920
    9.690    4.4409
    9.720    5.1606
    9.750    5.0026
    9.780    5.0553
    9.810    4.6867
    9.840    4.5111
    9.870    5.0202
    9.900    4.9149
    9.930    4.9851
    9.960    4.9500
    9.990    4.8973
   10.020    5.1080
   10.050    4.7218
   10.080    5.2133
   10.110    5.0728
   10.140    4.8447
   10.170    5.1431
   10.200    4.7744
   10.230    5.0377
   10.260    5.2484
   10.290    4.7744
   10.320    5.4239
   10.350    4.9324
   10.380    4.4409
   10.410    5.0728
   10.440    5.6170
   10.470    5.1606
   10.500    5.0728
   10.530    4.8271
   10.560    5.2133
   10.590    5.0026
   10.620    4.8798
   10.650    5.0202
   10.680    4.9851
   10.710    5.2308
   10.740    4.8798
   10.770    5.1957
   10.800    4.9675
   10.830    5.0026
   10.860    4.9324
   10.890    4.8447
   10.920    5.4590
   10.950    5.3888
   10.980    5.1255
   11.010    5.4590
   11.040    5.4415
   11.070    5.1255
   11.100    5.1255
   11.130    5.2484
   11.160    5.5117
   11.190    4.9851
   11.220    5.4415
   11.250    5.2484
   11.280    4.8973
   11.310    5.1606
   11.340    5.4415
   11.370    4.9851
   11.400    5.2484
   11.430    5.3186
   11.460    4.8973
   11.490    5.1957
   11.520    5.3010
   11.550    4.9500
   11.580    5.0026
   11.610    5.4415
   11.640    5.3010
   11.670    4.5814
   11.700    4.8622
   11.730    5.0377
   11.760    5.2484
   11.790    5.1957
   11.820    5.1957
   11.850    5.0553
   11.880    5.3186
   11.910    5.2308
   11.940    5.0728
   11.970    4.9149
   12.000    5.2659
   12.030    5.4415
   12.060    5.1080
   12.090    4.5989
   12.120    4.9500
   12.150    5.1782
   12.180    4.9500
   12.210    5.1255
   12.240    4.6691
   12.270    5.1431
   12.300    4.8095
   12.330    4.8973
   12.360    5.2308
   12.390    4.9324
   12.420    4.7218
   12.450    4.6340
   12.480    4.7393
   12.510    4.8973
   12.540    4.9675
   12.570    4.5638
   12.600    4.9149
   12.630    4.7218
   12.660    4.8798
   12.690    4.5814
   12.720    4.8095
   12.750    4.6867
   12.780    4.6340
   12.810    4.9149
   12.840    4.8973
   12.870    5.3712
   12.900    5.1080
   12.930    4.6165
   12.960    5.1080
   12.990    4.6691
   13.020    4.5287
   13.050    4.9149
   13.080    4.7569
   13.110    4.6165
   13.140    4.8973
   13.170    4.5287
   13.200    4.9149
   13.230    4.8271
   13.260    4.7569
   13.290    4.2303
   13.320    4.8973
   13.350    4.9675
   13.380    4.8798
   13.410    5.0026
   13.440    4.9851
   13.470    4.7744
   13.500    4.9675
   13.530    4.9851
   13.560    4.9149
   13.590    4.9324
   13.620    4.6691
   13.650    4.5814
   13.680    4.3707
   13.710    5.0202
   13.740    5.1080
   13.770    4.7920
   13.800    4.6516
   13.830    4.8095
   13.860    5.1080
   13.890    4.5989
   13.920    4.5111
   13.950    4.4936
   13.980    5.3361
   14.010    5.1080
   14.040    4.8973
   14.070    5.0904
   14.100    4.4760
   14.130    5.2308
   14.160    5.0377
   14.190    4.8622
   14.220    5.3537
   14.250    5.2484
   14.280    5.6170
   14.310    5.3712
   14.340    5.1957
   14.370    5.3361
   14.400    5.1782
   14.430    4.8447
   14.460    5.1957
   14.490    5.1782
   14.520    5.2835
   14.550    5.7048
   14.580    5.7223
   14.610    5.3186
   14.640    4.7393
   14.670    5.3537
   14.700    5.2835
   14.730    5.6697
   14.760    5.2133
   14.790    4.8447
   14.820    5.3712
   14.850    5.2484
   14.880    5.2659
   14.910    5.2659
   14.940    4.9149
   14.970    4.6516
   15.000    4.6165
   15.030    4.9149
   15.060    5.0202
   15.090    5.0202
   15.120    4.7393
   15.150    4.8447
   15.180    5.0377
   15.210    4.6867
   15.240    4.4234
   15.270    4.5287
   15.300    4.2830
   15.330    4.6867
   15.360    4.7218
   15.390    4.8447
   15.420    4.4234
   15.450    4.4409
   15.480    4.3181
   15.510    4.3532
   15.540    4.7393
   15.570    4.6691
   15.600    4.6691
   15.630    4.4760
   15.660    4.7744
   15.690    4.4936
   15.720    4.7744
   15.750    4.2654
   15.780    4.4585
   15.810    4.8447
   15.840    4.9675
   15.870    4.1074
   15.900    4.4234
   15.930    4.9851
   15.960    4.7744
   15.990    4.2127
   16.020    4.6165
   16.050    4.4936
   16.080    4.6340
   16.110    4.6165
   16.140    4.7744
   16.170    4.5111
   16.200    4.5287
   16.230    4.6867
   16.260    4.8271
   16.290    4.9149
   16.320    4.7218
   16.350    4.5989
   16.380    4.3883
   16.410    4.9851
   16.440    4.5638
   16.470    4.4409
   16.500    4.8095
   16.530    4.4234
   16.560    4.6691
   16.590    4.7393
   16.620    5.0377
   16.650    4.6340
   16.680    4.7218
   16.710    4.4234
   16.740    5.0904
   16.770    4.2654
   16.800    4.9500
   16.830    4.5989
   16.860    4.6867
   16.890    4.9851
   16.920    4.4409
   16.950    4.8271
   16.980    4.2830
   17.010    4.3532
   17.040    4.2127
   17.070    4.3532
   17.100    4.6340
   17.130    4.7042
   17.160    4.5111
   17.190    4.8095
   17.220    4.8271
   17.250    5.1606
   17.280    4.3883
   17.310    4.7393
   17.340    4.9500
   17.370    4.5463
   17.400    5.0377
   17.430    4.6516
   17.460    4.4936
   17.490    4.6340
   17.520    4.8447
   17.550    4.4760
   17.580    4.7569
   17.610    4.4585
   17.640    4.6165
   17.670    4.5287
   17.700    4.4760
   17.730    4.4936
   17.760    4.5287
   17.790    4.8798
   17.820    4.7042
   17.850    4.7042
   17.880    5.0553
   17.910    4.6340
   17.940    5.2484
   17.970    4.1425
   18.000    4.9149
   18.030    4.4936
   18.060    4.5989
   18.090    4.7042
   18.120    4.8095
   18.150    4.7042
   18.180    5.1606
   18.210    4.5111
   18.240    4.5814
   18.270    4.5814
   18.300    4.5989
   18.330    4.3707
   18.360    4.7393
   18.390    4.6165
   18.420    4.6691
   18.450    4.4234
   18.480    4.3356
   18.510    4.7218
   18.540    4.2654
   18.570    4.2830
   18.600    4.3883
   18.630    4.5287
   18.660    4.6165
   18.690    4.7218
   18.720    4.4585
   18.750    4.6867
   18.780    4.3181
   18.810    4.6691
   18.840    4.4058
   18.870    4.5463
   18.900    4.2654
   18.930    4.6691
   18.960    5.1782
   18.990    4.8798
   19.020    4.8447
   19.050    4.9500
   19.080    4.7218
   19.110    4.6165
   19.140    4.4585
   19.170    4.6340
   19.200    4.5814
   19.230    4.6867
   19.260    4.3005
   19.290    4.2303
   19.320    4.7920
   19.350    4.4234
   19.380    4.1601
   19.410    4.5638
   19.440    4.3181
   19.470    4.3181
   19.500    4.6516
   19.530    4.5287
   19.560    4.4058
   19.590    4.6691
   19.620    4.4234
   19.650    4.2654
   19.680    4.1601
   19.710    4.1601
   19.740    5.0377
   19.770    4.2654
   19.800    4.2830
   19.830    4.5111
   19.860    4.0899
   19.890    4.4936
   19.920    4.3707
   19.950    4.4234
   19.980    4.6516
   20.010    4.4936
   20.040    3.9670
   20.070    4.0197
   20.100    4.0372
   20.130    4.1776
   20.160    4.3356
   20.190    4.4936
   20.220    4.3532
   20.250    4.3356
   20.280    3.9670
   20.310    4.2830
   20.340    4.3883
   20.370    3.9143
   20.400    4.3005
   20.430    4.3005
   20.460    4.3883
   20.490    3.7739
   20.520    4.0197
   20.550    4.1776
   20.580    4.1074
   20.610    4.3707
   20.640    4.2654
   20.670    4.6691
   20.700    4.3005
   20.730    4.0899
   20.760    4.1250
   20.790    4.1952
   20.820    4.2654
   20.850    4.1425
   20.880    4.1601
   20.910    4.3356
   20.940    4.1250
   20.970    4.1250
   21.000    4.0548
   21.030    4.2654
   21.060    4.5463
   21.090    4.1250
   21.120    3.9670
   21.150    4.1601
   21.180    4.0899
   21.210    3.8266
   21.240    3.9846
   21.270    4.2127
   21.300    4.3356
   21.330    3.9670
   21.360    3.8792
   21.390    4.1425
   21.420    4.0372
   21.450    4.2127
   21.480    3.8617
   21.510    4.0372
   21.540    4.4760
   21.570    3.9846
   21.600    4.1601
   21.630    4.4585
   21.660    3.9143
   21.690    4.5989
   21.720    4.0021
   21.750    3.6686
   21.780    4.5287
   21.810    4.1425
   21.840    3.8968
   21.870    4.1952
   21.900    4.0197
   21.930    4.1425
   21.960    4.1250
   21.990    4.0021
   22.020    4.1425
   22.050    3.8968
   22.080    4.2127
   22.110    3.9143
   22.140    4.1250
   22.170    4.0197
   22.200    3.8617
   22.230    3.9319
   22.260    3.8617
   22.290    3.9846
   22.320    3.8266
   22.350    3.9494
   22.380    3.7037
   22.410    3.6510
   22.440    4.1601
   22.470    4.1074
   22.500    3.9846
   22.530    4.3181
   22.560    4.0548
   22.590    4.0372
   22.620    4.0899
   22.650    3.7915
   22.680    3.9846
   22.710    3.7213
   22.740    3.8090
   22.770    4.0021
   22.800    3.9319
   22.830    3.8441
   22.860    3.8968
   22.890    3.7213
   22.920    3.8792
   22.950    3.8090
   22.980    3.5633
   23.010    3.9143
   23.040    3.7915
   23.070    3.6510
   23.100    3.6159
   23.130    3.9143
   23.160    3.9319
   23.190    3.9494
   23.220    3.3702
   23.250    3.5984
   23.280    3.4404
   23.310    3.4404
   23.340    4.5989
   23.370    3.7739
   23.400    3.9494
   23.430    3.7564
   23.460    3.7564
   23.490    3.6862
   23.520    3.8617
   23.550    3.6159
   23.580    4.0197
   23.610    3.4053
   23.640    3.7037
   23.670    3.5808
   23.700    3.5808
   23.730    4.0021
   23.760    3.4404
   23.790    3.7739
   23.820    3.4580
   23.850    3.8792
   23.880    4.0899
   23.910    3.6159
   23.940    3.6159
   23.970    3.4580
   24.000    3.5457
   24.030    3.7037
   24.060    3.6510
   24.090    3.5984
   24.120    3.4580
   24.150    3.4404
   24.180    3.7388
   24.210    3.2122
   24.240    3.5106
   24.270    3.8792
   24.300    3.1596
   24.330    4.0021
   24.360    3.4931
   24.390    3.1596
   24.420    3.5633
   24.450    3.8266
   24.480    3.8617
   24.510    3.5633
   24.540    3.0191
   24.570    3.7564
   24.600    3.4229
   24.630    3.6159
   24.660    3.5633
   24.690    3.4580
   24.720    3.4580
   24.750    3.1596
   24.780    3.3526
   24.810    3.5106
   24.840    3.6335
   24.870    3.2649
   24.900    3.7213
   24.930    2.9489
   24.960    3.5282
   24.990    3.1771
   25.020    3.3000
   25.050    3.5106
   25.080    3.1420
   25.110    3.4229
   25.140    3.2473
   25.170    3.4229
   25.200    3.7564
   25.230    3.1069
   25.260    3.4755
   25.290    3.4404
   25.320    3.1069
   25.350    3.4053
   25.380    3.3175
   25.410    3.3702
   25.440    3.3702
   25.470    3.1245
   25.500    3.2298
   25.530    3.5282
   25.560    3.3702
   25.590    3.4053
   25.620    3.1947
   25.650    3.2649
   25.680    3.2298
   25.710    3.5106
   25.740    3.4580
   25.770    3.0016
   25.800    3.3526
   25.830    3.2649
   25.860    3.5633
   25.890    3.4053
   25.920    3.3351
   25.950    3.1947
   25.980    3.4229
   26.010    3.3175
   26.040    3.3526
   26.070    3.4580
   26.100    3.1420
   26.130    3.3702
   26.160    3.5457
   26.190    3.2649
   26.220    3.3175
   26.250    3.5633
   26.280    3.2298
   26.310    3.0191
   26.340    2.8963
   26.370    3.5633
   26.400    3.2122
   26.430    3.1245
   26.460    3.1596
   26.490    3.2122
   26.520    2.8436
   26.550    3.3351
   26.580    3.1420
   26.610    3.2649
   26.640    3.3000
   26.670    3.4404
   26.700    3.3175
   26.730    3.3000
   26.760    2.9314
   26.790    3.3702
   26.820    3.2122
   26.850    3.0718
   26.880    3.2649
   26.910    3.0893
   26.940    3.2473
   26.970    3.0191
   27.000    3.3175
   27.030    3.2649
   27.060    2.8963
   27.090    2.8963
   27.120    2.7909
   27.150    3.1420
   27.180    2.9665
   27.210    3.0367
   27.240    3.1069
   27.270    3.2473
   27.300    2.9314
   27.330    3.0893
   27.360    3.3000
   27.390    2.7909
   27.420    2.9314
   27.450    3.1420
   27.480    2.5979
   27.510    2.7558
   27.540    3.2298
   27.570    3.0367
   27.600    2.9840
   27.630    2.6505
   27.660    2.6681
   27.690    2.8612
   27.720    2.6505
   27.750    3.1771
   27.780    3.0542
   27.810    2.9840
   27.840    3.1771
   27.870    2.8787
   27.900    2.8612
   27.930    3.0542
   27.960    3.0016
   27.990    3.4755
   28.020    3.4580
   28.050    2.8260
   28.080    3.0893
   28.110    2.5979
   28.140    2.7032
   28.170    3.1596
   28.200    2.9665
   28.230    2.9138
   28.260    2.8436
   28.290    2.6856
   28.320    2.7909
   28.350    2.8260
   28.380    2.8260
   28.410    2.6681
   28.440    3.0542
   28.470    3.2298
   28.500    2.8260
   28.530    2.9665
   28.560    2.8260
   28.590    2.6154
   28.620    2.4574
   28.650    3.0016
   28.680    3.0016
   28.710    3.0016
   28.740    2.7734
   28.770    2.9314
   28.800    2.8436
   28.830    3.2122
   28.860    3.0367
   28.890    2.8963
   28.920    3.3351
   28.950    3.5106
   28.980    2.9314
   29.010    3.0367
   29.040    2.7909
   29.070    2.6330
   29.100    3.0367
   29.130    2.7558
   29.160    2.7032
   29.190    2.6681
   29.220    2.6856
   29.250    2.7558
   29.280    2.8436
   29.310    2.6330
   29.340    3.0016
   29.370    2.8436
   29.400    2.4223
   29.430    2.7032
   29.460    2.8436
   29.490    2.5276
   29.520    2.6505
   29.550    2.6505
   29.580    2.7032
   29.610    2.7207
   29.640    2.5276
   29.670    2.5628
   29.700    2.8787
   29.730    2.5452
   29.760    2.5452
   29.790    2.4048
   29.820    2.6681
   29.850    2.4048
   29.880    2.5101
   29.910    2.4574
   29.940    2.4048
   29.970    2.5979
   30.000    2.4750
   30.030    2.5803
   30.060    2.3170
   30.090    2.5452
   30.120    2.4048
   30.150    2.1415
   30.180    2.4925
   30.210    2.3872
   30.240    2.2643
   30.270    2.4925
   30.300    2.5276
   30.330    2.4399
   30.360    2.0888
   30.390    2.2643
   30.420    2.4048
   30.450    2.4223
   30.480    2.4048
   30.510    2.6856
   30.540    2.5979
   30.570    2.5803
   30.600    2.2819
   30.630    2.5628
   30.660    2.5628
   30.690    2.2995
   30.720    2.2643
   30.750    2.7032
   30.780    2.5452
   30.810    2.1064
   30.840    2.2468
   30.870    2.6505
   30.900    2.2819
   30.930    2.3170
   30.960    2.2643
   30.990    2.2995
   31.020    2.4223
   31.050    2.1941
   31.080    2.2292
   31.110    2.1590
   31.140    2.2292
   31.170    2.1766
   31.200    2.4048
   31.230    2.4574
   31.260    2.0888
   31.290    2.1064
   31.320    2.1239
   31.350    2.6154
   31.380    2.1941
   31.410    2.2643
   31.440    2.4574
   31.470    2.3521
   31.500    2.0186
   31.530    2.1064
   31.560    2.4399
   31.590    2.0888
   31.620    2.3521
   31.650    2.4223
   31.680    2.1415
   31.710    2.1590
   31.740    2.3346
   31.770    2.2643
   31.800    2.2995
   31.830    2.3346
   31.860    2.0888
   31.890    2.4048
   31.920    2.5276
   31.950    2.3346
   31.980    2.1590
   32.010    2.3697
   32.040    2.0362
   32.070    2.7909
   32.100    2.4925
   32.130    2.3872
   32.160    2.2819
   32.190    2.1766
   32.220    2.4223
   32.250    2.0011
   32.280    2.2643
   32.310    2.2117
   32.340    1.9133
   32.370    2.1239
   32.400    2.1941
   32.430    2.3346
   32.460    2.3170
   32.490    2.2292
   32.520    2.2995
   32.550    2.1415
   32.580    2.0362
   32.610    2.1766
   32.640    1.9484
   32.670    2.1941
   32.700    2.0888
   32.730    2.0888
   32.760    1.9659
   32.790    2.1239
   32.820    2.0362
   32.850    2.1415
   32.880    2.1239
   32.910    2.1590
   32.940    2.2117
   32.970    2.2468
   33.000    2.1590
   33.030    2.0888
   33.060    1.9659
   33.090    1.8431
   33.120    1.7378
   33.150    2.2292
   33.180    2.1064
   33.210    2.0011
   33.240    2.0362
   33.270    2.0537
   33.300    1.9484
   33.330    2.0362
   33.360    2.0011
   33.390    1.9308
   33.420    2.1064
   33.450    2.0011
   33.480    2.0186
   33.510    1.8606
   33.540    2.2468
   33.570    1.8606
   33.600    1.9659
   33.630    1.5973
   33.660    2.0362
   33.690    2.1064
   33.720    2.0888
   33.750    2.1239
   33.780    2.1415
   33.810    2.0186
   33.840    2.2117
   33.870    1.9133
   33.900    1.8080
   33.930    2.2468
   33.960    2.0011
   33.990    2.0713
   34.020    1.5271
   34.050    2.0888
   34.080    1.7553
   34.110    2.0537
   34.140    2.0888
   34.170    1.8782
   34.200    1.7378
   34.230    1.8431
   34.260    1.8080
   34.290    2.2117
   34.320    2.0186
   34.350    1.9308
   34.380    2.1064
   34.410    1.7553
   34.440    1.8431
   34.470    2.0011
   34.500    2.3170
   34.530    1.7553
   34.560    1.8957
   34.590    1.7378
   34.620    1.9835
   34.650    1.6500
   34.680    2.0537
   34.710    2.1590
   34.740    1.7378
   34.770    1.8782
   34.800    2.1415
   34.830    1.9659
   34.860    1.9659
   34.890    1.7904
   34.920    1.7202
   34.950    2.1064
   34.980    1.9133
   35.010    1.7904
   35.040    1.9484
   35.070    1.8957
   35.100    2.1239
   35.130    1.8606
   35.160    2.0713
   35.190    1.9835
   35.220    1.9484
   35.250    1.8782
   35.280    1.8080
   35.310    2.0011
   35.340    1.7904
   35.370    1.8255
   35.400    1.9484
   35.430    1.8957
   35.460    1.7027
   35.490    1.7027
   35.520    2.0186
   35.550    1.5973
   35.580    1.9308
   35.610    2.1064
   35.640    1.9659
   35.670    1.9308
   35.700    1.8606
   35.730    1.7904
   35.760    2.0011
   35.790    1.9133
   35.820    1.8606
   35.850    1.7027
   35.880    1.8606
   35.910    2.1239
   35.940    1.9835
   35.970    1.5447
   36.000    1.9835
   36.030    1.7904
   36.060    2.0011
   36.090    1.7729
   36.120    1.9484
   36.150    1.9835
   36.180    2.1239
   36.210    1.7904
   36.240    1.8080
   36.270    1.8255
   36.300    1.8080
   36.330    2.1415
   36.360    1.6675
   36.390    1.7729
   36.420    2.0011
   36.450    2.0011
   36.480    1.9484
   36.510    1.7553
   36.540    2.0362
   36.570    1.7553
   36.600    1.7904
   36.630    1.7904
   36.660    1.8080
   36.690    1.7378
   36.720    1.9484
   36.750    1.8957
   36.780    1.9133
   36.810    1.5096
   36.840    2.0537
   36.870    1.7202
   36.900    1.8782
   36.930    1.6675
   36.960    1.8431
   36.990    1.8782
   37.020    2.0713
   37.050    1.8431
   37.080    1.7027
   37.110    2.0537
   37.140    1.8255
   37.170    1.8606
   37.200    1.5622
   37.230    1.5622
   37.260    1.9133
   37.290    1.7904
   37.320    1.7904
   37.350    1.6500
   37.380    1.8782
   37.410    1.5973
   37.440    1.5973
   37.470    1.8957
   37.500    1.7378
   37.530    1.9659
   37.560    1.7904
   37.590    1.8255
   37.620    1.9484
   37.650    2.0888
   37.680    1.4569
   37.710    1.9484
   37.740    1.8431
   37.770    1.8255
   37.800    1.6149
   37.830    1.8782
   37.860    2.0888
   37.890    1.8606
   37.920    1.7553
   37.950    1.5622
   37.980    1.6324
   38.010    1.7729
   38.040    1.8255
   38.070    1.8957
   38.100    1.9133
   38.130    1.9835
   38.160    1.8080
   38.190    2.1590
   38.220    1.7729
   38.250    1.7378
   38.280    1.7378
   38.310    1.6149
   38.340    1.9484
   38.370    1.7202
   38.400    1.8957
   38.430    1.9484
   38.460    1.7027
   38.490    1.6675
   38.520    1.6149
   38.550    1.7553
   38.580    1.7904
   38.610    1.8782
   38.640    1.8606
   38.670    1.8957
   38.700    1.7729
   38.730    1.8080
   38.760    1.5973
   38.790    1.6149
   38.820    1.5622
   38.850    1.8782
   38.880    1.8606
   38.910    1.5798
   38.940    1.7378
   38.970    1.6500
   39.000    1.7553
   39.030    1.7027
   39.060    1.5798
   39.090    1.8957
   39.120    1.7904
   39.150    1.6500
   39.180    1.9484
   39.210    1.5622
   39.240    1.7729
   39.270    1.8255
   39.300    1.7553
   39.330    1.8255
   39.360    1.7729
   39.390    1.5622
   39.420    1.8080
   39.450    1.5622
   39.480    1.6149
   39.510    1.7027
   39.540    1.7904
   39.570    1.7553
   39.600    1.9133
   39.630    1.6324
   39.660    1.6324
   39.690    1.8255
   39.720    1.8782
   39.750    1.6149
   39.780    1.5622
   39.810    1.7378
   39.840    1.7904
   39.870    1.5973
   39.900    1.7027
   39.930    1.4920
   39.960    1.5798
   39.990    1.6500