File: data/MOCOF-1/PXRD/PXRD_KE-294_Cu-Ka1_film-3mm_3s-deg.xyd
    1.500   18.8871
    1.530   18.7994
    1.560   18.2552
    1.590   17.0616
    1.620   17.7988
    1.650   16.7281
    1.680   16.4999
    1.710   16.4473
    1.740   15.3414
    1.770   15.3063
    1.800   15.4643
    1.830   14.2356
    1.860   14.4286
    1.890   13.8318
    1.920   13.4632
    1.950   14.4989
    1.980   13.5685
    2.010   13.6563
    2.040   12.9366
    2.070   13.5510
    2.100   12.6031
    2.130   12.9366
    2.160   12.9893
    2.190   12.9366
    2.220   12.8489
    2.250   12.9015
    2.280   12.0239
    2.310   12.3398
    2.340   12.1643
    2.370   12.6031
    2.400   12.6909
    2.430   12.7084
    2.460   13.4632
    2.490   13.1824
    2.520   13.5334
    2.550   14.0951
    2.580   14.0776
    2.610   14.6393
    2.640   14.9201
    2.670   15.7276
    2.700   15.4467
    2.730   16.5877
    2.760   17.7111
    2.790   19.7648
    2.820   19.6419
    2.850   21.8361
    2.880   23.1701
    2.910   23.9775
    2.940   26.7509
    2.970   29.8754
    3.000   32.5610
    3.030   37.0721
    3.060   42.6540
    3.090   49.9737
    3.120   57.2055
    3.150   61.6289
    3.180   61.6465
    3.210   51.7465
    3.240   39.0732
    3.270   28.8397
    3.300   23.7844
    3.330   22.1169
    3.360   21.1164
    3.390   22.3451
    3.420   23.5036
    3.450   23.1525
    3.480   25.4871
    3.510   27.3126
    3.540   29.4365
    3.570   33.0174
    3.600   36.8966
    3.630   41.7764
    3.660   45.0588
    3.690   51.1673
    3.720   60.5582
    3.750   79.1996
    3.780   80.6214
    3.810   62.6470
    3.840   33.6142
    3.870   23.8020
    3.900   20.2914
    3.930   18.5361
    3.960   16.1664
    3.990   14.3935
    4.020   12.8313
    4.050   12.2521
    4.080   11.1638
    4.110   10.6372
    4.140    9.5489
    4.170    9.4260
    4.200    9.9702
    4.230    9.4962
    4.260    9.5664
    4.290    9.1101
    4.320    9.0574
    4.350    8.3377
    4.380    8.9872
    4.410    8.8292
    4.440    9.5840
    4.470    8.7941
    4.500    9.5489
    4.530    9.0574
    4.560    8.1271
    4.590    8.7590
    4.620    9.4260
    4.650    8.4255
    4.680    9.1978
    4.710    9.2154
    4.740    8.6888
    4.770    8.9345
    4.800    8.5835
    4.830    8.8292
    4.860    8.7590
    4.890    9.3382
    4.920    9.0925
    4.950    9.5664
    4.980    9.3031
    5.010    9.7244
    5.040    9.8999
    5.070    9.6015
    5.100   10.8829
    5.130   10.6723
    5.160   10.9005
    5.190   11.8132
    5.220   12.8489
    5.250   13.4457
    5.280   14.8675
    5.310   16.9914
    5.340   20.4143
    5.370   22.4504
    5.400   18.0095
    5.430   12.8313
    5.460   10.6372
    5.490   11.0233
    5.520   10.3212
    5.550   10.9356
    5.580   10.7074
    5.610   10.4968
    5.640   10.4265
    5.670   10.2159
    5.700   10.1632
    5.730    9.6718
    5.760   10.3739
    5.790    9.1627
    5.820    8.8819
    5.850    9.8824
    5.880    8.5308
    5.910    9.1101
    5.940    8.8994
    5.970    8.3904
    6.000    9.2856
    6.030    9.3207
    6.060    8.7414
    6.090    8.5133
    6.120    9.0223
    6.150    8.7414
    6.180    9.0398
    6.210    9.8122
    6.240   10.5143
    6.270   11.0936
    6.300   12.1994
    6.330   13.5510
    6.360   14.5866
    6.390   15.2010
    6.420   14.1302
    6.450   13.3930
    6.480   11.3042
    6.510   11.3393
    6.540   11.4973
    6.570   13.0595
    6.600   11.5850
    6.630    9.4787
    6.660    8.7414
    6.690    7.7936
    6.720    7.7936
    6.750    7.5478
    6.780    7.4250
    6.810    7.3021
    6.840    7.5303
    6.870    7.3021
    6.900    7.0915
    6.930    7.4776
    6.960    7.2319
    6.990    7.2143
    7.020    7.3372
    7.050    7.6005
    7.080    7.8462
    7.110    7.3547
    7.140    7.6356
    7.170    7.7585
    7.200    7.5478
    7.230    6.9159
    7.260    7.7760
    7.290    8.1797
    7.320    7.8462
    7.350    7.6707
    7.380    8.2851
    7.410    8.0920
    7.440    7.7409
    7.470    8.5308
    7.500    8.9521
    7.530    9.3031
    7.560    8.8292
    7.590   10.2686
    7.620   10.3212
    7.650    9.3558
    7.680    8.7414
    7.710    7.9691
    7.740    8.0920
    7.770    7.7058
    7.800    6.8808
    7.830    6.9861
    7.860    6.7228
    7.890    7.0388
    7.920    6.3016
    7.950    7.0388
    7.980    6.7930
    8.010    6.5122
    8.040    6.4244
    8.070    6.4771
    8.100    6.2665
    8.130    5.4941
    8.160    6.2840
    8.190    5.7925
    8.220    5.9329
    8.250    5.9154
    8.280    5.4766
    8.310    5.9681
    8.340    5.5117
    8.370    6.0558
    8.400    5.1782
    8.430    6.1787
    8.460    6.1436
    8.490    7.1617
    8.520    7.1090
    8.550    7.1266
    8.580    6.1436
    8.610    5.6345
    8.640    5.6521
    8.670    5.8101
    8.700    5.6170
    8.730    5.7750
    8.760    5.7223
    8.790    5.1431
    8.820    5.4941
    8.850    5.5292
    8.880    5.5643
    8.910    5.6521
    8.940    5.5117
    8.970    5.5468
    9.000    5.2835
    9.030    5.6170
    9.060    5.5819
    9.090    5.7750
    9.120    5.1431
    9.150    5.7750
    9.180    5.4064
    9.210    5.6697
    9.240    6.1611
    9.270    6.1260
    9.300    6.9159
    9.330    8.0393
    9.360    8.3728
    9.390    6.2665
    9.420    5.3361
    9.450    4.9324
    9.480    5.2133
    9.510    5.4590
    9.540    5.4415
    9.570    5.9154
    9.600    5.2835
    9.630    5.5468
    9.660    5.3888
    9.690    5.3537
    9.720    5.5819
    9.750    5.6697
    9.780    5.7223
    9.810    5.7399
    9.840    5.2835
    9.870    5.7048
    9.900    5.8276
    9.930    5.8276
    9.960    5.9856
    9.990    5.9505
   10.020    6.8106
   10.050    7.5654
   10.080    8.7941
   10.110    9.2329
   10.140    6.9510
   10.170    6.0558
   10.200    5.4415
   10.230    5.7048
   10.260    5.4415
   10.290    5.8627
   10.320    5.4941
   10.350    5.5994
   10.380    5.8101
   10.410    5.8803
   10.440    5.8803
   10.470    5.7574
   10.500    5.5643
   10.530    5.5819
   10.560    6.0558
   10.590    5.3010
   10.620    5.2835
   10.650    5.7223
   10.680    6.2489
   10.710    6.5824
   10.740    7.1792
   10.770    7.8638
   10.800    7.6005
   10.830    7.1090
   10.860    6.0383
   10.890    5.7925
   10.920    5.7925
   10.950    5.7048
   10.980    5.6697
   11.010    5.9329
   11.040    5.7750
   11.070    5.5292
   11.100    5.3186
   11.130    5.4941
   11.160    5.5994
   11.190    5.6697
   11.220    6.2138
   11.250    5.5994
   11.280    5.9505
   11.310    5.5292
   11.340    6.3542
   11.370    6.1787
   11.400    5.8276
   11.430    6.4595
   11.460    6.8633
   11.490    6.0734
   11.520    5.9329
   11.550    6.1260
   11.580    5.5468
   11.610    5.4415
   11.640    5.1782
   11.670    5.5117
   11.700    5.4239
   11.730    5.6697
   11.760    5.6345
   11.790    5.2133
   11.820    5.4590
   11.850    5.6521
   11.880    5.2133
   11.910    5.5292
   11.940    5.2835
   11.970    5.6521
   12.000    6.1436
   12.030    5.6872
   12.060    6.1436
   12.090    5.7574
   12.120    6.1260
   12.150    5.5292
   12.180    5.3186
   12.210    5.4415
   12.240    5.4064
   12.270    5.7574
   12.300    5.2835
   12.330    5.1957
   12.360    5.4239
   12.390    5.5117
   12.420    5.5643
   12.450    5.7223
   12.480    5.7048
   12.510    5.4064
   12.540    5.6872
   12.570    5.1606
   12.600    5.5292
   12.630    6.1260
   12.660    6.4595
   12.690    6.5473
   12.720    6.0909
   12.750    5.4590
   12.780    5.3361
   12.810    4.9149
   12.840    5.5819
   12.870    5.1782
   12.900    5.3186
   12.930    5.3712
   12.960    5.0553
   12.990    5.8452
   13.020    4.9851
   13.050    5.3010
   13.080    5.6170
   13.110    5.0904
   13.140    5.6521
   13.170    5.1080
   13.200    5.4766
   13.230    5.5468
   13.260    5.5994
   13.290    4.9675
   13.320    5.0904
   13.350    5.2659
   13.380    5.7399
   13.410    4.9500
   13.440    5.5994
   13.470    5.0728
   13.500    5.5643
   13.530    5.4590
   13.560    4.9500
   13.590    5.3888
   13.620    5.3712
   13.650    5.3186
   13.680    5.2835
   13.710    5.3888
   13.740    6.2840
   13.770    6.9159
   13.800    7.7058
   13.830    7.3372
   13.860    6.3893
   13.890    5.4239
   13.920    5.4239
   13.950    5.5468
   13.980    5.6345
   14.010    5.5117
   14.040    5.1255
   14.070    5.2835
   14.100    5.2835
   14.130    5.3888
   14.160    5.4766
   14.190    5.8978
   14.220    5.5468
   14.250    5.3888
   14.280    5.3888
   14.310    5.8978
   14.340    5.9681
   14.370    5.7223
   14.400    5.6872
   14.430    5.9681
   14.460    6.2313
   14.490    5.4064
   14.520    5.8978
   14.550    5.2835
   14.580    5.7750
   14.610    5.4941
   14.640    5.6697
   14.670    5.4415
   14.700    5.5117
   14.730    5.5994
   14.760    5.8101
   14.790    6.0032
   14.820    6.0734
   14.850    6.2313
   14.880    5.6170
   14.910    5.5819
   14.940    5.2484
   14.970    5.3361
   15.000    4.9149
   15.030    5.8276
   15.060    5.4064
   15.090    5.3010
   15.120    5.4239
   15.150    5.1431
   15.180    5.4590
   15.210    5.2484
   15.240    4.7920
   15.270    5.2659
   15.300    5.5468
   15.330    5.1431
   15.360    5.0728
   15.390    5.5117
   15.420    5.2835
   15.450    5.0377
   15.480    5.0202
   15.510    5.0728
   15.540    4.5814
   15.570    5.1255
   15.600    5.0553
   15.630    5.0904
   15.660    5.1606
   15.690    5.1255
   15.720    5.5994
   15.750    5.2133
   15.780    5.7223
   15.810    5.6872
   15.840    5.6521
   15.870    5.8803
   15.900    5.1431
   15.930    4.4585
   15.960    5.2308
   15.990    5.3010
   16.020    5.7223
   16.050    5.4415
   16.080    5.2484
   16.110    5.2659
   16.140    5.0904
   16.170    4.6516
   16.200    5.3888
   16.230    5.1782
   16.260    5.3186
   16.290    5.0728
   16.320    5.3010
   16.350    5.1606
   16.380    5.0728
   16.410    4.9324
   16.440    5.3712
   16.470    5.0728
   16.500    5.2133
   16.530    5.0026
   16.560    5.2133
   16.590    5.1782
   16.620    4.9500
   16.650    5.5468
   16.680    5.1255
   16.710    5.7574
   16.740    5.5994
   16.770    5.0377
   16.800    4.6340
   16.830    4.8271
   16.860    5.0026
   16.890    5.1255
   16.920    4.6867
   16.950    4.6691
   16.980    5.2484
   17.010    5.0377
   17.040    4.7569
   17.070    5.1957
   17.100    5.2133
   17.130    5.1957
   17.160    5.4415
   17.190    5.4941
   17.220    5.2835
   17.250    4.9675
   17.280    5.0904
   17.310    5.1782
   17.340    5.1255
   17.370    5.3537
   17.400    4.9149
   17.430    4.9324
   17.460    5.0377
   17.490    4.9675
   17.520    4.7920
   17.550    4.9500
   17.580    5.3361
   17.610    5.1080
   17.640    5.2835
   17.670    5.1255
   17.700    5.0904
   17.730    4.6516
   17.760    4.3356
   17.790    4.9500
   17.820    5.0202
   17.850    5.2835
   17.880    4.3883
   17.910    5.1782
   17.940    4.7569
   17.970    5.1431
   18.000    5.1782
   18.030    5.2133
   18.060    4.8973
   18.090    5.1080
   18.120    5.1782
   18.150    4.8622
   18.180    5.3888
   18.210    5.0026
   18.240    4.9500
   18.270    5.0377
   18.300    4.8095
   18.330    4.7744
   18.360    4.9149
   18.390    5.0377
   18.420    5.5468
   18.450    5.0026
   18.480    4.8973
   18.510    5.3888
   18.540    4.7218
   18.570    4.6867
   18.600    4.8798
   18.630    4.7920
   18.660    4.8798
   18.690    5.2308
   18.720    5.1782
   18.750    4.8798
   18.780    4.8798
   18.810    5.1431
   18.840    4.9149
   18.870    5.0026
   18.900    4.8973
   18.930    4.8973
   18.960    5.3361
   18.990    6.0032
   19.020    5.5117
   19.050    5.0553
   19.080    5.0553
   19.110    4.8798
   19.140    4.8798
   19.170    5.1255
   19.200    5.2835
   19.230    5.0904
   19.260    5.1255
   19.290    5.0026
   19.320    5.2308
   19.350    5.0904
   19.380    4.7042
   19.410    4.8622
   19.440    4.8798
   19.470    4.7042
   19.500    5.0202
   19.530    4.8798
   19.560    4.9675
   19.590    4.6340
   19.620    4.5287
   19.650    4.6516
   19.680    5.0377
   19.710    5.0553
   19.740    4.9149
   19.770    5.0553
   19.800    5.2133
   19.830    4.5463
   19.860    4.6516
   19.890    4.8622
   19.920    5.5819
   19.950    5.7925
   19.980    5.6345
   20.010    5.4590
   20.040    4.7920
   20.070    4.5638
   20.100    4.6340
   20.130    4.8798
   20.160    4.4409
   20.190    4.3356
   20.220    4.7744
   20.250    5.2659
   20.280    5.0026
   20.310    5.1606
   20.340    4.8973
   20.370    4.6165
   20.400    4.7218
   20.430    4.2654
   20.460    4.7042
   20.490    4.4234
   20.520    5.1080
   20.550    4.9500
   20.580    5.4064
   20.610    5.0553
   20.640    5.1431
   20.670    4.8271
   20.700    5.0202
   20.730    5.0377
   20.760    4.4936
   20.790    5.0377
   20.820    4.6165
   20.850    4.9149
   20.880    4.7920
   20.910    4.6691
   20.940    4.9500
   20.970    4.5989
   21.000    4.5463
   21.030    4.9149
   21.060    5.5292
   21.090    4.6691
   21.120    4.8095
   21.150    4.6165
   21.180    4.5989
   21.210    5.0202
   21.240    4.3883
   21.270    4.6867
   21.300    4.6165
   21.330    4.6516
   21.360    5.4766
   21.390    4.8271
   21.420    5.4064
   21.450    4.7042
   21.480    4.9324
   21.510    4.6691
   21.540    4.7042
   21.570    4.5287
   21.600    4.3883
   21.630    4.7744
   21.660    5.1957
   21.690    4.3356
   21.720    4.8622
   21.750    5.0026
   21.780    5.0728
   21.810    4.9324
   21.840    5.3010
   21.870    4.8798
   21.900    4.6165
   21.930    4.5111
   21.960    4.7042
   21.990    4.8447
   22.020    5.0904
   22.050    4.7920
   22.080    4.8447
   22.110    5.4415
   22.140    4.7920
   22.170    4.4409
   22.200    4.9500
   22.230    4.9851
   22.260    4.4760
   22.290    4.5463
   22.320    5.0377
   22.350    4.8447
   22.380    5.3010
   22.410    5.2835
   22.440    5.2133
   22.470    4.5287
   22.500    5.0377
   22.530    4.5814
   22.560    5.0377
   22.590    4.5463
   22.620    4.5111
   22.650    4.3883
   22.680    4.1601
   22.710    4.5287
   22.740    4.7218
   22.770    4.9500
   22.800    3.8792
   22.830    4.3005
   22.860    4.6340
   22.890    4.3532
   22.920    4.3356
   22.950    4.5111
   22.980    4.9149
   23.010    3.9846
   23.040    4.4936
   23.070    4.7920
   23.100    4.0372
   23.130    4.2303
   23.160    4.3883
   23.190    4.5463
   23.220    4.4234
   23.250    4.5638
   23.280    4.5287
   23.310    4.3883
   23.340    4.2303
   23.370    4.7920
   23.400    4.6165
   23.430    4.8973
   23.460    4.8447
   23.490    4.3532
   23.520    4.0723
   23.550    4.7393
   23.580    4.5814
   23.610    4.2478
   23.640    4.8271
   23.670    4.4409
   23.700    4.4409
   23.730    4.2830
   23.760    4.2654
   23.790    4.2303
   23.820    4.4936
   23.850    4.5638
   23.880    4.7393
   23.910    4.4058
   23.940    3.7564
   23.970    4.1776
   24.000    4.0197
   24.030    4.3883
   24.060    4.1074
   24.090    4.3356
   24.120    4.4585
   24.150    4.6165
   24.180    4.1952
   24.210    4.1776
   24.240    4.5814
   24.270    4.3883
   24.300    4.6340
   24.330    4.4234
   24.360    4.4409
   24.390    4.2303
   24.420    4.1425
   24.450    4.3532
   24.480    4.0723
   24.510    4.2830
   24.540    4.1601
   24.570    4.6165
   24.600    4.3356
   24.630    4.0899
   24.660    3.9143
   24.690    4.5638
   24.720    3.7739
   24.750    4.0548
   24.780    4.4409
   24.810    3.8266
   24.840    4.2303
   24.870    4.0021
   24.900    4.4058
   24.930    3.8792
   24.960    4.1074
   24.990    3.9494
   25.020    4.7744
   25.050    4.1601
   25.080    4.0723
   25.110    4.1776
   25.140    3.7388
   25.170    3.9846
   25.200    4.4058
   25.230    4.2303
   25.260    4.7744
   25.290    4.9149
   25.320    4.4760
   25.350    4.1074
   25.380    4.0021
   25.410    4.1074
   25.440    3.9143
   25.470    4.3532
   25.500    4.3356
   25.530    3.9670
   25.560    3.9846
   25.590    3.5106
   25.620    4.2478
   25.650    3.8266
   25.680    3.8792
   25.710    4.2830
   25.740    4.2127
   25.770    4.0899
   25.800    3.8968
   25.830    3.8792
   25.860    4.4234
   25.890    4.4585
   25.920    3.7388
   25.950    3.8266
   25.980    3.9494
   26.010    4.1425
   26.040    3.7388
   26.070    3.8090
   26.100    3.9143
   26.130    3.8266
   26.160    3.7915
   26.190    3.5457
   26.220    3.9319
   26.250    3.6862
   26.280    4.4936
   26.310    3.6862
   26.340    3.7915
   26.370    4.2478
   26.400    3.8792
   26.430    3.8266
   26.460    4.0372
   26.490    4.0723
   26.520    3.8617
   26.550    3.7388
   26.580    3.5457
   26.610    3.9319
   26.640    3.9670
   26.670    3.9494
   26.700    4.1425
   26.730    4.0899
   26.760    3.5106
   26.790    3.6862
   26.820    3.8266
   26.850    3.6862
   26.880    3.5633
   26.910    3.6862
   26.940    3.6686
   26.970    3.7213
   27.000    4.0197
   27.030    3.9143
   27.060    3.9494
   27.090    3.4755
   27.120    3.9846
   27.150    3.4931
   27.180    3.7388
   27.210    4.0021
   27.240    4.0372
   27.270    3.7037
   27.300    3.6159
   27.330    3.5984
   27.360    3.6335
   27.390    3.7564
   27.420    3.4053
   27.450    3.7388
   27.480    3.6510
   27.510    3.5808
   27.540    3.4229
   27.570    3.6862
   27.600    3.7213
   27.630    3.7213
   27.660    3.8266
   27.690    3.8266
   27.720    3.3877
   27.750    3.3877
   27.780    3.6686
   27.810    3.8441
   27.840    3.6510
   27.870    3.8617
   27.900    3.6335
   27.930    3.4755
   27.960    3.5808
   27.990    3.7037
   28.020    3.5808
   28.050    3.5808
   28.080    3.4229
   28.110    3.6510
   28.140    3.4580
   28.170    3.4229
   28.200    3.8617
   28.230    3.5808
   28.260    3.4404
   28.290    3.6686
   28.320    3.2122
   28.350    3.5808
   28.380    3.5633
   28.410    3.7388
   28.440    3.4229
   28.470    3.6862
   28.500    3.3000
   28.530    3.9494
   28.560    3.4404
   28.590    3.7739
   28.620    3.8090
   28.650    3.9494
   28.680    3.8792
   28.710    3.8968
   28.740    4.1601
   28.770    3.5633
   28.800    3.8090
   28.830    3.2649
   28.860    3.4580
   28.890    3.3877
   28.920    3.5106
   28.950    3.6159
   28.980    3.8792
   29.010    3.5633
   29.040    3.6510
   29.070    3.7213
   29.100    3.6862
   29.130    3.3877
   29.160    3.6686
   29.190    3.6686
   29.220    3.5282
   29.250    3.4580
   29.280    3.3526
   29.310    3.4931
   29.340    3.9143
   29.370    3.6510
   29.400    3.6159
   29.430    3.1420
   29.460    3.0367
   29.490    3.7213
   29.520    3.0016
   29.550    3.5633
   29.580    3.0016
   29.610    3.3526
   29.640    3.3000
   29.670    3.1771
   29.700    3.2298
   29.730    3.1069
   29.760    3.0542
   29.790    3.7037
   29.820    3.1069
   29.850    3.2298
   29.880    2.8085
   29.910    3.4053
   29.940    3.3526
   29.970    3.3175
   30.000    3.0542
   30.030    3.2824
   30.060    3.0893
   30.090    2.8436
   30.120    3.3351
   30.150    2.9138
   30.180    3.4229
   30.210    3.1069
   30.240    3.3702
   30.270    3.1771
   30.300    3.2122
   30.330    3.5457
   30.360    3.2473
   30.390    3.1947
   30.420    3.0893
   30.450    2.9138
   30.480    3.3877
   30.510    3.2473
   30.540    3.3175
   30.570    3.5633
   30.600    3.1245
   30.630    3.1947
   30.660    2.9314
   30.690    3.1245
   30.720    3.1069
   30.750    3.0542
   30.780    3.3000
   30.810    3.2122
   30.840    3.3000
   30.870    3.2824
   30.900    2.9665
   30.930    3.2473
   30.960    3.2298
   30.990    2.9314
   31.020    3.0718
   31.050    3.0191
   31.080    3.1420
   31.110    3.0542
   31.140    2.8612
   31.170    3.2473
   31.200    2.8963
   31.230    3.3351
   31.260    3.0893
   31.290    3.4931
   31.320    2.9138
   31.350    2.9138
   31.380    2.9138
   31.410    2.8436
   31.440    2.5101
   31.470    2.9665
   31.500    3.3877
   31.530    2.8436
   31.560    2.8612
   31.590    2.7734
   31.620    2.7558
   31.650    2.8085
   31.680    3.2298
   31.710    3.1420
   31.740    2.7383
   31.770    3.4580
   31.800    3.3000
   31.830    2.6681
   31.860    3.0191
   31.890    2.7734
   31.920    2.9665
   31.950    3.0542
   31.980    2.8787
   32.010    2.8787
   32.040    3.5808
   32.070    3.7739
   32.100    4.2127
   32.130    4.0197
   32.160    3.2298
   32.190    3.2824
   32.220    2.9665
   32.250    3.0542
   32.280    2.7909
   32.310    3.2649
   32.340    2.8612
   32.370    3.0893
   32.400    2.8963
   32.430    3.0893
   32.460    2.8085
   32.490    2.8787
   32.520    3.1947
   32.550    2.8612
   32.580    2.9489
   32.610    2.7383
   32.640    2.8787
   32.670    3.1596
   32.700    3.0893
   32.730    3.2649
   32.760    2.8085
   32.790    3.0718
   32.820    2.7383
   32.850    3.0542
   32.880    2.5803
   32.910    3.0367
   32.940    2.9138
   32.970    2.7207
   33.000    2.7032
   33.030    2.8436
   33.060    2.3697
   33.090    2.5628
   33.120    2.8436
   33.150    2.8260
   33.180    2.5452
   33.210    3.1069
   33.240    2.7909
   33.270    2.5803
   33.300    2.7558
   33.330    2.7207
   33.360    2.8436
   33.390    2.7734
   33.420    2.3697
   33.450    2.8612
   33.480    2.6154
   33.510    2.5276
   33.540    2.5101
   33.570    2.9840
   33.600    2.7383
   33.630    2.5101
   33.660    3.0016
   33.690    2.6681
   33.720    2.9138
   33.750    3.1771
   33.780    2.7207
   33.810    2.9138
   33.840    3.2649
   33.870    2.7558
   33.900    2.5628
   33.930    2.4399
   33.960    2.8963
   33.990    2.8963
   34.020    2.7383
   34.050    2.8436
   34.080    2.6330
   34.110    2.9314
   34.140    2.8612
   34.170    2.5628
   34.200    2.6681
   34.230    2.8260
   34.260    2.7909
   34.290    2.8612
   34.320    2.3521
   34.350    2.8963
   34.380    2.4925
   34.410    2.6681
   34.440    2.8787
   34.470    2.7207
   34.500    2.7734
   34.530    2.3872
   34.560    2.9138
   34.590    2.7383
   34.620    2.8436
   34.650    2.7909
   34.680    2.7207
   34.710    2.6681
   34.740    2.7383
   34.770    2.6505
   34.800    2.6154
   34.830    2.8260
   34.860    2.6330
   34.890    2.6154
   34.920    3.0367
   34.950    2.7207
   34.980    2.6330
   35.010    2.3872
   35.040    2.4574
   35.070    2.3872
   35.100    2.5628
   35.130    2.6154
   35.160    2.4223
   35.190    2.6330
   35.220    2.2643
   35.250    2.5276
   35.280    2.3346
   35.310    2.6330
   35.340    2.5803
   35.370    2.9840
   35.400    2.6505
   35.430    2.7734
   35.460    2.7032
   35.490    2.8260
   35.520    2.7383
   35.550    2.7032
   35.580    2.7558
   35.610    2.3872
   35.640    2.6681
   35.670    2.8963
   35.700    2.6856
   35.730    2.7032
   35.760    2.9314
   35.790    2.4399
   35.820    2.8260
   35.850    2.7909
   35.880    2.5979
   35.910    2.4223
   35.940    2.7032
   35.970    3.0718
   36.000    2.4048
   36.030    2.6856
   36.060    2.6154
   36.090    2.7032
   36.120    2.7383
   36.150    2.7558
   36.180    2.8260
   36.210    3.1245
   36.240    2.7734
   36.270    2.6154
   36.300    2.7558
   36.330    2.4048
   36.360    2.8963
   36.390    2.7383
   36.420    2.6330
   36.450    2.7207
   36.480    2.8260
   36.510    2.6856
   36.540    2.6681
   36.570    2.7558
   36.600    2.5803
   36.630    2.5276
   36.660    2.6505
   36.690    2.7032
   36.720    2.2995
   36.750    2.6154
   36.780    2.5276
   36.810    2.7207
   36.840    2.8612
   36.870    2.6505
   36.900    2.4223
   36.930    2.4399
   36.960    2.7558
   36.990    2.6856
   37.020    2.3346
   37.050    2.6154
   37.080    2.4574
   37.110    2.5628
   37.140    2.9138
   37.170    2.8436
   37.200    2.8787
   37.230    2.5979
   37.260    2.3346
   37.290    2.4750
   37.320    2.5101
   37.350    2.6330
   37.380    2.7383
   37.410    2.5101
   37.440    2.6856
   37.470    2.4750
   37.500    2.6154
   37.530    2.5101
   37.560    2.4750
   37.590    2.6154
   37.620    2.2643
   37.650    2.4574
   37.680    2.9665
   37.710    2.8260
   37.740    2.9489
   37.770    2.6505
   37.800    2.2468
   37.830    2.8787
   37.860    2.4223
   37.890    2.2819
   37.920    2.1064
   37.950    2.7734
   37.980    2.4925
   38.010    2.6154
   38.040    2.5101
   38.070    2.2292
   38.100    2.7032
   38.130    2.4750
   38.160    2.5276
   38.190    2.9138
   38.220    2.5628
   38.250    2.4574
   38.280    2.4925
   38.310    2.4925
   38.340    2.6505
   38.370    2.7909
   38.400    2.3872
   38.430    2.5979
   38.460    2.5979
   38.490    2.6330
   38.520    2.1415
   38.550    2.7383
   38.580    2.8612
   38.610    3.1420
   38.640    2.7383
   38.670    2.5628
   38.700    2.4399
   38.730    2.6330
   38.760    2.4399
   38.790    2.2292
   38.820    2.3170
   38.850    2.5628
   38.880    2.5628
   38.910    2.5979
   38.940    2.5979
   38.970    2.1239
   39.000    2.8085
   39.030    2.9489
   39.060    2.3697
   39.090    2.5628
   39.120    2.4750
   39.150    2.4399
   39.180    2.4223
   39.210    2.2995
   39.240    2.8787
   39.270    2.4925
   39.300    2.5979
   39.330    2.2819
   39.360    2.5628
   39.390    2.7558
   39.420    2.5452
   39.450    2.2117
   39.480    2.1415
   39.510    2.8436
   39.540    2.6505
   39.570    2.4574
   39.600    2.8085
   39.630    2.7383
   39.660    2.1941
   39.690    2.5452
   39.720    2.4574
   39.750    2.3697
   39.780    2.5628
   39.810    2.3346
   39.840    2.6154
   39.870    2.4048
   39.900    2.5979
   39.930    2.3872
   39.960    2.4750
   39.990    2.3872