File: data/MOCOF-1/PXRD/PXRD_KE-282-2_Cu-Ka1_capillary-1mm_3s-deg.xyd
    1.500   21.2217
    1.530   21.1515
    1.560   19.6244
    1.590   19.0276
    1.620   17.7988
    1.650   17.4829
    1.680   17.3600
    1.710   16.4648
    1.740   15.6925
    1.770   14.6393
    1.800   15.1483
    1.830   14.9903
    1.860   13.6212
    1.890   13.6212
    1.920   13.1999
    1.950   13.6739
    1.980   12.0239
    2.010   12.2521
    2.040   12.1994
    2.070   10.9180
    2.100   11.1638
    2.130   11.4095
    2.160   11.1989
    2.190   10.7600
    2.220   10.4616
    2.250    9.9702
    2.280   10.4441
    2.310   10.2861
    2.340    9.0047
    2.370    9.6191
    2.400    9.6191
    2.430    9.9351
    2.460    9.6191
    2.490    8.7765
    2.520    9.2856
    2.550    8.8819
    2.580    8.9170
    2.610    8.9696
    2.640    8.5659
    2.670    8.8292
    2.700    8.9696
    2.730    8.6712
    2.760    9.0925
    2.790    8.5484
    2.820    8.0042
    2.850    8.5659
    2.880    8.3026
    2.910    8.3904
    2.940    8.0744
    2.970    8.0920
    3.000    8.2500
    3.030    8.7063
    3.060    8.4606
    3.090    8.1095
    3.120    8.6010
    3.150    9.1978
    3.180    8.6361
    3.210    9.1978
    3.240    9.4787
    3.270    9.3909
    3.300    9.8999
    3.330   10.7249
    3.360   10.3739
    3.390   12.0239
    3.420   11.8834
    3.450   12.5154
    3.480   13.9372
    3.510   14.3760
    3.540   15.3590
    3.570   16.3419
    3.600   18.3956
    3.630   21.6605
    3.660   23.5738
    3.690   26.4174
    3.720   30.6653
    3.750   34.8253
    3.780   41.8641
    3.810   48.3588
    3.840   54.2391
    3.870   48.4290
    3.900   37.2652
    3.930   24.0477
    3.960   16.4824
    3.990   13.0595
    4.020   10.7952
    4.050   10.1106
    4.080    9.3382
    4.110    9.0925
    4.140    8.2324
    4.170    7.9164
    4.200    8.8819
    4.230    7.6707
    4.260    7.5478
    4.290    7.3196
    4.320    7.3021
    4.350    7.3723
    4.380    7.7585
    4.410    7.0388
    4.440    6.8106
    4.470    7.3021
    4.500    7.2319
    4.530    7.2670
    4.560    7.0388
    4.590    6.6877
    4.620    7.2494
    4.650    6.7053
    4.680    6.8984
    4.710    6.7930
    4.740    6.4069
    4.770    6.8457
    4.800    6.4244
    4.830    6.5298
    4.860    7.0563
    4.890    6.9861
    4.920    6.6877
    4.950    6.8808
    4.980    7.1441
    5.010    6.8282
    5.040    7.0563
    5.070    6.7930
    5.100    7.3547
    5.130    7.7058
    5.160    8.4781
    5.190    8.6361
    5.220    9.5489
    5.250    9.8122
    5.280   10.9005
    5.310   11.6202
    5.340   12.2696
    5.370   14.4111
    5.400   16.9914
    5.430   17.5707
    5.460   20.3265
    5.490   19.7648
    5.520   16.8334
    5.550   11.9712
    5.580   10.4441
    5.610    7.7936
    5.640    7.2494
    5.670    7.3196
    5.700    6.7228
    5.730    6.9335
    5.760    6.7930
    5.790    6.8457
    5.820    6.6351
    5.850    6.4595
    5.880    6.3542
    5.910    6.2840
    5.940    6.9335
    5.970    6.3718
    6.000    5.9329
    6.030    6.8106
    6.060    6.2665
    6.090    6.6351
    6.120    7.1090
    6.150    6.3016
    6.180    6.6877
    6.210    6.7930
    6.240    6.6877
    6.270    6.2840
    6.300    6.0032
    6.330    6.3191
    6.360    6.5473
    6.390    6.7404
    6.420    6.6702
    6.450    6.9159
    6.480    6.8457
    6.510    7.6005
    6.540    7.4250
    6.570    7.7760
    6.600    8.1446
    6.630    8.5308
    6.660    8.9872
    6.690    9.7771
    6.720   10.4441
    6.750   10.3037
    6.780    8.9345
    6.810    7.6180
    6.840    7.5478
    6.870    6.3367
    6.900    6.4771
    6.930    7.2494
    6.960    6.7579
    6.990    6.5298
    7.020    6.0734
    7.050    6.9335
    7.080    6.8282
    7.110    6.4244
    7.140    6.4069
    7.170    6.7579
    7.200    6.6175
    7.230    6.5473
    7.260    7.0212
    7.290    6.5298
    7.320    6.4420
    7.350    6.2665
    7.380    6.0032
    7.410    6.8282
    7.440    6.3893
    7.470    6.8457
    7.500    6.8282
    7.530    6.8808
    7.560    6.7404
    7.590    6.7053
    7.620    7.1617
    7.650    7.6883
    7.680    7.3021
    7.710    8.6186
    7.740    8.9872
    7.770    8.5133
    7.800    8.9170
    7.830    7.9340
    7.860    6.9510
    7.890    7.1441
    7.920    6.9159
    7.950    6.7930
    7.980    6.4420
    8.010    7.1968
    8.040    6.9510
    8.070    6.3542
    8.100    6.7755
    8.130    7.1968
    8.160    6.7053
    8.190    6.6702
    8.220    7.3196
    8.250    6.3718
    8.280    6.5824
    8.310    6.6000
    8.340    6.9861
    8.370    7.0212
    8.400    6.4595
    8.430    6.8282
    8.460    6.9510
    8.490    7.2494
    8.520    7.3196
    8.550    6.9335
    8.580    6.8282
    8.610    6.6351
    8.640    6.7930
    8.670    7.7409
    8.700    7.3899
    8.730    7.0739
    8.760    7.0037
    8.790    7.2670
    8.820    6.6000
    8.850    6.9335
    8.880    7.3372
    8.910    6.5649
    8.940    6.9159
    8.970    7.3372
    9.000    6.9861
    9.030    6.8457
    9.060    7.2143
    9.090    7.0563
    9.120    6.6000
    9.150    7.0563
    9.180    7.3723
    9.210    7.0563
    9.240    7.3196
    9.270    7.2143
    9.300    7.9867
    9.330    7.6883
    9.360    8.1095
    9.390    8.7941
    9.420    8.9696
    9.450    8.9170
    9.480    9.9351
    9.510   11.7255
    9.540   11.5850
    9.570   11.5499
    9.600   10.1106
    9.630    9.2856
    9.660    8.1446
    9.690    7.2319
    9.720    6.7930
    9.750    7.4074
    9.780    7.0212
    9.810    7.2845
    9.840    7.5478
    9.870    7.9164
    9.900    7.3723
    9.930    6.8633
    9.960    7.1792
    9.990    7.1266
   10.020    7.1968
   10.050    6.9861
   10.080    7.1441
   10.110    8.0042
   10.140    7.9340
   10.170    7.4952
   10.200    8.4781
   10.230    8.3026
   10.260    8.3904
   10.290    8.7765
   10.320    9.4962
   10.350    8.9521
   10.380    8.1622
   10.410    7.7585
   10.440    7.4425
   10.470    7.2319
   10.500    7.1968
   10.530    6.6526
   10.560    7.2319
   10.590    7.2494
   10.620    6.7755
   10.650    6.6351
   10.680    6.5649
   10.710    7.7936
   10.740    7.1090
   10.770    6.6351
   10.800    7.3547
   10.830    7.1090
   10.860    7.3723
   10.890    6.6877
   10.920    6.4420
   10.950    7.5478
   10.980    8.0393
   11.010    8.4781
   11.040    8.3728
   11.070    7.7409
   11.100    7.7760
   11.130    6.7228
   11.160    6.9335
   11.190    6.6877
   11.220    6.8984
   11.250    6.1436
   11.280    6.3191
   11.310    6.1260
   11.340    6.3893
   11.370    6.6351
   11.400    6.2313
   11.430    6.5122
   11.460    6.7228
   11.490    6.6526
   11.520    6.9861
   11.550    6.7579
   11.580    6.7930
   11.610    7.7234
   11.640    7.4952
   11.670    7.9340
   11.700    7.6005
   11.730    7.8462
   11.760    7.3372
   11.790    7.2845
   11.820    6.7404
   11.850    6.8808
   11.880    6.1436
   11.910    6.2138
   11.940    6.1611
   11.970    6.2840
   12.000    6.4420
   12.030    5.9505
   12.060    6.3718
   12.090    5.9505
   12.120    5.9505
   12.150    6.3718
   12.180    5.9505
   12.210    5.8978
   12.240    5.9681
   12.270    5.9681
   12.300    6.5473
   12.330    6.2665
   12.360    6.5122
   12.390    6.4069
   12.420    6.0383
   12.450    5.8452
   12.480    5.8978
   12.510    6.0734
   12.540    6.1260
   12.570    6.3016
   12.600    6.3016
   12.630    6.3016
   12.660    5.5994
   12.690    6.0734
   12.720    6.3191
   12.750    5.9329
   12.780    6.3718
   12.810    6.3893
   12.840    5.9681
   12.870    6.0032
   12.900    6.8282
   12.930    6.2138
   12.960    6.9861
   12.990    7.0212
   13.020    7.0563
   13.050    7.0037
   13.080    6.0207
   13.110    6.0383
   13.140    6.1787
   13.170    5.5468
   13.200    6.3893
   13.230    6.0207
   13.260    5.8978
   13.290    5.5643
   13.320    5.7750
   13.350    5.7399
   13.380    5.9681
   13.410    6.5473
   13.440    6.1962
   13.470    6.0558
   13.500    6.3016
   13.530    6.2840
   13.560    6.6526
   13.590    6.1787
   13.620    6.4244
   13.650    6.1787
   13.680    5.7574
   13.710    5.4590
   13.740    5.3186
   13.770    6.3191
   13.800    5.5994
   13.830    5.7399
   13.860    5.6170
   13.890    6.1611
   13.920    6.0383
   13.950    6.5122
   13.980    6.2138
   14.010    6.1085
   14.040    6.5298
   14.070    6.6351
   14.100    6.8282
   14.130    6.3893
   14.160    6.4946
   14.190    6.3718
   14.220    6.4244
   14.250    6.9510
   14.280    6.1787
   14.310    5.7399
   14.340    5.5117
   14.370    5.6697
   14.400    5.5468
   14.430    5.9681
   14.460    5.2484
   14.490    5.6345
   14.520    5.9681
   14.550    6.2313
   14.580    6.0383
   14.610    5.7925
   14.640    5.9681
   14.670    5.4766
   14.700    6.1962
   14.730    5.9329
   14.760    5.3361
   14.790    6.0909
   14.820    5.5643
   14.850    5.6521
   14.880    5.9329
   14.910    5.6170
   14.940    5.8452
   14.970    6.1085
   15.000    5.7223
   15.030    5.5468
   15.060    6.2313
   15.090    5.7574
   15.120    6.4595
   15.150    6.0558
   15.180    6.3718
   15.210    5.5643
   15.240    5.6872
   15.270    5.9154
   15.300    5.8452
   15.330    6.0207
   15.360    5.9856
   15.390    6.1787
   15.420    5.6872
   15.450    5.8452
   15.480    5.9856
   15.510    5.6345
   15.540    6.4946
   15.570    5.7048
   15.600    5.7574
   15.630    5.4239
   15.660    6.1787
   15.690    5.8101
   15.720    5.7223
   15.750    5.6872
   15.780    5.6697
   15.810    5.7399
   15.840    5.6872
   15.870    5.8101
   15.900    6.2313
   15.930    6.1436
   15.960    5.5292
   15.990    5.7574
   16.020    5.6872
   16.050    6.4069
   16.080    6.1085
   16.110    6.2840
   16.140    6.0734
   16.170    5.9505
   16.200    5.8276
   16.230    6.0734
   16.260    5.8452
   16.290    5.7399
   16.320    6.0558
   16.350    6.3893
   16.380    5.8276
   16.410    5.7574
   16.440    5.7925
   16.470    5.8452
   16.500    5.9681
   16.530    5.6170
   16.560    5.7574
   16.590    5.5819
   16.620    6.4595
   16.650    6.4420
   16.680    6.6526
   16.710    6.0558
   16.740    5.6345
   16.770    5.6170
   16.800    5.8978
   16.830    5.7574
   16.860    6.0383
   16.890    5.9505
   16.920    5.6521
   16.950    5.8803
   16.980    5.7750
   17.010    6.2489
   17.040    6.1085
   17.070    6.7053
   17.100    6.3367
   17.130    6.0558
   17.160    5.9154
   17.190    6.0383
   17.220    6.0558
   17.250    5.5643
   17.280    6.0032
   17.310    5.9329
   17.340    5.9329
   17.370    5.7223
   17.400    5.8803
   17.430    6.3191
   17.460    6.0383
   17.490    6.1611
   17.520    5.9681
   17.550    6.1611
   17.580    5.9856
   17.610    5.7399
   17.640    6.3016
   17.670    5.8627
   17.700    6.0734
   17.730    5.9154
   17.760    5.3888
   17.790    5.8803
   17.820    6.1962
   17.850    5.9154
   17.880    5.8978
   17.910    5.7048
   17.940    5.5994
   17.970    5.9681
   18.000    6.0909
   18.030    6.3016
   18.060    5.9154
   18.090    6.2665
   18.120    6.3718
   18.150    5.7399
   18.180    5.8276
   18.210    5.9154
   18.240    5.7223
   18.270    5.3361
   18.300    5.7574
   18.330    5.8978
   18.360    6.1962
   18.390    5.9154
   18.420    5.7925
   18.450    5.4941
   18.480    5.6170
   18.510    5.6872
   18.540    5.9681
   18.570    6.1787
   18.600    6.1436
   18.630    5.4590
   18.660    6.0207
   18.690    6.1436
   18.720    5.8978
   18.750    6.1085
   18.780    6.0207
   18.810    6.1436
   18.840    5.6872
   18.870    6.1611
   18.900    6.2840
   18.930    6.4595
   18.960    6.8282
   18.990    6.4244
   19.020    6.5298
   19.050    5.8978
   19.080    6.0734
   19.110    5.4590
   19.140    5.5468
   19.170    6.0734
   19.200    6.0207
   19.230    6.3016
   19.260    5.5819
   19.290    5.7223
   19.320    5.9505
   19.350    6.1085
   19.380    5.7399
   19.410    5.7925
   19.440    6.1085
   19.470    5.7574
   19.500    5.7223
   19.530    5.9681
   19.560    6.1787
   19.590    6.8984
   19.620    6.2138
   19.650    6.2840
   19.680    6.4069
   19.710    5.9154
   19.740    6.1611
   19.770    6.2313
   19.800    5.8101
   19.830    5.2133
   19.860    6.1085
   19.890    5.7048
   19.920    5.5468
   19.950    5.8101
   19.980    6.4420
   20.010    5.7399
   20.040    6.3542
   20.070    5.9681
   20.100    6.0558
   20.130    6.3367
   20.160    5.7223
   20.190    5.9329
   20.220    5.9154
   20.250    5.8627
   20.280    6.2138
   20.310    6.1260
   20.340    6.6526
   20.370    6.3367
   20.400    6.3718
   20.430    6.8282
   20.460    6.1436
   20.490    6.1611
   20.520    6.6877
   20.550    6.1962
   20.580    6.5649
   20.610    5.6521
   20.640    6.1260
   20.670    6.0383
   20.700    6.4420
   20.730    6.0383
   20.760    5.7925
   20.790    5.7399
   20.820    6.4595
   20.850    6.1611
   20.880    5.4415
   20.910    6.0909
   20.940    6.0207
   20.970    6.2313
   21.000    6.0207
   21.030    5.8452
   21.060    6.1611
   21.090    6.0558
   21.120    6.0909
   21.150    5.8978
   21.180    6.3718
   21.210    6.0207
   21.240    5.6170
   21.270    5.8803
   21.300    5.3888
   21.330    6.2665
   21.360    6.0207
   21.390    5.8627
   21.420    5.9856
   21.450    6.0207
   21.480    6.3191
   21.510    5.9154
   21.540    6.4946
   21.570    5.7925
   21.600    6.0383
   21.630    6.0909
   21.660    6.1085
   21.690    6.3718
   21.720    6.1085
   21.750    5.8978
   21.780    6.2313
   21.810    6.5649
   21.840    6.4946
   21.870    6.5122
   21.900    6.3367
   21.930    6.2840
   21.960    5.8978
   21.990    6.2138
   22.020    6.2138
   22.050    6.0734
   22.080    6.3893
   22.110    5.7399
   22.140    5.8803
   22.170    6.0207
   22.200    5.6697
   22.230    6.6351
   22.260    5.9329
   22.290    6.4595
   22.320    6.2489
   22.350    6.2840
   22.380    6.1962
   22.410    6.1611
   22.440    6.0032
   22.470    7.0037
   22.500    6.7053
   22.530    6.4420
   22.560    6.4595
   22.590    6.1085
   22.620    6.8457
   22.650    6.5122
   22.680    6.3367
   22.710    6.3893
   22.740    5.9505
   22.770    6.0734
   22.800    6.2489
   22.830    6.7228
   22.860    6.4244
   22.890    6.5298
   22.920    6.7228
   22.950    6.6526
   22.980    6.4420
   23.010    6.2489
   23.040    6.4595
   23.070    6.1787
   23.100    6.1436
   23.130    6.3893
   23.160    6.6526
   23.190    6.0032
   23.220    6.4069
   23.250    5.7399
   23.280    6.2313
   23.310    5.8803
   23.340    6.2313
   23.370    6.3367
   23.400    6.1260
   23.430    5.7399
   23.460    6.1085
   23.490    6.2840
   23.520    5.8452
   23.550    5.7750
   23.580    5.6345
   23.610    6.6000
   23.640    6.1436
   23.670    5.9329
   23.700    5.9154
   23.730    5.8803
   23.760    6.7755
   23.790    6.2489
   23.820    6.6000
   23.850    5.4941
   23.880    6.3542
   23.910    6.0558
   23.940    5.9505
   23.970    5.9329
   24.000    6.0032
   24.030    6.1436
   24.060    6.4771
   24.090    6.6351
   24.120    6.0734
   24.150    6.1085
   24.180    5.9329
   24.210    5.7399
   24.240    6.0032
   24.270    5.7925
   24.300    6.1260
   24.330    6.0558
   24.360    5.7223
   24.390    5.8101
   24.420    5.7223
   24.450    6.1962
   24.480    5.5643
   24.510    5.9681
   24.540    5.9505
   24.570    5.4941
   24.600    6.5824
   24.630    6.2313
   24.660    5.8803
   24.690    5.6872
   24.720    6.0032
   24.750    5.9681
   24.780    6.3016
   24.810    6.2313
   24.840    5.6345
   24.870    5.5117
   24.900    5.8452
   24.930    5.7574
   24.960    5.8627
   24.990    6.2313
   25.020    5.8978
   25.050    5.7223
   25.080    5.7574
   25.110    5.7223
   25.140    5.6872
   25.170    6.0558
   25.200    5.8978
   25.230    5.8627
   25.260    5.5468
   25.290    5.7399
   25.320    5.9505
   25.350    5.3888
   25.380    5.7925
   25.410    5.8978
   25.440    5.8276
   25.470    5.2835
   25.500    6.0383
   25.530    6.0558
   25.560    5.7925
   25.590    5.5292
   25.620    5.6345
   25.650    5.9329
   25.680    5.5819
   25.710    6.4771
   25.740    6.2840
   25.770    6.3367
   25.800    6.5824
   25.830    6.4595
   25.860    5.8627
   25.890    6.3191
   25.920    6.2840
   25.950    5.7574
   25.980    6.1085
   26.010    6.0207
   26.040    5.9329
   26.070    5.7574
   26.100    6.1962
   26.130    5.7223
   26.160    5.5643
   26.190    5.8276
   26.220    5.7223
   26.250    5.6697
   26.280    5.7399
   26.310    5.6521
   26.340    5.9856
   26.370    5.9681
   26.400    6.0032
   26.430    6.1085
   26.460    5.8978
   26.490    5.7399
   26.520    5.5117
   26.550    5.9329
   26.580    5.9856
   26.610    6.3016
   26.640    5.9681
   26.670    6.3718
   26.700    5.7925
   26.730    5.8627
   26.760    5.4064
   26.790    5.5468
   26.820    6.0383
   26.850    5.8101
   26.880    5.7925
   26.910    5.3361
   26.940    5.5117
   26.970    5.5292
   27.000    6.0558
   27.030    6.3016
   27.060    6.0558
   27.090    5.7925
   27.120    5.7223
   27.150    6.1962
   27.180    5.4239
   27.210    5.6345
   27.240    5.6697
   27.270    5.5117
   27.300    5.5117
   27.330    5.9681
   27.360    5.7048
   27.390    5.8627
   27.420    5.5819
   27.450    5.7925
   27.480    5.1957
   27.510    5.1255
   27.540    5.3712
   27.570    5.8803
   27.600    5.8627
   27.630    6.1260
   27.660    5.7048
   27.690    5.5117
   27.720    5.8978
   27.750    5.8276
   27.780    5.8803
   27.810    5.2308
   27.840    5.8101
   27.870    5.5468
   27.900    5.6697
   27.930    5.6345
   27.960    5.8978
   27.990    6.2138
   28.020    5.2133
   28.050    5.8101
   28.080    6.0032
   28.110    5.5468
   28.140    5.5819
   28.170    5.6697
   28.200    5.9681
   28.230    5.6170
   28.260    5.5292
   28.290    5.8452
   28.320    5.0904
   28.350    5.7574
   28.380    5.9154
   28.410    5.1431
   28.440    5.5117
   28.470    5.6345
   28.500    5.5292
   28.530    6.0207
   28.560    5.5994
   28.590    5.1957
   28.620    5.1255
   28.650    5.4766
   28.680    5.1957
   28.710    5.5643
   28.740    5.7223
   28.770    5.3537
   28.800    5.5292
   28.830    5.3712
   28.860    5.4415
   28.890    5.9856
   28.920    5.2308
   28.950    6.3367
   28.980    5.5819
   29.010    5.6345
   29.040    5.3712
   29.070    5.6521
   29.100    5.4941
   29.130    5.7750
   29.160    5.5292
   29.190    5.2308
   29.220    5.5819
   29.250    5.0377
   29.280    6.0909
   29.310    5.8452
   29.340    5.9856
   29.370    5.3712
   29.400    5.9856
   29.430    5.5994
   29.460    5.8276
   29.490    5.5292
   29.520    5.4239
   29.550    5.0026
   29.580    5.2484
   29.610    5.4064
   29.640    5.0904
   29.670    5.1782
   29.700    5.5292
   29.730    5.5819
   29.760    5.3361
   29.790    5.2133
   29.820    5.5292
   29.850    5.4239
   29.880    5.3186
   29.910    5.5292
   29.940    5.1606
   29.970    5.3537
   30.000    5.3712
   30.030    5.4064
   30.060    4.9851
   30.090    5.0377
   30.120    5.1255
   30.150    5.4941
   30.180    5.4064
   30.210    5.5468
   30.240    5.2484
   30.270    5.2659
   30.300    5.2659
   30.330    5.0026
   30.360    5.2484
   30.390    5.3010
   30.420    5.3537
   30.450    5.6521
   30.480    5.8276
   30.510    5.3186
   30.540    5.6345
   30.570    5.1957
   30.600    5.3361
   30.630    5.2659
   30.660    5.3712
   30.690    5.3010
   30.720    5.1782
   30.750    5.3186
   30.780    4.7744
   30.810    5.7750
   30.840    4.8622
   30.870    5.4239
   30.900    5.1957
   30.930    5.5292
   30.960    5.2484
   30.990    5.2659
   31.020    5.6872
   31.050    5.0904
   31.080    5.4415
   31.110    4.7393
   31.140    5.6697
   31.170    5.2484
   31.200    5.3888
   31.230    5.2484
   31.260    4.7920
   31.290    4.8798
   31.320    5.0377
   31.350    4.8798
   31.380    5.4415
   31.410    4.8095
   31.440    5.1606
   31.470    4.9324
   31.500    5.4766
   31.530    4.7218
   31.560    5.7399
   31.590    5.3186
   31.620    5.4415
   31.650    5.0728
   31.680    4.9149
   31.710    5.0728
   31.740    5.3537
   31.770    5.1080
   31.800    5.6521
   31.830    4.9500
   31.860    5.2659
   31.890    5.5819
   31.920    5.2659
   31.950    5.0728
   31.980    5.3888
   32.010    5.5468
   32.040    5.6697
   32.070    5.9681
   32.100    5.6697
   32.130    5.9681
   32.160    5.9154
   32.190    5.1782
   32.220    5.3361
   32.250    5.0202
   32.280    4.9149
   32.310    5.0026
   32.340    5.2484
   32.370    5.0026
   32.400    4.9675
   32.430    5.6170
   32.460    4.9324
   32.490    5.1782
   32.520    5.7574
   32.550    4.9851
   32.580    5.2835
   32.610    4.9324
   32.640    5.2133
   32.670    4.9500
   32.700    4.8622
   32.730    5.2835
   32.760    4.6867
   32.790    5.4239
   32.820    4.7569
   32.850    5.3888
   32.880    5.3010
   32.910    5.2659
   32.940    4.8447
   32.970    5.2133
   33.000    4.9851
   33.030    5.4239
   33.060    4.6691
   33.090    4.9324
   33.120    5.0904
   33.150    4.8798
   33.180    4.5463
   33.210    4.7218
   33.240    5.0904
   33.270    5.1782
   33.300    5.0377
   33.330    4.7920
   33.360    5.3010
   33.390    5.3712
   33.420    4.8973
   33.450    4.6691
   33.480    4.8798
   33.510    4.7218
   33.540    5.1255
   33.570    5.1431
   33.600    5.1431
   33.630    4.7920
   33.660    5.3361
   33.690    4.8973
   33.720    5.3712
   33.750    5.3712
   33.780    5.2835
   33.810    5.2659
   33.840    5.4941
   33.870    4.9851
   33.900    4.7393
   33.930    5.7574
   33.960    5.0904
   33.990    5.2484
   34.020    4.9149
   34.050    5.2484
   34.080    5.2835
   34.110    4.6691
   34.140    4.7569
   34.170    4.8095
   34.200    5.5643
   34.230    5.2484
   34.260    4.4760
   34.290    4.6867
   34.320    5.0553
   34.350    4.7744
   34.380    5.0728
   34.410    5.2659
   34.440    4.6516
   34.470    4.5111
   34.500    4.8798
   34.530    4.8973
   34.560    4.8095
   34.590    4.7042
   34.620    4.5287
   34.650    4.8973
   34.680    4.7218
   34.710    4.7393
   34.740    4.9149
   34.770    4.9675
   34.800    4.5463
   34.830    5.1782
   34.860    4.9675
   34.890    4.7393
   34.920    5.3186
   34.950    5.2308
   34.980    4.8798
   35.010    5.1606
   35.040    4.8798
   35.070    4.6340
   35.100    5.2308
   35.130    4.6516
   35.160    5.1255
   35.190    4.6691
   35.220    4.9500
   35.250    4.8798
   35.280    5.2308
   35.310    4.8271
   35.340    4.8447
   35.370    4.9851
   35.400    4.8622
   35.430    4.7920
   35.460    4.8447
   35.490    4.5989
   35.520    4.7218
   35.550    5.1431
   35.580    5.0904
   35.610    4.5989
   35.640    4.7393
   35.670    5.3888
   35.700    5.0553
   35.730    4.7920
   35.760    4.9851
   35.790    5.0904
   35.820    4.7920
   35.850    5.0202
   35.880    5.4064
   35.910    4.8798
   35.940    5.0202
   35.970    5.1431
   36.000    4.8447
   36.030    5.2484
   36.060    4.5638
   36.090    5.1431
   36.120    5.0377
   36.150    5.0904
   36.180    4.9851
   36.210    4.9500
   36.240    4.4936
   36.270    4.9675
   36.300    5.0026
   36.330    5.2133
   36.360    5.2308
   36.390    4.4585
   36.420    4.9149
   36.450    5.4766
   36.480    4.8973
   36.510    4.8622
   36.540    4.7218
   36.570    5.1255
   36.600    4.4409
   36.630    4.7744
   36.660    4.9851
   36.690    4.6340
   36.720    4.8095
   36.750    5.0553
   36.780    4.8271
   36.810    5.0202
   36.840    4.7042
   36.870    4.9851
   36.900    4.7744
   36.930    4.7569
   36.960    4.9324
   36.990    4.7042
   37.020    4.6516
   37.050    4.9675
   37.080    4.6165
   37.110    4.6867
   37.140    5.2308
   37.170    5.0377
   37.200    4.8973
   37.230    4.5287
   37.260    5.0026
   37.290    4.6165
   37.320    4.8447
   37.350    4.7393
   37.380    4.2478
   37.410    4.4409
   37.440    4.9324
   37.470    4.8271
   37.500    4.7393
   37.530    5.0026
   37.560    4.6867
   37.590    4.9851
   37.620    5.2133
   37.650    4.2478
   37.680    4.7920
   37.710    5.0026
   37.740    4.8973
   37.770    4.8095
   37.800    5.0026
   37.830    4.9500
   37.860    4.7042
   37.890    4.5814
   37.920    5.0026
   37.950    5.1782
   37.980    4.4058
   38.010    4.8095
   38.040    4.6691
   38.070    4.8798
   38.100    4.8447
   38.130    4.6165
   38.160    5.1957
   38.190    4.8622
   38.220    4.8271
   38.250    4.8622
   38.280    4.9675
   38.310    4.7218
   38.340    5.0377
   38.370    4.9675
   38.400    4.6165
   38.430    4.2654
   38.460    4.6165
   38.490    4.8798
   38.520    5.0553
   38.550    4.3883
   38.580    5.3537
   38.610    4.7218
   38.640    4.7920
   38.670    4.9324
   38.700    4.8447
   38.730    5.0026
   38.760    5.2484
   38.790    4.6691
   38.820    5.0026
   38.850    4.6691
   38.880    5.1080
   38.910    4.7218
   38.940    5.1080
   38.970    4.9500
   39.000    4.4058
   39.030    4.6165
   39.060    4.7569
   39.090    4.8447
   39.120    4.1952
   39.150    4.5814
   39.180    4.8095
   39.210    4.7042
   39.240    4.7218
   39.270    4.5463
   39.300    4.6691
   39.330    4.6867
   39.360    4.5989
   39.390    5.0026
   39.420    4.6691
   39.450    4.9675
   39.480    4.6340
   39.510    4.8095
   39.540    4.6165
   39.570    5.2308
   39.600    4.7569
   39.630    4.5638
   39.660    5.0202
   39.690    4.6691
   39.720    5.2659
   39.750    4.5638
   39.780    4.3532
   39.810    5.1782
   39.840    4.6867
   39.870    5.2308
   39.900    4.8447
   39.930    4.7569
   39.960    4.6691
   39.990    4.9324