File: data/MOCOF-1/PXRD/PXRD_KE-302_Cu-Ka1_film-3mm_3s-deg.xyd
    1.500   17.6584
    1.530   17.5531
    1.560   16.3770
    1.590   15.8680
    1.620   15.4116
    1.650   15.2361
    1.680   14.6217
    1.710   15.5520
    1.740   13.4808
    1.770   14.2356
    1.800   14.0600
    1.830   13.4632
    1.860   13.1473
    1.890   13.0946
    1.920   11.9888
    1.950   13.0420
    1.980   11.8132
    2.010   12.2696
    2.040   11.4973
    2.070   11.9186
    2.100   12.0063
    2.130   11.2866
    2.160   11.2515
    2.190   10.5845
    2.220   10.8478
    2.250   11.0936
    2.280   10.5319
    2.310   10.9005
    2.340   10.6898
    2.370   10.4265
    2.400    9.8297
    2.430   10.5143
    2.460   10.2159
    2.490   10.0404
    2.520    9.9877
    2.550    9.8999
    2.580    9.3558
    2.610    9.7946
    2.640   10.1106
    2.670    9.6191
    2.700    9.6893
    2.730    9.3382
    2.760    8.9872
    2.790    9.4611
    2.820    9.1101
    2.850    8.9872
    2.880    8.9696
    2.910    9.2856
    2.940    9.6015
    2.970    9.6718
    3.000    9.0398
    3.030    9.7946
    3.060    9.4962
    3.090    8.8819
    3.120    9.2329
    3.150    9.3031
    3.180   10.0404
    3.210    9.9351
    3.240   10.1281
    3.270   10.5319
    3.300   10.5670
    3.330   11.7430
    3.360   11.7079
    3.390   12.5505
    3.420   12.9893
    3.450   13.9372
    3.480   14.9903
    3.510   15.5520
    3.540   18.5010
    3.570   19.3611
    3.600   21.3095
    3.630   25.0834
    3.660   27.8568
    3.690   32.2099
    3.720   37.3530
    3.750   44.6200
    3.780   54.5375
    3.810   71.3533
    3.840   92.4171
    3.870   86.2559
    3.900   58.8380
    3.930   27.3653
    3.960   14.3584
    3.990   10.8654
    4.020    9.7420
    4.050    8.9696
    4.080    8.4781
    4.110    8.5133
    4.140    8.0393
    4.170    8.0569
    4.200    7.8813
    4.230    7.9516
    4.260    8.1622
    4.290    7.8638
    4.320    7.8989
    4.350    7.7936
    4.380    8.2675
    4.410    7.6180
    4.440    7.5303
    4.470    8.1973
    4.500    7.8813
    4.530    7.7234
    4.560    7.4250
    4.590    7.8462
    4.620    7.8638
    4.650    7.9691
    4.680    7.8638
    4.710    8.2149
    4.740    8.3202
    4.770    8.0218
    4.800    8.0744
    4.830    8.5308
    4.860    8.1271
    4.890    8.2500
    4.920    7.6883
    4.950    7.9516
    4.980    8.7765
    5.010    8.4781
    5.040    8.6537
    5.070    8.6537
    5.100    8.4430
    5.130    9.6542
    5.160   10.0053
    5.190    9.9877
    5.220   10.1457
    5.250   10.5143
    5.280   11.5148
    5.310   11.7957
    5.340   13.2877
    5.370   15.2712
    5.400   16.4473
    5.430   19.3786
    5.460   22.3802
    5.490   22.7137
    5.520   19.4664
    5.550   12.9191
    5.580   10.8127
    5.610   10.9531
    5.640   10.1281
    5.670    9.7595
    5.700    9.1101
    5.730    9.7069
    5.760    8.9696
    5.790    8.4781
    5.820    8.5659
    5.850    8.5835
    5.880    9.1452
    5.910    8.4079
    5.940    8.8819
    5.970    8.0218
    6.000    7.8462
    6.030    8.0744
    6.060    7.8287
    6.090    8.0569
    6.120    7.2319
    6.150    7.7409
    6.180    7.6005
    6.210    7.1792
    6.240    7.4425
    6.270    7.3372
    6.300    7.5478
    6.330    7.4250
    6.360    7.5478
    6.390    7.4601
    6.420    7.7585
    6.450    6.7755
    6.480    7.4074
    6.510    7.2143
    6.540    7.3196
    6.570    7.6180
    6.600    7.5303
    6.630    7.5127
    6.660    8.4957
    6.690    8.6361
    6.720    9.6191
    6.750    8.6888
    6.780    7.9164
    6.810    7.3372
    6.840    7.0388
    6.870    6.8282
    6.900    6.4595
    6.930    6.5824
    6.960    6.7579
    6.990    6.1611
    7.020    5.9329
    7.050    6.0032
    7.080    6.2665
    7.110    6.3016
    7.140    6.6000
    7.170    6.2840
    7.200    6.4946
    7.230    6.1436
    7.260    6.1260
    7.290    5.7750
    7.320    5.7048
    7.350    5.6521
    7.380    5.8803
    7.410    5.7750
    7.440    5.8627
    7.470    5.7223
    7.500    5.5292
    7.530    6.1962
    7.560    6.0032
    7.590    6.4420
    7.620    5.9856
    7.650    6.5649
    7.680    6.8282
    7.710    6.8633
    7.740    8.3377
    7.770    8.8994
    7.800    8.7414
    7.830    7.6883
    7.860    5.7925
    7.890    5.7925
    7.920    5.7399
    7.950    5.5819
    7.980    5.2133
    8.010    5.1606
    8.040    5.5468
    8.070    5.4239
    8.100    5.4415
    8.130    5.2484
    8.160    5.0904
    8.190    5.3712
    8.220    5.0026
    8.250    5.1606
    8.280    5.0377
    8.310    5.1255
    8.340    5.1606
    8.370    5.2133
    8.400    4.9675
    8.430    5.3010
    8.460    5.2308
    8.490    5.0377
    8.520    4.8095
    8.550    5.4415
    8.580    4.7920
    8.610    4.8271
    8.640    5.2659
    8.670    4.7393
    8.700    5.2659
    8.730    4.8798
    8.760    5.3186
    8.790    4.8095
    8.820    5.0026
    8.850    5.3010
    8.880    5.2308
    8.910    5.2484
    8.940    5.0377
    8.970    4.7393
    9.000    4.5814
    9.030    4.6165
    9.060    4.9851
    9.090    4.8271
    9.120    5.1431
    9.150    4.6165
    9.180    5.0728
    9.210    4.5989
    9.240    5.1606
    9.270    4.8973
    9.300    5.3010
    9.330    5.1080
    9.360    5.1080
    9.390    5.5819
    9.420    6.0207
    9.450    7.4250
    9.480    8.8468
    9.510   11.0760
    9.540   12.1467
    9.570   11.0585
    9.600    8.4957
    9.630    5.7750
    9.660    5.4064
    9.690    5.2659
    9.720    5.0377
    9.750    4.4585
    9.780    4.7569
    9.810    4.3707
    9.840    5.0202
    9.870    5.3537
    9.900    4.9851
    9.930    4.7569
    9.960    4.8798
    9.990    4.5638
   10.020    4.7744
   10.050    4.9851
   10.080    4.8798
   10.110    4.8798
   10.140    4.7218
   10.170    5.3361
   10.200    5.3888
   10.230    5.5468
   10.260    5.6345
   10.290    6.8633
   10.320    7.1266
   10.350    6.8457
   10.380    5.9154
   10.410    5.3186
   10.440    4.2654
   10.470    4.9324
   10.500    4.7744
   10.530    5.4064
   10.560    5.1255
   10.590    5.2835
   10.620    5.1957
   10.650    5.0202
   10.680    5.0026
   10.710    5.0553
   10.740    5.2835
   10.770    4.9675
   10.800    5.3010
   10.830    5.1431
   10.860    5.0904
   10.890    4.8622
   10.920    5.8978
   10.950    5.8101
   10.980    6.4244
   11.010    6.7228
   11.040    7.7409
   11.070    6.4946
   11.100    5.0377
   11.130    5.7399
   11.160    5.1080
   11.190    5.0553
   11.220    5.3537
   11.250    5.0026
   11.280    5.2659
   11.310    5.1431
   11.340    5.2133
   11.370    4.7218
   11.400    5.3712
   11.430    4.5638
   11.460    5.3537
   11.490    5.1782
   11.520    5.0026
   11.550    4.7042
   11.580    5.0904
   11.610    5.7399
   11.640    5.3537
   11.670    7.2143
   11.700    7.2319
   11.730    7.0915
   11.760    5.6697
   11.790    5.5117
   11.820    4.8973
   11.850    4.7393
   11.880    4.7920
   11.910    4.6691
   11.940    4.7744
   11.970    4.9675
   12.000    4.7569
   12.030    4.4058
   12.060    4.5287
   12.090    5.0553
   12.120    5.1606
   12.150    3.8968
   12.180    5.1080
   12.210    4.4058
   12.240    5.2484
   12.270    4.4058
   12.300    4.7920
   12.330    4.9500
   12.360    4.8095
   12.390    5.1255
   12.420    4.7744
   12.450    4.4234
   12.480    4.5814
   12.510    4.9149
   12.540    4.7218
   12.570    5.1782
   12.600    4.5287
   12.630    4.9500
   12.660    4.5111
   12.690    4.7920
   12.720    4.6867
   12.750    4.7218
   12.780    4.6340
   12.810    4.8095
   12.840    5.0377
   12.870    5.0377
   12.900    5.1431
   12.930    6.4595
   12.960    6.3016
   12.990    6.3016
   13.020    4.7393
   13.050    4.8271
   13.080    4.5638
   13.110    4.5638
   13.140    4.5287
   13.170    4.5287
   13.200    4.3005
   13.230    4.4234
   13.260    4.8447
   13.290    4.8447
   13.320    4.5638
   13.350    4.4409
   13.380    4.2303
   13.410    4.5111
   13.440    4.6165
   13.470    4.8095
   13.500    5.4064
   13.530    5.8452
   13.560    5.0553
   13.590    4.4234
   13.620    4.8798
   13.650    4.9149
   13.680    4.3356
   13.710    4.8271
   13.740    4.4760
   13.770    5.0026
   13.800    4.5111
   13.830    4.8973
   13.860    4.5814
   13.890    4.1776
   13.920    4.5463
   13.950    4.9500
   13.980    4.9500
   14.010    4.7393
   14.040    5.7925
   14.070    5.9505
   14.100    6.7579
   14.130    5.3010
   14.160    5.2659
   14.190    4.8622
   14.220    4.8271
   14.250    4.7393
   14.280    4.7569
   14.310    4.9851
   14.340    4.7393
   14.370    4.9851
   14.400    4.9500
   14.430    4.6340
   14.460    5.0728
   14.490    4.7393
   14.520    5.0904
   14.550    4.7042
   14.580    5.0553
   14.610    5.2308
   14.640    5.1606
   14.670    4.3883
   14.700    5.1957
   14.730    4.8798
   14.760    4.8798
   14.790    5.0202
   14.820    4.8095
   14.850    4.7569
   14.880    4.1601
   14.910    4.3532
   14.940    4.9675
   14.970    4.8447
   15.000    3.9670
   15.030    4.5287
   15.060    4.2478
   15.090    4.5111
   15.120    4.8095
   15.150    5.0026
   15.180    4.3356
   15.210    4.5287
   15.240    4.5463
   15.270    4.6516
   15.300    4.7042
   15.330    4.1074
   15.360    4.3356
   15.390    4.6340
   15.420    4.5463
   15.450    4.2830
   15.480    3.9319
   15.510    4.4585
   15.540    4.5287
   15.570    4.2830
   15.600    4.7920
   15.630    4.6867
   15.660    4.6691
   15.690    4.6165
   15.720    4.3707
   15.750    4.4409
   15.780    4.7920
   15.810    4.4585
   15.840    4.5287
   15.870    3.8968
   15.900    4.7744
   15.930    4.8798
   15.960    4.6516
   15.990    4.3005
   16.020    4.7393
   16.050    4.6691
   16.080    4.5814
   16.110    4.9851
   16.140    4.9149
   16.170    4.3356
   16.200    4.9675
   16.230    4.4585
   16.260    4.5287
   16.290    4.6340
   16.320    4.2830
   16.350    4.7569
   16.380    4.5111
   16.410    4.6165
   16.440    4.1250
   16.470    4.7393
   16.500    4.3532
   16.530    4.4409
   16.560    4.7569
   16.590    4.8271
   16.620    5.2133
   16.650    4.2303
   16.680    4.7042
   16.710    4.2478
   16.740    4.1425
   16.770    4.4585
   16.800    4.5287
   16.830    4.9149
   16.860    4.3005
   16.890    4.1952
   16.920    4.6340
   16.950    4.3883
   16.980    4.8622
   17.010    4.7569
   17.040    4.8622
   17.070    5.7223
   17.100    5.3010
   17.130    5.1080
   17.160    4.8271
   17.190    4.4585
   17.220    4.5287
   17.250    4.6165
   17.280    4.6516
   17.310    3.8792
   17.340    4.1952
   17.370    4.2303
   17.400    4.1425
   17.430    4.1425
   17.460    4.8271
   17.490    4.8973
   17.520    4.7042
   17.550    4.6867
   17.580    4.7218
   17.610    4.1250
   17.640    4.3181
   17.670    4.7393
   17.700    4.7569
   17.730    4.2654
   17.760    4.1952
   17.790    4.2830
   17.820    4.4058
   17.850    4.5111
   17.880    5.0728
   17.910    4.4936
   17.940    4.5814
   17.970    4.6867
   18.000    4.3181
   18.030    4.4058
   18.060    4.5989
   18.090    4.4585
   18.120    4.4760
   18.150    4.8622
   18.180    4.2654
   18.210    4.3532
   18.240    4.5111
   18.270    4.1425
   18.300    4.3883
   18.330    4.5287
   18.360    4.7393
   18.390    4.9500
   18.420    4.6691
   18.450    4.4234
   18.480    4.4409
   18.510    4.3005
   18.540    4.3181
   18.570    4.4936
   18.600    4.4058
   18.630    4.5111
   18.660    4.7218
   18.690    4.6691
   18.720    3.9494
   18.750    4.3181
   18.780    4.5814
   18.810    4.3356
   18.840    4.7393
   18.870    4.1776
   18.900    4.1952
   18.930    4.3532
   18.960    4.4234
   18.990    4.3532
   19.020    4.5989
   19.050    4.5638
   19.080    4.1776
   19.110    4.2303
   19.140    4.2303
   19.170    4.0372
   19.200    4.4409
   19.230    4.0372
   19.260    4.3532
   19.290    4.1425
   19.320    4.0197
   19.350    3.9846
   19.380    4.3356
   19.410    3.9846
   19.440    4.2830
   19.470    4.3532
   19.500    4.3707
   19.530    4.5989
   19.560    4.1601
   19.590    4.3356
   19.620    4.9149
   19.650    4.5814
   19.680    4.5111
   19.710    4.2303
   19.740    4.2654
   19.770    4.1074
   19.800    3.6510
   19.830    3.6862
   19.860    4.3707
   19.890    4.4409
   19.920    3.7037
   19.950    4.0548
   19.980    4.4585
   20.010    4.1601
   20.040    4.5287
   20.070    4.2830
   20.100    3.9670
   20.130    4.4058
   20.160    4.0723
   20.190    3.6335
   20.220    3.9319
   20.250    4.4058
   20.280    4.1250
   20.310    3.8090
   20.340    4.4585
   20.370    4.8622
   20.400    5.1080
   20.430    5.0202
   20.460    4.6691
   20.490    3.8792
   20.520    4.2830
   20.550    4.0372
   20.580    4.0548
   20.610    4.2478
   20.640    4.1601
   20.670    4.0021
   20.700    3.7564
   20.730    4.2830
   20.760    4.1952
   20.790    4.3707
   20.820    3.7213
   20.850    4.0723
   20.880    4.0372
   20.910    3.7564
   20.940    3.8090
   20.970    4.0021
   21.000    3.9670
   21.030    3.8441
   21.060    3.7213
   21.090    4.0723
   21.120    3.5633
   21.150    3.6510
   21.180    3.8792
   21.210    4.0372
   21.240    3.6862
   21.270    3.6335
   21.300    3.8090
   21.330    4.1074
   21.360    3.9494
   21.390    4.0899
   21.420    4.0021
   21.450    4.0197
   21.480    3.7037
   21.510    4.0548
   21.540    3.9494
   21.570    3.8441
   21.600    4.1952
   21.630    4.0197
   21.660    3.9670
   21.690    3.8792
   21.720    4.3181
   21.750    4.2127
   21.780    3.8441
   21.810    4.7393
   21.840    3.8266
   21.870    4.5111
   21.900    4.2127
   21.930    4.1952
   21.960    4.2303
   21.990    4.1250
   22.020    3.8266
   22.050    3.9494
   22.080    3.6335
   22.110    3.9494
   22.140    3.7915
   22.170    4.1776
   22.200    3.8441
   22.230    3.7388
   22.260    4.2303
   22.290    4.6165
   22.320    3.7388
   22.350    3.8792
   22.380    3.7739
   22.410    3.5633
   22.440    3.7564
   22.470    3.5457
   22.500    4.0548
   22.530    4.1250
   22.560    4.6516
   22.590    4.7920
   22.620    4.6340
   22.650    4.2127
   22.680    3.8441
   22.710    3.7037
   22.740    3.6862
   22.770    4.0723
   22.800    4.0021
   22.830    3.8441
   22.860    3.9670
   22.890    4.9324
   22.920    4.8973
   22.950    5.0553
   22.980    4.7218
   23.010    4.1425
   23.040    3.7213
   23.070    3.5282
   23.100    3.7213
   23.130    3.6510
   23.160    3.8792
   23.190    3.6510
   23.220    4.0197
   23.250    3.6686
   23.280    3.5457
   23.310    4.0021
   23.340    3.6510
   23.370    3.5984
   23.400    3.7564
   23.430    3.5106
   23.460    3.5457
   23.490    3.3877
   23.520    3.8441
   23.550    3.7564
   23.580    4.1425
   23.610    3.6335
   23.640    3.4755
   23.670    3.4755
   23.700    3.1947
   23.730    3.7037
   23.760    3.7564
   23.790    3.7564
   23.820    3.5106
   23.850    3.7915
   23.880    4.0197
   23.910    3.8090
   23.940    4.0548
   23.970    3.7915
   24.000    3.3702
   24.030    3.5282
   24.060    3.3351
   24.090    3.3351
   24.120    3.0542
   24.150    3.3526
   24.180    3.6335
   24.210    3.5106
   24.240    3.6335
   24.270    3.5282
   24.300    3.6510
   24.330    3.4053
   24.360    3.4404
   24.390    3.2122
   24.420    3.6862
   24.450    3.7915
   24.480    3.3175
   24.510    3.1947
   24.540    3.7564
   24.570    3.4931
   24.600    3.5633
   24.630    3.3351
   24.660    3.5106
   24.690    3.5457
   24.720    3.5808
   24.750    3.6510
   24.780    3.3351
   24.810    3.3702
   24.840    3.4404
   24.870    3.4404
   24.900    3.6510
   24.930    3.3000
   24.960    3.1245
   24.990    3.5984
   25.020    3.4404
   25.050    3.5457
   25.080    3.4404
   25.110    3.3000
   25.140    3.5808
   25.170    3.3877
   25.200    3.6335
   25.230    3.7213
   25.260    3.5457
   25.290    3.3000
   25.320    3.5808
   25.350    2.9314
   25.380    3.8968
   25.410    3.5282
   25.440    3.4229
   25.470    3.2473
   25.500    3.4931
   25.530    3.5808
   25.560    3.4580
   25.590    3.3351
   25.620    3.2473
   25.650    3.0016
   25.680    3.3877
   25.710    3.0542
   25.740    3.4755
   25.770    3.5457
   25.800    3.7564
   25.830    4.0372
   25.860    3.9670
   25.890    3.5808
   25.920    3.6510
   25.950    3.4755
   25.980    3.5984
   26.010    3.0542
   26.040    3.6862
   26.070    3.1947
   26.100    3.1069
   26.130    3.0191
   26.160    3.2122
   26.190    3.4053
   26.220    3.4755
   26.250    3.4580
   26.280    3.4404
   26.310    3.2473
   26.340    3.1245
   26.370    3.3351
   26.400    3.1596
   26.430    4.0372
   26.460    3.4229
   26.490    3.2473
   26.520    3.0016
   26.550    3.4580
   26.580    3.2473
   26.610    3.5282
   26.640    2.8612
   26.670    3.0718
   26.700    3.0893
   26.730    3.3351
   26.760    3.3175
   26.790    2.9489
   26.820    3.2298
   26.850    3.4053
   26.880    2.8436
   26.910    3.5633
   26.940    3.0542
   26.970    3.1771
   27.000    3.4053
   27.030    3.4580
   27.060    3.4229
   27.090    3.6510
   27.120    3.0893
   27.150    3.2824
   27.180    3.0542
   27.210    2.9665
   27.240    3.1069
   27.270    2.9665
   27.300    3.0191
   27.330    3.1420
   27.360    3.0016
   27.390    3.0893
   27.420    3.1771
   27.450    2.9489
   27.480    2.9314
   27.510    2.9314
   27.540    3.0016
   27.570    2.8787
   27.600    2.8787
   27.630    3.4755
   27.660    3.4931
   27.690    2.9665
   27.720    3.1947
   27.750    2.9314
   27.780    2.9665
   27.810    3.1245
   27.840    3.1245
   27.870    2.8787
   27.900    2.9665
   27.930    3.0542
   27.960    2.7909
   27.990    2.9489
   28.020    2.9138
   28.050    2.9489
   28.080    2.8436
   28.110    3.4229
   28.140    3.2122
   28.170    3.2473
   28.200    3.5106
   28.230    3.3000
   28.260    3.1069
   28.290    3.0367
   28.320    3.1420
   28.350    3.0191
   28.380    3.2649
   28.410    3.1420
   28.440    3.7564
   28.470    3.2473
   28.500    3.3000
   28.530    3.2824
   28.560    3.0718
   28.590    3.0016
   28.620    2.9840
   28.650    3.1245
   28.680    2.8963
   28.710    2.8963
   28.740    3.0718
   28.770    3.3351
   28.800    2.9665
   28.830    3.1596
   28.860    3.3702
   28.890    3.1420
   28.920    3.1420
   28.950    3.1947
   28.980    3.3175
   29.010    2.8085
   29.040    3.2122
   29.070    3.1420
   29.100    3.1596
   29.130    3.2122
   29.160    3.1596
   29.190    2.8436
   29.220    2.9840
   29.250    2.6330
   29.280    3.1069
   29.310    3.1245
   29.340    3.0191
   29.370    2.7734
   29.400    2.8963
   29.430    2.5101
   29.460    3.0191
   29.490    2.8085
   29.520    2.6681
   29.550    2.8085
   29.580    2.8963
   29.610    2.4750
   29.640    2.5979
   29.670    2.8612
   29.700    2.7558
   29.730    2.8436
   29.760    3.0367
   29.790    2.4750
   29.820    3.0893
   29.850    2.6505
   29.880    3.1771
   29.910    2.8612
   29.940    2.4574
   29.970    2.5803
   30.000    2.6681
   30.030    2.6681
   30.060    2.6681
   30.090    2.6856
   30.120    2.7383
   30.150    2.5803
   30.180    2.9314
   30.210    2.5803
   30.240    2.2819
   30.270    2.7734
   30.300    2.6330
   30.330    2.4223
   30.360    2.4574
   30.390    2.1941
   30.420    2.6856
   30.450    2.8612
   30.480    2.7383
   30.510    2.6154
   30.540    2.4574
   30.570    2.4574
   30.600    2.4750
   30.630    2.8436
   30.660    2.9840
   30.690    2.4399
   30.720    2.4574
   30.750    2.7558
   30.780    2.4223
   30.810    2.3872
   30.840    2.4574
   30.870    2.3697
   30.900    2.5452
   30.930    2.6681
   30.960    2.6154
   30.990    2.5101
   31.020    2.3521
   31.050    2.6154
   31.080    2.5979
   31.110    2.1590
   31.140    2.4048
   31.170    2.5276
   31.200    2.1590
   31.230    2.3521
   31.260    2.5628
   31.290    2.4048
   31.320    2.5628
   31.350    2.6856
   31.380    2.0011
   31.410    2.5628
   31.440    2.9840
   31.470    2.8085
   31.500    2.2643
   31.530    2.1064
   31.560    2.2117
   31.590    2.5452
   31.620    2.2995
   31.650    2.4048
   31.680    2.7734
   31.710    2.4048
   31.740    2.5803
   31.770    2.5628
   31.800    2.5628
   31.830    2.6330
   31.860    2.3872
   31.890    2.4048
   31.920    2.6154
   31.950    2.3346
   31.980    2.4925
   32.010    2.2292
   32.040    1.8431
   32.070    2.5979
   32.100    2.4750
   32.130    2.3697
   32.160    2.4223
   32.190    2.2819
   32.220    2.3872
   32.250    2.1766
   32.280    2.2468
   32.310    2.4574
   32.340    2.5979
   32.370    1.8782
   32.400    2.1590
   32.430    2.2819
   32.460    2.0888
   32.490    2.2292
   32.520    2.4223
   32.550    2.5628
   32.580    2.1590
   32.610    2.0888
   32.640    2.2468
   32.670    2.0011
   32.700    2.2117
   32.730    2.1239
   32.760    2.0888
   32.790    2.1590
   32.820    2.4925
   32.850    2.2995
   32.880    2.6330
   32.910    2.2117
   32.940    2.4223
   32.970    2.2995
   33.000    2.1590
   33.030    2.1590
   33.060    2.4925
   33.090    2.2468
   33.120    2.5101
   33.150    2.0537
   33.180    2.4574
   33.210    2.2292
   33.240    2.3697
   33.270    2.2117
   33.300    2.4925
   33.330    1.9133
   33.360    2.2995
   33.390    2.2819
   33.420    2.2292
   33.450    2.3872
   33.480    2.1941
   33.510    1.9659
   33.540    2.1064
   33.570    2.2643
   33.600    1.9835
   33.630    2.6154
   33.660    2.5101
   33.690    2.1766
   33.720    2.1941
   33.750    2.4399
   33.780    2.3170
   33.810    2.4399
   33.840    2.2468
   33.870    2.1415
   33.900    2.1941
   33.930    2.1941
   33.960    2.4925
   33.990    2.0888
   34.020    2.0186
   34.050    2.3521
   34.080    2.1941
   34.110    2.0362
   34.140    2.2643
   34.170    2.1590
   34.200    2.2468
   34.230    2.2468
   34.260    2.1239
   34.290    1.9835
   34.320    2.3521
   34.350    2.1766
   34.380    2.1941
   34.410    2.1941
   34.440    1.8606
   34.470    2.2292
   34.500    2.1590
   34.530    2.1415
   34.560    2.3346
   34.590    1.9484
   34.620    2.1590
   34.650    2.1766
   34.680    2.0713
   34.710    2.2468
   34.740    2.0011
   34.770    2.2643
   34.800    2.2819
   34.830    2.1239
   34.860    2.4048
   34.890    2.1064
   34.920    2.2643
   34.950    2.0362
   34.980    2.3872
   35.010    2.0186
   35.040    2.2292
   35.070    2.4048
   35.100    2.0888
   35.130    2.4048
   35.160    2.0362
   35.190    2.0186
   35.220    2.0713
   35.250    1.8255
   35.280    2.1941
   35.310    2.1239
   35.340    2.3170
   35.370    2.1590
   35.400    1.9659
   35.430    2.2468
   35.460    1.8957
   35.490    2.0537
   35.520    2.2292
   35.550    2.3170
   35.580    2.3872
   35.610    2.2643
   35.640    1.9133
   35.670    2.1064
   35.700    2.3521
   35.730    2.0537
   35.760    2.2117
   35.790    1.9835
   35.820    2.0537
   35.850    2.1766
   35.880    2.3346
   35.910    2.2117
   35.940    2.0888
   35.970    1.9659
   36.000    2.2468
   36.030    2.5628
   36.060    2.3521
   36.090    1.8255
   36.120    2.4750
   36.150    2.2117
   36.180    2.2292
   36.210    2.0537
   36.240    2.0537
   36.270    1.8782
   36.300    2.1239
   36.330    2.0362
   36.360    2.2643
   36.390    1.9659
   36.420    1.8782
   36.450    2.1239
   36.480    2.2117
   36.510    1.5798
   36.540    2.2995
   36.570    2.2995
   36.600    2.3346
   36.630    2.2117
   36.660    2.1590
   36.690    2.4925
   36.720    2.4048
   36.750    2.1415
   36.780    2.1415
   36.810    2.3872
   36.840    1.9835
   36.870    2.0888
   36.900    2.1239
   36.930    1.9308
   36.960    1.7378
   36.990    2.2819
   37.020    1.9659
   37.050    1.9659
   37.080    2.1766
   37.110    2.0888
   37.140    2.0713
   37.170    2.0713
   37.200    2.1064
   37.230    1.7378
   37.260    1.7553
   37.290    2.0888
   37.320    2.1415
   37.350    2.1239
   37.380    1.9835
   37.410    2.0537
   37.440    1.8080
   37.470    1.8782
   37.500    2.1064
   37.530    2.0186
   37.560    2.2995
   37.590    2.2819
   37.620    2.2468
   37.650    1.9659
   37.680    2.1766
   37.710    2.0362
   37.740    1.8782
   37.770    2.1941
   37.800    2.1239
   37.830    2.1941
   37.860    1.8782
   37.890    2.1064
   37.920    1.9659
   37.950    1.8080
   37.980    2.1766
   38.010    2.3346
   38.040    2.1941
   38.070    2.0713
   38.100    2.2995
   38.130    2.0011
   38.160    1.7202
   38.190    2.1239
   38.220    2.2995
   38.250    1.8782
   38.280    2.0713
   38.310    1.9835
   38.340    1.7904
   38.370    2.0888
   38.400    1.7202
   38.430    1.9835
   38.460    2.1239
   38.490    2.1766
   38.520    2.2292
   38.550    2.0186
   38.580    2.2468
   38.610    1.9835
   38.640    1.9308
   38.670    1.8957
   38.700    2.1415
   38.730    2.2292
   38.760    1.9659
   38.790    1.8431
   38.820    2.2292
   38.850    1.9308
   38.880    1.7553
   38.910    2.2819
   38.940    2.0888
   38.970    1.7904
   39.000    1.8431
   39.030    1.8431
   39.060    1.8957
   39.090    1.7729
   39.120    2.1239
   39.150    2.1239
   39.180    1.8957
   39.210    1.9133
   39.240    2.2292
   39.270    2.1064
   39.300    2.0186
   39.330    1.9484
   39.360    2.0186
   39.390    1.8957
   39.420    1.7904
   39.450    2.0011
   39.480    1.9133
   39.510    2.1590
   39.540    2.0888
   39.570    2.1590
   39.600    2.0186
   39.630    2.0186
   39.660    2.0186
   39.690    1.9133
   39.720    1.6675
   39.750    1.8431
   39.780    2.0537
   39.810    1.6675
   39.840    1.7027
   39.870    1.8606
   39.900    1.8606
   39.930    2.0713
   39.960    2.0011
   39.990    2.0362