File: data/MOCOF-1/PXRD/PXRD_KE-019_Cu-Ka1_capillary-1mm_5s-deg.xyd
    1.500   45.6030
    1.530   44.9289
    1.560   43.1385
    1.590   42.3697
    1.620   40.8531
    1.650   39.7367
    1.680   40.0316
    1.710   37.9568
    1.740   37.1037
    1.770   36.7351
    1.800   35.0079
    1.830   35.3660
    1.860   33.9231
    1.890   33.3965
    1.920   33.5018
    1.950   32.4908
    1.980   31.6377
    2.010   32.5013
    2.040   30.2896
    2.070   29.8262
    2.100   29.7525
    2.130   28.9837
    2.160   29.3839
    2.190   28.9626
    2.220   28.7414
    2.250   28.2254
    2.280   28.3728
    2.310   27.5513
    2.340   29.1522
    2.370   27.9621
    2.400   27.9832
    2.430   28.0358
    2.460   28.0885
    2.490   27.5197
    2.520   27.9726
    2.550   26.9300
    2.580   27.8357
    2.610   28.4571
    2.640   29.1838
    2.670   29.2575
    2.700   28.8784
    2.730   29.2259
    2.760   30.3002
    2.790   30.3633
    2.820   31.8273
    2.850   31.2375
    2.880   31.8589
    2.910   33.0068
    2.940   33.4913
    2.970   34.7235
    3.000   35.9452
    3.030   36.0821
    3.060   37.8726
    3.090   38.4413
    3.120   39.6209
    3.150   41.1164
    3.180   42.9384
    3.210   44.5182
    3.240   45.9821
    3.270   49.3628
    3.300   50.9005
    3.330   53.9758
    3.360   56.2507
    3.390   61.6008
    3.420   63.8125
    3.450   67.3196
    3.480   67.6883
    3.510   65.2975
    3.540   61.2744
    3.570   54.2812
    3.600   50.0579
    3.630   45.0026
    3.660   42.8857
    3.690   40.4845
    3.720   40.5055
    3.750   40.6214
    3.780   40.2001
    3.810   39.6314
    3.840   39.1680
    3.870   38.3676
    3.900   37.5671
    3.930   35.6187
    3.960   33.2912
    3.990   32.1327
    4.020   29.0363
    4.050   27.4460
    4.080   25.9610
    4.110   22.7278
    4.140   21.2217
    4.170   19.7051
    4.200   18.3360
    4.230   17.9147
    4.260   16.7141
    4.290   16.5877
    4.320   15.6819
    4.350   15.3976
    4.380   14.3023
    4.410   14.4602
    4.440   13.7230
    4.470   13.0806
    4.500   13.4071
    4.530   12.8699
    4.560   12.9858
    4.590   12.9542
    4.620   12.9963
    4.650   12.3960
    4.680   12.0695
    4.710   12.0274
    4.740   11.9642
    4.770   12.5329
    4.800   11.3217
    4.830   11.3533
    4.860   11.1216
    4.890   11.4903
    4.920   11.4903
    4.950   11.1322
    4.980   11.3955
    5.010   10.9110
    5.040   11.0374
    5.070   10.6477
    5.100   11.4165
    5.130   10.4687
    5.160   10.5108
    5.190   10.7214
    5.220   10.3002
    5.250   10.4792
    5.280   10.7530
    5.310   10.4371
    5.340   10.8478
    5.370   10.5108
    5.400   10.0895
    5.430   10.2475
    5.460    9.8684
    5.490   10.3107
    5.520    9.6788
    5.550   10.1316
    5.580    9.8473
    5.610    9.8262
    5.640   10.2896
    5.670    9.8262
    5.700    9.7314
    5.730    9.3944
    5.760   10.0474
    5.790    9.9631
    5.820    9.6577
    5.850    9.1522
    5.880    9.5945
    5.910    9.7104
    5.940    9.2154
    5.970    9.8157
    6.000    9.5524
    6.030    9.4892
    6.060    9.7209
    6.090    9.8578
    6.120    9.3944
    6.150    9.9526
    6.180    9.9631
    6.210    9.4260
    6.240    9.2680
    6.270    9.8157
    6.300    9.6577
    6.330   10.0685
    6.360   10.1106
    6.390   10.2370
    6.420   10.1422
    6.450   10.3002
    6.480   10.9426
    6.510   10.3633
    6.540   10.3633
    6.570   11.1006
    6.600   11.1427
    6.630   11.5008
    6.660   12.3749
    6.690   11.7536
    6.720   12.1959
    6.750   13.0068
    6.780   13.2491
    6.810   14.1969
    6.840   13.8810
    6.870   14.9131
    6.900   15.8715
    6.930   15.8715
    6.960   16.4297
    6.990   16.7562
    7.020   16.3770
    7.050   15.1869
    7.080   14.9552
    7.110   13.6072
    7.140   12.6382
    7.170   12.1748
    7.200   12.1222
    7.230   11.7746
    7.260   11.1427
    7.290   10.9742
    7.320   10.9531
    7.350   10.9110
    7.380   11.5324
    7.410   10.6056
    7.440   10.9742
    7.470   11.3323
    7.500   11.5640
    7.530   11.3744
    7.560   11.4587
    7.590   11.9221
    7.620   12.6593
    7.650   12.2696
    7.680   13.2701
    7.710   13.0384
    7.740   14.3444
    7.770   14.7867
    7.800   13.9126
    7.830   14.9552
    7.860   14.4497
    7.890   15.7767
    7.920   15.0184
    7.950   14.8499
    7.980   14.4076
    8.010   14.8078
    8.040   14.2285
    8.070   13.7967
    8.100   13.2491
    8.130   11.8378
    8.160   11.6904
    8.190   11.5008
    8.220   11.5113
    8.250   10.7952
    8.280   10.9426
    8.310   10.8373
    8.340   10.5213
    8.370   10.3633
    8.400    9.8368
    8.430    9.8999
    8.460    9.3523
    8.490    9.7630
    8.520    9.2575
    8.550    9.8684
    8.580    9.8684
    8.610    9.5629
    8.640    9.6893
    8.670    9.9737
    8.700    9.2575
    8.730    9.6577
    8.760    9.2575
    8.790    9.4892
    8.820    9.2154
    8.850    9.9842
    8.880    9.2575
    8.910    9.3418
    8.940    9.4681
    8.970    9.0153
    9.000    9.5419
    9.030    9.2154
    9.060    9.5313
    9.090    9.3207
    9.120    9.3944
    9.150    9.5629
    9.180    9.6156
    9.210    9.3418
    9.240    9.4471
    9.270    9.2680
    9.300    9.1732
    9.330    9.4365
    9.360    8.9837
    9.390    9.3523
    9.420    9.0574
    9.450    9.3418
    9.480    9.6156
    9.510    9.4787
    9.540    9.0469
    9.570    8.9837
    9.600    9.3102
    9.630    9.0153
    9.660    8.6045
    9.690    9.4576
    9.720    9.1732
    9.750    9.2048
    9.780    8.5729
    9.810    9.3628
    9.840    9.4787
    9.870    9.2891
    9.900    9.3944
    9.930    9.4365
    9.960    9.2575
    9.990    9.4576
   10.020    9.7630
   10.050    9.4365
   10.080    9.2048
   10.110    9.2575
   10.140    9.4997
   10.170    9.8684
   10.200    9.5208
   10.230    9.3734
   10.260    9.8684
   10.290    9.3628
   10.320   10.0053
   10.350    9.3944
   10.380    9.8684
   10.410   10.0685
   10.440   10.0158
   10.470    9.7736
   10.500    9.9210
   10.530   10.4265
   10.560    9.6682
   10.590    9.8999
   10.620    9.6577
   10.650    9.7736
   10.680    9.8368
   10.710    9.7420
   10.740    9.7314
   10.770    9.5208
   10.800    9.3418
   10.830   10.0895
   10.860    9.0258
   10.890    9.6156
   10.920    9.3102
   10.950    9.4997
   10.980    8.8257
   11.010    9.2996
   11.040    9.0363
   11.070    9.1627
   11.100    8.8257
   11.130    8.6572
   11.160    8.9205
   11.190    8.8046
   11.220    9.1101
   11.250    8.9731
   11.280    8.9942
   11.310    8.9100
   11.340    9.0047
   11.370    9.1206
   11.400    9.2786
   11.430    8.9626
   11.460    9.6893
   11.490    9.3207
   11.520    9.0047
   11.550    9.4471
   11.580    8.8468
   11.610    9.0047
   11.640    9.1838
   11.670    9.2575
   11.700    9.2575
   11.730    9.5103
   11.760    8.7941
   11.790    9.4997
   11.820    9.0574
   11.850    9.8262
   11.880    9.2470
   11.910    9.2364
   11.940    9.2259
   11.970    9.7736
   12.000    9.6261
   12.030    9.3734
   12.060    9.2575
   12.090    9.0047
   12.120    8.7414
   12.150    9.3523
   12.180    8.9310
   12.210    8.9415
   12.240    8.6151
   12.270    8.8889
   12.300    8.9100
   12.330    8.7520
   12.360    9.2048
   12.390    8.6467
   12.420    8.5308
   12.450    8.8678
   12.480    8.8994
   12.510    8.8046
   12.540    9.3944
   12.570    8.5940
   12.600    8.8784
   12.630    8.5203
   12.660    8.5203
   12.690    8.8362
   12.720    8.7836
   12.750    8.7625
   12.780    8.9205
   12.810    8.6888
   12.840    8.9942
   12.870    9.0363
   12.900    8.5835
   12.930    9.0469
   12.960    8.5519
   12.990    8.6572
   13.020    7.9094
   13.050    7.9094
   13.080    8.7520
   13.110    8.1938
   13.140    8.4466
   13.170    8.6151
   13.200    8.1938
   13.230    8.2464
   13.260    8.6151
   13.290    7.9516
   13.320    8.1095
   13.350    8.5519
   13.380    8.4150
   13.410    8.6467
   13.440    8.7309
   13.470    8.5519
   13.500    8.4781
   13.530    8.3518
   13.560    8.6572
   13.590    8.2254
   13.620    8.4781
   13.650    8.6467
   13.680    8.5203
   13.710    8.4887
   13.740    8.4992
   13.770    8.1095
   13.800    8.6677
   13.830    8.4887
   13.860    8.5097
   13.890    8.6467
   13.920    7.8568
   13.950    8.1411
   13.980    8.2149
   14.010    8.2464
   14.040    8.0674
   14.070    8.6361
   14.100    8.5097
   14.130    8.0253
   14.160    8.0885
   14.190    8.1833
   14.220    7.8357
   14.250    7.9831
   14.280    8.0569
   14.310    7.8568
   14.340    8.1201
   14.370    7.9937
   14.400    8.5519
   14.430    7.6567
   14.460    8.6256
   14.490    7.9831
   14.520    8.0779
   14.550    8.2886
   14.580    8.2675
   14.610    8.4571
   14.640    8.4781
   14.670    8.2991
   14.700    8.1517
   14.730    7.6567
   14.760    8.1517
   14.790    8.4781
   14.820    8.3202
   14.850    8.2886
   14.880    7.7514
   14.910    8.1306
   14.940    8.2149
   14.970    8.5308
   15.000    8.2570
   15.030    7.8252
   15.060    8.4466
   15.090    8.3307
   15.120    8.2991
   15.150    8.3834
   15.180    7.7725
   15.210    8.3939
   15.240    8.5940
   15.270    7.9410
   15.300    7.9516
   15.330    8.4466
   15.360    7.9516
   15.390    7.9410
   15.420    8.0463
   15.450    8.1833
   15.480    8.2570
   15.510    8.6993
   15.540    8.5203
   15.570    8.2570
   15.600    8.3096
   15.630    7.9726
   15.660    8.3412
   15.690    8.2675
   15.720    8.1095
   15.750    8.3412
   15.780    8.4571
   15.810    8.0569
   15.840    8.4676
   15.870    8.5940
   15.900    8.4360
   15.930    8.3096
   15.960    8.4466
   15.990    8.8678
   16.020    8.6888
   16.050    8.3939
   16.080    8.2780
   16.110    8.8468
   16.140    8.4255
   16.170    8.1095
   16.200    8.4150
   16.230    8.9100
   16.260    7.8673
   16.290    8.2464
   16.320    8.6467
   16.350    8.4466
   16.380    8.2043
   16.410    8.5097
   16.440    8.1201
   16.470    8.1411
   16.500    7.9831
   16.530    8.2043
   16.560    8.0463
   16.590    7.9937
   16.620    7.6040
   16.650    8.4360
   16.680    8.2886
   16.710    8.2780
   16.740    8.4571
   16.770    8.1306
   16.800    8.4466
   16.830    7.8252
   16.860    8.0569
   16.890    8.0463
   16.920    8.1622
   16.950    8.3518
   16.980    8.2149
   17.010    8.1517
   17.040    7.9831
   17.070    8.0358
   17.100    8.6572
   17.130    7.9937
   17.160    8.3834
   17.190    8.4150
   17.220    8.1727
   17.250    8.0674
   17.280    8.2570
   17.310    7.9621
   17.340    7.8884
   17.370    8.8573
   17.400    7.9200
   17.430    8.7941
   17.460    8.1201
   17.490    7.9831
   17.520    8.5835
   17.550    8.2043
   17.580    8.5413
   17.610    8.3939
   17.640    8.3518
   17.670    8.3939
   17.700    8.0990
   17.730    8.3307
   17.760    8.6783
   17.790    8.4255
   17.820    8.0463
   17.850    8.3623
   17.880    8.3518
   17.910    8.5624
   17.940    7.9200
   17.970    8.1622
   18.000    8.2780
   18.030    8.6256
   18.060    7.9410
   18.090    8.4992
   18.120    8.8257
   18.150    8.5624
   18.180    8.2780
   18.210    8.2254
   18.240    8.6045
   18.270    8.2254
   18.300    8.3623
   18.330    8.3623
   18.360    8.2570
   18.390    8.6572
   18.420    8.3202
   18.450    8.2780
   18.480    8.2254
   18.510    8.4781
   18.540    7.9410
   18.570    8.8362
   18.600    8.6993
   18.630    8.4992
   18.660    8.6677
   18.690    8.6045
   18.720    8.9310
   18.750    8.3202
   18.780    8.3939
   18.810    8.2043
   18.840    8.3939
   18.870    8.9521
   18.900    8.2780
   18.930    8.3518
   18.960    8.8152
   18.990    8.3307
   19.020    8.3202
   19.050    8.5413
   19.080    8.4044
   19.110    8.5308
   19.140    8.5413
   19.170    8.6151
   19.200    8.7520
   19.230    8.2991
   19.260    8.2043
   19.290    8.5519
   19.320    8.6256
   19.350    8.6572
   19.380    8.6467
   19.410    8.5519
   19.440    8.8889
   19.470    8.8257
   19.500    8.6151
   19.530    8.9415
   19.560    8.4992
   19.590    8.2464
   19.620    8.3412
   19.650    8.7625
   19.680    8.7309
   19.710    8.8889
   19.740    8.4992
   19.770    8.4887
   19.800    8.9942
   19.830    8.4676
   19.860    8.9626
   19.890    9.3102
   19.920    8.8573
   19.950    9.0153
   19.980    9.3207
   20.010    8.5097
   20.040    8.3728
   20.070    8.9310
   20.100    8.8889
   20.130    8.5413
   20.160    9.4471
   20.190    8.8889
   20.220    8.5940
   20.250    9.0363
   20.280    9.6156
   20.310    9.0995
   20.340    8.8152
   20.370    9.5840
   20.400    9.0047
   20.430    9.2575
   20.460    9.0258
   20.490    8.9310
   20.520    8.9100
   20.550    9.2470
   20.580    9.4050
   20.610    9.1943
   20.640    8.9310
   20.670    8.9521
   20.700    9.0574
   20.730    9.4787
   20.760    8.9731
   20.790    9.0363
   20.820    8.5624
   20.850    8.8362
   20.880    8.7309
   20.910    8.9731
   20.940    9.0258
   20.970    9.0785
   21.000    8.8573
   21.030    9.1101
   21.060    9.5629
   21.090    9.0258
   21.120    9.5419
   21.150    8.8678
   21.180    8.5940
   21.210    8.7941
   21.240    9.1417
   21.270    8.9415
   21.300    8.6572
   21.330    9.2575
   21.360    8.6993
   21.390    9.3418
   21.420    8.8152
   21.450    8.9205
   21.480    8.8573
   21.510    9.2364
   21.540    9.0258
   21.570    9.0574
   21.600    8.8678
   21.630    9.0153
   21.660    9.1627
   21.690    9.2154
   21.720    9.0785
   21.750    9.1311
   21.780    9.3523
   21.810    8.9415
   21.840    9.0995
   21.870    8.6256
   21.900    9.5313
   21.930    8.9626
   21.960    9.3102
   21.990    9.3734
   22.020    9.1101
   22.050    8.8889
   22.080    9.4471
   22.110    9.3102
   22.140    9.2048
   22.170    9.5313
   22.200    9.4576
   22.230    9.1417
   22.260    8.7414
   22.290    9.5735
   22.320    8.9415
   22.350    9.3102
   22.380    9.4997
   22.410    8.9731
   22.440    9.4365
   22.470    9.0047
   22.500    8.8784
   22.530    9.1417
   22.560    9.1101
   22.590    9.2786
   22.620    8.9310
   22.650    9.4997
   22.680    9.0995
   22.710    9.2048
   22.740    9.3734
   22.770    9.0679
   22.800    9.2470
   22.830    8.8468
   22.860    9.4892
   22.890    9.0890
   22.920    9.5419
   22.950    8.7836
   22.980    9.1627
   23.010    9.0679
   23.040    9.1522
   23.070    8.9837
   23.100    9.0995
   23.130    8.7414
   23.160    8.9731
   23.190    9.0258
   23.220    9.1838
   23.250    8.6151
   23.280    9.1311
   23.310    9.2891
   23.340    8.8362
   23.370    9.1732
   23.400    8.6993
   23.430    9.0469
   23.460    9.0258
   23.490    8.6572
   23.520    8.7414
   23.550    8.7098
   23.580    8.9626
   23.610    8.5835
   23.640    8.6256
   23.670    8.6677
   23.700    8.4571
   23.730    9.0258
   23.760    8.4887
   23.790    8.5308
   23.820    8.5940
   23.850    9.1311
   23.880    8.8889
   23.910    8.5203
   23.940    8.4992
   23.970    8.2886
   24.000    9.0890
   24.030    8.6045
   24.060    8.9205
   24.090    8.5519
   24.120    8.7625
   24.150    8.7836
   24.180    8.2886
   24.210    8.7309
   24.240    8.2780
   24.270    8.6572
   24.300    8.6572
   24.330    8.3202
   24.360    8.9731
   24.390    8.4044
   24.420    8.6993
   24.450    8.6045
   24.480    9.1732
   24.510    8.7098
   24.540    8.7625
   24.570    8.8362
   24.600    8.6572
   24.630    8.6677
   24.660    8.6151
   24.690    8.4992
   24.720    8.6256
   24.750    8.7836
   24.780    8.7414
   24.810    8.6572
   24.840    8.6045
   24.870    8.1727
   24.900    8.5203
   24.930    8.8362
   24.960    8.9100
   24.990    8.2570
   25.020    8.2464
   25.050    8.5624
   25.080    8.3096
   25.110    8.6256
   25.140    8.3623
   25.170    8.6677
   25.200    8.2359
   25.230    8.2464
   25.260    8.2149
   25.290    8.2149
   25.320    8.5519
   25.350    8.5097
   25.380    8.3939
   25.410    8.2991
   25.440    8.5519
   25.470    8.3202
   25.500    8.2254
   25.530    8.3834
   25.560    7.9305
   25.590    7.8462
   25.620    7.8146
   25.650    7.9094
   25.680    8.5519
   25.710    8.1938
   25.740    7.5303
   25.770    7.9621
   25.800    8.2780
   25.830    8.1517
   25.860    8.4044
   25.890    7.9516
   25.920    8.5203
   25.950    8.3623
   25.980    8.1833
   26.010    7.9094
   26.040    7.5303
   26.070    7.9621
   26.100    8.1938
   26.130    7.9410
   26.160    8.1306
   26.190    8.2570
   26.220    8.1622
   26.250    8.2359
   26.280    7.8252
   26.310    7.8146
   26.340    8.0358
   26.370    7.7514
   26.400    7.8778
   26.430    7.8357
   26.460    8.0463
   26.490    7.9516
   26.520    8.3412
   26.550    7.8884
   26.580    7.8989
   26.610    8.1517
   26.640    8.0463
   26.670    7.1511
   26.700    7.7199
   26.730    7.8673
   26.760    7.7725
   26.790    7.9305
   26.820    8.0253
   26.850    8.3939
   26.880    8.0253
   26.910    7.6145
   26.940    7.7830
   26.970    7.4671
   27.000    7.8041
   27.030    7.6356
   27.060    7.8252
   27.090    7.4460
   27.120    8.3834
   27.150    7.7199
   27.180    7.6883
   27.210    8.1095
   27.240    7.5829
   27.270    7.7830
   27.300    7.8252
   27.330    7.4039
   27.360    7.6461
   27.390    7.5619
   27.420    7.6251
   27.450    7.9200
   27.480    7.9516
   27.510    7.7093
   27.540    7.9200
   27.570    7.6672
   27.600    8.1201
   27.630    7.9305
   27.660    8.0253
   27.690    8.0042
   27.720    7.8146
   27.750    7.6567
   27.780    8.1622
   27.810    7.7093
   27.840    7.7093
   27.870    7.5513
   27.900    8.0147
   27.930    7.6777
   27.960    7.2249
   27.990    7.3512
   28.020    7.9094
   28.050    7.8884
   28.080    7.6251
   28.110    7.7199
   28.140    7.6251
   28.170    7.8989
   28.200    7.6567
   28.230    7.0563
   28.260    7.6356
   28.290    8.0042
   28.320    7.5303
   28.350    7.7514
   28.380    7.8673
   28.410    8.1095
   28.440    7.3091
   28.470    7.7725
   28.500    7.9200
   28.530    7.7304
   28.560    7.6777
   28.590    7.5724
   28.620    7.9831
   28.650    7.5935
   28.680    7.2986
   28.710    7.3196
   28.740    7.7093
   28.770    7.6988
   28.800    7.3302
   28.830    7.4987
   28.860    7.7725
   28.890    7.4566
   28.920    7.2459
   28.950    7.2986
   28.980    7.6145
   29.010    7.4144
   29.040    7.1617
   29.070    7.3091
   29.100    7.2986
   29.130    7.2775
   29.160    7.0563
   29.190    7.5829
   29.220    7.1301
   29.250    7.2986
   29.280    7.2038
   29.310    7.3302
   29.340    6.9089
   29.370    7.3196
   29.400    7.0037
   29.430    7.6356
   29.460    7.5724
   29.490    7.3302
   29.520    7.3512
   29.550    7.6356
   29.580    7.3407
   29.610    7.6145
   29.640    7.4355
   29.670    7.2880
   29.700    7.3302
   29.730    7.3091
   29.760    7.3828
   29.790    7.0037
   29.820    7.3196
   29.850    7.3512
   29.880    7.8989
   29.910    7.5724
   29.940    7.3091
   29.970    7.0037
   30.000    7.7199
   30.030    6.9405
   30.060    7.4039
   30.090    6.9932
   30.120    7.0985
   30.150    7.1301
   30.180    7.2986
   30.210    7.3196
   30.240    7.3512
   30.270    7.2143
   30.300    6.8141
   30.330    7.3618
   30.360    7.4250
   30.390    7.4355
   30.420    6.8668
   30.450    7.2143
   30.480    7.3934
   30.510    6.8562
   30.540    6.9721
   30.570    7.2354
   30.600    6.9089
   30.630    7.0037
   30.660    7.3407
   30.690    7.0774
   30.720    6.8984
   30.750    7.0458
   30.780    7.0037
   30.810    7.2143
   30.840    6.9089
   30.870    7.1827
   30.900    7.0458
   30.930    7.3091
   30.960    7.3934
   30.990    7.3196
   31.020    7.0353
   31.050    6.8562
   31.080    7.1827
   31.110    7.1827
   31.140    7.0248
   31.170    7.5829
   31.200    6.9510
   31.230    7.1406
   31.260    6.8878
   31.290    6.8878
   31.320    7.2143
   31.350    6.8457
   31.380    6.9300
   31.410    7.2354
   31.440    7.3618
   31.470    6.7825
   31.500    7.0037
   31.530    7.4355
   31.560    7.0458
   31.590    6.4771
   31.620    7.1933
   31.650    7.3196
   31.680    7.2775
   31.710    6.9194
   31.740    6.7720
   31.770    7.0458
   31.800    7.1090
   31.830    6.7299
   31.860    6.6667
   31.890    7.2249
   31.920    7.1511
   31.950    7.0563
   31.980    7.0458
   32.010    7.3512
   32.040    6.7088
   32.070    6.6772
   32.100    6.9089
   32.130    6.8457
   32.160    7.0563
   32.190    6.6351
   32.220    7.2775
   32.250    6.8562
   32.280    6.9932
   32.310    7.2775
   32.340    6.9194
   32.370    6.9194
   32.400    7.0037
   32.430    7.0458
   32.460    6.6140
   32.490    6.7299
   32.520    6.7404
   32.550    7.0669
   32.580    7.0037
   32.610    6.9721
   32.640    6.8878
   32.670    7.0142
   32.700    6.8773
   32.730    7.3512
   32.760    6.5192
   32.790    6.6561
   32.820    6.6140
   32.850    6.4982
   32.880    6.8352
   32.910    6.7825
   32.940    6.6877
   32.970    6.6561
   33.000    6.8457
   33.030    6.9300
   33.060    6.7088
   33.090    6.5613
   33.120    6.6140
   33.150    6.5508
   33.180    7.0774
   33.210    6.6456
   33.240    6.6456
   33.270    6.3296
   33.300    6.4982
   33.330    6.4982
   33.360    6.8562
   33.390    6.5087
   33.420    6.4982
   33.450    6.7193
   33.480    6.6877
   33.510    6.3402
   33.540    6.6561
   33.570    6.7825
   33.600    6.5087
   33.630    6.7720
   33.660    6.2138
   33.690    6.6351
   33.720    6.6983
   33.750    6.6561
   33.780    6.4560
   33.810    6.3402
   33.840    6.7509
   33.870    6.4876
   33.900    6.4034
   33.930    6.6351
   33.960    6.3086
   33.990    6.1190
   34.020    6.5298
   34.050    6.4350
   34.080    6.3612
   34.110    6.8141
   34.140    6.6035
   34.170    6.4982
   34.200    6.3296
   34.230    6.5719
   34.260    6.2981
   34.290    6.4560
   34.320    6.5719
   34.350    5.8241
   34.380    6.4350
   34.410    6.3928
   34.440    6.6983
   34.470    6.2454
   34.500    6.4455
   34.530    6.6035
   34.560    6.2665
   34.590    6.7509
   34.620    6.2033
   34.650    6.2138
   34.680    6.5613
   34.710    6.6140
   34.740    6.3402
   34.770    6.8246
   34.800    6.2770
   34.830    6.3718
   34.860    6.6351
   34.890    6.7509
   34.920    6.5403
   34.950    6.4876
   34.980    6.7720
   35.010    6.4350
   35.040    6.0769
   35.070    6.2243
   35.100    6.2875
   35.130    5.9610
   35.160    6.3823
   35.190    6.0558
   35.220    6.4666
   35.250    6.5192
   35.280    6.7930
   35.310    6.3296
   35.340    6.1295
   35.370    6.2559
   35.400    6.1717
   35.430    6.4560
   35.460    6.1927
   35.490    6.2243
   35.520    6.4139
   35.550    6.2243
   35.580    5.9610
   35.610    6.3191
   35.640    6.6877
   35.670    6.0664
   35.700    6.4139
   35.730    6.5298
   35.760    6.3191
   35.790    6.4560
   35.820    6.2033
   35.850    5.8873
   35.880    6.3191
   35.910    6.1295
   35.940    6.0769
   35.970    6.2981
   36.000    6.0137
   36.030    6.3402
   36.060    5.7609
   36.090    6.1085
   36.120    6.7088
   36.150    6.1506
   36.180    6.7193
   36.210    6.4350
   36.240    6.3086
   36.270    6.5403
   36.300    6.3296
   36.330    6.3191
   36.360    5.9821
   36.390    6.3296
   36.420    6.0453
   36.450    6.1401
   36.480    6.2033
   36.510    6.0453
   36.540    6.1506
   36.570    6.3402
   36.600    6.7404
   36.630    6.2033
   36.660    5.8347
   36.690    6.4350
   36.720    6.1506
   36.750    6.0137
   36.780    6.0874
   36.810    6.4876
   36.840    6.4034
   36.870    5.8136
   36.900    6.2349
   36.930    5.9716
   36.960    5.9926
   36.990    6.1927
   37.020    6.5929
   37.050    6.2770
   37.080    6.6561
   37.110    5.7925
   37.140    6.0558
   37.170    6.4244
   37.200    5.9926
   37.230    6.4139
   37.260    6.2138
   37.290    6.1295
   37.320    6.1927
   37.350    5.8978
   37.380    5.8662
   37.410    6.0664
   37.440    6.1927
   37.470    6.3612
   37.500    5.9400
   37.530    6.2770
   37.560    6.2770
   37.590    5.8978
   37.620    5.9084
   37.650    5.9716
   37.680    6.0769
   37.710    6.1085
   37.740    6.2454
   37.770    5.9821
   37.800    6.1401
   37.830    6.1506
   37.860    5.9084
   37.890    5.9294
   37.920    6.2665
   37.950    5.8978
   37.980    6.2243
   38.010    6.1190
   38.040    5.8241
   38.070    6.0242
   38.100    6.1822
   38.130    5.7925
   38.160    5.8557
   38.190    5.8978
   38.220    6.0664
   38.250    6.1717
   38.280    6.2770
   38.310    6.0348
   38.340    6.1506
   38.370    6.0242
   38.400    5.9505
   38.430    6.1506
   38.460    6.2559
   38.490    6.0032
   38.520    6.1190
   38.550    6.2138
   38.580    5.8978
   38.610    6.4455
   38.640    6.1927
   38.670    6.2033
   38.700    6.0874
   38.730    5.9400
   38.760    6.0769
   38.790    5.5819
   38.820    5.9084
   38.850    6.0558
   38.880    6.1085
   38.910    5.6661
   38.940    6.3191
   38.970    5.9294
   39.000    6.2138
   39.030    6.1822
   39.060    6.0453
   39.090    6.1611
   39.120    6.3191
   39.150    5.9400
   39.180    5.9294
   39.210    6.0137
   39.240    6.2454
   39.270    5.9505
   39.300    6.3296
   39.330    5.9716
   39.360    6.0032
   39.390    5.9610
   39.420    5.9400
   39.450    6.2770
   39.480    6.2243
   39.510    6.0874
   39.540    5.7399
   39.570    6.2454
   39.600    6.1611
   39.630    6.1611
   39.660    6.1927
   39.690    5.9821
   39.720    6.1085
   39.750    5.8873
   39.780    6.3507
   39.810    5.6977
   39.840    5.9821
   39.870    6.3296
   39.900    5.9716
   39.930    6.1190
   39.960    5.8136
   39.990    6.2875