File: data/MOCOF-1/PXRD/PXRD_KE-008_Cu-Ka1_capillary-1mm_5s-deg.xyd
    1.500   37.7357
    1.530   37.6725
    1.560   36.8615
    1.590   34.5024
    1.620   33.5124
    1.650   32.6172
    1.680   31.6166
    1.710   29.9631
    1.740   29.2154
    1.770   28.3307
    1.800   28.0253
    1.830   27.1933
    1.860   26.0032
    1.890   25.6556
    1.920   24.7815
    1.950   24.0969
    1.980   23.3386
    2.010   22.4013
    2.040   22.7172
    2.070   21.7694
    2.100   21.2006
    2.130   21.4113
    2.160   20.3476
    2.190   19.8842
    2.220   19.9895
    2.250   19.0732
    2.280   19.0732
    2.310   18.4729
    2.340   18.1148
    2.370   18.0095
    2.400   17.8094
    2.430   17.5040
    2.460   16.6719
    2.490   16.5666
    2.520   15.9874
    2.550   15.9242
    2.580   15.3239
    2.610   15.8083
    2.640   15.6714
    2.670   14.8920
    2.700   14.8710
    2.730   14.9026
    2.760   14.9236
    2.790   13.9442
    2.820   14.2496
    2.850   14.2812
    2.880   13.9231
    2.910   13.5124
    2.940   13.1543
    2.970   13.3965
    3.000   13.0911
    3.030   12.5013
    3.060   12.6277
    3.090   12.9753
    3.120   11.7746
    3.150   12.7541
    3.180   11.8589
    3.210   12.3223
    3.240   12.0906
    3.270   11.6061
    3.300   11.7957
    3.330   11.6166
    3.360   11.6904
    3.390   11.6166
    3.420   11.8483
    3.450   11.9642
    3.480   11.5008
    3.510   11.1322
    3.540   11.2796
    3.570   10.5003
    3.600   10.6688
    3.630   10.8583
    3.660   11.0269
    3.690   11.1638
    3.720   11.2375
    3.750   10.8373
    3.780   10.8268
    3.810   10.7109
    3.840   10.3949
    3.870   10.3423
    3.900   10.2791
    3.930   10.7004
    3.960    9.7946
    3.990    9.7841
    4.020   10.1211
    4.050   10.1422
    4.080    9.8157
    4.110   10.6266
    4.140   10.0158
    4.170   10.0369
    4.200    9.6682
    4.230    9.8368
    4.260    9.9526
    4.290   10.0263
    4.320    9.7314
    4.350    9.6472
    4.380    9.5735
    4.410    9.2575
    4.440    9.6051
    4.470    9.4997
    4.500    9.3102
    4.530    9.2364
    4.560    9.3312
    4.590    9.7841
    4.620    8.9626
    4.650    9.4997
    4.680    9.3523
    4.710    8.9626
    4.740    9.4365
    4.770    8.8678
    4.800    8.9310
    4.830    9.1311
    4.860    8.7625
    4.890    8.9205
    4.920    8.6467
    4.950    9.1101
    4.980    9.1101
    5.010    9.0363
    5.040    9.1943
    5.070    9.2996
    5.100    8.8784
    5.130    9.0995
    5.160    9.1732
    5.190    9.1101
    5.220    8.7520
    5.250    8.7941
    5.280    8.5729
    5.310    8.5203
    5.340    8.6151
    5.370    8.8573
    5.400    8.8784
    5.430    8.4044
    5.460    8.5519
    5.490    8.6467
    5.520    8.7520
    5.550    8.7730
    5.580    8.6361
    5.610    8.7204
    5.640    8.7941
    5.670    8.4571
    5.700    8.5729
    5.730    8.5729
    5.760    8.5835
    5.790    8.3202
    5.820    8.3307
    5.850    8.4044
    5.880    8.4150
    5.910    8.3728
    5.940    8.6467
    5.970    8.5097
    6.000    8.7414
    6.030    8.7098
    6.060    8.5519
    6.090    8.6888
    6.120    8.0990
    6.150    8.7520
    6.180    8.4044
    6.210    8.7941
    6.240    8.3518
    6.270    8.4360
    6.300    8.6783
    6.330    8.6467
    6.360    8.5729
    6.390    8.4150
    6.420    9.0153
    6.450    8.3728
    6.480    8.5519
    6.510    8.8573
    6.540    8.2886
    6.570    8.7204
    6.600    8.0253
    6.630    8.3834
    6.660    8.5203
    6.690    8.4676
    6.720    8.6677
    6.750    8.3202
    6.780    8.5097
    6.810    8.4676
    6.840    8.7941
    6.870    8.4360
    6.900    8.9205
    6.930    8.3939
    6.960    8.9415
    6.990    8.4992
    7.020    8.6256
    7.050    8.0885
    7.080    8.5624
    7.110    8.7520
    7.140    8.2675
    7.170    8.8784
    7.200    8.4255
    7.230    8.3623
    7.260    8.3202
    7.290    8.2886
    7.320    8.7414
    7.350    8.5519
    7.380    8.3307
    7.410    8.6256
    7.440    8.3939
    7.470    8.6151
    7.500    8.2991
    7.530    8.4887
    7.560    8.3518
    7.590    8.8468
    7.620    8.5624
    7.650    8.5519
    7.680    8.5308
    7.710    8.5097
    7.740    8.5203
    7.770    8.8046
    7.800    8.6993
    7.830    8.3834
    7.860    8.8994
    7.890    8.7098
    7.920    8.8573
    7.950    8.7414
    7.980    8.4887
    8.010    8.8784
    8.040    8.7204
    8.070    8.5624
    8.100    8.7204
    8.130    9.2470
    8.160    8.5097
    8.190    9.0047
    8.220    8.9521
    8.250    8.8573
    8.280    8.7098
    8.310    8.4255
    8.340    8.5413
    8.370    8.9942
    8.400    8.6888
    8.430    9.4576
    8.460    9.0153
    8.490    8.8046
    8.520    8.6361
    8.550    8.8046
    8.580    8.2780
    8.610    8.9942
    8.640    8.8362
    8.670    8.6677
    8.700    8.9837
    8.730    9.0574
    8.760    8.8784
    8.790    8.4676
    8.820    8.4676
    8.850    9.0258
    8.880    9.0995
    8.910    8.6045
    8.940    8.8573
    8.970    8.5940
    9.000    8.5940
    9.030    8.8889
    9.060    9.0890
    9.090    8.8994
    9.120    8.7941
    9.150    8.5835
    9.180    8.8362
    9.210    8.5413
    9.240    8.3939
    9.270    8.8889
    9.300    9.0574
    9.330    8.8152
    9.360    8.9837
    9.390    8.9942
    9.420    8.5413
    9.450    9.2996
    9.480    9.0469
    9.510    8.8784
    9.540    8.9100
    9.570    8.8046
    9.600    8.6045
    9.630    8.8362
    9.660    9.1417
    9.690    8.4992
    9.720    8.5097
    9.750    8.6467
    9.780    8.6572
    9.810    8.6572
    9.840    8.6993
    9.870    8.6783
    9.900    8.5835
    9.930    8.9415
    9.960    9.3312
    9.990    8.7204
   10.020    8.8152
   10.050    8.7730
   10.080    9.0469
   10.110    8.9205
   10.140    8.8889
   10.170    8.3728
   10.200    8.6361
   10.230    8.5097
   10.260    8.7098
   10.290    8.8889
   10.320    8.8362
   10.350    9.2364
   10.380    8.8152
   10.410    8.4992
   10.440    8.6572
   10.470    9.2364
   10.500    8.6677
   10.530    8.7309
   10.560    9.0047
   10.590    8.9942
   10.620    8.6783
   10.650    8.8046
   10.680    8.6572
   10.710    9.0574
   10.740    8.2780
   10.770    8.6045
   10.800    8.7730
   10.830    8.7625
   10.860    8.6151
   10.890    8.4676
   10.920    8.3834
   10.950    8.6256
   10.980    9.0679
   11.010    8.7836
   11.040    8.6783
   11.070    8.3939
   11.100    9.4787
   11.130    8.5308
   11.160    8.7836
   11.190    8.3518
   11.220    8.4781
   11.250    8.1411
   11.280    8.3623
   11.310    8.2464
   11.340    8.3307
   11.370    8.2043
   11.400    8.3202
   11.430    8.7098
   11.460    8.2043
   11.490    8.0779
   11.520    8.3096
   11.550    7.9200
   11.580    8.5203
   11.610    7.9937
   11.640    8.5308
   11.670    8.3307
   11.700    8.3834
   11.730    8.4255
   11.760    8.1727
   11.790    7.7199
   11.820    8.1517
   11.850    8.2149
   11.880    8.4992
   11.910    8.3202
   11.940    8.4255
   11.970    7.9937
   12.000    8.3728
   12.030    7.9305
   12.060    7.4882
   12.090    8.2254
   12.120    7.9094
   12.150    8.1622
   12.180    8.2780
   12.210    7.9305
   12.240    7.5408
   12.270    7.9621
   12.300    8.0885
   12.330    7.7304
   12.360    7.5829
   12.390    8.3307
   12.420    7.8989
   12.450    7.5829
   12.480    8.0042
   12.510    8.1095
   12.540    7.7514
   12.570    7.7936
   12.600    7.5829
   12.630    8.1411
   12.660    7.3828
   12.690    7.3196
   12.720    7.9937
   12.750    8.0885
   12.780    8.0147
   12.810    8.1833
   12.840    7.4566
   12.870    7.8989
   12.900    7.8568
   12.930    7.5303
   12.960    7.6461
   12.990    7.8989
   13.020    7.5092
   13.050    7.5197
   13.080    7.6461
   13.110    7.7409
   13.140    7.7725
   13.170    7.7620
   13.200    7.6672
   13.230    7.4882
   13.260    7.5619
   13.290    7.6040
   13.320    7.3934
   13.350    7.6461
   13.380    7.8146
   13.410    7.5513
   13.440    7.6251
   13.470    7.7093
   13.500    7.4250
   13.530    7.4460
   13.560    7.9516
   13.590    7.5513
   13.620    7.5303
   13.650    7.4882
   13.680    7.8357
   13.710    7.6988
   13.740    7.8778
   13.770    7.8252
   13.800    7.6040
   13.830    7.6251
   13.860    7.2143
   13.890    7.8252
   13.920    7.9305
   13.950    7.3828
   13.980    7.5619
   14.010    7.7514
   14.040    7.4250
   14.070    7.2459
   14.100    7.5724
   14.130    7.5724
   14.160    7.8462
   14.190    7.5724
   14.220    7.5092
   14.250    7.8041
   14.280    7.8568
   14.310    7.7199
   14.340    8.0253
   14.370    7.5829
   14.400    7.3934
   14.430    7.5408
   14.460    7.3091
   14.490    7.3302
   14.520    7.2354
   14.550    7.4671
   14.580    7.7725
   14.610    7.7620
   14.640    7.5408
   14.670    7.2986
   14.700    7.5724
   14.730    7.3407
   14.760    7.4987
   14.790    7.5513
   14.820    7.4671
   14.850    7.5724
   14.880    7.9621
   14.910    7.5724
   14.940    7.2565
   14.970    7.5513
   15.000    7.5724
   15.030    7.3618
   15.060    7.4566
   15.090    7.3618
   15.120    7.2143
   15.150    7.2459
   15.180    7.2775
   15.210    7.4882
   15.240    7.6777
   15.270    7.7409
   15.300    7.2880
   15.330    7.6251
   15.360    7.4987
   15.390    7.7620
   15.420    7.4460
   15.450    7.2459
   15.480    7.6672
   15.510    7.3618
   15.540    7.1406
   15.570    7.7514
   15.600    7.8041
   15.630    7.4882
   15.660    7.9200
   15.690    7.6883
   15.720    7.8568
   15.750    7.6777
   15.780    7.3618
   15.810    7.5408
   15.840    7.3196
   15.870    7.3091
   15.900    7.4460
   15.930    7.3091
   15.960    7.7304
   15.990    7.4460
   16.020    7.3934
   16.050    7.9200
   16.080    7.7514
   16.110    7.5513
   16.140    7.3512
   16.170    7.0037
   16.200    7.6145
   16.230    7.3196
   16.260    7.6672
   16.290    7.4039
   16.320    7.2775
   16.350    7.7199
   16.380    7.3618
   16.410    7.5303
   16.440    7.3618
   16.470    7.6567
   16.500    7.4250
   16.530    7.2986
   16.560    7.5092
   16.590    7.6883
   16.620    8.0463
   16.650    7.8252
   16.680    7.5619
   16.710    7.2880
   16.740    7.8462
   16.770    7.7830
   16.800    7.2565
   16.830    8.1833
   16.860    7.3934
   16.890    7.5092
   16.920    7.5724
   16.950    7.7409
   16.980    7.7093
   17.010    7.7725
   17.040    7.5724
   17.070    7.6988
   17.100    7.2354
   17.130    7.5513
   17.160    7.5724
   17.190    7.8041
   17.220    7.4671
   17.250    7.2670
   17.280    7.4776
   17.310    7.3091
   17.340    7.7199
   17.370    7.4671
   17.400    8.0674
   17.430    7.6461
   17.460    7.3196
   17.490    7.6145
   17.520    7.6883
   17.550    7.6567
   17.580    7.8989
   17.610    7.6883
   17.640    7.3196
   17.670    7.7620
   17.700    7.5619
   17.730    7.7936
   17.760    7.5197
   17.790    7.9200
   17.820    7.3828
   17.850    7.9305
   17.880    7.9516
   17.910    7.8673
   17.940    7.8884
   17.970    7.9937
   18.000    7.7093
   18.030    8.0779
   18.060    7.6777
   18.090    7.6145
   18.120    7.8252
   18.150    7.8778
   18.180    7.5724
   18.210    7.3934
   18.240    7.7936
   18.270    7.1301
   18.300    7.8252
   18.330    7.5724
   18.360    7.2038
   18.390    7.7936
   18.420    7.3723
   18.450    8.0358
   18.480    7.5513
   18.510    7.8146
   18.540    7.5303
   18.570    7.3091
   18.600    7.3512
   18.630    7.6988
   18.660    7.5303
   18.690    7.9726
   18.720    7.8884
   18.750    7.7409
   18.780    7.4566
   18.810    7.6777
   18.840    7.6461
   18.870    7.6251
   18.900    8.0358
   18.930    7.9094
   18.960    7.9200
   18.990    7.3828
   19.020    7.5092
   19.050    7.6251
   19.080    7.4039
   19.110    7.6461
   19.140    7.1617
   19.170    7.5724
   19.200    7.9200
   19.230    7.8357
   19.260    7.7725
   19.290    7.4882
   19.320    7.6777
   19.350    8.0885
   19.380    7.6145
   19.410    7.6883
   19.440    7.8041
   19.470    8.0990
   19.500    7.6145
   19.530    8.0885
   19.560    7.6461
   19.590    7.7514
   19.620    7.5408
   19.650    7.5935
   19.680    7.9621
   19.710    7.8673
   19.740    7.6567
   19.770    8.2043
   19.800    7.9094
   19.830    7.8252
   19.860    7.4566
   19.890    7.7409
   19.920    7.7830
   19.950    7.5513
   19.980    7.7409
   20.010    7.9094
   20.040    7.8884
   20.070    7.9410
   20.100    7.8462
   20.130    7.7936
   20.160    7.9410
   20.190    7.3512
   20.220    8.1833
   20.250    7.8884
   20.280    7.7409
   20.310    7.4460
   20.340    7.8252
   20.370    7.8462
   20.400    7.7936
   20.430    7.4776
   20.460    7.8778
   20.490    7.9305
   20.520    8.1411
   20.550    7.7725
   20.580    7.8673
   20.610    8.1727
   20.640    7.4671
   20.670    7.6883
   20.700    8.1833
   20.730    7.6777
   20.760    7.9937
   20.790    8.5097
   20.820    8.0674
   20.850    7.5829
   20.880    7.8989
   20.910    7.5513
   20.940    7.7409
   20.970    7.8989
   21.000    7.8146
   21.030    7.9305
   21.060    7.9200
   21.090    8.1306
   21.120    7.7409
   21.150    7.8462
   21.180    7.4144
   21.210    7.6567
   21.240    7.8252
   21.270    8.1095
   21.300    8.0253
   21.330    8.0147
   21.360    8.0674
   21.390    7.7936
   21.420    7.9726
   21.450    7.7409
   21.480    7.9200
   21.510    8.3096
   21.540    8.0042
   21.570    7.9410
   21.600    7.6567
   21.630    8.2780
   21.660    7.9621
   21.690    8.4255
   21.720    7.8041
   21.750    7.8673
   21.780    7.9410
   21.810    8.0674
   21.840    7.9516
   21.870    7.7830
   21.900    7.8462
   21.930    7.1722
   21.960    7.6356
   21.990    8.3307
   22.020    7.5829
   22.050    8.2149
   22.080    7.9200
   22.110    7.9831
   22.140    8.0569
   22.170    8.1517
   22.200    7.5619
   22.230    7.4250
   22.260    8.0463
   22.290    7.8568
   22.320    8.1517
   22.350    7.4671
   22.380    7.6145
   22.410    7.8778
   22.440    8.1727
   22.470    7.8884
   22.500    7.7936
   22.530    7.9094
   22.560    8.2675
   22.590    7.6251
   22.620    7.7304
   22.650    8.0674
   22.680    7.7936
   22.710    8.1201
   22.740    7.7514
   22.770    7.8778
   22.800    7.6988
   22.830    7.8357
   22.860    7.7093
   22.890    7.9937
   22.920    7.5935
   22.950    8.0990
   22.980    7.6672
   23.010    8.3518
   23.040    8.2359
   23.070    7.5092
   23.100    7.8568
   23.130    7.9094
   23.160    7.9831
   23.190    7.4776
   23.220    8.0990
   23.250    7.6988
   23.280    8.2464
   23.310    7.6777
   23.340    7.5935
   23.370    7.1301
   23.400    7.9410
   23.430    8.0990
   23.460    8.0042
   23.490    8.1201
   23.520    7.7936
   23.550    8.0674
   23.580    7.5829
   23.610    7.8778
   23.640    7.4460
   23.670    8.0147
   23.700    7.7936
   23.730    8.3096
   23.760    7.8357
   23.790    7.7936
   23.820    7.4566
   23.850    7.9200
   23.880    7.5408
   23.910    7.8884
   23.940    7.7093
   23.970    7.9200
   24.000    7.9937
   24.030    7.8989
   24.060    7.3091
   24.090    7.6356
   24.120    7.5829
   24.150    7.4460
   24.180    8.0042
   24.210    7.7199
   24.240    7.6145
   24.270    7.8146
   24.300    7.3828
   24.330    7.9305
   24.360    7.5829
   24.390    7.9410
   24.420    7.6356
   24.450    7.8146
   24.480    7.4882
   24.510    7.4776
   24.540    7.5092
   24.570    7.8778
   24.600    7.7304
   24.630    8.0674
   24.660    7.6356
   24.690    7.2565
   24.720    7.3618
   24.750    7.6672
   24.780    7.4671
   24.810    7.6672
   24.840    7.1722
   24.870    7.2986
   24.900    7.5829
   24.930    8.2149
   24.960    7.7093
   24.990    7.8462
   25.020    7.8252
   25.050    7.6040
   25.080    7.6356
   25.110    7.6145
   25.140    7.6040
   25.170    7.3723
   25.200    7.4776
   25.230    6.8773
   25.260    7.2775
   25.290    7.5408
   25.320    7.2459
   25.350    7.6988
   25.380    7.6040
   25.410    7.7093
   25.440    7.9621
   25.470    7.5829
   25.500    7.6672
   25.530    7.5303
   25.560    7.1090
   25.590    7.0985
   25.620    7.4671
   25.650    7.2986
   25.680    7.3091
   25.710    7.6251
   25.740    7.4039
   25.770    7.3828
   25.800    7.6672
   25.830    7.3828
   25.860    7.3723
   25.890    7.3828
   25.920    6.9300
   25.950    7.6251
   25.980    7.2986
   26.010    7.0774
   26.040    7.2775
   26.070    7.5303
   26.100    7.4671
   26.130    7.2880
   26.160    6.9194
   26.190    7.4776
   26.220    7.3512
   26.250    7.0774
   26.280    7.3512
   26.310    7.1617
   26.340    7.0563
   26.370    7.2038
   26.400    7.2249
   26.430    7.0353
   26.460    7.2038
   26.490    7.0563
   26.520    7.0563
   26.550    7.1511
   26.580    7.4671
   26.610    7.2775
   26.640    7.4671
   26.670    7.4039
   26.700    7.6040
   26.730    7.4355
   26.760    7.2038
   26.790    6.8352
   26.820    7.3407
   26.850    7.2459
   26.880    7.4776
   26.910    6.8878
   26.940    7.2880
   26.970    6.8562
   27.000    7.0879
   27.030    6.7825
   27.060    6.5087
   27.090    7.0458
   27.120    6.9300
   27.150    7.2143
   27.180    6.8457
   27.210    6.8984
   27.240    6.9616
   27.270    7.0037
   27.300    7.1511
   27.330    7.1827
   27.360    6.8352
   27.390    6.8457
   27.420    6.3928
   27.450    6.4455
   27.480    6.9510
   27.510    6.8036
   27.540    7.4250
   27.570    6.6983
   27.600    6.9405
   27.630    7.4144
   27.660    7.1511
   27.690    7.0669
   27.720    7.2986
   27.750    7.0037
   27.780    7.0142
   27.810    6.8773
   27.840    7.1933
   27.870    7.1933
   27.900    6.4244
   27.930    7.2038
   27.960    6.6877
   27.990    6.6140
   28.020    6.7615
   28.050    6.5508
   28.080    7.1195
   28.110    6.6140
   28.140    7.2670
   28.170    6.8668
   28.200    7.2249
   28.230    7.0458
   28.260    6.9300
   28.290    6.8036
   28.320    6.8036
   28.350    6.6983
   28.380    6.8457
   28.410    6.6245
   28.440    6.8668
   28.470    7.2143
   28.500    6.9510
   28.530    6.3718
   28.560    6.5719
   28.590    6.8984
   28.620    6.7404
   28.650    6.7825
   28.680    6.8562
   28.710    6.8668
   28.740    6.9194
   28.770    6.7720
   28.800    6.9826
   28.830    6.9826
   28.860    6.7720
   28.890    6.5508
   28.920    6.8773
   28.950    6.4350
   28.980    6.2875
   29.010    7.0458
   29.040    6.9194
   29.070    6.6667
   29.100    6.6245
   29.130    6.8036
   29.160    6.8141
   29.190    6.3612
   29.220    6.4982
   29.250    6.7930
   29.280    6.6561
   29.310    7.0037
   29.340    6.8141
   29.370    6.5403
   29.400    6.7720
   29.430    6.5613
   29.460    6.7299
   29.490    6.6772
   29.520    6.4560
   29.550    6.5192
   29.580    6.3296
   29.610    6.8984
   29.640    6.7088
   29.670    6.6035
   29.700    6.5298
   29.730    6.3296
   29.760    6.7720
   29.790    6.4560
   29.820    6.6351
   29.850    6.6772
   29.880    6.4139
   29.910    6.7193
   29.940    6.7930
   29.970    6.4034
   30.000    6.2770
   30.030    6.3928
   30.060    6.4244
   30.090    6.3402
   30.120    6.6245
   30.150    6.3823
   30.180    6.1611
   30.210    6.6140
   30.240    6.6456
   30.270    6.1506
   30.300    6.6351
   30.330    6.4455
   30.360    6.4350
   30.390    6.1401
   30.420    6.4666
   30.450    6.5192
   30.480    6.3507
   30.510    6.3928
   30.540    6.4982
   30.570    6.4139
   30.600    6.8036
   30.630    6.6351
   30.660    6.1822
   30.690    6.1717
   30.720    6.3086
   30.750    5.9610
   30.780    6.4560
   30.810    6.4244
   30.840    6.1295
   30.870    6.1085
   30.900    6.3402
   30.930    6.3086
   30.960    6.4771
   30.990    6.1295
   31.020    6.5403
   31.050    6.3191
   31.080    6.6245
   31.110    6.4876
   31.140    6.5613
   31.170    6.5087
   31.200    6.0137
   31.230    6.7615
   31.260    6.3402
   31.290    6.4350
   31.320    5.8557
   31.350    6.4455
   31.380    6.6140
   31.410    6.0558
   31.440    5.8662
   31.470    6.0453
   31.500    6.0453
   31.530    6.2559
   31.560    6.5298
   31.590    6.1822
   31.620    6.0979
   31.650    6.4034
   31.680    6.3086
   31.710    6.1822
   31.740    6.5824
   31.770    6.2349
   31.800    6.2981
   31.830    6.3086
   31.860    6.0032
   31.890    5.9505
   31.920    5.7504
   31.950    5.9821
   31.980    6.0769
   32.010    5.9716
   32.040    5.7925
   32.070    6.3823
   32.100    6.1717
   32.130    6.3402
   32.160    5.9189
   32.190    6.0769
   32.220    5.7293
   32.250    5.7715
   32.280    6.1190
   32.310    6.4139
   32.340    5.7504
   32.370    5.8452
   32.400    6.0348
   32.430    6.0348
   32.460    5.9610
   32.490    6.0664
   32.520    5.6767
   32.550    6.0032
   32.580    6.2243
   32.610    5.9084
   32.640    5.9400
   32.670    6.0137
   32.700    5.9294
   32.730    5.9505
   32.760    5.8347
   32.790    5.8662
   32.820    6.1506
   32.850    6.2033
   32.880    5.6767
   32.910    5.8031
   32.940    5.6029
   32.970    6.1506
   33.000    5.7504
   33.030    5.9505
   33.060    6.2454
   33.090    5.6872
   33.120    5.8136
   33.150    6.1295
   33.180    5.6767
   33.210    6.2559
   33.240    5.4660
   33.270    5.7504
   33.300    5.7609
   33.330    5.6661
   33.360    5.4134
   33.390    5.6240
   33.420    5.6872
   33.450    5.6872
   33.480    5.8768
   33.510    5.8452
   33.540    6.2033
   33.570    5.3712
   33.600    6.0137
   33.630    5.7925
   33.660    5.9926
   33.690    5.2554
   33.720    5.9400
   33.750    6.1401
   33.780    5.4871
   33.810    5.6240
   33.840    5.5503
   33.870    6.0032
   33.900    5.9610
   33.930    5.6661
   33.960    5.9084
   33.990    5.7925
   34.020    5.8662
   34.050    5.8768
   34.080    5.9505
   34.110    5.7188
   34.140    5.9189
   34.170    6.0242
   34.200    5.6872
   34.230    5.3291
   34.260    5.6240
   34.290    5.5714
   34.320    5.4555
   34.350    5.9716
   34.380    5.7820
   34.410    5.2027
   34.440    5.8978
   34.470    5.6661
   34.500    5.3923
   34.530    5.4239
   34.560    5.7188
   34.590    5.6451
   34.620    5.7715
   34.650    5.5714
   34.680    5.6872
   34.710    5.6872
   34.740    5.8241
   34.770    5.8873
   34.800    5.7820
   34.830    5.8241
   34.860    5.8768
   34.890    5.9610
   34.920    5.5292
   34.950    5.4344
   34.980    5.5398
   35.010    5.4239
   35.040    5.5819
   35.070    5.5503
   35.100    5.4976
   35.130    5.4871
   35.160    5.3291
   35.190    5.5924
   35.220    5.1711
   35.250    5.6767
   35.280    5.0448
   35.310    5.4239
   35.340    5.5398
   35.370    5.2133
   35.400    5.3397
   35.430    5.3291
   35.460    5.7293
   35.490    5.1817
   35.520    5.4134
   35.550    5.7188
   35.580    5.1606
   35.610    5.6556
   35.640    5.1290
   35.670    5.4239
   35.700    5.3291
   35.730    5.6872
   35.760    5.2659
   35.790    5.8031
   35.820    5.4450
   35.850    5.7820
   35.880    5.4134
   35.910    5.4450
   35.940    5.0448
   35.970    5.5292
   36.000    5.7399
   36.030    5.4871
   36.060    5.3291
   36.090    5.5714
   36.120    5.3186
   36.150    5.4555
   36.180    5.6135
   36.210    5.4134
   36.240    5.3291
   36.270    5.4239
   36.300    5.4028
   36.330    5.1185
   36.360    5.3291
   36.390    5.3607
   36.420    4.9921
   36.450    5.5608
   36.480    5.4239
   36.510    5.1395
   36.540    5.2027
   36.570    5.2133
   36.600    5.2133
   36.630    5.5924
   36.660    5.3186
   36.690    5.4344
   36.720    5.2449
   36.750    5.2765
   36.780    5.3923
   36.810    5.4871
   36.840    5.4239
   36.870    5.2975
   36.900    5.4450
   36.930    5.4450
   36.960    4.9921
   36.990    5.2238
   37.020    5.6451
   37.050    5.0448
   37.080    5.1395
   37.110    5.0448
   37.140    5.1817
   37.170    5.1290
   37.200    5.2133
   37.230    5.3923
   37.260    5.3607
   37.290    5.4344
   37.320    5.4134
   37.350    5.2765
   37.380    5.4239
   37.410    5.2870
   37.440    5.3081
   37.470    5.4344
   37.500    5.2765
   37.530    5.0974
   37.560    5.4555
   37.590    5.6661
   37.620    5.2133
   37.650    5.6345
   37.680    5.4239
   37.710    5.2975
   37.740    5.0658
   37.770    5.0553
   37.800    5.4028
   37.830    5.3081
   37.860    5.1080
   37.890    5.2343
   37.920    5.3397
   37.950    5.4555
   37.980    5.2659
   38.010    5.4976
   38.040    5.2343
   38.070    5.3186
   38.100    5.1817
   38.130    5.0553
   38.160    5.2870
   38.190    5.6451
   38.220    5.0974
   38.250    5.4871
   38.280    5.4976
   38.310    5.0658
   38.340    5.1922
   38.370    5.5082
   38.400    5.3291
   38.430    5.3502
   38.460    5.3502
   38.490    5.5714
   38.520    5.2765
   38.550    5.1080
   38.580    4.8763
   38.610    5.2554
   38.640    5.2659
   38.670    5.1501
   38.700    4.9605
   38.730    5.5714
   38.760    4.9289
   38.790    5.0026
   38.820    5.0869
   38.850    5.0658
   38.880    5.3186
   38.910    5.4555
   38.940    5.6029
   38.970    5.0764
   39.000    5.0869
   39.030    5.6661
   39.060    5.0553
   39.090    5.4134
   39.120    5.3502
   39.150    5.1185
   39.180    5.1185
   39.210    5.1501
   39.240    4.8657
   39.270    5.1290
   39.300    5.6135
   39.330    5.4660
   39.360    5.4766
   39.390    5.0658
   39.420    5.3607
   39.450    4.8868
   39.480    5.4766
   39.510    5.0132
   39.540    5.1395
   39.570    4.8763
   39.600    5.1080
   39.630    5.0869
   39.660    5.0658
   39.690    5.2975
   39.720    5.3502
   39.750    5.4028
   39.780    5.2659
   39.810    5.0026
   39.840    4.8868
   39.870    5.5714
   39.900    5.0342
   39.930    5.2554
   39.960    5.2765
   39.990    5.2449