File: data/MOCOF-1/PXRD/PXRD_KE-034_Cu-Ka1_capillary-1mm_5s-deg.xyd
    1.500   38.1991
    1.530   38.0937
    1.560   37.1037
    1.590   37.4934
    1.620   36.7878
    1.650   37.1459
    1.680   37.2301
    1.710   36.6825
    1.740   35.9242
    1.770   36.7457
    1.800   37.5355
    1.830   37.0616
    1.860   36.7773
    1.890   36.8931
    1.920   36.0295
    1.950   37.2723
    1.980   36.4297
    2.010   37.2512
    2.040   37.7988
    2.070   38.3149
    2.100   38.7783
    2.130   38.3465
    2.160   38.6098
    2.190   40.1474
    2.220   39.6946
    2.250   40.7372
    2.280   40.8952
    2.310   41.1164
    2.340   43.1806
    2.370   43.4229
    2.400   43.3597
    2.430   46.1085
    2.460   46.5087
    2.490   47.4460
    2.520   48.2886
    2.550   50.4055
    2.580   52.2802
    2.610   53.6598
    2.640   54.8710
    2.670   56.8931
    2.700   57.2512
    2.730   60.4423
    2.760   62.8963
    2.790   66.3612
    2.820   68.2886
    2.850   70.0579
    2.880   73.9442
    2.910   77.8620
    2.940   82.3907
    2.970   86.3507
    3.000   91.4692
    3.030   95.5661
    3.060  100.4423
    3.090  107.7620
    3.120  115.2396
    3.150  121.5377
    3.180  128.8994
    3.210  138.8520
    3.240  147.9621
    3.270  158.7046
    3.300  169.9526
    3.330  183.9389
    3.360  197.7357
    3.390  212.2064
    3.420  228.6256
    3.450  240.2106
    3.480  247.4355
    3.510  239.6419
    3.540  222.1485
    3.570  196.7667
    3.600  177.1669
    3.630  162.9068
    3.660  153.1122
    3.690  148.0569
    3.720  143.3176
    3.750  142.2960
    3.780  143.2754
    3.810  143.7493
    3.840  145.5924
    3.870  143.0542
    3.900  140.6530
    3.930  133.1438
    3.960  122.6962
    3.990  109.5419
    4.020   93.7230
    4.050   81.0005
    4.080   67.3512
    4.110   58.5571
    4.140   50.2264
    4.170   43.7178
    4.200   38.0832
    4.230   34.0495
    4.260   30.5635
    4.290   28.6045
    4.320   25.3291
    4.350   23.6967
    4.380   21.9905
    4.410   20.3791
    4.440   19.6103
    4.470   18.7256
    4.500   17.1353
    4.530   16.6087
    4.560   15.6398
    4.590   15.2185
    4.620   15.5029
    4.650   14.4392
    4.680   14.1232
    4.710   13.6598
    4.740   12.8489
    4.770   13.1648
    4.800   12.4065
    4.830   13.2385
    4.860   12.5434
    4.890   12.5645
    4.920   12.2591
    4.950   11.7536
    4.980   12.0484
    5.010   12.1116
    5.040   11.5745
    5.070   11.5429
    5.100   11.1638
    5.130   11.5113
    5.160   11.2796
    5.190   11.1848
    5.220   11.1006
    5.250   11.6482
    5.280   11.2586
    5.310   11.0900
    5.340   11.0690
    5.370   10.6688
    5.400   10.4897
    5.430   10.8162
    5.460   10.5424
    5.490   10.4160
    5.520   10.2791
    5.550   10.0579
    5.580    9.9315
    5.610   10.2370
    5.640    9.6367
    5.670    9.7314
    5.700   10.5108
    5.730    9.7104
    5.760    9.7314
    5.790    9.8157
    5.820    9.5313
    5.850    9.6788
    5.880    9.1943
    5.910   10.0790
    5.940    9.6998
    5.970    9.7314
    6.000    9.7104
    6.030    9.6472
    6.060   10.0685
    6.090    9.7841
    6.120   10.0369
    6.150   10.1106
    6.180   10.4792
    6.210   10.4160
    6.240   10.8162
    6.270   10.5529
    6.300   11.2375
    6.330   11.2796
    6.360   11.1954
    6.390   12.0695
    6.420   12.8278
    6.450   12.7857
    6.480   13.5334
    6.510   14.0074
    6.540   14.5445
    6.570   15.0500
    6.600   15.1237
    6.630   16.8088
    6.660   17.4934
    6.690   19.2628
    6.720   20.5793
    6.750   22.1169
    6.780   23.4650
    6.810   25.6767
    6.840   27.7514
    6.870   30.2264
    6.900   32.5750
    6.930   35.1238
    6.960   37.8094
    6.990   37.3144
    7.020   36.4508
    7.050   32.9963
    7.080   29.3312
    7.110   25.8241
    7.140   22.5487
    7.170   21.0743
    7.200   19.2733
    7.230   18.0411
    7.260   17.3038
    7.290   17.3776
    7.320   16.9879
    7.350   16.9879
    7.380   16.7667
    7.410   16.8299
    7.440   17.4934
    7.470   17.4302
    7.500   18.3886
    7.530   18.4729
    7.560   19.0521
    7.590   21.0216
    7.620   21.7062
    7.650   23.3702
    7.680   24.0969
    7.710   25.5714
    7.740   25.8557
    7.770   28.4466
    7.800   28.9100
    7.830   27.9937
    7.860   29.0574
    7.890   28.3096
    7.920   26.8562
    7.950   25.2870
    7.980   22.7172
    8.010   20.5898
    8.040   19.5366
    8.070   18.5887
    8.100   16.9036
    8.130   15.8504
    8.160   14.7973
    8.190   14.0706
    8.220   12.7857
    8.250   12.9015
    8.280   12.6593
    8.310   11.9537
    8.340   11.4165
    8.370   11.0058
    8.400   10.7109
    8.430   10.6688
    8.460   10.5951
    8.490    9.6682
    8.520    9.8052
    8.550    9.6577
    8.580    9.6998
    8.610    9.3944
    8.640    9.4155
    8.670    9.4576
    8.700    8.8678
    8.730    8.4255
    8.760    8.7625
    8.790    8.6467
    8.820    9.3628
    8.850    9.0363
    8.880    8.7941
    8.910    8.3202
    8.940    8.3202
    8.970    8.0779
    9.000    8.2464
    9.030    8.3202
    9.060    8.1622
    9.090    8.6467
    9.120    8.0569
    9.150    8.4044
    9.180    8.0147
    9.210    7.9516
    9.240    7.9831
    9.270    8.0147
    9.300    8.2991
    9.330    8.6783
    9.360    8.1306
    9.390    8.5203
    9.420    7.8568
    9.450    7.8462
    9.480    7.8146
    9.510    7.8673
    9.540    7.9410
    9.570    8.0358
    9.600    7.8146
    9.630    8.0463
    9.660    7.8778
    9.690    7.6883
    9.720    8.1517
    9.750    7.7409
    9.780    8.1095
    9.810    7.5829
    9.840    8.0463
    9.870    7.7830
    9.900    8.0990
    9.930    8.6045
    9.960    8.2254
    9.990    8.0569
   10.020    7.9516
   10.050    7.9726
   10.080    8.2780
   10.110    7.9831
   10.140    7.7304
   10.170    8.0569
   10.200    8.5097
   10.230    8.2886
   10.260    8.5624
   10.290    8.3202
   10.320    8.1938
   10.350    8.1938
   10.380    9.2996
   10.410    8.6888
   10.440    8.4992
   10.470    8.5203
   10.500    8.7941
   10.530    9.0047
   10.560    8.6045
   10.590    8.1833
   10.620    8.6993
   10.650    8.7730
   10.680    8.3307
   10.710    8.1622
   10.740    8.5519
   10.770    8.2780
   10.800    7.9410
   10.830    8.2570
   10.860    8.0674
   10.890    8.2675
   10.920    7.7409
   10.950    8.2570
   10.980    8.2464
   11.010    8.0042
   11.040    7.8778
   11.070    8.2149
   11.100    8.4887
   11.130    7.9094
   11.160    8.0463
   11.190    8.8784
   11.220    8.3834
   11.250    8.1411
   11.280    8.7836
   11.310    8.4571
   11.340    8.6045
   11.370    8.9837
   11.400    9.2996
   11.430    9.1206
   11.460    9.0679
   11.490    9.1627
   11.520    9.2154
   11.550    9.2786
   11.580    9.1732
   11.610    9.4471
   11.640    9.7209
   11.670    9.3839
   11.700   10.2370
   11.730   10.1527
   11.760   10.1527
   11.790   10.4687
   11.820    9.7946
   11.850   10.0579
   11.880    9.8368
   11.910   10.3423
   11.940    9.4471
   11.970    9.9105
   12.000    9.5419
   12.030    9.7736
   12.060    9.2680
   12.090    8.9310
   12.120    9.4050
   12.150    9.3523
   12.180    8.6993
   12.210    8.7414
   12.240    8.9310
   12.270    8.7836
   12.300    9.3523
   12.330    8.4150
   12.360    8.5940
   12.390    8.6151
   12.420    8.6993
   12.450    8.4992
   12.480    8.6888
   12.510    8.3412
   12.540    9.1732
   12.570    8.7414
   12.600    8.3623
   12.630    8.2254
   12.660    8.8889
   12.690    8.4255
   12.720    8.3939
   12.750    8.3096
   12.780    8.7730
   12.810    8.6677
   12.840    8.7204
   12.870    8.9310
   12.900    8.8152
   12.930    8.6993
   12.960    8.4360
   12.990    9.0679
   13.020    8.5413
   13.050    8.6256
   13.080    8.5413
   13.110    8.4255
   13.140    9.0469
   13.170    8.5940
   13.200    8.4255
   13.230    8.5097
   13.260    8.5308
   13.290    8.4992
   13.320    8.8994
   13.350    8.8152
   13.380    8.2149
   13.410    8.6993
   13.440    8.6572
   13.470    8.4255
   13.500    8.6888
   13.530    8.4781
   13.560    8.3096
   13.590    8.3307
   13.620    8.5413
   13.650    8.2254
   13.680    8.1938
   13.710    8.7520
   13.740    8.2149
   13.770    7.9937
   13.800    7.8357
   13.830    8.0885
   13.860    8.2359
   13.890    8.1517
   13.920    8.4887
   13.950    8.3728
   13.980    8.2254
   14.010    8.0990
   14.040    8.3412
   14.070    8.6783
   14.100    7.9831
   14.130    8.0463
   14.160    8.0463
   14.190    7.9621
   14.220    8.4781
   14.250    8.3518
   14.280    7.9516
   14.310    8.6361
   14.340    8.1833
   14.370    8.2043
   14.400    8.3096
   14.430    8.1411
   14.460    8.5413
   14.490    7.3934
   14.520    8.2464
   14.550    8.0042
   14.580    8.1095
   14.610    8.2675
   14.640    7.8252
   14.670    7.8673
   14.700    7.9410
   14.730    8.5729
   14.760    8.5203
   14.790    8.5203
   14.820    8.2675
   14.850    8.3518
   14.880    8.0358
   14.910    8.5835
   14.940    8.1201
   14.970    7.8357
   15.000    8.1938
   15.030    7.9516
   15.060    8.4255
   15.090    8.5624
   15.120    8.3939
   15.150    8.1938
   15.180    8.4360
   15.210    8.4676
   15.240    8.6256
   15.270    8.6045
   15.300    8.2991
   15.330    8.4571
   15.360    8.5835
   15.390    8.3728
   15.420    8.5308
   15.450    8.4150
   15.480    8.9731
   15.510    8.4255
   15.540    8.2570
   15.570    8.6888
   15.600    8.6572
   15.630    8.4466
   15.660    8.8784
   15.690    7.9937
   15.720    8.4255
   15.750    8.8362
   15.780    8.6045
   15.810    8.6256
   15.840    8.3518
   15.870    8.5624
   15.900    8.4887
   15.930    8.1517
   15.960    8.3202
   15.990    8.4044
   16.020    8.6151
   16.050    8.2886
   16.080    8.5097
   16.110    8.0885
   16.140    8.2675
   16.170    8.3096
   16.200    8.1306
   16.230    8.1622
   16.260    7.9516
   16.290    7.7725
   16.320    8.0253
   16.350    7.6777
   16.380    7.8462
   16.410    7.9410
   16.440    7.9621
   16.470    8.1306
   16.500    8.0042
   16.530    7.9200
   16.560    8.0358
   16.590    7.9937
   16.620    8.0253
   16.650    7.8778
   16.680    8.2570
   16.710    8.0147
   16.740    7.9831
   16.770    8.2464
   16.800    8.0779
   16.830    7.9726
   16.860    8.0674
   16.890    7.8252
   16.920    7.8673
   16.950    8.1095
   16.980    8.2675
   17.010    7.7620
   17.040    8.0990
   17.070    8.0147
   17.100    8.3728
   17.130    8.0253
   17.160    8.2359
   17.190    8.0990
   17.220    7.8989
   17.250    7.8568
   17.280    8.3202
   17.310    7.7620
   17.340    8.4571
   17.370    8.1095
   17.400    8.2149
   17.430    8.1517
   17.460    7.9410
   17.490    8.1201
   17.520    8.5835
   17.550    8.7836
   17.580    8.5835
   17.610    8.2570
   17.640    8.6361
   17.670    7.9305
   17.700    8.1938
   17.730    8.5097
   17.760    8.6151
   17.790    8.3202
   17.820    8.0674
   17.850    8.6045
   17.880    8.7204
   17.910    8.5413
   17.940    8.1306
   17.970    8.6677
   18.000    8.6467
   18.030    8.5835
   18.060    8.5413
   18.090    9.0363
   18.120    8.4571
   18.150    8.4571
   18.180    8.5940
   18.210    8.5940
   18.240    8.8046
   18.270    8.5097
   18.300    8.2149
   18.330    8.2886
   18.360    8.0463
   18.390    8.4255
   18.420    8.4676
   18.450    8.2464
   18.480    8.4571
   18.510    8.4571
   18.540    8.2043
   18.570    8.2254
   18.600    8.3307
   18.630    8.1938
   18.660    7.7830
   18.690    8.3412
   18.720    8.2886
   18.750    8.3728
   18.780    8.3096
   18.810    8.4571
   18.840    8.4255
   18.870    8.2043
   18.900    8.8889
   18.930    8.2780
   18.960    8.2570
   18.990    8.8784
   19.020    8.5308
   19.050    8.4781
   19.080    8.0990
   19.110    8.3202
   19.140    8.5308
   19.170    8.6256
   19.200    8.4992
   19.230    8.2675
   19.260    8.2675
   19.290    8.3307
   19.320    8.2043
   19.350    8.6256
   19.380    8.2043
   19.410    8.3096
   19.440    8.7414
   19.470    8.9521
   19.500    9.0363
   19.530    8.5729
   19.560    9.1206
   19.590    8.6256
   19.620    9.2470
   19.650    8.4887
   19.680    8.4887
   19.710    8.9100
   19.740    8.5729
   19.770    9.1522
   19.800    9.0258
   19.830    9.1417
   19.860    8.8784
   19.890    9.0995
   19.920    9.5840
   19.950    8.9837
   19.980    8.9205
   20.010    9.5945
   20.040    8.9205
   20.070    9.4681
   20.100    9.3523
   20.130    9.6472
   20.160    9.3418
   20.190    9.6261
   20.220    9.7420
   20.250    9.8157
   20.280    9.2575
   20.310    9.4471
   20.340    9.4787
   20.370    9.5629
   20.400    9.0469
   20.430    9.5419
   20.460    9.4892
   20.490    9.5945
   20.520    9.1311
   20.550    9.6893
   20.580    9.4787
   20.610    9.7525
   20.640    9.1101
   20.670    9.7420
   20.700    9.4471
   20.730    9.5524
   20.760    9.5735
   20.790    9.7630
   20.820    9.4471
   20.850    9.2259
   20.880    9.8262
   20.910    9.6998
   20.940    9.9421
   20.970    9.7420
   21.000   10.0895
   21.030    9.9842
   21.060    9.9526
   21.090    9.8789
   21.120   10.5213
   21.150    9.5419
   21.180    9.9210
   21.210    9.1943
   21.240   10.1948
   21.270    9.9631
   21.300    9.8578
   21.330    9.9105
   21.360    9.7209
   21.390    9.6577
   21.420   10.1632
   21.450    9.6261
   21.480    9.5629
   21.510    9.2786
   21.540    9.5945
   21.570    9.3418
   21.600    9.6893
   21.630    9.7104
   21.660   10.2686
   21.690    9.5840
   21.720   10.2791
   21.750    9.8473
   21.780    9.5735
   21.810    9.3839
   21.840    9.4050
   21.870    9.8999
   21.900   10.1316
   21.930    8.9415
   21.960    9.8262
   21.990   10.1843
   22.020    9.2891
   22.050    9.9210
   22.080    9.4997
   22.110    9.9737
   22.140    9.6577
   22.170    9.7314
   22.200   10.2159
   22.230    9.9526
   22.260    9.9737
   22.290    9.9947
   22.320   10.1422
   22.350    9.4260
   22.380   10.2159
   22.410   10.4897
   22.440    9.8578
   22.470   10.5635
   22.500   10.0685
   22.530   10.2054
   22.560   10.4792
   22.590   10.3423
   22.620   10.2580
   22.650   10.4265
   22.680   10.0369
   22.710    9.9210
   22.740   10.0685
   22.770   10.1948
   22.800   10.0790
   22.830   10.3633
   22.860   10.2264
   22.890    9.8368
   22.920    9.7841
   22.950    9.6788
   22.980    9.8789
   23.010   10.1843
   23.040    9.6682
   23.070    9.7841
   23.100    9.4365
   23.130    9.2470
   23.160    9.5945
   23.190    9.1417
   23.220    9.3628
   23.250    9.8578
   23.280    9.8578
   23.310    9.2364
   23.340    9.1101
   23.370    9.3102
   23.400    9.3839
   23.430    9.3207
   23.460    9.2996
   23.490    8.8889
   23.520    9.3207
   23.550    8.8362
   23.580    8.8257
   23.610    9.2575
   23.640    9.4155
   23.670    9.4155
   23.700    9.0469
   23.730    8.9310
   23.760    8.9837
   23.790    8.9521
   23.820    8.8046
   23.850    9.1627
   23.880    9.1522
   23.910    9.2048
   23.940    8.7836
   23.970    8.8784
   24.000    8.6783
   24.030    8.9415
   24.060    8.7520
   24.090    8.7941
   24.120    8.8257
   24.150    8.9205
   24.180    9.2364
   24.210    9.2364
   24.240    8.8573
   24.270    8.8257
   24.300    9.3207
   24.330    9.0469
   24.360    8.9310
   24.390    9.4681
   24.420    8.8784
   24.450    9.0047
   24.480    8.4571
   24.510    8.8678
   24.540    9.3628
   24.570    9.4050
   24.600    9.4787
   24.630    9.3839
   24.660    8.7836
   24.690    9.8473
   24.720    8.7836
   24.750    9.0679
   24.780    9.2575
   24.810    8.8257
   24.840    9.1838
   24.870    8.9415
   24.900    9.1417
   24.930    8.7730
   24.960    8.6783
   24.990    8.6572
   25.020    8.7204
   25.050    8.7098
   25.080    8.7098
   25.110    8.5203
   25.140    8.4676
   25.170    8.2043
   25.200    8.5203
   25.230    8.5203
   25.260    8.5729
   25.290    8.3096
   25.320    8.3412
   25.350    8.8994
   25.380    8.4360
   25.410    8.4360
   25.440    8.2780
   25.470    8.4150
   25.500    8.3728
   25.530    8.5413
   25.560    8.1727
   25.590    8.7625
   25.620    7.8989
   25.650    7.9410
   25.680    7.9726
   25.710    7.9305
   25.740    7.9621
   25.770    8.2991
   25.800    8.1938
   25.830    8.3518
   25.860    7.7304
   25.890    8.1095
   25.920    7.9200
   25.950    8.3096
   25.980    7.9831
   26.010    8.0779
   26.040    8.3623
   26.070    7.8252
   26.100    7.8989
   26.130    8.2780
   26.160    7.9305
   26.190    8.4255
   26.220    7.8041
   26.250    7.9516
   26.280    7.6567
   26.310    7.7830
   26.340    7.8041
   26.370    8.2043
   26.400    7.6567
   26.430    8.3939
   26.460    8.0779
   26.490    8.1095
   26.520    8.1306
   26.550    8.3202
   26.580    7.7620
   26.610    7.7093
   26.640    8.1411
   26.670    7.6883
   26.700    8.0253
   26.730    7.9937
   26.760    8.0674
   26.790    7.9305
   26.820    8.3096
   26.850    8.4887
   26.880    7.8778
   26.910    7.9410
   26.940    7.9094
   26.970    7.8462
   27.000    8.0885
   27.030    8.0253
   27.060    8.3202
   27.090    8.2254
   27.120    8.2359
   27.150    7.9200
   27.180    7.3512
   27.210    8.2043
   27.240    7.7830
   27.270    7.7936
   27.300    8.0147
   27.330    7.7409
   27.360    7.6883
   27.390    7.6672
   27.420    7.8989
   27.450    7.6040
   27.480    7.6461
   27.510    7.7304
   27.540    7.7304
   27.570    7.8778
   27.600    8.3518
   27.630    7.9200
   27.660    7.8146
   27.690    7.9937
   27.720    7.6883
   27.750    7.6567
   27.780    7.4460
   27.810    7.7093
   27.840    7.7514
   27.870    7.6461
   27.900    7.8146
   27.930    7.8778
   27.960    7.6145
   27.990    8.0674
   28.020    7.8884
   28.050    7.8146
   28.080    7.4460
   28.110    7.5829
   28.140    7.7199
   28.170    8.0674
   28.200    7.7514
   28.230    8.0358
   28.260    8.0885
   28.290    8.0358
   28.320    8.1411
   28.350    7.8673
   28.380    7.8673
   28.410    7.9831
   28.440    7.6777
   28.470    7.4460
   28.500    7.4460
   28.530    7.8146
   28.560    7.6672
   28.590    7.6040
   28.620    7.5935
   28.650    7.2249
   28.680    7.7936
   28.710    7.0774
   28.740    7.7514
   28.770    7.7620
   28.800    7.1301
   28.830    7.3302
   28.860    7.3512
   28.890    8.0358
   28.920    7.6356
   28.950    7.0563
   28.980    7.1301
   29.010    7.4671
   29.040    7.1722
   29.070    7.4250
   29.100    7.4250
   29.130    7.3196
   29.160    7.6251
   29.190    7.8357
   29.220    7.5513
   29.250    7.5935
   29.280    7.7409
   29.310    7.3828
   29.340    7.6988
   29.370    7.6567
   29.400    7.7514
   29.430    7.5408
   29.460    7.5829
   29.490    7.9094
   29.520    8.0042
   29.550    7.2670
   29.580    7.0248
   29.610    7.3196
   29.640    7.5829
   29.670    7.4355
   29.700    7.3196
   29.730    7.4566
   29.760    7.2459
   29.790    6.8984
   29.820    7.6251
   29.850    7.5619
   29.880    7.2354
   29.910    7.0458
   29.940    7.2354
   29.970    7.3512
   30.000    7.4671
   30.030    7.5619
   30.060    7.2459
   30.090    7.3512
   30.120    7.1722
   30.150    7.0774
   30.180    7.2880
   30.210    7.6672
   30.240    7.0669
   30.270    7.4776
   30.300    7.3302
   30.330    7.2986
   30.360    7.2459
   30.390    7.6145
   30.420    7.5513
   30.450    7.0774
   30.480    7.2775
   30.510    7.6145
   30.540    6.9194
   30.570    7.4039
   30.600    7.2775
   30.630    7.2565
   30.660    6.8457
   30.690    7.2986
   30.720    6.8668
   30.750    7.4144
   30.780    6.7509
   30.810    7.2670
   30.840    7.4355
   30.870    7.1617
   30.900    6.7720
   30.930    7.2249
   30.960    7.0669
   30.990    7.2775
   31.020    7.3407
   31.050    7.1617
   31.080    7.5513
   31.110    7.7093
   31.140    7.2459
   31.170    6.9826
   31.200    7.1933
   31.230    7.1617
   31.260    7.3196
   31.290    7.0563
   31.320    7.2038
   31.350    6.9721
   31.380    7.3091
   31.410    6.9194
   31.440    7.0985
   31.470    6.9510
   31.500    7.4987
   31.530    7.0563
   31.560    7.0879
   31.590    7.0142
   31.620    7.7093
   31.650    7.6145
   31.680    7.7304
   31.710    7.2670
   31.740    7.4566
   31.770    7.5829
   31.800    7.3196
   31.830    7.2775
   31.860    7.5197
   31.890    7.1722
   31.920    7.6567
   31.950    7.2143
   31.980    7.6883
   32.010    7.0879
   32.040    7.0879
   32.070    7.4144
   32.100    7.4355
   32.130    7.2459
   32.160    7.3512
   32.190    6.7930
   32.220    7.1617
   32.250    6.8562
   32.280    7.2565
   32.310    7.6145
   32.340    7.0774
   32.370    7.1827
   32.400    6.7825
   32.430    7.5935
   32.460    7.6988
   32.490    7.2986
   32.520    7.0037
   32.550    7.0985
   32.580    6.7509
   32.610    7.0248
   32.640    7.3091
   32.670    6.6877
   32.700    6.8246
   32.730    7.3618
   32.760    7.0563
   32.790    7.4144
   32.820    7.3618
   32.850    7.2986
   32.880    7.0774
   32.910    6.8246
   32.940    7.0879
   32.970    7.0774
   33.000    7.2775
   33.030    6.7299
   33.060    6.7615
   33.090    6.9721
   33.120    6.8984
   33.150    7.1301
   33.180    6.5824
   33.210    6.9300
   33.240    6.4876
   33.270    7.2459
   33.300    6.9300
   33.330    6.7720
   33.360    7.0774
   33.390    6.8352
   33.420    6.9616
   33.450    6.6351
   33.480    6.9089
   33.510    6.7404
   33.540    7.1406
   33.570    7.1195
   33.600    6.6667
   33.630    7.1090
   33.660    6.5508
   33.690    6.6877
   33.720    6.8141
   33.750    6.9510
   33.780    6.3086
   33.810    7.1406
   33.840    6.7720
   33.870    6.6667
   33.900    7.2038
   33.930    6.8457
   33.960    6.8457
   33.990    6.5719
   34.020    6.9194
   34.050    6.8984
   34.080    6.7615
   34.110    6.5508
   34.140    6.7509
   34.170    7.0142
   34.200    6.4139
   34.230    6.8878
   34.260    6.7720
   34.290    6.4982
   34.320    6.7299
   34.350    6.5824
   34.380    6.5613
   34.410    6.5298
   34.440    6.7825
   34.470    6.6456
   34.500    6.4139
   34.530    6.9932
   34.560    6.3823
   34.590    6.7299
   34.620    6.7930
   34.650    6.7404
   34.680    6.6456
   34.710    6.4666
   34.740    6.3718
   34.770    6.3823
   34.800    6.8246
   34.830    6.8246
   34.860    6.4455
   34.890    7.0458
   34.920    6.6035
   34.950    6.1822
   34.980    6.8036
   35.010    6.5824
   35.040    6.9089
   35.070    6.3823
   35.100    6.3612
   35.130    6.5824
   35.160    6.9194
   35.190    6.4982
   35.220    6.5824
   35.250    6.6561
   35.280    6.6561
   35.310    6.6667
   35.340    6.9405
   35.370    6.2138
   35.400    6.1506
   35.430    6.2981
   35.460    6.6561
   35.490    6.4666
   35.520    6.7930
   35.550    6.5929
   35.580    6.5403
   35.610    6.7299
   35.640    6.7299
   35.670    6.8036
   35.700    6.3612
   35.730    6.7193
   35.760    6.4350
   35.790    6.5929
   35.820    6.1611
   35.850    7.0563
   35.880    6.2875
   35.910    6.7404
   35.940    6.7825
   35.970    6.7509
   36.000    6.3612
   36.030    6.4666
   36.060    6.7193
   36.090    6.3612
   36.120    6.6877
   36.150    6.2665
   36.180    6.1190
   36.210    6.4350
   36.240    6.5087
   36.270    6.5403
   36.300    6.3507
   36.330    6.6456
   36.360    6.5087
   36.390    6.4666
   36.420    6.3191
   36.450    6.3086
   36.480    6.4244
   36.510    6.6140
   36.540    6.4139
   36.570    6.4771
   36.600    6.5613
   36.630    6.2981
   36.660    6.3928
   36.690    6.2349
   36.720    6.2981
   36.750    6.8457
   36.780    6.2349
   36.810    6.2770
   36.840    6.4560
   36.870    6.3086
   36.900    6.2349
   36.930    6.2770
   36.960    5.6872
   36.990    6.1190
   37.020    6.4876
   37.050    6.1085
   37.080    6.4034
   37.110    6.3718
   37.140    6.5613
   37.170    6.5298
   37.200    6.1506
   37.230    6.2138
   37.260    6.1401
   37.290    6.4666
   37.320    6.7088
   37.350    6.4876
   37.380    6.5087
   37.410    6.2243
   37.440    6.6983
   37.470    6.2770
   37.500    6.5192
   37.530    6.2665
   37.560    6.6035
   37.590    6.4666
   37.620    6.3612
   37.650    6.4771
   37.680    6.5719
   37.710    6.5508
   37.740    6.2981
   37.770    6.1506
   37.800    6.2665
   37.830    6.5929
   37.860    6.4139
   37.890    6.4771
   37.920    6.5508
   37.950    6.2349
   37.980    6.5613
   38.010    6.3507
   38.040    6.2875
   38.070    5.8241
   38.100    6.6983
   38.130    6.2665
   38.160    6.6245
   38.190    6.4771
   38.220    6.6140
   38.250    6.6351
   38.280    6.1506
   38.310    6.5298
   38.340    6.1085
   38.370    6.5613
   38.400    6.4560
   38.430    6.7825
   38.460    6.5508
   38.490    6.6877
   38.520    6.4982
   38.550    6.1295
   38.580    6.5824
   38.610    5.9294
   38.640    6.7193
   38.670    6.7615
   38.700    6.4666
   38.730    5.8873
   38.760    6.2243
   38.790    6.3928
   38.820    6.5403
   38.850    6.1822
   38.880    6.1401
   38.910    6.7193
   38.940    6.1295
   38.970    6.4982
   39.000    6.1822
   39.030    6.4560
   39.060    6.5508
   39.090    6.3191
   39.120    6.5087
   39.150    6.0453
   39.180    6.2559
   39.210    6.4244
   39.240    6.2875
   39.270    6.5192
   39.300    7.0353
   39.330    6.2349
   39.360    6.3296
   39.390    6.3612
   39.420    6.4455
   39.450    6.4876
   39.480    6.3507
   39.510    6.1717
   39.540    6.5613
   39.570    6.5824
   39.600    6.1611
   39.630    6.4244
   39.660    6.6667
   39.690    6.0242
   39.720    6.4244
   39.750    6.6035
   39.780    6.0137
   39.810    6.6351
   39.840    6.4139
   39.870    5.7083
   39.900    6.2454
   39.930    6.0874
   39.960    6.2981
   39.990    6.4560