File: data/MOCOF-1/PXRD/PXRD_KE-001_Cu-Ka1_capillary-1mm_5s-deg.xyd
    1.500   36.8720
    1.530   36.9036
    1.560   38.3360
    1.590   38.4202
    1.620   39.2312
    1.650   39.0311
    1.680   40.4318
    1.710   41.1269
    1.740   41.5166
    1.770   41.9484
    1.800   43.5598
    1.830   44.6867
    1.860   45.8768
    1.890   47.7093
    1.920   49.8894
    1.950   49.7420
    1.980   53.4702
    2.010   53.0174
    2.040   55.3449
    2.070   58.1780
    2.100   61.3797
    2.130   64.7393
    2.160   65.3607
    2.190   68.7520
    2.220   74.2707
    2.250   77.1459
    2.280   79.5261
    2.310   84.8447
    2.340   88.3307
    2.370   95.5029
    2.400  101.6324
    2.430  107.4355
    2.460  112.9015
    2.490  121.6956
    2.520  130.5740
    2.550  141.2533
    2.580  155.8820
    2.610  169.3734
    2.640  185.8768
    2.670  207.8884
    2.700  235.7557
    2.730  259.6525
    2.760  279.1785
    2.790  281.8010
    2.820  256.6298
    2.850  206.8247
    2.880  150.7952
    2.910  105.2449
    2.940   74.1338
    2.970   52.5329
    3.000   40.5582
    3.030   31.6272
    3.060   26.0558
    3.090   21.3375
    3.120   18.4623
    3.150   16.4192
    3.180   15.3133
    3.210   14.2707
    3.240   12.5118
    3.270   11.8694
    3.300   11.5534
    3.330   11.1638
    3.360    9.9315
    3.390   10.0369
    3.420    9.5313
    3.450    9.0258
    3.480    8.9205
    3.510    8.9415
    3.540    8.2886
    3.570    8.3939
    3.600    8.1517
    3.630    7.9516
    3.660    7.8989
    3.690    7.7514
    3.720    7.8778
    3.750    7.7199
    3.780    7.9094
    3.810    7.6883
    3.840    7.8357
    3.870    7.5408
    3.900    7.6040
    3.930    7.4882
    3.960    8.0147
    3.990    8.1411
    4.020    7.8989
    4.050    8.2780
    4.080    8.6256
    4.110    8.4150
    4.140    8.4150
    4.170    8.7836
    4.200    9.1943
    4.230    9.5313
    4.260    9.7630
    4.290    9.8157
    4.320    9.8578
    4.350   10.2054
    4.380   10.9847
    4.410   10.7004
    4.440   11.3639
    4.470   11.9537
    4.500   12.7751
    4.530   13.3649
    4.560   13.6177
    4.590   14.9552
    4.620   16.3033
    4.650   17.3460
    4.680   18.4834
    4.710   20.8636
    4.740   21.8747
    4.770   24.4339
    4.800   26.9510
    4.830   27.1827
    4.860   26.1190
    4.890   23.6862
    4.920   20.2844
    4.950   16.3454
    4.980   13.8073
    5.010   12.2591
    5.040   11.4376
    5.070   11.4587
    5.100   11.3323
    5.130   11.5640
    5.160   12.0800
    5.190   12.8383
    5.220   13.5440
    5.250   14.2707
    5.280   15.5240
    5.310   16.9668
    5.340   18.0727
    5.370   20.2212
    5.400   22.3802
    5.430   24.4866
    5.460   28.2570
    5.490   31.3639
    5.520   35.5872
    5.550   38.8099
    5.580   41.2744
    5.610   40.0948
    5.640   36.0611
    5.670   29.1417
    5.700   22.4434
    5.730   17.6619
    5.760   15.0184
    5.790   12.3749
    5.820   10.8057
    5.850    9.0995
    5.880    8.8573
    5.910    8.0569
    5.940    7.7199
    5.970    7.0669
    6.000    6.4139
    6.030    6.2770
    6.060    6.2349
    6.090    6.0979
    6.120    5.7188
    6.150    5.8241
    6.180    5.5082
    6.210    5.4766
    6.240    5.6240
    6.270    5.1711
    6.300    5.6240
    6.330    5.2449
    6.360    5.2238
    6.390    5.3923
    6.420    5.5187
    6.450    5.4555
    6.480    5.1080
    6.510    5.0553
    6.540    5.3923
    6.570    5.3923
    6.600    5.1290
    6.630    5.4660
    6.660    5.2343
    6.690    5.8136
    6.720    5.6767
    6.750    5.6345
    6.780    6.1085
    6.810    5.8768
    6.840    6.1190
    6.870    6.6667
    6.900    6.8036
    6.930    6.7615
    6.960    6.9826
    6.990    7.5619
    7.020    8.3623
    7.050    8.1201
    7.080    9.0574
    7.110    9.7525
    7.140   10.5635
    7.170   11.6798
    7.200   12.1116
    7.230   13.9021
    7.260   15.4081
    7.290   17.0721
    7.320   18.5993
    7.350   20.8110
    7.380   22.4855
    7.410   22.0221
    7.440   21.2322
    7.470   18.0516
    7.500   13.9021
    7.530   11.8378
    7.560    9.3523
    7.590    8.3939
    7.620    6.9194
    7.650    6.3507
    7.680    6.0453
    7.710    5.7188
    7.740    5.7715
    7.770    5.0764
    7.800    5.2449
    7.830    4.9605
    7.860    5.1080
    7.890    4.6235
    7.920    5.1080
    7.950    4.7709
    7.980    4.2759
    8.010    4.6867
    8.040    4.7709
    8.070    4.4339
    8.100    4.2127
    8.130    4.6340
    8.160    4.5814
    8.190    4.3075
    8.220    4.6445
    8.250    4.5708
    8.280    4.1601
    8.310    4.4444
    8.340    4.3497
    8.370    4.4655
    8.400    4.5076
    8.430    4.7709
    8.460    4.4444
    8.490    4.2970
    8.520    4.3497
    8.550    4.3918
    8.580    4.8973
    8.610    4.7183
    8.640    4.3602
    8.670    4.1496
    8.700    4.1074
    8.730    4.5498
    8.760    4.3707
    8.790    4.4234
    8.820    3.9073
    8.850    4.3497
    8.880    4.1285
    8.910    4.0864
    8.940    4.3286
    8.970    4.3707
    9.000    4.0126
    9.030    4.3286
    9.060    4.2970
    9.090    4.4655
    9.120    4.1496
    9.150    4.3918
    9.180    4.5708
    9.210    4.3707
    9.240    4.2759
    9.270    4.6024
    9.300    4.2443
    9.330    4.8657
    9.360    4.8131
    9.390    4.6972
    9.420    4.8763
    9.450    5.1501
    9.480    5.2765
    9.510    5.2659
    9.540    6.0979
    9.570    5.9505
    9.600    6.3402
    9.630    6.7615
    9.660    7.6356
    9.690    8.0253
    9.720    7.4566
    9.750    7.0774
    9.780    6.6983
    9.810    5.7609
    9.840    5.6240
    9.870    5.0974
    9.900    4.7077
    9.930    4.7288
    9.960    4.4971
    9.990    5.0026
   10.020    4.7709
   10.050    4.1811
   10.080    4.5392
   10.110    4.7815
   10.140    4.6130
   10.170    4.3918
   10.200    3.8757
   10.230    4.3918
   10.260    3.8336
   10.290    3.7072
   10.320    3.6124
   10.350    3.7177
   10.380    3.7809
   10.410    3.7072
   10.440    3.5914
   10.470    3.6440
   10.500    3.7388
   10.530    3.7809
   10.560    3.9810
   10.590    3.5808
   10.620    3.7599
   10.650    3.7809
   10.680    3.8336
   10.710    4.0337
   10.740    3.9705
   10.770    3.8020
   10.800    3.6546
   10.830    3.4755
   10.860    3.3386
   10.890    3.8547
   10.920    3.4755
   10.950    3.7388
   10.980    3.8231
   11.010    3.6335
   11.040    3.7388
   11.070    4.0864
   11.100    3.8547
   11.130    3.4966
   11.160    3.6019
   11.190    3.8547
   11.220    3.8231
   11.250    3.7283
   11.280    3.5492
   11.310    4.1496
   11.340    3.9810
   11.370    3.7388
   11.400    3.8757
   11.430    3.8231
   11.460    3.9494
   11.490    3.8757
   11.520    3.9179
   11.550    3.7177
   11.580    3.8020
   11.610    4.1917
   11.640    4.1285
   11.670    4.2865
   11.700    3.8652
   11.730    4.0653
   11.760    3.7177
   11.790    3.8020
   11.820    3.8968
   11.850    3.8020
   11.880    3.8125
   11.910    3.5914
   11.940    3.5914
   11.970    3.7283
   12.000    3.6651
   12.030    3.8231
   12.060    3.6967
   12.090    3.9389
   12.120    4.0653
   12.150    3.8863
   12.180    4.5603
   12.210    4.2338
   12.240    3.9705
   12.270    3.9600
   12.300    4.1811
   12.330    3.8757
   12.360    3.8231
   12.390    3.5808
   12.420    3.9284
   12.450    3.7283
   12.480    3.6230
   12.510    3.6967
   12.540    3.7915
   12.570    3.8020
   12.600    3.6335
   12.630    3.7704
   12.660    3.8231
   12.690    3.8968
   12.720    3.6651
   12.750    3.7809
   12.780    4.0864
   12.810    4.0337
   12.840    3.9810
   12.870    3.4018
   12.900    3.5176
   12.930    3.8757
   12.960    3.8968
   12.990    3.9284
   13.020    3.8125
   13.050    3.8547
   13.080    3.6862
   13.110    3.9600
   13.140    3.7809
   13.170    3.7493
   13.200    3.6019
   13.230    3.7283
   13.260    3.8547
   13.290    3.7388
   13.320    3.8968
   13.350    3.5914
   13.380    3.4123
   13.410    3.5703
   13.440    3.9284
   13.470    4.0548
   13.500    3.7388
   13.530    3.7493
   13.560    3.7388
   13.590    3.8441
   13.620    3.7283
   13.650    4.2233
   13.680    4.3707
   13.710    3.8441
   13.740    4.1811
   13.770    3.9916
   13.800    4.0337
   13.830    3.7809
   13.860    4.2549
   13.890    4.0548
   13.920    4.0232
   13.950    4.1601
   13.980    4.3075
   14.010    4.6024
   14.040    4.5814
   14.070    4.4444
   14.100    4.4339
   14.130    4.4655
   14.160    4.7077
   14.190    4.5076
   14.220    4.4444
   14.250    4.4550
   14.280    4.3602
   14.310    4.1496
   14.340    4.2338
   14.370    4.1706
   14.400    4.4655
   14.430    4.1390
   14.460    4.2022
   14.490    4.1285
   14.520    4.2127
   14.550    4.2865
   14.580    3.9179
   14.610    4.0442
   14.640    3.8231
   14.670    3.8547
   14.700    4.1285
   14.730    4.1917
   14.760    4.0653
   14.790    3.9916
   14.820    4.1917
   14.850    4.0864
   14.880    4.0548
   14.910    3.9494
   14.940    4.0126
   14.970    3.8757
   15.000    3.9494
   15.030    3.9389
   15.060    4.0548
   15.090    4.1180
   15.120    3.8547
   15.150    4.1811
   15.180    4.1390
   15.210    3.8336
   15.240    3.9705
   15.270    3.8125
   15.300    3.9389
   15.330    4.0126
   15.360    4.0969
   15.390    3.7809
   15.420    4.1496
   15.450    4.2865
   15.480    3.9389
   15.510    4.1496
   15.540    3.9600
   15.570    4.1601
   15.600    4.2233
   15.630    3.8968
   15.660    3.7599
   15.690    4.2865
   15.720    3.7072
   15.750    3.8547
   15.780    3.9600
   15.810    3.9494
   15.840    3.9810
   15.870    3.9284
   15.900    3.7388
   15.930    3.7915
   15.960    4.0442
   15.990    3.8968
   16.020    4.0758
   16.050    4.2549
   16.080    4.0126
   16.110    4.0126
   16.140    4.0653
   16.170    4.2443
   16.200    4.1180
   16.230    4.1601
   16.260    4.4444
   16.290    4.0864
   16.320    4.0021
   16.350    4.1917
   16.380    4.2233
   16.410    3.8336
   16.440    3.9705
   16.470    4.1180
   16.500    4.0232
   16.530    3.8441
   16.560    3.9284
   16.590    3.7493
   16.620    4.0653
   16.650    3.8441
   16.680    3.9600
   16.710    3.8863
   16.740    3.8441
   16.770    4.0337
   16.800    3.8336
   16.830    3.7072
   16.860    3.7072
   16.890    3.8125
   16.920    3.8125
   16.950    3.7809
   16.980    3.5808
   17.010    4.0126
   17.040    4.0126
   17.070    3.8441
   17.100    3.7493
   17.130    3.9600
   17.160    3.9389
   17.190    3.8231
   17.220    3.7072
   17.250    3.9494
   17.280    3.9073
   17.310    3.9389
   17.340    4.1811
   17.370    4.3918
   17.400    3.8020
   17.430    3.7915
   17.460    3.8757
   17.490    4.1917
   17.520    4.0126
   17.550    4.2022
   17.580    4.2233
   17.610    3.8863
   17.640    4.0969
   17.670    4.2549
   17.700    4.0232
   17.730    3.8547
   17.760    4.2127
   17.790    3.8125
   17.820    4.2443
   17.850    4.1496
   17.880    4.0337
   17.910    3.9494
   17.940    4.0021
   17.970    3.9284
   18.000    3.9494
   18.030    4.2127
   18.060    4.0758
   18.090    4.1811
   18.120    3.7599
   18.150    4.0969
   18.180    3.8231
   18.210    4.1601
   18.240    3.9179
   18.270    4.1706
   18.300    4.1074
   18.330    4.1180
   18.360    4.1917
   18.390    4.1285
   18.420    3.9284
   18.450    3.9284
   18.480    3.7283
   18.510    4.1074
   18.540    3.9179
   18.570    3.8336
   18.600    3.8863
   18.630    4.1496
   18.660    4.0758
   18.690    3.8968
   18.720    3.9494
   18.750    3.8968
   18.780    3.9916
   18.810    3.7704
   18.840    4.2127
   18.870    4.0232
   18.900    4.0548
   18.930    3.8968
   18.960    3.8652
   18.990    3.7704
   19.020    3.9179
   19.050    4.0021
   19.080    3.8968
   19.110    3.9073
   19.140    3.7809
   19.170    3.8336
   19.200    3.7809
   19.230    4.1496
   19.260    3.7072
   19.290    3.9494
   19.320    3.8020
   19.350    3.7388
   19.380    3.8441
   19.410    3.7809
   19.440    3.9600
   19.470    4.1180
   19.500    4.0021
   19.530    4.2338
   19.560    4.0232
   19.590    3.7809
   19.620    3.7599
   19.650    4.1390
   19.680    4.1706
   19.710    4.0442
   19.740    3.9705
   19.770    3.9073
   19.800    3.9389
   19.830    4.0548
   19.860    4.0126
   19.890    4.0337
   19.920    4.0548
   19.950    3.6019
   19.980    3.8968
   20.010    3.7599
   20.040    3.7493
   20.070    3.8336
   20.100    3.7809
   20.130    3.8652
   20.160    3.3175
   20.190    3.8125
   20.220    3.9284
   20.250    3.9494
   20.280    3.6546
   20.310    4.0758
   20.340    3.8441
   20.370    3.8231
   20.400    3.5808
   20.430    3.7599
   20.460    3.7915
   20.490    3.9705
   20.520    4.0548
   20.550    3.6651
   20.580    3.6335
   20.610    3.9494
   20.640    3.7072
   20.670    3.8020
   20.700    3.9600
   20.730    3.7177
   20.760    3.7493
   20.790    3.7704
   20.820    3.7072
   20.850    3.9284
   20.880    3.7493
   20.910    4.0232
   20.940    3.7072
   20.970    4.0232
   21.000    3.8968
   21.030    3.4860
   21.060    3.8231
   21.090    3.8968
   21.120    3.8757
   21.150    3.8863
   21.180    4.0126
   21.210    3.8125
   21.240    4.2970
   21.270    4.0548
   21.300    4.2549
   21.330    4.2022
   21.360    3.8757
   21.390    4.0442
   21.420    3.8757
   21.450    3.7599
   21.480    4.0548
   21.510    3.7915
   21.540    4.0126
   21.570    4.2338
   21.600    3.8336
   21.630    4.0021
   21.660    3.9916
   21.690    3.7599
   21.720    3.7704
   21.750    3.9810
   21.780    3.9916
   21.810    4.2233
   21.840    3.7283
   21.870    4.0864
   21.900    3.9600
   21.930    4.0442
   21.960    3.8757
   21.990    4.2549
   22.020    3.6124
   22.050    4.1285
   22.080    3.9179
   22.110    4.1706
   22.140    3.8125
   22.170    3.7704
   22.200    4.0548
   22.230    3.6756
   22.260    4.0126
   22.290    3.7177
   22.320    3.9284
   22.350    3.7177
   22.380    4.0864
   22.410    4.0337
   22.440    3.9284
   22.470    4.0126
   22.500    4.0969
   22.530    4.1074
   22.560    4.1390
   22.590    3.8757
   22.620    4.0337
   22.650    3.9916
   22.680    3.7072
   22.710    3.6230
   22.740    3.9179
   22.770    3.8968
   22.800    3.6967
   22.830    4.0864
   22.860    3.7599
   22.890    3.8757
   22.920    3.8547
   22.950    3.7072
   22.980    4.1811
   23.010    3.6756
   23.040    3.7704
   23.070    3.8231
   23.100    3.7599
   23.130    3.7599
   23.160    3.8757
   23.190    3.8441
   23.220    3.8757
   23.250    3.9494
   23.280    3.6440
   23.310    4.1074
   23.340    4.0337
   23.370    4.0442
   23.400    3.7177
   23.430    3.9073
   23.460    4.1390
   23.490    3.6756
   23.520    4.1601
   23.550    3.8336
   23.580    4.0442
   23.610    3.6967
   23.640    3.9179
   23.670    4.0126
   23.700    4.2022
   23.730    3.7177
   23.760    3.8547
   23.790    4.3813
   23.820    4.1601
   23.850    4.0337
   23.880    3.5703
   23.910    4.1601
   23.940    3.9600
   23.970    4.4128
   24.000    3.9810
   24.030    4.2654
   24.060    4.0442
   24.090    4.1811
   24.120    4.1496
   24.150    4.3181
   24.180    4.4023
   24.210    4.5814
   24.240    4.0864
   24.270    4.2865
   24.300    3.8547
   24.330    4.4128
   24.360    4.3707
   24.390    4.3286
   24.420    4.0442
   24.450    4.5076
   24.480    4.2654
   24.510    4.7604
   24.540    4.2759
   24.570    4.2443
   24.600    4.7077
   24.630    4.7288
   24.660    4.7604
   24.690    5.2027
   24.720    5.1080
   24.750    4.8763
   24.780    4.8552
   24.810    4.9816
   24.840    5.1395
   24.870    5.3923
   24.900    5.3923
   24.930    5.9821
   24.960    5.6240
   24.990    5.9821
   25.020    5.8557
   25.050    5.4871
   25.080    5.9189
   25.110    5.6240
   25.140    5.9084
   25.170    5.8136
   25.200    5.6029
   25.230    5.7609
   25.260    6.1085
   25.290    5.6872
   25.320    5.6345
   25.350    5.7083
   25.380    6.0558
   25.410    5.8452
   25.440    5.7715
   25.470    5.9189
   25.500    5.7820
   25.530    5.5292
   25.560    5.6029
   25.590    5.1922
   25.620    5.3818
   25.650    5.3818
   25.680    5.2870
   25.710    5.0658
   25.740    4.9394
   25.770    5.3186
   25.800    5.1922
   25.830    4.9816
   25.860    5.0974
   25.890    4.7815
   25.920    4.9289
   25.950    4.8868
   25.980    4.7288
   26.010    4.9078
   26.040    4.6867
   26.070    4.8657
   26.100    4.6024
   26.130    4.4339
   26.160    4.2233
   26.190    4.4866
   26.220    4.4234
   26.250    4.4234
   26.280    4.3075
   26.310    4.0653
   26.340    4.4128
   26.370    4.3181
   26.400    3.9284
   26.430    4.1601
   26.460    4.1285
   26.490    4.0758
   26.520    4.0548
   26.550    4.1074
   26.580    3.8441
   26.610    3.8863
   26.640    3.7388
   26.670    3.9916
   26.700    4.3286
   26.730    3.9916
   26.760    3.9284
   26.790    4.1496
   26.820    3.8125
   26.850    4.1180
   26.880    3.8020
   26.910    3.4966
   26.940    3.7072
   26.970    3.7177
   27.000    3.7704
   27.030    3.6651
   27.060    3.5282
   27.090    3.8231
   27.120    3.5598
   27.150    3.6756
   27.180    3.8968
   27.210    3.6546
   27.240    3.8336
   27.270    3.7704
   27.300    3.6230
   27.330    3.5492
   27.360    3.6019
   27.390    3.8441
   27.420    3.4018
   27.450    3.5387
   27.480    3.1806
   27.510    3.6230
   27.540    3.4860
   27.570    3.7177
   27.600    3.4018
   27.630    3.5492
   27.660    3.5492
   27.690    3.8757
   27.720    3.7493
   27.750    3.6230
   27.780    3.5598
   27.810    3.5387
   27.840    3.4966
   27.870    3.6546
   27.900    3.4018
   27.930    3.4229
   27.960    3.5282
   27.990    3.4018
   28.020    3.4755
   28.050    3.5703
   28.080    3.2438
   28.110    3.2543
   28.140    3.2438
   28.170    3.1596
   28.200    3.2754
   28.230    3.4018
   28.260    3.1385
   28.290    3.7177
   28.320    3.2543
   28.350    3.1280
   28.380    3.5176
   28.410    3.2859
   28.440    3.3597
   28.470    3.3175
   28.500    3.3913
   28.530    3.4439
   28.560    3.4439
   28.590    3.2965
   28.620    3.3702
   28.650    3.0542
   28.680    3.7388
   28.710    3.3491
   28.740    3.4544
   28.770    3.0964
   28.800    3.5387
   28.830    3.2543
   28.860    3.3386
   28.890    3.3070
   28.920    3.0121
   28.950    3.1490
   28.980    3.3491
   29.010    3.0858
   29.040    3.1069
   29.070    3.4966
   29.100    3.2965
   29.130    3.3491
   29.160    3.3070
   29.190    3.1490
   29.220    3.4650
   29.250    3.2438
   29.280    3.1385
   29.310    3.2227
   29.340    3.0964
   29.370    2.8963
   29.400    2.8752
   29.430    2.9384
   29.460    3.0648
   29.490    2.8015
   29.520    2.9279
   29.550    3.5387
   29.580    3.1174
   29.610    3.0016
   29.640    3.0332
   29.670    3.3070
   29.700    3.1385
   29.730    3.1490
   29.760    3.1069
   29.790    2.9700
   29.820    3.0121
   29.850    3.1701
   29.880    2.7172
   29.910    3.0753
   29.940    3.0016
   29.970    2.8647
   30.000    2.8225
   30.030    3.0332
   30.060    3.0332
   30.090    2.8015
   30.120    3.2438
   30.150    3.2333
   30.180    3.3702
   30.210    2.8963
   30.240    3.2859
   30.270    2.9173
   30.300    2.8647
   30.330    2.8647
   30.360    2.9595
   30.390    2.9910
   30.420    2.6224
   30.450    2.9805
   30.480    3.1069
   30.510    3.1490
   30.540    3.0542
   30.570    2.6962
   30.600    3.0226
   30.630    3.1596
   30.660    3.0016
   30.690    2.7172
   30.720    2.9068
   30.750    2.7067
   30.780    2.8752
   30.810    3.0121
   30.840    2.9805
   30.870    2.9910
   30.900    2.8647
   30.930    2.7067
   30.960    2.6224
   30.990    3.0016
   31.020    2.8857
   31.050    2.8752
   31.080    2.8541
   31.110    2.8015
   31.140    3.1069
   31.170    3.2122
   31.200    2.9384
   31.230    2.8963
   31.260    2.6751
   31.290    2.6856
   31.320    2.6330
   31.350    2.7804
   31.380    2.7488
   31.410    2.8331
   31.440    2.8541
   31.470    2.7593
   31.500    2.6751
   31.530    2.8857
   31.560    2.9489
   31.590    2.7804
   31.620    2.7383
   31.650    2.7172
   31.680    2.7278
   31.710    2.7593
   31.740    2.7909
   31.770    2.6224
   31.800    2.6224
   31.830    2.3802
   31.860    2.3065
   31.890    2.6119
   31.920    3.0016
   31.950    2.9700
   31.980    2.6962
   32.010    2.4434
   32.040    2.5171
   32.070    2.8436
   32.100    2.6751
   32.130    2.4329
   32.160    2.6751
   32.190    2.5908
   32.220    2.3907
   32.250    2.5698
   32.280    2.5382
   32.310    2.4434
   32.340    2.5171
   32.370    2.5171
   32.400    2.3591
   32.430    2.5698
   32.460    2.6014
   32.490    2.6330
   32.520    2.3697
   32.550    2.2959
   32.580    2.7278
   32.610    2.5382
   32.640    2.4961
   32.670    2.4961
   32.700    2.5171
   32.730    2.4434
   32.760    2.6330
   32.790    2.6646
   32.820    2.4855
   32.850    2.2959
   32.880    2.3170
   32.910    2.3170
   32.940    2.4329
   32.970    2.4750
   33.000    2.3697
   33.030    2.3381
   33.060    2.4750
   33.090    2.5276
   33.120    2.5803
   33.150    2.5592
   33.180    2.4013
   33.210    2.4223
   33.240    2.2538
   33.270    2.5487
   33.300    2.2012
   33.330    2.3486
   33.360    2.4961
   33.390    2.2749
   33.420    2.2643
   33.450    2.3697
   33.480    2.3275
   33.510    2.3907
   33.540    2.2854
   33.570    2.2328
   33.600    2.0116
   33.630    2.2643
   33.660    2.2433
   33.690    2.4434
   33.720    2.3591
   33.750    2.4118
   33.780    2.2117
   33.810    2.2749
   33.840    2.5276
   33.870    2.2854
   33.900    2.3065
   33.930    1.9800
   33.960    2.1590
   33.990    2.4223
   34.020    2.1801
   34.050    2.3486
   34.080    2.3591
   34.110    2.0853
   34.140    2.3275
   34.170    1.9695
   34.200    2.2854
   34.230    2.3802
   34.260    2.4750
   34.290    2.3381
   34.320    1.9589
   34.350    2.3907
   34.380    2.1906
   34.410    1.9800
   34.440    2.1274
   34.470    1.9695
   34.500    2.0748
   34.530    2.1380
   34.560    2.1801
   34.590    2.0011
   34.620    2.0853
   34.650    2.0853
   34.680    2.1801
   34.710    1.7799
   34.740    1.6956
   34.770    2.1485
   34.800    2.0326
   34.830    2.0221
   34.860    2.0748
   34.890    2.0011
   34.920    2.1590
   34.950    2.1696
   34.980    1.9273
   35.010    1.9800
   35.040    1.9168
   35.070    2.1169
   35.100    2.2012
   35.130    1.9168
   35.160    2.0748
   35.190    1.9273
   35.220    2.1380
   35.250    1.7062
   35.280    1.6851
   35.310    1.9695
   35.340    2.0221
   35.370    2.0432
   35.400    1.9484
   35.430    2.0221
   35.460    2.0011
   35.490    2.0537
   35.520    2.1380
   35.550    1.8641
   35.580    1.8009
   35.610    2.0537
   35.640    1.8852
   35.670    1.8747
   35.700    2.0537
   35.730    2.0748
   35.760    2.2433
   35.790    2.0221
   35.820    1.9273
   35.850    1.9905
   35.880    1.8325
   35.910    1.8957
   35.940    1.8852
   35.970    1.8852
   36.000    1.9273
   36.030    1.6851
   36.060    1.8325
   36.090    1.7062
   36.120    1.8641
   36.150    1.6640
   36.180    1.8115
   36.210    1.6746
   36.240    1.7272
   36.270    1.7483
   36.300    1.6851
   36.330    1.8325
   36.360    1.8431
   36.390    1.8431
   36.420    2.1064
   36.450    1.7378
   36.480    1.8536
   36.510    1.7272
   36.540    1.7694
   36.570    1.9589
   36.600    1.7378
   36.630    1.8747
   36.660    1.9063
   36.690    1.9800
   36.720    1.7799
   36.750    1.7062
   36.780    1.7904
   36.810    1.8325
   36.840    1.8325
   36.870    1.6956
   36.900    1.8325
   36.930    1.7904
   36.960    1.5692
   36.990    1.8115
   37.020    1.6008
   37.050    1.5587
   37.080    1.6535
   37.110    1.7062
   37.140    1.6430
   37.170    1.6640
   37.200    1.8747
   37.230    1.7588
   37.260    1.6430
   37.290    1.6430
   37.320    1.4955
   37.350    1.6430
   37.380    1.5166
   37.410    1.6219
   37.440    1.7378
   37.470    1.6851
   37.500    1.6640
   37.530    1.4323
   37.560    1.4429
   37.590    1.9063
   37.620    1.7694
   37.650    1.4745
   37.680    1.9063
   37.710    1.4323
   37.740    1.6114
   37.770    1.6008
   37.800    1.5271
   37.830    1.6956
   37.860    1.6324
   37.890    1.7799
   37.920    1.5798
   37.950    1.5166
   37.980    1.5271
   38.010    1.3902
   38.040    1.8325
   38.070    1.5903
   38.100    1.5692
   38.130    1.7272
   38.160    1.6008
   38.190    1.4850
   38.220    1.9484
   38.250    1.3270
   38.280    1.6008
   38.310    1.6535
   38.340    1.7799
   38.370    1.4955
   38.400    1.6956
   38.430    1.5377
   38.460    1.6746
   38.490    1.6219
   38.520    1.7483
   38.550    1.6851
   38.580    1.7062
   38.610    1.4323
   38.640    1.6640
   38.670    1.6746
   38.700    1.5587
   38.730    1.4850
   38.760    1.5166
   38.790    1.5587
   38.820    1.5166
   38.850    1.4323
   38.880    1.5061
   38.910    1.6746
   38.940    1.6008
   38.970    1.6851
   39.000    1.5903
   39.030    1.7483
   39.060    1.5798
   39.090    1.5798
   39.120    1.4850
   39.150    1.6219
   39.180    1.4745
   39.210    1.4113
   39.240    1.6535
   39.270    1.5903
   39.300    1.7378
   39.330    1.5061
   39.360    1.4113
   39.390    1.6746
   39.420    1.4850
   39.450    1.4639
   39.480    1.6008
   39.510    1.5903
   39.540    1.6219
   39.570    1.5061
   39.600    1.5061
   39.630    1.6219
   39.660    1.4955
   39.690    1.6114
   39.720    1.7062
   39.750    1.7483
   39.780    1.5587
   39.810    1.5798
   39.840    1.5377
   39.870    1.3691
   39.900    1.5692
   39.930    1.6640
   39.960    1.3165
   39.990    1.6008