File: data/MOCOF-1/PXRD/PXRD_KE-027_Cu-Ka1_capillary-1mm_5s-deg.xyd
    1.500   23.2543
    1.530   23.3702
    1.560   23.8231
    1.590   22.6435
    1.620   22.6962
    1.650   21.8115
    1.680   21.4850
    1.710   21.0953
    1.740   20.3265
    1.770   20.1474
    1.800   20.0105
    1.830   19.7999
    1.860   19.2628
    1.890   19.4102
    1.920   18.8099
    1.950   19.0205
    1.980   18.3254
    2.010   18.7362
    2.040   17.9252
    2.070   17.5882
    2.100   18.1885
    2.130   17.6409
    2.160   18.1253
    2.190   17.6409
    2.220   17.2301
    2.250   17.4302
    2.280   17.7462
    2.310   17.7041
    2.340   17.2722
    2.370   17.8199
    2.400   17.8410
    2.430   17.4829
    2.460   17.3354
    2.490   18.2517
    2.520   18.3254
    2.550   18.3992
    2.580   17.2722
    2.610   18.1464
    2.640   18.9889
    2.670   18.7888
    2.700   19.4102
    2.730   19.8631
    2.760   19.8315
    2.790   19.7472
    2.820   20.1053
    2.850   21.4323
    2.880   21.1796
    2.910   22.3697
    2.940   23.0858
    2.970   24.1706
    3.000   24.1496
    3.030   25.0553
    3.060   25.5924
    3.090   25.5292
    3.120   27.0774
    3.150   28.8994
    3.180   29.9631
    3.210   31.5850
    3.240   33.0911
    3.270   34.6393
    3.300   35.7451
    3.330   37.2828
    3.360   40.8215
    3.390   43.6230
    3.420   45.9716
    3.450   48.2886
    3.480   51.0900
    3.510   55.3871
    3.540   56.9668
    3.570   57.9674
    3.600   59.3470
    3.630   59.9789
    3.660   58.4729
    3.690   56.9142
    3.720   54.7973
    3.750   52.0063
    3.780   48.3834
    3.810   45.7083
    3.840   41.5482
    3.870   38.7151
    3.900   36.2296
    3.930   34.3549
    3.960   31.9642
    3.990   29.8789
    4.020   27.4250
    4.050   25.9716
    4.080   24.4234
    4.110   23.1596
    4.140   22.8541
    4.170   20.9900
    4.200   20.0105
    4.230   19.7472
    4.260   19.5261
    4.290   18.8415
    4.320   18.2833
    4.350   17.3144
    4.380   16.5034
    4.410   16.6403
    4.440   15.5977
    4.470   15.5661
    4.500   16.0716
    4.530   15.3449
    4.560   15.0395
    4.590   14.8815
    4.620   14.7551
    4.650   14.9026
    4.680   14.0179
    4.710   15.0395
    4.740   13.6598
    4.770   14.1338
    4.800   13.5440
    4.830   13.8494
    4.860   13.7862
    4.890   13.4071
    4.920   13.9547
    4.950   13.9652
    4.980   13.7230
    5.010   12.9437
    5.040   13.7230
    5.070   13.5650
    5.100   13.9337
    5.130   13.4597
    5.160   13.4808
    5.190   13.0174
    5.220   13.1648
    5.250   13.1859
    5.280   13.3333
    5.310   13.6177
    5.340   13.1122
    5.370   12.7014
    5.400   12.5118
    5.430   12.6488
    5.460   12.6172
    5.490   12.2486
    5.520   12.2064
    5.550   12.8067
    5.580   12.2064
    5.610   12.1959
    5.640   12.4908
    5.670   11.4797
    5.700   11.9431
    5.730   11.5219
    5.760   11.3428
    5.790   11.1954
    5.820   11.3955
    5.850   10.7214
    5.880   10.4687
    5.910   10.4687
    5.940   10.3423
    5.970   10.2159
    6.000    9.9526
    6.030    9.7630
    6.060    9.9210
    6.090    8.9942
    6.120    8.8994
    6.150    8.8678
    6.180    9.4997
    6.210    9.1206
    6.240    9.7209
    6.270    8.2570
    6.300    9.1522
    6.330    9.2680
    6.360    9.1101
    6.390    8.9415
    6.420    8.4255
    6.450    8.4255
    6.480    8.9521
    6.510    8.7941
    6.540    8.8152
    6.570    8.4150
    6.600    8.8362
    6.630    9.1732
    6.660    9.4892
    6.690    8.7836
    6.720    8.7098
    6.750    8.7730
    6.780    8.9731
    6.810    9.6682
    6.840    9.4260
    6.870    9.4576
    6.900    9.7209
    6.930    9.9737
    6.960   10.2580
    6.990    9.9210
    7.020   10.5845
    7.050   10.6266
    7.080   11.5219
    7.110   11.0795
    7.140   11.4481
    7.170   10.7636
    7.200   11.0585
    7.230   11.2375
    7.260   11.6904
    7.290   11.0163
    7.320   11.0479
    7.350   10.8583
    7.380   10.7425
    7.410   10.4265
    7.440   10.6793
    7.470   10.1843
    7.500    9.4471
    7.530    9.1732
    7.560    9.3628
    7.590    9.0995
    7.620    8.6256
    7.650    8.2254
    7.680    7.9305
    7.710    8.1095
    7.740    7.8462
    7.770    7.8041
    7.800    8.0358
    7.830    7.0985
    7.860    7.2986
    7.890    7.1933
    7.920    7.4987
    7.950    6.8246
    7.980    7.4144
    8.010    6.6245
    8.040    6.9405
    8.070    6.7825
    8.100    6.6772
    8.130    6.7404
    8.160    6.9932
    8.190    6.6351
    8.220    6.5929
    8.250    6.2875
    8.280    6.0664
    8.310    6.1295
    8.340    6.5929
    8.370    6.1295
    8.400    5.8768
    8.430    5.8031
    8.460    5.9716
    8.490    6.3402
    8.520    6.0453
    8.550    6.0032
    8.580    6.3612
    8.610    6.2349
    8.640    5.8452
    8.670    6.0664
    8.700    5.3923
    8.730    5.7925
    8.760    5.1817
    8.790    5.9821
    8.820    5.6767
    8.850    5.8978
    8.880    5.8347
    8.910    5.2975
    8.940    5.6451
    8.970    5.5292
    9.000    5.7293
    9.030    5.3712
    9.060    5.3186
    9.090    5.5082
    9.120    5.5608
    9.150    5.1290
    9.180    5.5398
    9.210    5.4450
    9.240    5.4134
    9.270    5.2343
    9.300    5.2765
    9.330    5.4555
    9.360    5.3291
    9.390    5.3818
    9.420    5.1711
    9.450    5.6135
    9.480    5.1185
    9.510    5.4344
    9.540    5.3291
    9.570    5.3923
    9.600    5.1185
    9.630    5.0026
    9.660    4.9710
    9.690    4.8552
    9.720    5.2238
    9.750    4.8973
    9.780    5.1185
    9.810    5.1185
    9.840    4.9078
    9.870    5.4450
    9.900    4.9816
    9.930    5.3923
    9.960    5.2449
    9.990    5.3502
   10.020    5.1606
   10.050    5.1606
   10.080    5.0237
   10.110    5.0448
   10.140    4.8236
   10.170    4.9184
   10.200    4.8131
   10.230    4.9184
   10.260    5.2975
   10.290    5.3186
   10.320    4.9710
   10.350    5.2343
   10.380    5.0764
   10.410    4.9078
   10.440    5.1922
   10.470    5.1395
   10.500    4.8236
   10.530    4.9605
   10.560    4.9710
   10.590    5.3397
   10.620    5.3081
   10.650    5.1080
   10.680    5.1711
   10.710    4.9816
   10.740    5.3397
   10.770    5.2133
   10.800    5.2870
   10.830    5.5082
   10.860    4.9921
   10.890    5.2027
   10.920    5.4450
   10.950    5.2659
   10.980    5.4660
   11.010    5.0132
   11.040    5.3291
   11.070    5.5398
   11.100    5.3081
   11.130    5.2765
   11.160    5.2027
   11.190    5.4134
   11.220    4.9394
   11.250    5.6135
   11.280    5.0342
   11.310    5.2449
   11.340    5.0764
   11.370    5.2238
   11.400    5.1711
   11.430    5.2765
   11.460    5.2133
   11.490    5.4239
   11.520    5.2343
   11.550    5.1185
   11.580    5.0974
   11.610    5.2554
   11.640    4.9710
   11.670    5.2765
   11.700    4.8236
   11.730    5.2554
   11.760    4.9921
   11.790    5.3818
   11.820    5.4344
   11.850    4.9816
   11.880    5.3186
   11.910    4.6867
   11.940    5.2343
   11.970    5.2554
   12.000    5.2343
   12.030    5.0658
   12.060    5.1290
   12.090    5.0764
   12.120    4.8341
   12.150    4.9921
   12.180    5.0974
   12.210    4.9921
   12.240    4.7920
   12.270    5.4239
   12.300    5.3923
   12.330    5.0869
   12.360    4.7815
   12.390    5.2659
   12.420    5.0553
   12.450    5.1395
   12.480    5.1711
   12.510    4.6972
   12.540    4.9394
   12.570    5.0342
   12.600    4.9921
   12.630    4.6235
   12.660    5.1395
   12.690    4.9184
   12.720    5.3186
   12.750    4.5392
   12.780    5.2238
   12.810    4.9921
   12.840    4.9289
   12.870    4.9921
   12.900    4.9710
   12.930    4.7920
   12.960    5.0342
   12.990    4.9184
   13.020    5.3081
   13.050    5.0448
   13.080    5.0764
   13.110    5.1395
   13.140    4.7604
   13.170    4.8025
   13.200    4.7183
   13.230    5.0553
   13.260    4.6445
   13.290    4.8236
   13.320    4.6761
   13.350    5.0974
   13.380    4.6656
   13.410    4.7183
   13.440    4.9184
   13.470    4.7815
   13.500    4.8236
   13.530    4.8341
   13.560    4.7183
   13.590    4.9078
   13.620    4.9394
   13.650    4.8447
   13.680    4.9921
   13.710    4.6761
   13.740    5.1606
   13.770    5.1080
   13.800    5.0132
   13.830    5.0026
   13.860    4.7815
   13.890    5.0658
   13.920    4.9816
   13.950    4.8025
   13.980    4.9605
   14.010    5.1922
   14.040    4.9605
   14.070    5.1290
   14.100    4.9184
   14.130    5.1080
   14.160    4.8973
   14.190    4.9921
   14.220    4.8236
   14.250    5.0764
   14.280    5.0132
   14.310    5.3186
   14.340    5.1501
   14.370    4.8341
   14.400    5.1817
   14.430    5.2449
   14.460    5.1501
   14.490    5.1817
   14.520    5.2343
   14.550    5.2133
   14.580    5.1080
   14.610    4.8763
   14.640    5.2765
   14.670    4.7604
   14.700    5.0237
   14.730    4.9816
   14.760    5.2554
   14.790    5.0764
   14.820    4.6656
   14.850    5.1290
   14.880    4.6024
   14.910    4.7604
   14.940    5.1080
   14.970    5.0448
   15.000    4.8973
   15.030    4.7604
   15.060    5.0237
   15.090    5.1080
   15.120    5.3081
   15.150    4.9921
   15.180    4.9289
   15.210    5.0658
   15.240    5.1817
   15.270    5.2027
   15.300    4.9710
   15.330    4.9921
   15.360    5.1711
   15.390    5.1185
   15.420    4.8763
   15.450    5.1185
   15.480    5.2449
   15.510    5.0132
   15.540    4.7077
   15.570    4.7077
   15.600    4.8657
   15.630    5.2133
   15.660    5.0342
   15.690    4.8868
   15.720    5.2870
   15.750    4.7499
   15.780    5.1922
   15.810    5.1606
   15.840    5.5292
   15.870    5.0553
   15.900    5.0132
   15.930    4.8025
   15.960    5.3818
   15.990    5.2133
   16.020    5.1606
   16.050    5.2238
   16.080    5.2133
   16.110    5.0026
   16.140    5.5292
   16.170    5.2870
   16.200    4.8973
   16.230    5.4660
   16.260    5.2133
   16.290    5.3923
   16.320    5.0448
   16.350    5.1817
   16.380    5.4028
   16.410    5.1711
   16.440    5.2133
   16.470    5.3818
   16.500    5.4660
   16.530    5.6767
   16.560    5.0237
   16.590    5.3081
   16.620    5.2343
   16.650    5.3502
   16.680    5.1501
   16.710    5.2554
   16.740    5.2238
   16.770    5.3291
   16.800    4.9921
   16.830    5.5608
   16.860    5.6135
   16.890    5.4239
   16.920    5.2554
   16.950    5.5714
   16.980    5.3923
   17.010    5.4871
   17.040    5.2870
   17.070    5.1501
   17.100    5.2238
   17.130    5.4976
   17.160    5.5503
   17.190    5.4766
   17.220    5.3923
   17.250    5.0869
   17.280    5.5924
   17.310    5.3291
   17.340    5.5292
   17.370    5.7083
   17.400    5.5503
   17.430    5.2870
   17.460    5.5292
   17.490    5.2975
   17.520    5.9821
   17.550    5.9716
   17.580    5.5608
   17.610    5.6135
   17.640    5.4871
   17.670    5.3186
   17.700    5.6556
   17.730    5.6977
   17.760    6.0137
   17.790    5.6872
   17.820    5.7609
   17.850    5.6872
   17.880    5.8452
   17.910    5.9716
   17.940    6.0137
   17.970    6.3296
   18.000    5.8136
   18.030    6.0769
   18.060    6.1401
   18.090    5.8768
   18.120    5.6661
   18.150    6.3823
   18.180    6.1085
   18.210    6.1401
   18.240    6.3507
   18.270    5.9294
   18.300    6.2349
   18.330    5.7820
   18.360    6.2033
   18.390    6.3823
   18.420    6.0137
   18.450    6.2138
   18.480    6.2665
   18.510    6.2138
   18.540    6.2665
   18.570    6.1927
   18.600    6.1506
   18.630    6.5403
   18.660    6.3296
   18.690    6.3402
   18.720    6.1927
   18.750    6.5929
   18.780    6.3612
   18.810    5.9189
   18.840    6.5192
   18.870    6.2138
   18.900    6.2033
   18.930    6.3507
   18.960    6.5929
   18.990    6.1295
   19.020    6.0348
   19.050    6.3718
   19.080    5.9610
   19.110    6.2454
   19.140    5.8978
   19.170    5.9400
   19.200    5.8347
   19.230    5.8452
   19.260    6.0769
   19.290    5.8452
   19.320    6.4244
   19.350    6.2454
   19.380    6.7930
   19.410    6.0979
   19.440    6.1927
   19.470    6.1822
   19.500    5.9926
   19.530    6.4876
   19.560    6.2138
   19.590    6.1927
   19.620    6.1190
   19.650    6.1401
   19.680    6.2243
   19.710    5.8978
   19.740    5.6977
   19.770    5.6872
   19.800    5.8136
   19.830    6.3402
   19.860    6.2559
   19.890    5.5082
   19.920    6.1717
   19.950    6.0558
   19.980    5.7293
   20.010    6.2981
   20.040    5.7609
   20.070    6.0032
   20.100    5.8347
   20.130    5.9084
   20.160    5.8768
   20.190    5.6872
   20.220    5.9400
   20.250    5.8241
   20.280    5.8768
   20.310    5.9084
   20.340    5.6240
   20.370    5.4976
   20.400    6.0769
   20.430    5.8241
   20.460    5.7715
   20.490    5.8873
   20.520    5.8768
   20.550    5.8031
   20.580    5.8662
   20.610    6.1927
   20.640    5.9505
   20.670    5.5398
   20.700    5.8978
   20.730    5.7715
   20.760    6.3823
   20.790    5.8662
   20.820    5.7925
   20.850    5.8241
   20.880    5.7399
   20.910    5.9505
   20.940    6.0874
   20.970    5.7609
   21.000    5.8768
   21.030    5.6556
   21.060    5.7293
   21.090    5.7504
   21.120    5.9610
   21.150    5.8873
   21.180    6.1190
   21.210    5.9821
   21.240    5.8873
   21.270    5.8136
   21.300    5.7715
   21.330    5.9505
   21.360    6.2770
   21.390    6.0558
   21.420    6.3612
   21.450    5.8241
   21.480    6.4034
   21.510    6.0032
   21.540    6.1927
   21.570    6.1611
   21.600    6.1717
   21.630    6.0769
   21.660    6.1717
   21.690    6.3296
   21.720    6.1717
   21.750    6.2243
   21.780    6.0348
   21.810    6.1611
   21.840    6.2559
   21.870    5.7820
   21.900    6.1506
   21.930    5.9400
   21.960    5.9294
   21.990    6.0032
   22.020    6.3823
   22.050    6.1085
   22.080    5.7188
   22.110    6.0348
   22.140    6.3086
   22.170    5.8557
   22.200    5.8347
   22.230    5.7399
   22.260    5.9821
   22.290    6.0664
   22.320    5.6240
   22.350    6.0242
   22.380    5.7083
   22.410    6.0874
   22.440    6.0874
   22.470    6.0137
   22.500    5.7609
   22.530    6.2665
   22.560    5.8452
   22.590    5.6977
   22.620    6.0453
   22.650    6.0242
   22.680    5.8031
   22.710    6.0664
   22.740    6.1190
   22.770    5.9716
   22.800    5.9821
   22.830    6.0032
   22.860    6.2770
   22.890    5.6872
   22.920    5.6451
   22.950    5.9400
   22.980    6.2349
   23.010    5.7609
   23.040    5.7925
   23.070    5.7504
   23.100    5.5503
   23.130    6.2454
   23.160    6.1295
   23.190    5.7293
   23.220    5.4871
   23.250    5.4766
   23.280    6.1506
   23.310    6.0664
   23.340    5.5292
   23.370    5.8347
   23.400    5.6977
   23.430    5.9400
   23.460    5.5082
   23.490    5.4344
   23.520    5.9294
   23.550    5.3818
   23.580    5.6977
   23.610    5.4766
   23.640    5.6240
   23.670    5.7925
   23.700    5.4450
   23.730    5.8136
   23.760    5.4766
   23.790    5.8978
   23.820    5.5292
   23.850    5.8031
   23.880    5.2133
   23.910    5.3291
   23.940    5.4976
   23.970    5.6135
   24.000    5.1711
   24.030    5.8978
   24.060    5.2027
   24.090    5.8031
   24.120    5.3923
   24.150    5.4555
   24.180    5.5187
   24.210    5.2343
   24.240    5.4239
   24.270    5.2133
   24.300    5.3186
   24.330    4.9710
   24.360    5.6135
   24.390    5.1922
   24.420    5.2449
   24.450    5.3502
   24.480    5.5503
   24.510    5.2133
   24.540    5.4976
   24.570    5.4028
   24.600    5.0132
   24.630    5.4450
   24.660    5.3712
   24.690    5.2449
   24.720    4.8763
   24.750    5.0553
   24.780    5.0132
   24.810    5.3397
   24.840    5.4871
   24.870    5.0974
   24.900    5.1501
   24.930    5.2027
   24.960    5.2133
   24.990    4.8973
   25.020    5.4871
   25.050    4.8973
   25.080    5.3397
   25.110    5.1711
   25.140    4.9500
   25.170    5.0237
   25.200    5.1185
   25.230    4.6656
   25.260    4.9816
   25.290    4.9816
   25.320    4.9500
   25.350    4.9816
   25.380    4.9078
   25.410    4.7920
   25.440    4.8552
   25.470    4.8131
   25.500    4.7709
   25.530    4.7183
   25.560    4.6445
   25.590    4.7604
   25.620    4.3813
   25.650    5.0342
   25.680    4.8236
   25.710    4.8763
   25.740    4.6656
   25.770    4.6761
   25.800    4.8236
   25.830    4.6867
   25.860    4.7183
   25.890    4.9500
   25.920    4.8236
   25.950    4.6551
   25.980    4.3707
   26.010    4.7288
   26.040    4.4128
   26.070    4.5392
   26.100    4.5603
   26.130    4.7393
   26.160    4.8131
   26.190    4.3813
   26.220    4.4550
   26.250    4.4971
   26.280    4.3602
   26.310    4.5814
   26.340    4.6551
   26.370    4.6445
   26.400    4.4655
   26.430    4.3707
   26.460    4.4866
   26.490    4.3602
   26.520    4.0126
   26.550    4.4655
   26.580    4.1601
   26.610    4.2759
   26.640    4.2338
   26.670    4.2549
   26.700    4.0442
   26.730    4.0653
   26.760    4.4128
   26.790    4.2654
   26.820    4.2865
   26.850    4.1390
   26.880    3.9494
   26.910    4.2970
   26.940    3.9073
   26.970    4.0758
   27.000    3.8652
   27.030    4.2549
   27.060    4.0442
   27.090    4.1074
   27.120    4.2759
   27.150    4.0442
   27.180    4.1601
   27.210    4.2443
   27.240    4.4234
   27.270    4.0126
   27.300    4.3602
   27.330    4.0337
   27.360    3.8863
   27.390    4.1180
   27.420    4.1285
   27.450    4.0653
   27.480    4.0126
   27.510    3.8863
   27.540    4.0442
   27.570    3.9810
   27.600    3.5598
   27.630    4.0337
   27.660    3.8547
   27.690    3.8863
   27.720    3.8757
   27.750    4.1285
   27.780    3.9810
   27.810    3.7915
   27.840    3.8336
   27.870    3.9600
   27.900    3.8020
   27.930    3.9600
   27.960    3.8125
   27.990    4.1601
   28.020    3.8336
   28.050    3.7388
   28.080    4.1706
   28.110    3.6335
   28.140    3.7388
   28.170    3.7809
   28.200    3.4229
   28.230    3.8441
   28.260    3.6967
   28.290    3.7283
   28.320    3.6651
   28.350    3.5598
   28.380    3.6230
   28.410    3.7388
   28.440    3.6651
   28.470    3.7072
   28.500    3.3913
   28.530    3.5176
   28.560    3.8757
   28.590    3.9179
   28.620    3.7493
   28.650    3.7177
   28.680    3.5808
   28.710    3.6335
   28.740    3.4755
   28.770    3.8231
   28.800    3.7177
   28.830    3.7388
   28.860    3.5703
   28.890    3.8336
   28.920    3.5808
   28.950    3.8968
   28.980    3.4018
   29.010    3.9284
   29.040    3.3807
   29.070    3.4334
   29.100    3.3175
   29.130    3.5071
   29.160    3.5387
   29.190    3.2859
   29.220    3.4650
   29.250    3.6019
   29.280    3.6019
   29.310    3.4650
   29.340    3.3702
   29.370    3.3913
   29.400    3.2965
   29.430    3.2333
   29.460    3.3807
   29.490    3.3597
   29.520    3.4755
   29.550    3.6967
   29.580    3.4966
   29.610    3.5387
   29.640    3.3386
   29.670    3.6546
   29.700    3.3491
   29.730    3.4860
   29.760    3.5387
   29.790    3.2859
   29.820    3.2438
   29.850    3.4755
   29.880    3.4755
   29.910    3.0753
   29.940    3.3597
   29.970    3.2754
   30.000    3.4334
   30.030    3.3597
   30.060    3.1490
   30.090    3.3386
   30.120    3.2438
   30.150    3.5282
   30.180    3.2965
   30.210    3.4650
   30.240    3.1596
   30.270    3.2965
   30.300    3.4018
   30.330    3.6967
   30.360    3.2017
   30.390    3.3597
   30.420    3.0964
   30.450    3.3807
   30.480    3.2649
   30.510    3.0121
   30.540    3.2122
   30.570    3.1069
   30.600    3.2333
   30.630    3.1701
   30.660    3.1806
   30.690    3.1912
   30.720    2.9910
   30.750    3.1701
   30.780    2.9910
   30.810    3.3281
   30.840    3.0753
   30.870    3.1806
   30.900    3.0016
   30.930    3.0648
   30.960    3.0121
   30.990    3.4966
   31.020    3.0016
   31.050    3.1912
   31.080    3.1280
   31.110    3.0542
   31.140    3.0542
   31.170    3.0858
   31.200    3.1596
   31.230    3.0332
   31.260    3.1385
   31.290    2.9279
   31.320    2.8225
   31.350    3.0121
   31.380    2.9173
   31.410    2.8541
   31.440    3.1385
   31.470    2.8647
   31.500    3.0016
   31.530    2.9805
   31.560    2.8857
   31.590    3.2859
   31.620    3.1701
   31.650    3.1280
   31.680    2.9595
   31.710    2.8752
   31.740    3.2649
   31.770    3.1385
   31.800    2.8752
   31.830    2.9595
   31.860    3.0226
   31.890    2.8647
   31.920    2.6962
   31.950    2.7804
   31.980    2.8120
   32.010    2.9068
   32.040    3.1385
   32.070    2.9279
   32.100    2.8752
   32.130    2.8225
   32.160    2.8436
   32.190    2.9910
   32.220    2.6224
   32.250    2.7278
   32.280    2.6224
   32.310    2.9173
   32.340    2.8857
   32.370    2.7804
   32.400    2.8963
   32.430    2.6330
   32.460    2.3381
   32.490    2.6224
   32.520    2.8647
   32.550    2.6119
   32.580    2.8436
   32.610    3.1069
   32.640    2.8752
   32.670    2.6646
   32.700    2.5487
   32.730    2.6119
   32.760    2.6962
   32.790    2.9595
   32.820    2.6540
   32.850    2.8436
   32.880    2.5487
   32.910    2.5698
   32.940    2.7278
   32.970    2.9068
   33.000    2.6751
   33.030    2.6119
   33.060    2.6856
   33.090    2.6646
   33.120    2.3486
   33.150    2.4118
   33.180    2.5592
   33.210    2.6119
   33.240    2.7488
   33.270    2.8015
   33.300    2.4329
   33.330    2.4013
   33.360    2.5382
   33.390    2.6962
   33.420    2.7067
   33.450    2.6119
   33.480    2.5171
   33.510    2.6435
   33.540    2.6962
   33.570    2.3381
   33.600    2.3065
   33.630    2.3907
   33.660    2.6014
   33.690    2.5487
   33.720    2.4539
   33.750    2.4539
   33.780    2.5487
   33.810    2.2959
   33.840    2.4750
   33.870    2.6435
   33.900    2.4855
   33.930    2.3802
   33.960    2.4961
   33.990    2.4645
   34.020    2.4539
   34.050    2.2117
   34.080    2.3486
   34.110    2.4750
   34.140    2.5066
   34.170    2.3486
   34.200    2.3170
   34.230    2.4434
   34.260    2.3170
   34.290    2.5171
   34.320    2.6330
   34.350    2.3591
   34.380    2.1906
   34.410    2.1380
   34.440    2.2749
   34.470    2.2328
   34.500    2.4013
   34.530    2.5171
   34.560    2.1169
   34.590    2.1485
   34.620    2.1485
   34.650    2.2433
   34.680    2.3486
   34.710    2.2012
   34.740    2.2222
   34.770    2.1696
   34.800    2.4750
   34.830    2.1590
   34.860    2.4434
   34.890    2.4223
   34.920    2.2433
   34.950    2.3591
   34.980    2.1801
   35.010    2.3275
   35.040    2.1485
   35.070    2.2749
   35.100    2.3170
   35.130    2.2643
   35.160    2.1801
   35.190    2.2749
   35.220    2.1169
   35.250    2.4223
   35.280    2.0958
   35.310    2.3065
   35.340    2.4539
   35.370    2.4645
   35.400    2.3381
   35.430    2.1380
   35.460    2.3591
   35.490    2.1274
   35.520    2.0432
   35.550    2.3907
   35.580    2.1906
   35.610    2.1590
   35.640    2.0748
   35.670    2.2222
   35.700    2.0748
   35.730    2.1696
   35.760    2.0326
   35.790    1.9168
   35.820    1.9695
   35.850    2.1380
   35.880    2.1169
   35.910    2.1169
   35.940    2.2854
   35.970    2.1380
   36.000    1.9905
   36.030    1.9168
   36.060    2.1169
   36.090    1.9484
   36.120    2.0221
   36.150    2.1485
   36.180    2.3065
   36.210    1.9589
   36.240    2.3170
   36.270    2.1274
   36.300    2.0116
   36.330    2.0748
   36.360    2.1064
   36.390    2.1801
   36.420    1.9695
   36.450    1.9063
   36.480    2.1906
   36.510    2.2012
   36.540    1.8431
   36.570    2.0537
   36.600    2.0537
   36.630    1.9379
   36.660    2.0537
   36.690    2.0011
   36.720    2.0432
   36.750    2.0853
   36.780    2.0537
   36.810    2.0011
   36.840    1.9273
   36.870    2.1274
   36.900    2.2433
   36.930    2.0326
   36.960    1.7378
   36.990    2.0011
   37.020    1.9589
   37.050    1.8431
   37.080    2.1169
   37.110    1.9484
   37.140    1.9800
   37.170    2.1064
   37.200    1.8115
   37.230    2.1064
   37.260    1.8325
   37.290    1.9589
   37.320    2.0221
   37.350    2.0011
   37.380    1.9168
   37.410    1.8641
   37.440    2.0116
   37.470    2.0326
   37.500    1.9168
   37.530    1.7694
   37.560    1.9695
   37.590    1.7483
   37.620    1.9800
   37.650    1.7378
   37.680    1.9273
   37.710    2.1485
   37.740    1.9695
   37.770    2.0853
   37.800    1.8957
   37.830    1.8852
   37.860    1.9168
   37.890    1.8009
   37.920    1.9168
   37.950    1.9484
   37.980    1.7483
   38.010    1.8009
   38.040    1.8115
   38.070    1.9063
   38.100    1.8115
   38.130    1.8852
   38.160    1.7378
   38.190    2.0326
   38.220    1.9168
   38.250    1.9379
   38.280    1.9379
   38.310    2.0221
   38.340    1.8431
   38.370    1.8431
   38.400    1.8641
   38.430    1.8115
   38.460    1.7904
   38.490    1.7378
   38.520    1.8431
   38.550    1.8852
   38.580    1.6746
   38.610    1.9589
   38.640    1.8325
   38.670    1.9695
   38.700    1.8536
   38.730    1.9168
   38.760    1.6851
   38.790    1.8747
   38.820    1.9484
   38.850    1.8431
   38.880    1.7904
   38.910    1.8115
   38.940    1.9484
   38.970    1.8431
   39.000    1.8220
   39.030    2.0011
   39.060    1.9695
   39.090    1.7799
   39.120    1.8536
   39.150    1.8852
   39.180    1.9273
   39.210    1.9379
   39.240    1.8220
   39.270    1.8220
   39.300    2.1169
   39.330    1.8747
   39.360    1.8115
   39.390    1.7167
   39.420    1.7588
   39.450    1.8325
   39.480    1.5482
   39.510    1.9484
   39.540    1.9589
   39.570    1.6535
   39.600    1.7378
   39.630    1.8115
   39.660    1.7272
   39.690    1.7167
   39.720    1.7694
   39.750    1.6851
   39.780    1.8852
   39.810    1.5377
   39.840    1.9905
   39.870    1.7167
   39.900    1.6430
   39.930    1.8852
   39.960    1.9379
   39.990    1.8536