File: data/MOCOF-1/PXRD/PXRD_KE-232_Co-Ka1_film-3mm_5s-deg.xyd
    1.500    6.8700
    1.530    7.0733
    1.560    6.6132
    1.590    6.4419
    1.620    6.1209
    1.650    5.8962
    1.680    5.5966
    1.710    5.5859
    1.740    5.5538
    1.770    5.3612
    1.800    5.1899
    1.830    5.3612
    1.860    4.9759
    1.890    5.0615
    1.920    4.7619
    1.950    4.6763
    1.980    4.3874
    2.010    4.0021
    2.040    4.2804
    2.070    4.4409
    2.100    4.2269
    2.130    4.2162
    2.160    3.7453
    2.190    3.6811
    2.220    3.9165
    2.250    3.6383
    2.280    3.6383
    2.310    3.5206
    2.340    3.4457
    2.370    3.3708
    2.400    3.4992
    2.430    3.3601
    2.460    3.2638
    2.490    3.2210
    2.520    3.0926
    2.550    2.8250
    2.580    2.7394
    2.610    2.7929
    2.640    3.1033
    2.670    2.5682
    2.700    2.7287
    2.730    2.5361
    2.760    2.5789
    2.790    2.6538
    2.820    2.6645
    2.850    2.7822
    2.880    2.2258
    2.910    2.6538
    2.940    2.5575
    2.970    2.3542
    3.000    2.2151
    3.030    2.4184
    3.060    2.7608
    3.090    2.4505
    3.120    2.5254
    3.150    2.2044
    3.180    2.4719
    3.210    2.2900
    3.240    2.5040
    3.270    2.3649
    3.300    2.5361
    3.330    2.3328
    3.360    2.3435
    3.390    2.3114
    3.420    2.5254
    3.450    2.6752
    3.480    2.5361
    3.510    2.7929
    3.540    2.8464
    3.570    2.6431
    3.600    2.6217
    3.630    2.8892
    3.660    3.2103
    3.690    3.3173
    3.720    3.4136
    3.750    3.6597
    3.780    3.9700
    3.810    4.6870
    3.840    4.7619
    3.870    5.3184
    3.900    6.4955
    3.930    7.7154
    3.960    8.8283
    3.990    9.4275
    4.020   11.0433
    4.050   10.6046
    4.080    8.8068
    4.110    6.8593
    4.140    5.5859
    4.170    4.7833
    4.200    4.8903
    4.230    4.6335
    4.260    5.0722
    4.290    5.7036
    4.320    6.0567
    4.350    6.6346
    4.380    8.0471
    4.410    9.2563
    4.440   11.4393
    4.470   15.0883
    4.500   21.8085
    4.530   31.2788
    4.560    7.2231
    4.590    4.6549
    4.620    4.6763
    4.650    5.0615
    4.680    4.8154
    4.710    5.1150
    4.740    4.7191
    4.770    4.8903
    4.800    4.1199
    4.830    4.5158
    4.860    3.7667
    4.890    3.8951
    4.920    3.4029
    4.950    3.1140
    4.980    2.9856
    5.010    2.6003
    5.040    2.4826
    5.070    2.3328
    5.100    2.2365
    5.130    2.3542
    5.160    2.1402
    5.190    1.9048
    5.220    2.2044
    5.250    2.0118
    5.280    2.0011
    5.310    1.9048
    5.340    1.8620
    5.370    1.8192
    5.400    2.0653
    5.430    1.7549
    5.460    1.7978
    5.490    1.7871
    5.520    1.8834
    5.550    1.7121
    5.580    1.5730
    5.610    1.6693
    5.640    1.6800
    5.670    1.8513
    5.700    1.6800
    5.730    1.8727
    5.760    1.7014
    5.790    1.6586
    5.820    1.6586
    5.850    1.5195
    5.880    1.8192
    5.910    1.7871
    5.940    1.6800
    5.970    1.7014
    6.000    1.9155
    6.030    2.0332
    6.060    1.9262
    6.090    2.1723
    6.120    1.9476
    6.150    2.3435
    6.180    2.3435
    6.210    2.5147
    6.240    2.5789
    6.270    2.7929
    6.300    2.9535
    6.330    3.9700
    6.360    4.8582
    6.390    7.0947
    6.420    6.6881
    6.450    2.2579
    6.480    2.2472
    6.510    2.0760
    6.540    2.0332
    6.570    2.1081
    6.600    1.9690
    6.630    1.8727
    6.660    2.0011
    6.690    2.0225
    6.720    1.8299
    6.750    1.8192
    6.780    1.9476
    6.810    1.8513
    6.840    1.8406
    6.870    1.7228
    6.900    1.6479
    6.930    1.5944
    6.960    1.6800
    6.990    1.5516
    7.020    1.4446
    7.050    1.5623
    7.080    1.6265
    7.110    1.5944
    7.140    1.6051
    7.170    1.6158
    7.200    1.4232
    7.230    1.5302
    7.260    1.4232
    7.290    1.3376
    7.320    1.4767
    7.350    1.4339
    7.380    1.5302
    7.410    1.2948
    7.440    1.4660
    7.470    1.4874
    7.500    1.3804
    7.530    1.4339
    7.560    1.5623
    7.590    1.3162
    7.620    1.4018
    7.650    1.5302
    7.680    1.5302
    7.710    1.6051
    7.740    1.7014
    7.770    1.7549
    7.800    1.9797
    7.830    2.5254
    7.860    3.0819
    7.890    1.5944
    7.920    1.5409
    7.950    1.5623
    7.980    1.5516
    8.010    1.7978
    8.040    1.8727
    8.070    1.8727
    8.100    2.0974
    8.130    2.0118
    8.160    1.9369
    8.190    1.5837
    8.220    1.6051
    8.250    1.2520
    8.280    1.4018
    8.310    1.2627
    8.340    1.3911
    8.370    1.2948
    8.400    1.4018
    8.430    1.1985
    8.460    1.2520
    8.490    1.2306
    8.520    1.0380
    8.550    1.2520
    8.580    1.2734
    8.610    1.2734
    8.640    1.1878
    8.670    1.0808
    8.700    1.1557
    8.730    1.1022
    8.760    1.1343
    8.790    1.2092
    8.820    1.1236
    8.850    1.2627
    8.880    1.0808
    8.910    1.2413
    8.940    1.2841
    8.970    1.4767
    9.000    1.6479
    9.030    1.6479
    9.060    2.6003
    9.090    2.0439
    9.120    1.1450
    9.150    1.0487
    9.180    1.2306
    9.210    1.1557
    9.240    1.3269
    9.270    1.2734
    9.300    1.0701
    9.330    1.1022
    9.360    1.0487
    9.390    1.0808
    9.420    1.0915
    9.450    1.1022
    9.480    1.2306
    9.510    1.1985
    9.540    1.3376
    9.570    1.2199
    9.600    1.0915
    9.630    1.2948
    9.660    1.2092
    9.690    1.1878
    9.720    1.0594
    9.750    1.0701
    9.780    1.0487
    9.810    1.0915
    9.840    1.1557
    9.870    1.0273
    9.900    1.1878
    9.930    1.2413
    9.960    1.0594
    9.990    0.9417
   10.020    1.0273
   10.050    1.1664
   10.080    1.0808
   10.110    1.1129
   10.140    1.1450
   10.170    1.0594
   10.200    0.8989
   10.230    0.9203
   10.260    1.0487
   10.290    0.9310
   10.320    0.8026
   10.350    0.9203
   10.380    1.1236
   10.410    1.0915
   10.440    0.9203
   10.470    0.9738
   10.500    0.8026
   10.530    0.9310
   10.560    0.9310
   10.590    0.8775
   10.620    0.8454
   10.650    0.9417
   10.680    0.9524
   10.710    0.9310
   10.740    0.9952
   10.770    0.8561
   10.800    0.9952
   10.830    0.9845
   10.860    0.9845
   10.890    0.8026
   10.920    0.9096
   10.950    1.0380
   10.980    1.1450
   11.010    1.2199
   11.040    1.3376
   11.070    2.1081
   11.100    3.2424
   11.130    3.5634
   11.160    1.1557
   11.190    0.8989
   11.220    1.0166
   11.250    0.7598
   11.280    0.9203
   11.310    0.8561
   11.340    0.9417
   11.370    0.8347
   11.400    0.8561
   11.430    0.8240
   11.460    0.8882
   11.490    0.9952
   11.520    0.7598
   11.550    0.7919
   11.580    0.8989
   11.610    0.9203
   11.640    0.7598
   11.670    0.7812
   11.700    0.8775
   11.730    0.8347
   11.760    0.9524
   11.790    0.8133
   11.820    0.9096
   11.850    0.9524
   11.880    1.0166
   11.910    0.9952
   11.940    1.0594
   11.970    1.2092
   12.000    1.6800
   12.030    1.7014
   12.060    1.0701
   12.090    0.8668
   12.120    0.8668
   12.150    0.9952
   12.180    0.8347
   12.210    0.9631
   12.240    0.9203
   12.270    0.9524
   12.300    0.9203
   12.330    0.9631
   12.360    0.8882
   12.390    0.9310
   12.420    0.7705
   12.450    0.9417
   12.480    1.1343
   12.510    0.8775
   12.540    0.8454
   12.570    0.8347
   12.600    0.7491
   12.630    0.9952
   12.660    1.1557
   12.690    0.9845
   12.720    0.8561
   12.750    0.8989
   12.780    1.1771
   12.810    1.2306
   12.840    1.7657
   12.870    1.3483
   12.900    0.9952
   12.930    0.8668
   12.960    0.9310
   12.990    0.8882
   13.020    0.9417
   13.050    0.9631
   13.080    0.8882
   13.110    0.8561
   13.140    0.7812
   13.170    1.1022
   13.200    0.8882
   13.230    0.7598
   13.260    0.9524
   13.290    0.9631
   13.320    0.8668
   13.350    0.9738
   13.380    0.8989
   13.410    0.8668
   13.440    0.9631
   13.470    0.9096
   13.500    0.8240
   13.530    1.1236
   13.560    1.0808
   13.590    1.1878
   13.620    1.7442
   13.650    1.6479
   13.680    1.1343
   13.710    1.0380
   13.740    0.9203
   13.770    0.9738
   13.800    0.9310
   13.830    0.8989
   13.860    0.8989
   13.890    0.8668
   13.920    0.9096
   13.950    1.0701
   13.980    0.8668
   14.010    0.9096
   14.040    0.9310
   14.070    0.9096
   14.100    0.8026
   14.130    0.9524
   14.160    0.9096
   14.190    0.8668
   14.220    0.8561
   14.250    0.8989
   14.280    0.9952
   14.310    0.9203
   14.340    1.0915
   14.370    0.9845
   14.400    0.9524
   14.430    0.8989
   14.460    0.9310
   14.490    1.0273
   14.520    0.9631
   14.550    0.6742
   14.580    0.8454
   14.610    0.9203
   14.640    0.8026
   14.670    0.7705
   14.700    1.0808
   14.730    0.9738
   14.760    0.8561
   14.790    0.7063
   14.820    0.9096
   14.850    0.8347
   14.880    0.8882
   14.910    0.8347
   14.940    0.9417
   14.970    0.8454
   15.000    0.9203
   15.030    1.0273
   15.060    1.4018
   15.090    1.4553
   15.120    0.9310
   15.150    0.7598
   15.180    0.8668
   15.210    0.9524
   15.240    0.8133
   15.270    0.9845
   15.300    0.8454
   15.330    0.8133
   15.360    0.7919
   15.390    0.8133
   15.420    0.8240
   15.450    0.7063
   15.480    0.7598
   15.510    0.7384
   15.540    0.8133
   15.570    0.8347
   15.600    0.8775
   15.630    0.7598
   15.660    0.8989
   15.690    0.8133
   15.720    1.0701
   15.750    1.2199
   15.780    1.0166
   15.810    0.8240
   15.840    0.8240
   15.870    0.7598
   15.900    0.6956
   15.930    0.9310
   15.960    0.8882
   15.990    0.8133
   16.020    0.7705
   16.050    0.7919
   16.080    0.7705
   16.110    0.7384
   16.140    0.8347
   16.170    0.8561
   16.200    0.9203
   16.230    0.7598
   16.260    0.9096
   16.290    0.8668
   16.320    1.0059
   16.350    1.0059
   16.380    1.2734
   16.410    1.4232
   16.440    0.9738
   16.470    0.8882
   16.500    0.8775
   16.530    0.9310
   16.560    1.1450
   16.590    0.9524
   16.620    0.7919
   16.650    0.9524
   16.680    0.9524
   16.710    0.8240
   16.740    0.8240
   16.770    0.7705
   16.800    1.0166
   16.830    1.0273
   16.860    0.8561
   16.890    0.8775
   16.920    1.1664
   16.950    0.9310
   16.980    0.8775
   17.010    0.8561
   17.040    0.8561
   17.070    0.8989
   17.100    0.8240
   17.130    0.7812
   17.160    0.9631
   17.190    0.9952
   17.220    0.8989
   17.250    0.7705
   17.280    0.9738
   17.310    0.7919
   17.340    1.0487
   17.370    0.8454
   17.400    0.8989
   17.430    0.6956
   17.460    0.9524
   17.490    0.7812
   17.520    0.8882
   17.550    0.9524
   17.580    0.8775
   17.610    0.8989
   17.640    0.8668
   17.670    0.9310
   17.700    0.9631
   17.730    0.8454
   17.760    0.7705
   17.790    0.8347
   17.820    0.7598
   17.850    0.9417
   17.880    0.7384
   17.910    0.8347
   17.940    0.7491
   17.970    0.8454
   18.000    0.9524
   18.030    0.9203
   18.060    0.8454
   18.090    0.8240
   18.120    0.8240
   18.150    0.6956
   18.180    0.8775
   18.210    0.9952
   18.240    0.8668
   18.270    0.7919
   18.300    0.6100
   18.330    0.9310
   18.360    0.9203
   18.390    0.7491
   18.420    0.7384
   18.450    0.7705
   18.480    0.7598
   18.510    0.8882
   18.540    0.8347
   18.570    0.7598
   18.600    0.9096
   18.630    0.8347
   18.660    0.8454
   18.690    0.8026
   18.720    0.7812
   18.750    0.8133
   18.780    1.0594
   18.810    0.9631
   18.840    0.9203
   18.870    0.8347
   18.900    0.6956
   18.930    0.7705
   18.960    0.8347
   18.990    0.8240
   19.020    0.8561
   19.050    0.9524
   19.080    0.8454
   19.110    0.8026
   19.140    0.8775
   19.170    0.8026
   19.200    0.7170
   19.230    0.7812
   19.260    0.8240
   19.290    0.8026
   19.320    0.9310
   19.350    0.9524
   19.380    0.8347
   19.410    0.7170
   19.440    0.7598
   19.470    0.7919
   19.500    0.8026
   19.530    0.9310
   19.560    0.8454
   19.590    0.8454
   19.620    0.8026
   19.650    0.8240
   19.680    0.6956
   19.710    0.7598
   19.740    0.8026
   19.770    0.8775
   19.800    0.9096
   19.830    1.1129
   19.860    1.4874
   19.890    0.9524
   19.920    0.7170
   19.950    0.9310
   19.980    0.8775
   20.010    0.8240
   20.040    0.8240
   20.070    0.7598
   20.100    0.8561
   20.130    0.6849
   20.160    0.7491
   20.190    0.6635
   20.220    0.7705
   20.250    0.7598
   20.280    0.8454
   20.310    0.7812
   20.340    0.9524
   20.370    0.9524
   20.400    0.9203
   20.430    0.9310
   20.460    0.6635
   20.490    0.7598
   20.520    0.8561
   20.550    0.7705
   20.580    0.9096
   20.610    0.9096
   20.640    0.8026
   20.670    0.8240
   20.700    0.7598
   20.730    0.7919
   20.760    0.6849
   20.790    0.8561
   20.820    0.9310
   20.850    0.8668
   20.880    0.9310
   20.910    0.9310
   20.940    0.6635
   20.970    0.6528
   21.000    0.8133
   21.030    0.8347
   21.060    0.7598
   21.090    0.9845
   21.120    0.6849
   21.150    0.8454
   21.180    0.7705
   21.210    0.8133
   21.240    0.6956
   21.270    0.8668
   21.300    0.8775
   21.330    0.9417
   21.360    0.7812
   21.390    0.8454
   21.420    0.8882
   21.450    0.7277
   21.480    0.7919
   21.510    0.7491
   21.540    0.7491
   21.570    0.7491
   21.600    0.7170
   21.630    0.8240
   21.660    0.7384
   21.690    0.7919
   21.720    0.7063
   21.750    0.6849
   21.780    0.6742
   21.810    0.7705
   21.840    0.8989
   21.870    0.8989
   21.900    0.6956
   21.930    0.7170
   21.960    0.8133
   21.990    0.7170
   22.020    0.6849
   22.050    0.7705
   22.080    0.8347
   22.110    1.0166
   22.140    0.8668
   22.170    0.8454
   22.200    0.7170
   22.230    0.7170
   22.260    0.6528
   22.290    0.7812
   22.320    0.8561
   22.350    0.7170
   22.380    0.8026
   22.410    0.6528
   22.440    0.7277
   22.470    0.6956
   22.500    0.7384
   22.530    0.8882
   22.560    0.7491
   22.590    0.7170
   22.620    0.7063
   22.650    0.6849
   22.680    0.8026
   22.710    0.7277
   22.740    0.8668
   22.770    0.6742
   22.800    0.7491
   22.830    0.8454
   22.860    0.7705
   22.890    0.6635
   22.920    0.7919
   22.950    0.7063
   22.980    0.6421
   23.010    0.7812
   23.040    0.7598
   23.070    0.8668
   23.100    0.8240
   23.130    0.7277
   23.160    0.9096
   23.190    0.7598
   23.220    0.7063
   23.250    0.6849
   23.280    0.8026
   23.310    0.8240
   23.340    0.7491
   23.370    0.7919
   23.400    0.6421
   23.430    0.8668
   23.460    0.7812
   23.490    0.9203
   23.520    0.8347
   23.550    0.6849
   23.580    0.6956
   23.610    0.8240
   23.640    0.7598
   23.670    0.8775
   23.700    0.9952
   23.730    1.0808
   23.760    1.0059
   23.790    0.8026
   23.820    0.7705
   23.850    0.7919
   23.880    0.8347
   23.910    0.7277
   23.940    0.8668
   23.970    0.7063
   24.000    0.8026
   24.030    0.7063
   24.060    0.7812
   24.090    0.6100
   24.120    0.7277
   24.150    0.7919
   24.180    0.6742
   24.210    0.8454
   24.240    0.7277
   24.270    0.7705
   24.300    0.7705
   24.330    0.7384
   24.360    0.6742
   24.390    0.6742
   24.420    0.8347
   24.450    0.6421
   24.480    0.7598
   24.510    0.7170
   24.540    0.7491
   24.570    0.6421
   24.600    0.7384
   24.630    0.7384
   24.660    0.8240
   24.690    0.7598
   24.720    0.6635
   24.750    0.7277
   24.780    0.5778
   24.810    0.7598
   24.840    0.6528
   24.870    0.6635
   24.900    0.6635
   24.930    0.7170
   24.960    0.7491
   24.990    0.7170
   25.020    0.7812
   25.050    0.6421
   25.080    0.6421
   25.110    0.6956
   25.140    0.6421
   25.170    0.5993
   25.200    0.7919
   25.230    0.5457
   25.260    0.7384
   25.290    0.6528
   25.320    0.7384
   25.350    0.6742
   25.380    0.7491
   25.410    0.7598
   25.440    0.8240
   25.470    1.0380
   25.500    0.7170
   25.530    0.7384
   25.560    0.7384
   25.590    0.7063
   25.620    0.6314
   25.650    0.8454
   25.680    0.7063
   25.710    0.6421
   25.740    0.6100
   25.770    0.7170
   25.800    0.7170
   25.830    0.6421
   25.860    0.6635
   25.890    0.7598
   25.920    0.7384
   25.950    0.7277
   25.980    0.5136
   26.010    0.4815
   26.040    0.7705
   26.070    0.7277
   26.100    0.6314
   26.130    0.6635
   26.160    0.6956
   26.190    0.7170
   26.220    0.7170
   26.250    0.8561
   26.280    0.9845
   26.310    0.9952
   26.340    0.7063
   26.370    0.6100
   26.400    0.6956
   26.430    0.7384
   26.460    0.6421
   26.490    0.6314
   26.520    0.5778
   26.550    0.6742
   26.580    0.6528
   26.610    0.6207
   26.640    0.8454
   26.670    0.9845
   26.700    1.0273
   26.730    0.8989
   26.760    0.5993
   26.790    0.7277
   26.820    0.5778
   26.850    0.6849
   26.880    0.6635
   26.910    0.8989
   26.940    0.7812
   26.970    0.6207
   27.000    0.6742
   27.030    0.6635
   27.060    0.8561
   27.090    0.9417
   27.120    0.8026
   27.150    0.7491
   27.180    0.7384
   27.210    0.6849
   27.240    0.7170
   27.270    0.6207
   27.300    0.8133
   27.330    0.6635
   27.360    0.5457
   27.390    0.6207
   27.420    0.6742
   27.450    0.7812
   27.480    0.6207
   27.510    0.5886
   27.540    0.6421
   27.570    0.6635
   27.600    0.6207
   27.630    0.6207
   27.660    0.4708
   27.690    0.5778
   27.720    0.7063
   27.750    0.5671
   27.780    0.6849
   27.810    0.7170
   27.840    0.8347
   27.870    0.7384
   27.900    0.6742
   27.930    0.6956
   27.960    0.5886
   27.990    0.6207
   28.020    0.5993
   28.050    0.6956
   28.080    0.5778
   28.110    0.7170
   28.140    0.6314
   28.170    0.6314
   28.200    0.5564
   28.230    0.5993
   28.260    0.5993
   28.290    0.6207
   28.320    0.5029
   28.350    0.5778
   28.380    0.5671
   28.410    0.5778
   28.440    0.6100
   28.470    0.6100
   28.500    0.6207
   28.530    0.5993
   28.560    0.6635
   28.590    0.5671
   28.620    0.6742
   28.650    0.5350
   28.680    0.6100
   28.710    0.4922
   28.740    0.6849
   28.770    0.6100
   28.800    0.5350
   28.830    0.5457
   28.860    0.5671
   28.890    0.6100
   28.920    0.5993
   28.950    0.6742
   28.980    0.5671
   29.010    0.6207
   29.040    0.6100
   29.070    0.4922
   29.100    0.5243
   29.130    0.6207
   29.160    0.6314
   29.190    0.6956
   29.220    0.5457
   29.250    0.6100
   29.280    0.4708
   29.310    0.5243
   29.340    0.6314
   29.370    0.6528
   29.400    0.6100
   29.430    0.5564
   29.460    0.6528
   29.490    0.4708
   29.520    0.4815
   29.550    0.5029
   29.580    0.4708
   29.610    0.5671
   29.640    0.6207
   29.670    0.5029
   29.700    0.4922
   29.730    0.5564
   29.760    0.5564
   29.790    0.5671
   29.820    0.5993
   29.850    0.4815
   29.880    0.5136
   29.910    0.6528
   29.940    0.4601
   29.970    0.4601
   30.000    0.6956
   30.030    0.6207
   30.060    0.7170
   30.090    0.8668
   30.120    0.8026
   30.150    0.6742
   30.180    0.6314
   30.210    0.6100
   30.240    0.5457
   30.270    0.5671
   30.300    0.4601
   30.330    0.5778
   30.360    0.5243
   30.390    0.4280
   30.420    0.5886
   30.450    0.6207
   30.480    0.5136
   30.510    0.5564
   30.540    0.6314
   30.570    0.5136
   30.600    0.3852
   30.630    0.4708
   30.660    0.4815
   30.690    0.5993
   30.720    0.4708
   30.750    0.5457
   30.780    0.6635
   30.810    0.5886
   30.840    0.5350
   30.870    0.5243
   30.900    0.5029
   30.930    0.3210
   30.960    0.3745
   30.990    0.4173
   31.020    0.4708
   31.050    0.5029
   31.080    0.5243
   31.110    0.4922
   31.140    0.6100
   31.170    0.5029
   31.200    0.4922
   31.230    0.4494
   31.260    0.6635
   31.290    0.4708
   31.320    0.5457
   31.350    0.4066
   31.380    0.5564
   31.410    0.5136
   31.440    0.5457
   31.470    0.4708
   31.500    0.6528
   31.530    0.4708
   31.560    0.5886
   31.590    0.5457
   31.620    0.4708
   31.650    0.4387
   31.680    0.4066
   31.710    0.5886
   31.740    0.4601
   31.770    0.4815
   31.800    0.4494
   31.830    0.3638
   31.860    0.4066
   31.890    0.3317
   31.920    0.4387
   31.950    0.5564
   31.980    0.5886
   32.010    0.5136
   32.040    0.4708
   32.070    0.5029
   32.100    0.4708
   32.130    0.4387
   32.160    0.5993
   32.190    0.5564
   32.220    0.4387
   32.250    0.5778
   32.280    0.5029
   32.310    0.5029
   32.340    0.5243
   32.370    0.3959
   32.400    0.4922
   32.430    0.3959
   32.460    0.4173
   32.490    0.4494
   32.520    0.5671
   32.550    0.4066
   32.580    0.4708
   32.610    0.4815
   32.640    0.6314
   32.670    0.6207
   32.700    0.4815
   32.730    0.4280
   32.760    0.4066
   32.790    0.5029
   32.820    0.5564
   32.850    0.6314
   32.880    0.4922
   32.910    0.5136
   32.940    0.5136
   32.970    0.3317
   33.000    0.3959
   33.030    0.3852
   33.060    0.4173
   33.090    0.4387
   33.120    0.3638
   33.150    0.4601
   33.180    0.6635
   33.210    0.5457
   33.240    0.4601
   33.270    0.4708
   33.300    0.4494
   33.330    0.3959
   33.360    0.4494
   33.390    0.5029
   33.420    0.4815
   33.450    0.5029
   33.480    0.4708
   33.510    0.3745
   33.540    0.4922
   33.570    0.4494
   33.600    0.4066
   33.630    0.5457
   33.660    0.5886
   33.690    0.4815
   33.720    0.5778
   33.750    0.6956
   33.780    0.9310
   33.810    0.5671
   33.840    0.5136
   33.870    0.4922
   33.900    0.4708
   33.930    0.4922
   33.960    0.4280
   33.990    0.5564
   34.020    0.4815
   34.050    0.3852
   34.080    0.5243
   34.110    0.5029
   34.140    0.4387
   34.170    0.4922
   34.200    0.5136
   34.230    0.5457
   34.260    0.4815
   34.290    0.4815
   34.320    0.4922
   34.350    0.4815
   34.380    0.3745
   34.410    0.3531
   34.440    0.5029
   34.470    0.4066
   34.500    0.3638
   34.530    0.3317
   34.560    0.3959
   34.590    0.3959
   34.620    0.4494
   34.650    0.4280
   34.680    0.3745
   34.710    0.3103
   34.740    0.4387
   34.770    0.4601
   34.800    0.4280
   34.830    0.5457
   34.860    0.4280
   34.890    0.3852
   34.920    0.4066
   34.950    0.3424
   34.980    0.4173
   35.010    0.3210
   35.040    0.4066
   35.070    0.3317
   35.100    0.3959
   35.130    0.3745
   35.160    0.3531
   35.190    0.2782
   35.220    0.3852
   35.250    0.3959
   35.280    0.3959
   35.310    0.3745
   35.340    0.3852
   35.370    0.3424
   35.400    0.3317
   35.430    0.3959
   35.460    0.4708
   35.490    0.4601
   35.520    0.3317
   35.550    0.4280
   35.580    0.3424
   35.610    0.2889
   35.640    0.3424
   35.670    0.3103
   35.700    0.3959
   35.730    0.5136
   35.760    0.3103
   35.790    0.2782
   35.820    0.3959
   35.850    0.4494
   35.880    0.3959
   35.910    0.3959
   35.940    0.3531
   35.970    0.4601
   36.000    0.2889
   36.030    0.3317
   36.060    0.3103
   36.090    0.3210
   36.120    0.3852
   36.150    0.3317
   36.180    0.3317
   36.210    0.3210
   36.240    0.4494
   36.270    0.3745
   36.300    0.3745
   36.330    0.3424
   36.360    0.3745
   36.390    0.3424
   36.420    0.3531
   36.450    0.3638
   36.480    0.3424
   36.510    0.3531
   36.540    0.2675
   36.570    0.3424
   36.600    0.3424
   36.630    0.3103
   36.660    0.3638
   36.690    0.3103
   36.720    0.3638
   36.750    0.3424
   36.780    0.3103
   36.810    0.3424
   36.840    0.2782
   36.870    0.4066
   36.900    0.3959
   36.930    0.4708
   36.960    0.3745
   36.990    0.3745
   37.020    0.3103
   37.050    0.3745
   37.080    0.2996
   37.110    0.4815
   37.140    0.3531
   37.170    0.4066
   37.200    0.3317
   37.230    0.4601
   37.260    0.3531
   37.290    0.3424
   37.320    0.2461
   37.350    0.3317
   37.380    0.4066
   37.410    0.4494
   37.440    0.7277
   37.470    0.7598
   37.500    0.4066
   37.530    0.2782
   37.560    0.2568
   37.590    0.3210
   37.620    0.4280
   37.650    0.3638
   37.680    0.3103
   37.710    0.2782
   37.740    0.2782
   37.770    0.2996
   37.800    0.3103
   37.830    0.2782
   37.860    0.2247
   37.890    0.2889
   37.920    0.2782
   37.950    0.3638
   37.980    0.3745
   38.010    0.3317
   38.040    0.2247
   38.070    0.2782
   38.100    0.3210
   38.130    0.2675
   38.160    0.2996
   38.190    0.3103
   38.220    0.3852
   38.250    0.3959
   38.280    0.2461
   38.310    0.3959
   38.340    0.3103
   38.370    0.3638
   38.400    0.2996
   38.430    0.3959
   38.460    0.2140
   38.490    0.2782
   38.520    0.3317
   38.550    0.3210
   38.580    0.3103
   38.610    0.2889
   38.640    0.2782
   38.670    0.2675
   38.700    0.2568
   38.730    0.2140
   38.760    0.3210
   38.790    0.3424
   38.820    0.2782
   38.850    0.3424
   38.880    0.3103
   38.910    0.2247
   38.940    0.2782
   38.970    0.3317
   39.000    0.2889
   39.030    0.4066
   39.060    0.2675
   39.090    0.3959
   39.120    0.3103
   39.150    0.2996
   39.180    0.2782
   39.210    0.2996
   39.240    0.3959
   39.270    0.2461
   39.300    0.2996
   39.330    0.2461
   39.360    0.3317
   39.390    0.3424
   39.420    0.2568
   39.450    0.2996
   39.480    0.5778
   39.510    0.3531
   39.540    0.3638
   39.570    0.3317
   39.600    0.3531
   39.630    0.3531
   39.660    0.2675
   39.690    0.3424
   39.720    0.3531
   39.750    0.2461
   39.780    0.2568
   39.810    0.2568
   39.840    0.2889
   39.870    0.3638
   39.900    0.3424
   39.930    0.3103
   39.960    0.2782
   39.990    0.2675