File: data/MOCOF-1/PXRD/PXRD_KE-226_Co-Ka1_film-3mm_5s-deg.xyd
    1.500    5.4789
    1.530    5.4789
    1.560    5.2113
    1.590    5.1792
    1.620    4.6763
    1.650    4.6977
    1.680    4.8261
    1.710    4.6977
    1.740    4.0984
    1.770    4.6121
    1.800    4.0235
    1.830    4.2590
    1.860    3.9807
    1.890    4.1413
    1.920    3.9486
    1.950    3.6597
    1.980    3.5313
    2.010    4.3018
    2.040    3.9486
    2.070    3.7881
    2.100    3.4778
    2.130    3.3280
    2.160    3.2745
    2.190    3.3280
    2.220    3.2317
    2.250    3.0284
    2.280    3.1996
    2.310    3.0926
    2.340    2.9320
    2.370    3.1889
    2.400    3.1675
    2.430    3.0498
    2.460    2.7073
    2.490    2.7394
    2.520    2.4398
    2.550    2.8250
    2.580    2.7180
    2.610    2.3970
    2.640    2.9642
    2.670    2.6431
    2.700    2.4826
    2.730    2.7501
    2.760    2.6645
    2.790    2.5682
    2.820    2.6003
    2.850    2.5040
    2.880    2.6538
    2.910    2.2258
    2.940    2.5682
    2.970    2.3863
    3.000    2.2793
    3.030    2.2900
    3.060    2.2579
    3.090    2.0546
    3.120    2.3970
    3.150    2.3756
    3.180    2.3114
    3.210    2.3649
    3.240    2.1723
    3.270    2.1937
    3.300    1.9797
    3.330    2.0760
    3.360    2.1295
    3.390    2.1937
    3.420    2.1188
    3.450    2.0011
    3.480    1.8941
    3.510    2.0546
    3.540    2.0974
    3.570    1.8834
    3.600    2.2151
    3.630    2.2258
    3.660    2.2900
    3.690    2.4505
    3.720    2.2044
    3.750    2.1616
    3.780    2.1830
    3.810    2.2900
    3.840    2.2579
    3.870    2.8785
    3.900    2.7394
    3.930    2.8250
    3.960    3.1568
    3.990    2.9856
    4.020    3.9058
    4.050    3.8095
    4.080    4.0449
    4.110    3.7988
    4.140    4.2162
    4.170    4.0235
    4.200    4.6121
    4.230    5.3077
    4.260    5.7143
    4.290    6.6881
    4.320    7.7475
    4.350    9.5345
    4.380   11.0005
    4.410   13.5474
    4.440   17.8384
    4.470   24.6014
    4.500   37.1643
    4.530   56.8753
    4.560    6.5811
    4.590    2.6324
    4.620    2.2365
    4.650    2.1081
    4.680    2.1081
    4.710    2.2151
    4.740    2.0653
    4.770    1.9476
    4.800    2.3756
    4.830    2.0332
    4.860    2.0332
    4.890    1.9797
    4.920    2.0011
    4.950    2.0867
    4.980    1.8299
    5.010    1.8299
    5.040    1.8513
    5.070    1.7871
    5.100    1.8299
    5.130    1.5730
    5.160    1.6372
    5.190    1.6051
    5.220    1.8941
    5.250    1.8727
    5.280    1.9369
    5.310    1.8513
    5.340    1.7228
    5.370    1.8406
    5.400    1.6907
    5.430    1.5730
    5.460    1.7228
    5.490    1.6800
    5.520    1.7549
    5.550    1.7335
    5.580    1.6800
    5.610    1.5409
    5.640    1.5195
    5.670    1.6158
    5.700    1.5409
    5.730    1.7121
    5.760    1.6800
    5.790    1.6907
    5.820    1.8513
    5.850    1.5730
    5.880    1.8085
    5.910    1.9369
    5.940    1.9583
    5.970    1.7549
    6.000    1.8406
    6.030    1.9155
    6.060    2.1295
    6.090    2.3435
    6.120    2.3756
    6.150    2.3221
    6.180    2.9535
    6.210    3.4564
    6.240    3.5634
    6.270    4.2483
    6.300    5.3291
    6.330    6.1744
    6.360    9.2777
    6.390   14.2536
    6.420   14.1252
    6.450    2.8250
    6.480    2.4184
    6.510    2.3221
    6.540    2.1830
    6.570    2.0011
    6.600    1.9048
    6.630    2.0546
    6.660    2.0011
    6.690    2.0225
    6.720    1.9262
    6.750    1.7228
    6.780    1.9476
    6.810    1.6693
    6.840    1.8941
    6.870    1.7978
    6.900    1.8513
    6.930    1.7978
    6.960    1.3697
    6.990    1.7871
    7.020    1.5623
    7.050    1.7228
    7.080    1.5516
    7.110    1.5088
    7.140    1.7228
    7.170    1.7335
    7.200    1.4874
    7.230    1.7657
    7.260    1.6051
    7.290    1.5730
    7.320    1.5516
    7.350    1.5944
    7.380    1.3590
    7.410    1.4981
    7.440    1.4232
    7.470    1.4874
    7.500    1.6372
    7.530    1.3804
    7.560    1.6586
    7.590    1.6265
    7.620    1.5409
    7.650    1.5409
    7.680    1.5944
    7.710    1.9690
    7.740    2.0760
    7.770    2.3328
    7.800    2.7394
    7.830    4.0342
    7.860    4.8368
    7.890    1.5944
    7.920    1.4339
    7.950    1.2199
    7.980    1.3483
    8.010    1.1878
    8.040    1.4874
    8.070    1.3483
    8.100    1.4339
    8.130    1.3911
    8.160    1.3697
    8.190    1.3590
    8.220    1.4553
    8.250    1.3483
    8.280    1.1878
    8.310    1.4125
    8.340    1.3697
    8.370    1.1129
    8.400    1.1236
    8.430    1.1450
    8.460    1.3911
    8.490    1.0701
    8.520    1.0059
    8.550    1.0380
    8.580    1.0380
    8.610    1.0915
    8.640    1.1985
    8.670    1.2841
    8.700    1.0808
    8.730    1.2306
    8.760    1.0594
    8.790    1.1236
    8.820    1.3590
    8.850    1.2199
    8.880    1.4232
    8.910    1.3483
    8.940    1.5944
    8.970    1.9262
    9.000    2.1616
    9.030    2.8143
    9.060    4.1199
    9.090    3.1675
    9.120    1.1450
    9.150    1.0701
    9.180    1.0808
    9.210    1.0487
    9.240    1.0808
    9.270    1.2092
    9.300    1.0701
    9.330    1.1022
    9.360    1.0380
    9.390    1.1557
    9.420    1.0059
    9.450    1.1557
    9.480    1.0380
    9.510    1.0166
    9.540    0.9310
    9.570    0.9631
    9.600    1.1557
    9.630    1.0059
    9.660    1.0487
    9.690    1.0166
    9.720    0.9096
    9.750    0.9738
    9.780    0.8989
    9.810    0.9952
    9.840    1.0915
    9.870    1.0166
    9.900    1.0594
    9.930    0.8989
    9.960    0.9524
    9.990    0.8668
   10.020    0.9738
   10.050    1.0701
   10.080    0.9417
   10.110    1.3269
   10.140    1.3804
   10.170    1.0166
   10.200    1.0059
   10.230    0.9310
   10.260    0.8775
   10.290    0.9417
   10.320    0.8026
   10.350    0.9417
   10.380    0.8882
   10.410    1.0594
   10.440    0.9952
   10.470    0.9417
   10.500    0.9631
   10.530    0.8561
   10.560    1.0915
   10.590    0.9203
   10.620    1.0808
   10.650    0.8347
   10.680    1.0059
   10.710    0.9738
   10.740    0.7384
   10.770    1.0487
   10.800    0.9952
   10.830    0.9738
   10.860    0.8454
   10.890    1.0059
   10.920    0.9096
   10.950    1.0701
   10.980    1.2734
   11.010    1.4446
   11.040    2.0332
   11.070    3.2638
   11.100    5.4896
   11.130    5.7785
   11.160    1.3269
   11.190    0.8775
   11.220    0.7384
   11.250    0.9310
   11.280    0.9203
   11.310    0.9417
   11.340    0.8668
   11.370    0.8454
   11.400    0.8561
   11.430    0.7705
   11.460    0.9524
   11.490    0.8347
   11.520    0.8133
   11.550    0.9524
   11.580    0.9417
   11.610    0.9203
   11.640    0.8454
   11.670    0.9524
   11.700    1.0166
   11.730    0.8882
   11.760    0.8775
   11.790    0.9524
   11.820    0.7919
   11.850    1.0594
   11.880    0.9738
   11.910    1.0059
   11.940    1.2306
   11.970    1.5516
   12.000    2.7394
   12.030    2.0867
   12.060    1.2306
   12.090    0.9417
   12.120    0.8454
   12.150    0.8026
   12.180    0.8240
   12.210    0.8347
   12.240    0.8989
   12.270    1.0273
   12.300    0.9203
   12.330    0.9845
   12.360    1.0059
   12.390    0.9417
   12.420    0.9524
   12.450    1.1236
   12.480    0.9096
   12.510    0.8561
   12.540    0.8882
   12.570    1.0594
   12.600    0.9203
   12.630    1.0059
   12.660    0.8668
   12.690    1.0701
   12.720    1.1343
   12.750    1.1664
   12.780    1.4553
   12.810    1.8513
   12.840    3.2103
   12.870    2.0225
   12.900    0.9524
   12.930    0.9631
   12.960    1.0166
   12.990    0.9952
   13.020    0.9952
   13.050    0.8668
   13.080    0.8561
   13.110    0.8454
   13.140    1.0059
   13.170    0.9952
   13.200    0.9417
   13.230    1.0380
   13.260    0.8454
   13.290    0.9738
   13.320    1.1129
   13.350    0.7812
   13.380    1.0166
   13.410    0.8882
   13.440    0.9738
   13.470    1.1343
   13.500    1.1664
   13.530    1.0701
   13.560    1.2841
   13.590    2.0546
   13.620    3.1354
   13.650    2.4612
   13.680    1.1450
   13.710    0.8989
   13.740    0.9310
   13.770    0.7812
   13.800    0.7919
   13.830    0.9417
   13.860    0.9417
   13.890    0.8668
   13.920    0.8133
   13.950    0.8133
   13.980    0.9310
   14.010    0.8454
   14.040    0.9096
   14.070    0.9203
   14.100    0.9096
   14.130    0.9096
   14.160    0.9203
   14.190    0.9417
   14.220    0.7384
   14.250    0.9845
   14.280    0.8882
   14.310    0.9631
   14.340    1.1985
   14.370    1.1878
   14.400    1.0915
   14.430    0.8775
   14.460    0.9417
   14.490    0.9417
   14.520    0.7919
   14.550    0.7277
   14.580    0.8989
   14.610    0.8668
   14.640    0.7919
   14.670    0.9310
   14.700    0.8240
   14.730    0.8561
   14.760    0.8882
   14.790    0.8989
   14.820    0.9096
   14.850    0.9096
   14.880    0.7170
   14.910    0.8454
   14.940    0.8882
   14.970    0.9738
   15.000    1.0594
   15.030    1.2306
   15.060    1.7549
   15.090    2.0653
   15.120    1.0487
   15.150    0.7919
   15.180    0.9203
   15.210    0.8989
   15.240    0.9417
   15.270    0.8454
   15.300    0.8240
   15.330    0.7063
   15.360    0.9096
   15.390    0.9417
   15.420    0.8775
   15.450    0.7705
   15.480    0.9845
   15.510    0.8240
   15.540    0.8240
   15.570    0.8561
   15.600    0.7384
   15.630    0.7812
   15.660    1.0273
   15.690    0.8882
   15.720    1.0273
   15.750    1.3697
   15.780    0.9952
   15.810    0.7919
   15.840    0.8668
   15.870    0.9203
   15.900    0.8668
   15.930    0.9096
   15.960    0.9417
   15.990    0.9203
   16.020    0.8668
   16.050    0.8561
   16.080    0.8454
   16.110    0.8454
   16.140    0.8668
   16.170    0.8026
   16.200    0.9952
   16.230    0.8347
   16.260    0.9310
   16.290    0.9524
   16.320    1.3590
   16.350    1.2306
   16.380    1.5837
   16.410    1.9369
   16.440    1.1450
   16.470    0.9203
   16.500    0.9310
   16.530    0.9631
   16.560    0.9738
   16.590    0.8775
   16.620    0.9203
   16.650    0.9310
   16.680    0.8668
   16.710    0.8347
   16.740    0.9203
   16.770    1.2413
   16.800    0.7919
   16.830    0.8989
   16.860    0.9952
   16.890    0.9631
   16.920    0.8668
   16.950    0.9203
   16.980    1.0487
   17.010    0.8454
   17.040    0.9524
   17.070    0.8026
   17.100    1.0166
   17.130    0.9845
   17.160    0.9096
   17.190    0.8989
   17.220    0.8989
   17.250    0.8454
   17.280    0.8668
   17.310    0.6956
   17.340    0.8882
   17.370    0.8240
   17.400    0.8026
   17.430    0.8668
   17.460    0.8347
   17.490    0.9845
   17.520    0.8026
   17.550    0.7384
   17.580    0.7705
   17.610    0.9845
   17.640    1.0701
   17.670    0.9738
   17.700    0.7919
   17.730    0.8882
   17.760    0.7705
   17.790    0.8347
   17.820    0.8240
   17.850    0.8882
   17.880    0.6742
   17.910    0.6421
   17.940    0.8026
   17.970    0.7384
   18.000    0.8561
   18.030    0.8240
   18.060    0.7277
   18.090    0.9524
   18.120    0.8668
   18.150    0.8454
   18.180    0.7705
   18.210    0.7598
   18.240    0.9203
   18.270    0.8133
   18.300    0.7170
   18.330    0.9631
   18.360    0.9203
   18.390    0.7491
   18.420    0.7812
   18.450    0.8133
   18.480    0.9952
   18.510    0.8347
   18.540    0.7705
   18.570    0.8347
   18.600    0.9096
   18.630    0.8882
   18.660    0.8561
   18.690    0.8240
   18.720    0.8454
   18.750    0.8775
   18.780    0.9845
   18.810    0.8989
   18.840    0.7277
   18.870    0.8240
   18.900    0.8882
   18.930    0.8240
   18.960    0.8347
   18.990    0.7491
   19.020    0.7384
   19.050    0.7812
   19.080    0.7277
   19.110    0.9310
   19.140    0.8454
   19.170    0.8561
   19.200    0.7384
   19.230    0.8882
   19.260    0.7705
   19.290    1.0487
   19.320    0.9417
   19.350    0.8668
   19.380    0.8240
   19.410    0.8347
   19.440    0.7705
   19.470    0.8026
   19.500    0.9524
   19.530    1.0380
   19.560    0.7384
   19.590    0.8133
   19.620    0.7491
   19.650    0.7812
   19.680    0.8882
   19.710    0.8775
   19.740    0.7919
   19.770    0.9524
   19.800    0.9203
   19.830    1.2413
   19.860    1.8834
   19.890    1.1878
   19.920    0.8775
   19.950    0.6742
   19.980    0.7705
   20.010    0.7812
   20.040    0.8240
   20.070    0.7598
   20.100    0.8668
   20.130    0.7491
   20.160    0.7812
   20.190    0.8668
   20.220    0.8668
   20.250    0.7919
   20.280    0.8561
   20.310    0.9096
   20.340    0.8775
   20.370    1.0701
   20.400    0.9952
   20.430    0.8240
   20.460    0.8454
   20.490    0.8347
   20.520    0.7919
   20.550    0.7812
   20.580    0.9524
   20.610    0.8347
   20.640    0.7170
   20.670    0.7919
   20.700    0.7491
   20.730    0.8454
   20.760    0.8026
   20.790    0.8561
   20.820    0.8347
   20.850    0.8561
   20.880    0.8668
   20.910    0.8989
   20.940    0.7705
   20.970    0.8989
   21.000    0.9203
   21.030    0.9738
   21.060    0.7170
   21.090    0.8454
   21.120    0.8347
   21.150    0.8240
   21.180    0.7812
   21.210    0.6956
   21.240    0.8561
   21.270    0.8240
   21.300    0.8133
   21.330    0.9417
   21.360    0.8347
   21.390    1.0273
   21.420    0.9631
   21.450    0.8989
   21.480    0.6849
   21.510    0.7384
   21.540    0.7598
   21.570    0.8775
   21.600    0.7277
   21.630    0.8561
   21.660    0.8133
   21.690    0.8775
   21.720    0.8454
   21.750    0.7277
   21.780    0.9096
   21.810    0.8989
   21.840    0.7919
   21.870    0.9096
   21.900    0.7812
   21.930    0.9096
   21.960    0.7063
   21.990    0.7919
   22.020    0.7812
   22.050    0.7812
   22.080    0.9631
   22.110    0.9310
   22.140    0.7491
   22.170    0.7598
   22.200    0.6956
   22.230    0.7170
   22.260    0.7384
   22.290    0.8240
   22.320    0.7919
   22.350    0.7277
   22.380    0.8668
   22.410    0.7491
   22.440    0.7063
   22.470    0.6956
   22.500    0.7170
   22.530    0.7384
   22.560    0.6742
   22.590    0.7063
   22.620    0.5993
   22.650    0.6849
   22.680    0.8454
   22.710    0.7491
   22.740    0.7277
   22.770    0.6100
   22.800    0.9417
   22.830    1.0166
   22.860    0.9738
   22.890    0.8026
   22.920    0.6635
   22.950    0.7705
   22.980    0.7277
   23.010    0.7812
   23.040    0.7384
   23.070    0.7491
   23.100    0.7812
   23.130    0.7812
   23.160    0.7812
   23.190    0.7812
   23.220    0.8026
   23.250    0.7277
   23.280    0.6635
   23.310    0.7919
   23.340    0.7170
   23.370    0.6956
   23.400    0.8026
   23.430    0.6314
   23.460    0.6849
   23.490    0.7598
   23.520    0.7063
   23.550    0.6421
   23.580    0.8026
   23.610    0.7277
   23.640    0.6956
   23.670    0.7384
   23.700    0.9845
   23.730    1.5516
   23.760    1.1664
   23.790    0.8454
   23.820    0.7812
   23.850    0.7919
   23.880    0.7063
   23.910    0.7384
   23.940    0.7598
   23.970    0.6956
   24.000    0.7277
   24.030    0.6421
   24.060    0.8026
   24.090    0.7491
   24.120    0.7063
   24.150    0.6956
   24.180    0.7170
   24.210    0.7384
   24.240    0.8561
   24.270    0.8133
   24.300    0.6314
   24.330    0.6635
   24.360    0.7170
   24.390    0.7063
   24.420    0.6314
   24.450    0.5886
   24.480    0.6100
   24.510    0.7277
   24.540    0.7812
   24.570    0.7063
   24.600    0.6314
   24.630    0.7491
   24.660    0.5457
   24.690    0.8026
   24.720    0.5886
   24.750    0.7491
   24.780    0.6314
   24.810    0.6528
   24.840    0.6528
   24.870    0.7812
   24.900    0.7170
   24.930    0.6849
   24.960    0.7384
   24.990    0.7063
   25.020    0.5778
   25.050    0.7277
   25.080    0.6742
   25.110    0.6956
   25.140    0.7812
   25.170    0.7598
   25.200    0.6528
   25.230    0.6956
   25.260    0.6635
   25.290    0.7170
   25.320    0.7384
   25.350    0.7598
   25.380    0.6528
   25.410    0.7277
   25.440    0.9310
   25.470    0.8668
   25.500    0.7919
   25.530    0.6635
   25.560    0.6528
   25.590    0.5457
   25.620    0.5993
   25.650    0.7598
   25.680    0.4922
   25.710    0.7170
   25.740    0.6956
   25.770    0.6528
   25.800    0.7598
   25.830    0.6956
   25.860    0.8454
   25.890    0.9845
   25.920    0.6849
   25.950    0.6100
   25.980    0.6314
   26.010    0.6742
   26.040    0.7384
   26.070    0.7384
   26.100    0.6528
   26.130    0.7277
   26.160    0.8026
   26.190    0.6314
   26.220    0.6314
   26.250    0.8454
   26.280    1.5730
   26.310    1.1343
   26.340    0.5993
   26.370    0.7705
   26.400    0.6635
   26.430    0.7705
   26.460    0.6635
   26.490    0.7277
   26.520    0.6100
   26.550    0.6742
   26.580    0.5457
   26.610    0.7491
   26.640    0.8454
   26.670    1.1343
   26.700    1.5409
   26.730    0.9203
   26.760    0.7063
   26.790    0.6528
   26.820    0.5886
   26.850    0.6635
   26.880    0.5886
   26.910    0.7384
   26.940    0.6421
   26.970    0.7812
   27.000    0.4601
   27.030    0.6635
   27.060    0.7384
   27.090    1.0166
   27.120    0.8026
   27.150    0.5457
   27.180    0.6849
   27.210    0.6956
   27.240    0.8454
   27.270    0.6207
   27.300    0.6314
   27.330    0.5993
   27.360    0.4708
   27.390    0.6849
   27.420    0.7491
   27.450    0.5778
   27.480    0.6635
   27.510    0.6421
   27.540    0.5778
   27.570    0.4922
   27.600    0.5136
   27.630    0.6100
   27.660    0.6956
   27.690    0.5029
   27.720    0.4815
   27.750    0.5243
   27.780    0.4601
   27.810    0.7063
   27.840    0.7491
   27.870    0.7491
   27.900    0.6635
   27.930    0.6314
   27.960    0.6635
   27.990    0.6207
   28.020    0.8240
   28.050    0.5029
   28.080    0.4708
   28.110    0.5886
   28.140    0.5243
   28.170    0.5993
   28.200    0.5886
   28.230    0.5564
   28.260    0.7491
   28.290    0.4815
   28.320    0.6207
   28.350    0.6314
   28.380    0.5457
   28.410    0.6207
   28.440    0.5350
   28.470    0.4708
   28.500    0.5564
   28.530    0.4815
   28.560    0.6956
   28.590    0.4601
   28.620    0.5564
   28.650    0.5993
   28.680    0.5886
   28.710    0.6314
   28.740    0.5671
   28.770    0.7063
   28.800    0.6421
   28.830    0.6528
   28.860    0.6100
   28.890    0.5993
   28.920    0.5350
   28.950    0.5671
   28.980    0.5993
   29.010    0.5886
   29.040    0.6207
   29.070    0.5457
   29.100    0.5350
   29.130    0.5243
   29.160    0.5350
   29.190    0.5993
   29.220    0.4815
   29.250    0.5886
   29.280    0.6314
   29.310    0.4922
   29.340    0.5886
   29.370    0.4922
   29.400    0.6956
   29.430    0.5136
   29.460    0.4601
   29.490    0.5029
   29.520    0.5029
   29.550    0.5778
   29.580    0.5457
   29.610    0.4815
   29.640    0.5136
   29.670    0.5564
   29.700    0.5564
   29.730    0.6849
   29.760    0.7384
   29.790    0.5457
   29.820    0.5671
   29.850    0.5243
   29.880    0.6421
   29.910    0.4922
   29.940    0.5136
   29.970    0.5136
   30.000    0.5029
   30.030    0.5671
   30.060    0.8026
   30.090    0.9631
   30.120    0.8133
   30.150    0.5350
   30.180    0.5671
   30.210    0.4815
   30.240    0.5564
   30.270    0.5029
   30.300    0.6207
   30.330    0.5671
   30.360    0.4708
   30.390    0.4708
   30.420    0.6528
   30.450    0.5993
   30.480    0.4601
   30.510    0.6100
   30.540    0.5029
   30.570    0.5457
   30.600    0.5350
   30.630    0.6100
   30.660    0.4601
   30.690    0.5564
   30.720    0.6956
   30.750    0.5136
   30.780    0.6635
   30.810    0.6207
   30.840    0.4708
   30.870    0.4387
   30.900    0.4173
   30.930    0.6207
   30.960    0.5243
   30.990    0.4708
   31.020    0.4922
   31.050    0.4387
   31.080    0.5243
   31.110    0.4173
   31.140    0.4494
   31.170    0.5243
   31.200    0.5029
   31.230    0.5778
   31.260    0.5671
   31.290    0.4708
   31.320    0.5564
   31.350    0.4922
   31.380    0.4387
   31.410    0.4387
   31.440    0.5029
   31.470    0.5243
   31.500    0.6421
   31.530    0.6100
   31.560    0.4280
   31.590    0.4922
   31.620    0.4387
   31.650    0.5564
   31.680    0.5029
   31.710    0.4280
   31.740    0.4494
   31.770    0.5029
   31.800    0.4494
   31.830    0.5993
   31.860    0.4922
   31.890    0.6207
   31.920    0.4173
   31.950    0.4066
   31.980    0.4708
   32.010    0.4494
   32.040    0.3959
   32.070    0.5136
   32.100    0.4494
   32.130    0.4708
   32.160    0.6849
   32.190    0.5671
   32.220    0.5350
   32.250    0.4494
   32.280    0.6528
   32.310    0.4494
   32.340    0.4280
   32.370    0.3959
   32.400    0.3959
   32.430    0.4280
   32.460    0.4280
   32.490    0.4708
   32.520    0.5243
   32.550    0.5243
   32.580    0.3852
   32.610    0.4280
   32.640    0.4173
   32.670    0.4922
   32.700    0.4601
   32.730    0.4922
   32.760    0.3210
   32.790    0.5457
   32.820    0.5671
   32.850    0.7919
   32.880    0.4494
   32.910    0.4708
   32.940    0.4387
   32.970    0.4815
   33.000    0.6207
   33.030    0.3210
   33.060    0.4494
   33.090    0.4815
   33.120    0.5136
   33.150    0.5136
   33.180    0.6421
   33.210    0.4815
   33.240    0.5243
   33.270    0.4387
   33.300    0.3959
   33.330    0.5886
   33.360    0.3745
   33.390    0.4387
   33.420    0.3959
   33.450    0.3852
   33.480    0.5671
   33.510    0.3852
   33.540    0.5993
   33.570    0.4173
   33.600    0.4601
   33.630    0.4815
   33.660    0.4815
   33.690    0.4173
   33.720    0.4708
   33.750    0.5243
   33.780    0.4601
   33.810    0.4815
   33.840    0.5564
   33.870    0.5564
   33.900    0.3638
   33.930    0.5671
   33.960    0.3959
   33.990    0.4173
   34.020    0.4601
   34.050    0.3531
   34.080    0.5243
   34.110    0.4815
   34.140    0.5671
   34.170    0.5029
   34.200    0.5350
   34.230    0.4708
   34.260    0.4066
   34.290    0.4387
   34.320    0.4387
   34.350    0.3103
   34.380    0.3959
   34.410    0.3852
   34.440    0.3638
   34.470    0.3103
   34.500    0.3638
   34.530    0.3317
   34.560    0.3959
   34.590    0.3959
   34.620    0.4387
   34.650    0.4173
   34.680    0.3638
   34.710    0.3959
   34.740    0.4494
   34.770    0.4601
   34.800    0.5243
   34.830    0.2889
   34.860    0.3210
   34.890    0.2889
   34.920    0.2675
   34.950    0.3638
   34.980    0.2461
   35.010    0.3531
   35.040    0.3531
   35.070    0.4494
   35.100    0.4708
   35.130    0.2996
   35.160    0.4601
   35.190    0.3317
   35.220    0.3210
   35.250    0.4922
   35.280    0.3317
   35.310    0.4601
   35.340    0.3638
   35.370    0.2247
   35.400    0.4815
   35.430    0.3638
   35.460    0.3852
   35.490    0.4173
   35.520    0.3103
   35.550    0.3745
   35.580    0.3531
   35.610    0.4066
   35.640    0.3317
   35.670    0.4815
   35.700    0.4280
   35.730    0.4601
   35.760    0.3531
   35.790    0.4494
   35.820    0.2996
   35.850    0.3210
   35.880    0.3745
   35.910    0.4387
   35.940    0.3852
   35.970    0.3103
   36.000    0.4066
   36.030    0.3959
   36.060    0.2996
   36.090    0.2889
   36.120    0.3103
   36.150    0.3531
   36.180    0.3852
   36.210    0.4173
   36.240    0.3531
   36.270    0.3531
   36.300    0.3745
   36.330    0.2782
   36.360    0.2568
   36.390    0.3959
   36.420    0.3317
   36.450    0.3852
   36.480    0.3103
   36.510    0.3424
   36.540    0.3103
   36.570    0.3210
   36.600    0.3638
   36.630    0.4494
   36.660    0.4815
   36.690    0.4066
   36.720    0.4173
   36.750    0.3210
   36.780    0.2675
   36.810    0.4815
   36.840    0.2996
   36.870    0.2782
   36.900    0.3424
   36.930    0.3638
   36.960    0.3531
   36.990    0.3103
   37.020    0.3317
   37.050    0.2889
   37.080    0.3638
   37.110    0.3103
   37.140    0.4387
   37.170    0.2889
   37.200    0.2996
   37.230    0.4601
   37.260    0.2996
   37.290    0.2782
   37.320    0.2461
   37.350    0.3317
   37.380    0.3745
   37.410    0.2996
   37.440    0.4494
   37.470    0.5457
   37.500    0.3638
   37.530    0.2568
   37.560    0.2782
   37.590    0.3317
   37.620    0.2354
   37.650    0.3210
   37.680    0.3852
   37.710    0.4494
   37.740    0.3424
   37.770    0.2247
   37.800    0.3531
   37.830    0.2889
   37.860    0.2996
   37.890    0.2354
   37.920    0.3103
   37.950    0.3424
   37.980    0.2568
   38.010    0.3638
   38.040    0.2782
   38.070    0.2996
   38.100    0.3103
   38.130    0.3103
   38.160    0.3210
   38.190    0.2996
   38.220    0.3103
   38.250    0.3103
   38.280    0.2568
   38.310    0.2782
   38.340    0.2568
   38.370    0.3531
   38.400    0.3210
   38.430    0.3638
   38.460    0.2461
   38.490    0.2675
   38.520    0.2675
   38.550    0.3531
   38.580    0.2996
   38.610    0.3103
   38.640    0.3210
   38.670    0.2568
   38.700    0.3424
   38.730    0.3103
   38.760    0.3424
   38.790    0.3210
   38.820    0.3103
   38.850    0.2675
   38.880    0.2782
   38.910    0.2354
   38.940    0.3424
   38.970    0.2782
   39.000    0.3210
   39.030    0.3852
   39.060    0.2675
   39.090    0.2889
   39.120    0.3424
   39.150    0.2675
   39.180    0.2889
   39.210    0.2140
   39.240    0.2782
   39.270    0.3531
   39.300    0.3424
   39.330    0.2568
   39.360    0.2675
   39.390    0.2675
   39.420    0.3103
   39.450    0.3959
   39.480    0.3424
   39.510    0.2889
   39.540    0.3852
   39.570    0.3852
   39.600    0.3959
   39.630    0.3210
   39.660    0.3852
   39.690    0.2140
   39.720    0.3317
   39.750    0.2675
   39.780    0.2354
   39.810    0.3317
   39.840    0.3638
   39.870    0.2782
   39.900    0.2568
   39.930    0.2782
   39.960    0.2568
   39.990    0.2033