File: data/MOCOF-1/PXRD/PXRD_KE-127_Cu-Ka1_capillary-1mm_5s-deg.xyd
    1.500   16.8088
    1.530   16.5771
    1.560   16.4192
    1.590   15.5977
    1.620   15.7135
    1.650   15.3870
    1.680   15.2396
    1.710   15.5661
    1.740   14.7551
    1.770   14.2707
    1.800   14.6288
    1.830   14.6603
    1.860   14.8815
    1.890   13.8810
    1.920   14.8289
    1.950   14.9131
    1.980   15.0079
    2.010   14.7235
    2.040   15.1553
    2.070   14.0495
    2.100   14.4602
    2.130   14.6919
    2.160   14.4286
    2.190   16.0927
    2.220   15.2923
    2.250   15.3239
    2.280   15.3133
    2.310   15.3239
    2.340   15.7241
    2.370   16.2507
    2.400   16.8931
    2.430   17.5145
    2.460   17.8831
    2.490   18.3254
    2.520   17.9252
    2.550   18.7994
    2.580   19.9263
    2.610   20.0843
    2.640   21.3270
    2.670   21.5903
    2.700   22.0326
    2.730   22.9279
    2.760   24.6130
    2.790   25.5819
    2.820   25.8241
    2.850   27.0879
    2.880   28.9837
    2.910   30.0474
    2.940   31.5535
    2.970   32.7120
    3.000   35.3449
    3.030   37.9674
    3.060   39.5998
    3.090   42.0537
    3.120   45.1290
    3.150   48.6572
    3.180   51.4903
    3.210   56.3139
    3.240   62.2644
    3.270   66.9616
    3.300   73.5756
    3.330   81.6219
    3.360   93.0174
    3.390  105.5398
    3.420  117.9463
    3.450  126.9721
    3.480  119.3260
    3.510   97.2512
    3.540   71.6482
    3.570   53.2385
    3.600   44.9078
    3.630   39.3154
    3.660   37.2723
    3.690   38.2412
    3.720   38.3254
    3.750   38.8099
    3.780   40.9584
    3.810   42.7909
    3.840   45.0448
    3.870   47.1827
    3.900   48.4466
    3.930   51.6693
    3.960   52.2275
    3.990   54.1759
    4.020   52.4592
    4.050   51.5850
    4.080   49.8894
    4.110   45.7083
    4.140   42.0326
    4.170   37.8620
    4.200   34.1864
    4.230   29.4155
    4.260   25.6556
    4.290   22.4118
    4.320   18.8310
    4.350   16.8931
    4.380   15.1869
    4.410   13.4387
    4.440   12.1432
    4.470   11.6588
    4.500   10.2896
    4.530    9.4892
    4.560    9.0153
    4.590    8.5519
    4.620    8.3834
    4.650    8.1938
    4.680    7.6883
    4.710    7.6251
    4.740    7.0037
    4.770    7.0248
    4.800    7.0669
    4.830    6.7615
    4.860    6.7615
    4.890    6.3507
    4.920    6.6877
    4.950    6.6351
    4.980    6.0664
    5.010    5.9505
    5.040    6.2138
    5.070    6.0242
    5.100    6.2981
    5.130    6.0979
    5.160    5.9821
    5.190    5.8873
    5.220    6.2559
    5.250    5.6767
    5.280    5.9189
    5.310    5.6345
    5.340    5.9610
    5.370    5.5608
    5.400    5.8452
    5.430    6.0769
    5.460    5.6135
    5.490    5.6556
    5.520    5.8241
    5.550    5.2870
    5.580    5.4028
    5.610    5.6451
    5.640    5.1290
    5.670    5.6767
    5.700    5.3081
    5.730    5.8241
    5.760    5.5398
    5.790    5.2554
    5.820    5.1606
    5.850    5.4555
    5.880    5.3291
    5.910    5.4134
    5.940    5.1395
    5.970    5.1922
    6.000    5.2659
    6.030    5.3081
    6.060    5.2659
    6.090    5.1606
    6.120    5.3502
    6.150    5.3397
    6.180    5.6451
    6.210    5.6977
    6.240    5.5082
    6.270    5.6451
    6.300    5.5924
    6.330    5.9610
    6.360    5.3923
    6.390    5.9189
    6.420    6.0874
    6.450    6.4771
    6.480    6.2138
    6.510    6.4560
    6.540    6.4560
    6.570    6.8668
    6.600    6.9932
    6.630    7.0669
    6.660    7.6567
    6.690    8.4571
    6.720    8.3202
    6.750    8.8362
    6.780    9.7314
    6.810   10.7425
    6.840   12.1959
    6.870   13.1648
    6.900   14.5761
    6.930   16.3454
    6.960   16.4192
    6.990   15.8820
    7.020   13.2280
    7.050   10.8057
    7.080    8.7941
    7.110    7.7409
    7.140    7.1827
    7.170    7.1511
    7.200    6.2243
    7.230    6.0979
    7.260    6.6035
    7.290    5.8452
    7.320    5.9294
    7.350    6.1085
    7.380    5.9400
    7.410    6.8036
    7.440    6.6035
    7.470    5.7083
    7.500    6.4034
    7.530    6.4350
    7.560    6.4771
    7.590    6.5403
    7.620    6.5719
    7.650    6.7930
    7.680    6.6561
    7.710    7.0142
    7.740    7.2459
    7.770    7.0248
    7.800    7.4250
    7.830    7.3723
    7.860    7.6672
    7.890    8.0885
    7.920    7.8146
    7.950    8.5097
    7.980    8.4676
    8.010    8.9100
    8.040    8.9415
    8.070    8.9521
    8.100    8.8678
    8.130    8.7414
    8.160    9.0363
    8.190    8.9731
    8.220    9.0679
    8.250    8.8994
    8.280    8.6361
    8.310    8.0463
    8.340    8.0674
    8.370    8.1622
    8.400    7.8989
    8.430    7.6461
    8.460    7.5303
    8.490    7.5303
    8.520    7.1617
    8.550    7.2565
    8.580    6.7615
    8.610    6.5403
    8.640    6.5403
    8.670    5.9821
    8.700    6.3928
    8.730    5.8136
    8.760    5.6661
    8.790    5.6451
    8.820    5.5398
    8.850    5.6767
    8.880    5.5714
    8.910    5.6661
    8.940    5.6872
    8.970    5.3923
    9.000    5.4555
    9.030    5.2975
    9.060    4.9816
    9.090    5.0869
    9.120    5.1606
    9.150    5.0448
    9.180    4.8973
    9.210    5.0764
    9.240    5.0448
    9.270    4.9816
    9.300    4.6445
    9.330    5.1080
    9.360    4.9816
    9.390    5.1817
    9.420    4.6130
    9.450    4.7920
    9.480    4.7393
    9.510    4.7499
    9.540    5.2027
    9.570    4.9078
    9.600    4.8973
    9.630    5.0869
    9.660    4.8868
    9.690    5.0132
    9.720    4.8657
    9.750    4.8763
    9.780    4.6551
    9.810    5.1606
    9.840    4.9921
    9.870    4.9710
    9.900    4.8236
    9.930    4.6761
    9.960    4.9500
    9.990    4.9394
   10.020    4.9078
   10.050    5.0026
   10.080    4.6867
   10.110    4.8868
   10.140    4.9394
   10.170    4.8447
   10.200    4.3286
   10.230    5.2870
   10.260    5.0132
   10.290    5.3081
   10.320    5.5714
   10.350    5.2133
   10.380    5.5292
   10.410    5.7188
   10.440    5.5503
   10.470    5.4871
   10.500    5.3081
   10.530    5.4976
   10.560    5.7083
   10.590    5.1185
   10.620    5.0132
   10.650    4.8973
   10.680    4.9710
   10.710    4.9710
   10.740    4.9710
   10.770    5.1922
   10.800    5.0869
   10.830    4.5287
   10.860    4.8447
   10.890    4.9078
   10.920    4.7288
   10.950    4.7499
   10.980    4.9078
   11.010    5.1501
   11.040    4.6340
   11.070    5.0342
   11.100    4.9078
   11.130    5.1395
   11.160    5.1290
   11.190    5.0342
   11.220    4.7604
   11.250    5.1080
   11.280    4.7393
   11.310    4.6972
   11.340    4.9500
   11.370    4.9184
   11.400    5.2975
   11.430    4.7815
   11.460    4.9605
   11.490    4.9921
   11.520    4.7499
   11.550    4.4866
   11.580    4.8763
   11.610    5.1711
   11.640    5.0132
   11.670    5.2027
   11.700    5.0869
   11.730    5.1185
   11.760    5.0026
   11.790    5.1080
   11.820    4.8763
   11.850    5.2659
   11.880    5.3397
   11.910    5.3502
   11.940    5.3186
   11.970    4.9710
   12.000    5.3186
   12.030    5.2975
   12.060    5.2975
   12.090    5.6451
   12.120    5.3081
   12.150    5.1711
   12.180    5.2975
   12.210    5.6872
   12.240    5.5187
   12.270    5.2659
   12.300    5.7820
   12.330    5.2765
   12.360    5.9084
   12.390    5.3923
   12.420    5.6767
   12.450    5.4450
   12.480    5.1185
   12.510    5.4976
   12.540    5.6556
   12.570    5.2554
   12.600    4.8868
   12.630    5.2870
   12.660    5.4871
   12.690    5.5082
   12.720    5.4239
   12.750    5.4450
   12.780    5.3186
   12.810    5.3923
   12.840    5.4344
   12.870    5.4976
   12.900    4.9500
   12.930    5.6661
   12.960    5.2554
   12.990    5.1501
   13.020    5.1606
   13.050    5.0658
   13.080    5.0237
   13.110    5.0132
   13.140    4.8763
   13.170    5.2659
   13.200    4.9500
   13.230    5.3818
   13.260    5.0553
   13.290    4.7077
   13.320    5.3818
   13.350    5.1817
   13.380    5.0869
   13.410    5.2659
   13.440    5.0869
   13.470    4.9394
   13.500    5.1606
   13.530    4.7499
   13.560    5.3186
   13.590    4.9500
   13.620    4.9710
   13.650    4.9605
   13.680    5.0869
   13.710    4.8552
   13.740    4.8973
   13.770    4.8657
   13.800    5.1817
   13.830    5.2027
   13.860    4.9289
   13.890    5.1817
   13.920    4.9816
   13.950    5.2554
   13.980    4.6972
   14.010    4.9710
   14.040    5.1501
   14.070    4.8447
   14.100    4.9500
   14.130    4.7920
   14.160    5.0869
   14.190    4.9710
   14.220    4.8131
   14.250    4.7499
   14.280    4.7920
   14.310    4.9816
   14.340    5.0132
   14.370    4.7288
   14.400    4.6130
   14.430    4.7709
   14.460    4.8657
   14.490    4.6761
   14.520    4.4550
   14.550    4.8025
   14.580    4.7920
   14.610    4.4760
   14.640    4.6551
   14.670    4.6656
   14.700    4.8025
   14.730    5.0132
   14.760    4.6972
   14.790    4.3813
   14.820    4.6551
   14.850    4.6972
   14.880    4.8973
   14.910    4.6340
   14.940    4.6867
   14.970    4.7393
   15.000    4.7077
   15.030    4.7920
   15.060    4.7920
   15.090    4.7709
   15.120    4.5392
   15.150    5.0869
   15.180    5.0026
   15.210    4.5287
   15.240    5.0553
   15.270    4.7288
   15.300    4.6972
   15.330    4.7288
   15.360    4.6761
   15.390    4.9605
   15.420    4.9394
   15.450    4.9710
   15.480    5.0237
   15.510    4.7183
   15.540    4.6972
   15.570    5.2238
   15.600    4.8341
   15.630    4.6656
   15.660    4.7499
   15.690    4.9184
   15.720    4.9184
   15.750    4.6761
   15.780    4.7920
   15.810    4.8447
   15.840    5.2975
   15.870    4.9394
   15.900    4.7709
   15.930    5.1080
   15.960    4.8657
   15.990    4.8973
   16.020    5.0448
   16.050    4.6972
   16.080    5.1290
   16.110    4.9289
   16.140    4.6024
   16.170    5.2449
   16.200    4.8341
   16.230    4.8657
   16.260    4.9394
   16.290    4.9394
   16.320    5.1080
   16.350    4.6024
   16.380    4.7709
   16.410    4.7499
   16.440    4.8341
   16.470    5.2870
   16.500    5.2027
   16.530    4.5182
   16.560    4.7393
   16.590    4.4866
   16.620    4.8447
   16.650    4.3391
   16.680    4.6867
   16.710    4.5076
   16.740    4.3707
   16.770    4.6445
   16.800    4.4128
   16.830    4.6551
   16.860    4.6130
   16.890    4.9394
   16.920    4.5498
   16.950    4.7288
   16.980    4.7709
   17.010    4.3918
   17.040    4.1811
   17.070    4.4866
   17.100    4.6761
   17.130    4.6235
   17.160    4.5498
   17.190    4.7709
   17.220    4.9500
   17.250    4.8236
   17.280    4.6867
   17.310    4.6761
   17.340    4.8236
   17.370    5.0869
   17.400    4.6130
   17.430    4.7393
   17.460    4.5603
   17.490    4.7920
   17.520    4.6761
   17.550    5.1290
   17.580    4.7709
   17.610    4.9605
   17.640    4.4023
   17.670    4.6024
   17.700    4.7709
   17.730    4.6656
   17.760    4.8763
   17.790    5.0342
   17.820    4.4655
   17.850    4.5919
   17.880    4.7604
   17.910    4.6445
   17.940    5.0342
   17.970    5.1501
   18.000    5.1395
   18.030    4.8025
   18.060    5.3397
   18.090    5.0448
   18.120    5.0026
   18.150    5.2554
   18.180    4.9289
   18.210    5.2027
   18.240    4.8236
   18.270    4.4971
   18.300    4.8341
   18.330    4.9500
   18.360    4.7183
   18.390    4.7183
   18.420    5.0553
   18.450    4.7920
   18.480    4.9289
   18.510    4.9710
   18.540    4.6130
   18.570    5.0869
   18.600    4.5708
   18.630    4.9816
   18.660    4.7920
   18.690    5.0658
   18.720    4.6867
   18.750    4.8341
   18.780    5.0869
   18.810    4.5392
   18.840    4.9184
   18.870    4.9394
   18.900    5.0658
   18.930    4.8868
   18.960    5.1817
   18.990    5.2659
   19.020    5.2133
   19.050    5.2659
   19.080    4.9921
   19.110    4.8657
   19.140    5.0658
   19.170    4.5919
   19.200    4.9921
   19.230    4.9816
   19.260    4.9289
   19.290    4.9500
   19.320    4.9078
   19.350    4.8657
   19.380    5.1711
   19.410    5.0448
   19.440    4.9921
   19.470    5.0553
   19.500    5.1501
   19.530    5.1711
   19.560    5.0237
   19.590    5.2027
   19.620    5.0132
   19.650    5.2975
   19.680    5.2027
   19.710    5.2343
   19.740    5.2343
   19.770    5.2870
   19.800    5.3607
   19.830    5.4450
   19.860    5.6240
   19.890    5.4976
   19.920    5.0764
   19.950    5.3081
   19.980    5.1606
   20.010    5.4344
   20.040    5.5608
   20.070    5.2133
   20.100    5.6451
   20.130    5.3397
   20.160    5.3081
   20.190    5.6029
   20.220    5.4344
   20.250    5.2870
   20.280    5.7820
   20.310    5.4660
   20.340    5.6345
   20.370    5.1606
   20.400    5.6451
   20.430    5.4239
   20.460    5.8347
   20.490    4.8763
   20.520    5.5714
   20.550    5.4134
   20.580    5.4134
   20.610    5.3186
   20.640    5.1817
   20.670    5.2133
   20.700    5.4766
   20.730    5.0869
   20.760    5.0869
   20.790    5.2870
   20.820    5.2449
   20.850    5.5082
   20.880    5.6872
   20.910    4.9816
   20.940    5.3712
   20.970    4.8763
   21.000    5.8978
   21.030    5.9400
   21.060    5.5503
   21.090    5.4871
   21.120    5.3397
   21.150    5.7399
   21.180    5.3081
   21.210    5.4134
   21.240    5.2870
   21.270    5.3397
   21.300    5.0974
   21.330    5.6977
   21.360    5.1606
   21.390    4.9078
   21.420    5.5292
   21.450    5.3291
   21.480    5.1080
   21.510    5.4028
   21.540    5.7715
   21.570    5.4239
   21.600    5.3923
   21.630    5.1395
   21.660    5.6345
   21.690    5.4239
   21.720    5.7188
   21.750    5.2449
   21.780    5.3923
   21.810    5.3818
   21.840    5.3712
   21.870    5.4871
   21.900    5.5292
   21.930    5.8136
   21.960    5.3818
   21.990    5.1817
   22.020    5.6135
   22.050    5.5292
   22.080    5.5292
   22.110    5.5292
   22.140    5.3081
   22.170    5.4344
   22.200    5.4134
   22.230    5.3081
   22.260    5.2449
   22.290    5.6977
   22.320    5.2870
   22.350    5.5187
   22.380    5.4239
   22.410    5.2870
   22.440    5.2027
   22.470    5.3607
   22.500    5.2975
   22.530    5.1606
   22.560    4.9078
   22.590    5.0448
   22.620    5.2765
   22.650    5.4239
   22.680    4.8447
   22.710    5.1290
   22.740    5.0974
   22.770    5.5608
   22.800    5.3607
   22.830    5.4976
   22.860    5.2554
   22.890    5.2659
   22.920    5.3923
   22.950    5.2554
   22.980    5.3397
   23.010    5.6029
   23.040    5.2659
   23.070    5.2449
   23.100    5.0658
   23.130    5.6556
   23.160    5.7609
   23.190    5.2554
   23.220    4.9816
   23.250    5.0342
   23.280    5.2659
   23.310    5.2343
   23.340    4.9605
   23.370    5.0974
   23.400    5.1711
   23.430    5.2343
   23.460    5.0026
   23.490    5.0764
   23.520    5.1922
   23.550    4.9605
   23.580    5.2554
   23.610    5.0764
   23.640    5.4134
   23.670    5.0658
   23.700    5.2343
   23.730    5.0237
   23.760    5.8241
   23.790    5.2870
   23.820    5.1290
   23.850    5.5082
   23.880    5.1922
   23.910    4.9289
   23.940    5.1501
   23.970    5.2449
   24.000    5.2975
   24.030    4.8341
   24.060    5.2238
   24.090    5.1395
   24.120    5.2027
   24.150    5.0448
   24.180    5.2975
   24.210    4.8552
   24.240    5.2870
   24.270    5.0974
   24.300    4.6235
   24.330    4.9184
   24.360    5.1817
   24.390    4.8236
   24.420    4.8973
   24.450    5.2343
   24.480    4.9184
   24.510    4.9078
   24.540    4.8973
   24.570    5.1711
   24.600    4.9816
   24.630    5.0764
   24.660    5.2765
   24.690    4.8236
   24.720    5.4660
   24.750    5.1080
   24.780    4.7920
   24.810    4.9605
   24.840    5.0974
   24.870    4.7183
   24.900    5.0658
   24.930    4.7815
   24.960    4.6972
   24.990    5.0974
   25.020    4.8236
   25.050    4.8657
   25.080    4.8131
   25.110    4.8552
   25.140    4.4234
   25.170    4.6130
   25.200    4.6551
   25.230    4.5814
   25.260    4.5919
   25.290    5.1395
   25.320    4.6445
   25.350    4.5919
   25.380    4.6656
   25.410    5.1501
   25.440    4.9184
   25.470    4.6340
   25.500    4.6551
   25.530    4.9289
   25.560    5.0658
   25.590    4.8973
   25.620    4.8973
   25.650    4.8025
   25.680    4.5814
   25.710    4.7393
   25.740    4.3707
   25.770    4.9289
   25.800    4.5919
   25.830    4.7077
   25.860    4.6551
   25.890    4.6024
   25.920    4.3707
   25.950    4.6867
   25.980    4.5708
   26.010    5.0448
   26.040    4.6340
   26.070    4.8973
   26.100    4.5287
   26.130    4.6235
   26.160    4.6551
   26.190    4.4655
   26.220    4.4655
   26.250    4.6024
   26.280    4.5498
   26.310    4.6340
   26.340    4.2549
   26.370    4.8025
   26.400    4.4550
   26.430    4.5603
   26.460    4.8236
   26.490    4.5708
   26.520    4.6340
   26.550    4.5287
   26.580    4.2865
   26.610    4.4234
   26.640    4.2233
   26.670    4.7393
   26.700    4.7077
   26.730    4.3918
   26.760    4.6656
   26.790    4.6340
   26.820    4.4760
   26.850    4.5498
   26.880    4.7604
   26.910    4.5814
   26.940    4.4971
   26.970    4.5076
   27.000    4.4760
   27.030    4.2759
   27.060    4.5076
   27.090    4.4971
   27.120    4.1601
   27.150    4.9289
   27.180    4.8236
   27.210    4.6551
   27.240    4.3391
   27.270    4.4760
   27.300    4.8025
   27.330    4.1706
   27.360    4.2338
   27.390    4.6235
   27.420    4.7183
   27.450    4.5814
   27.480    4.7077
   27.510    4.4866
   27.540    4.7077
   27.570    4.8025
   27.600    4.4339
   27.630    4.4971
   27.660    4.7288
   27.690    4.6656
   27.720    4.6761
   27.750    4.6867
   27.780    4.7709
   27.810    4.2233
   27.840    4.6024
   27.870    4.6972
   27.900    4.3602
   27.930    4.8341
   27.960    4.4866
   27.990    4.5919
   28.020    4.7499
   28.050    4.6340
   28.080    4.9500
   28.110    4.5287
   28.140    4.7815
   28.170    4.3813
   28.200    4.7077
   28.230    4.8236
   28.260    4.6024
   28.290    4.9184
   28.320    4.6024
   28.350    4.4023
   28.380    4.5182
   28.410    4.2865
   28.440    4.4971
   28.470    4.6024
   28.500    4.2865
   28.530    4.3918
   28.560    4.5182
   28.590    4.4655
   28.620    4.5603
   28.650    4.4655
   28.680    4.6130
   28.710    4.0758
   28.740    4.4971
   28.770    4.2970
   28.800    4.1496
   28.830    4.3497
   28.860    4.5076
   28.890    4.5498
   28.920    4.4760
   28.950    4.6867
   28.980    4.7288
   29.010    4.6340
   29.040    4.5392
   29.070    4.5498
   29.100    4.2338
   29.130    4.3497
   29.160    4.0232
   29.190    4.6235
   29.220    4.0758
   29.250    4.5708
   29.280    4.5182
   29.310    4.2549
   29.340    4.4128
   29.370    4.5603
   29.400    4.4866
   29.430    4.6656
   29.460    4.4655
   29.490    4.4760
   29.520    4.4760
   29.550    4.4550
   29.580    4.1917
   29.610    4.4023
   29.640    4.2022
   29.670    4.1180
   29.700    3.9389
   29.730    4.0337
   29.760    4.3707
   29.790    4.2549
   29.820    4.3813
   29.850    4.5603
   29.880    4.1706
   29.910    3.9179
   29.940    4.3497
   29.970    4.2970
   30.000    4.0969
   30.030    4.2865
   30.060    4.1706
   30.090    4.1180
   30.120    4.2127
   30.150    4.4128
   30.180    4.3181
   30.210    4.0442
   30.240    4.1285
   30.270    4.0548
   30.300    4.4655
   30.330    4.0337
   30.360    4.1285
   30.390    4.0337
   30.420    3.7072
   30.450    4.0864
   30.480    4.4971
   30.510    4.0864
   30.540    4.1706
   30.570    4.0864
   30.600    3.9600
   30.630    3.9389
   30.660    4.3075
   30.690    3.9810
   30.720    4.0969
   30.750    4.0653
   30.780    4.1074
   30.810    4.1706
   30.840    4.2759
   30.870    4.2127
   30.900    4.4339
   30.930    4.0021
   30.960    4.2759
   30.990    4.0021
   31.020    4.3813
   31.050    3.9179
   31.080    4.0864
   31.110    3.9073
   31.140    4.0126
   31.170    4.5392
   31.200    3.8652
   31.230    4.1917
   31.260    3.8441
   31.290    3.9810
   31.320    4.0442
   31.350    4.3813
   31.380    4.2338
   31.410    3.7599
   31.440    3.9705
   31.470    4.1496
   31.500    4.3497
   31.530    4.2970
   31.560    4.0442
   31.590    4.1601
   31.620    4.1074
   31.650    4.0337
   31.680    4.0969
   31.710    4.1601
   31.740    4.1917
   31.770    4.1180
   31.800    4.4971
   31.830    4.3391
   31.860    3.8863
   31.890    4.3075
   31.920    4.0864
   31.950    4.3391
   31.980    4.4128
   32.010    4.3707
   32.040    4.2970
   32.070    4.3075
   32.100    4.2338
   32.130    4.3602
   32.160    4.3813
   32.190    4.2022
   32.220    4.1601
   32.250    3.8125
   32.280    3.9810
   32.310    3.7493
   32.340    3.7177
   32.370    4.0126
   32.400    3.9179
   32.430    4.0864
   32.460    4.0021
   32.490    4.1601
   32.520    3.9389
   32.550    3.9600
   32.580    4.0864
   32.610    3.6230
   32.640    3.8652
   32.670    3.8336
   32.700    4.0232
   32.730    3.8652
   32.760    3.8863
   32.790    3.9810
   32.820    4.0864
   32.850    4.0969
   32.880    4.1601
   32.910    3.7809
   32.940    3.7915
   32.970    3.5598
   33.000    4.0442
   33.030    3.5598
   33.060    3.6546
   33.090    4.0969
   33.120    4.1811
   33.150    3.7704
   33.180    3.7177
   33.210    4.0126
   33.240    3.5808
   33.270    3.9179
   33.300    3.6756
   33.330    3.7388
   33.360    3.6335
   33.390    3.6967
   33.420    3.8125
   33.450    4.1180
   33.480    3.6546
   33.510    3.7072
   33.540    3.7493
   33.570    3.5598
   33.600    3.8336
   33.630    3.7704
   33.660    3.7704
   33.690    3.3702
   33.720    3.6651
   33.750    3.9179
   33.780    3.8125
   33.810    4.4023
   33.840    3.8547
   33.870    3.8441
   33.900    3.7388
   33.930    3.8652
   33.960    3.9284
   33.990    3.6756
   34.020    3.8652
   34.050    3.4860
   34.080    3.7177
   34.110    3.9284
   34.140    3.6019
   34.170    3.3702
   34.200    3.5808
   34.230    3.5808
   34.260    3.5914
   34.290    3.7388
   34.320    3.5387
   34.350    3.6756
   34.380    3.6546
   34.410    3.7177
   34.440    3.4123
   34.470    3.2859
   34.500    3.8441
   34.530    3.5703
   34.560    3.6651
   34.590    3.5914
   34.620    3.7177
   34.650    3.2754
   34.680    3.4018
   34.710    3.4334
   34.740    3.4755
   34.770    3.5492
   34.800    3.3175
   34.830    3.0332
   34.860    3.4966
   34.890    3.4755
   34.920    3.5492
   34.950    3.6124
   34.980    3.7283
   35.010    3.7809
   35.040    3.6335
   35.070    3.9389
   35.100    3.4860
   35.130    3.5703
   35.160    3.5387
   35.190    3.6651
   35.220    3.6019
   35.250    3.3913
   35.280    3.3597
   35.310    3.7072
   35.340    3.3702
   35.370    3.0858
   35.400    3.4018
   35.430    3.5598
   35.460    3.6124
   35.490    3.4966
   35.520    3.7177
   35.550    3.5176
   35.580    3.5492
   35.610    3.0226
   35.640    3.3807
   35.670    3.7177
   35.700    3.6440
   35.730    3.5598
   35.760    3.6651
   35.790    3.1912
   35.820    3.3807
   35.850    3.4439
   35.880    3.4755
   35.910    3.4544
   35.940    3.3491
   35.970    3.6967
   36.000    3.5071
   36.030    3.2543
   36.060    3.2543
   36.090    3.2438
   36.120    3.7704
   36.150    3.4123
   36.180    3.2438
   36.210    3.2227
   36.240    3.2649
   36.270    3.3491
   36.300    3.4018
   36.330    3.4439
   36.360    3.2859
   36.390    3.5914
   36.420    3.3281
   36.450    3.3913
   36.480    3.3281
   36.510    3.4123
   36.540    3.3386
   36.570    3.1174
   36.600    3.4860
   36.630    3.2227
   36.660    3.6230
   36.690    3.5492
   36.720    3.1490
   36.750    3.5387
   36.780    3.3281
   36.810    3.2227
   36.840    3.4229
   36.870    3.0437
   36.900    3.5282
   36.930    3.0858
   36.960    3.0753
   36.990    3.3491
   37.020    3.4123
   37.050    3.3913
   37.080    3.3386
   37.110    3.2122
   37.140    3.0648
   37.170    3.3175
   37.200    3.1490
   37.230    3.2543
   37.260    3.5387
   37.290    3.3281
   37.320    3.4229
   37.350    3.2649
   37.380    3.2017
   37.410    3.0858
   37.440    3.1385
   37.470    3.2754
   37.500    3.2543
   37.530    3.1701
   37.560    3.0858
   37.590    3.2333
   37.620    3.2227
   37.650    3.2649
   37.680    3.3070
   37.710    3.2122
   37.740    3.1912
   37.770    3.6124
   37.800    3.3913
   37.830    3.3070
   37.860    3.1490
   37.890    3.2859
   37.920    3.2649
   37.950    3.2227
   37.980    3.4334
   38.010    3.2438
   38.040    3.3597
   38.070    3.3913
   38.100    3.2438
   38.130    3.3281
   38.160    3.0226
   38.190    3.0542
   38.220    3.2859
   38.250    3.2438
   38.280    3.1596
   38.310    3.1596
   38.340    3.4544
   38.370    3.3281
   38.400    3.3386
   38.430    3.4650
   38.460    3.0858
   38.490    3.3281
   38.520    3.1385
   38.550    2.9068
   38.580    3.2965
   38.610    2.9910
   38.640    2.9910
   38.670    3.5914
   38.700    3.6335
   38.730    3.2333
   38.760    3.4544
   38.790    3.4544
   38.820    3.3281
   38.850    3.1701
   38.880    3.1490
   38.910    3.4334
   38.940    2.8963
   38.970    3.1596
   39.000    3.0332
   39.030    3.2438
   39.060    3.2859
   39.090    3.0332
   39.120    2.9489
   39.150    3.1701
   39.180    3.1596
   39.210    3.1385
   39.240    3.4334
   39.270    3.2754
   39.300    3.3281
   39.330    3.1280
   39.360    3.3913
   39.390    3.2438
   39.420    3.1174
   39.450    3.0542
   39.480    2.8541
   39.510    3.0226
   39.540    3.3070
   39.570    3.2333
   39.600    3.4123
   39.630    3.1490
   39.660    3.1701
   39.690    3.1701
   39.720    2.9489
   39.750    3.2017
   39.780    2.8331
   39.810    3.2754
   39.840    3.2438
   39.870    3.2438
   39.900    3.3386
   39.930    3.3386
   39.960    2.8647
   39.990    3.1912