File: data/MOCOF-1/PXRD/PXRD_KE-285C_Cu-Ka1_capillary-1mm_3s-deg.xyd
    1.500   21.2041
    1.530   21.2568
    1.560   20.2738
    1.590   19.2382
    1.620   19.0627
    1.650   17.9568
    1.680   17.4302
    1.710   16.0084
    1.740   16.6403
    1.770   16.0435
    1.800   14.9903
    1.830   14.7973
    1.860   13.8143
    1.890   14.0249
    1.920   13.8669
    1.950   13.2877
    1.980   13.7090
    2.010   11.9888
    2.040   11.6904
    2.070   12.1292
    2.100   11.7430
    2.130   11.3920
    2.160   11.5324
    2.190   11.1638
    2.220   10.3212
    2.250   10.2335
    2.280   10.3212
    2.310   10.3563
    2.340    9.8999
    2.370    9.6542
    2.400   10.2510
    2.430   10.0404
    2.460    9.1627
    2.490    9.5313
    2.520    8.9872
    2.550    8.8819
    2.580    9.0925
    2.610    8.6888
    2.640    8.6888
    2.670    9.2329
    2.700    8.6537
    2.730    7.9340
    2.760    7.9691
    2.790    8.7063
    2.820    8.5484
    2.850    8.4957
    2.880    8.1271
    2.910    8.8994
    2.940    8.4430
    2.970    8.7941
    3.000    8.9170
    3.030    9.2680
    3.060    8.8117
    3.090    9.1276
    3.120    8.7414
    3.150    9.8999
    3.180    9.1803
    3.210   10.1808
    3.240    9.8824
    3.270   10.7600
    3.300   10.6372
    3.330   11.2691
    3.360   11.9361
    3.390   12.6207
    3.420   12.6382
    3.450   14.0425
    3.480   14.3409
    3.510   15.7451
    3.540   16.0962
    3.570   17.0441
    3.600   19.6595
    3.630   20.5371
    3.660   22.2222
    3.690   23.9600
    3.720   27.6110
    3.750   32.6663
    3.780   38.6168
    3.810   52.9050
    3.840   59.8210
    3.870   48.6923
    3.900   26.3823
    3.930   12.1467
    3.960    8.8819
    3.990    7.2143
    4.020    7.5127
    4.050    6.5122
    4.080    6.5649
    4.110    6.0558
    4.140    6.3542
    4.170    6.4771
    4.200    6.2489
    4.230    6.2489
    4.260    6.2840
    4.290    6.0207
    4.320    5.9856
    4.350    5.3888
    4.380    6.3367
    4.410    6.1787
    4.440    6.0558
    4.470    5.8101
    4.500    5.5819
    4.530    5.7925
    4.560    5.9505
    4.590    5.8101
    4.620    5.8452
    4.650    6.1436
    4.680    5.7223
    4.710    5.7399
    4.740    5.7574
    4.770    6.3016
    4.800    6.5298
    4.830    6.5298
    4.860    5.8101
    4.890    6.6175
    4.920    6.4595
    4.950    6.5298
    4.980    6.9686
    5.010    6.7930
    5.040    7.0037
    5.070    6.9686
    5.100    6.7579
    5.130    7.8287
    5.160    8.3904
    5.190    8.7414
    5.220    9.0574
    5.250    9.6893
    5.280   10.0930
    5.310   11.1989
    5.340   12.9366
    5.370   14.8148
    5.400   17.5355
    5.430   22.7664
    5.460   25.1185
    5.490   22.1169
    5.520   13.4632
    5.550    8.1797
    5.580    6.3893
    5.610    6.4244
    5.640    6.0383
    5.670    5.6872
    5.700    6.0558
    5.730    5.9154
    5.760    5.6170
    5.790    5.4941
    5.820    6.1085
    5.850    5.4415
    5.880    5.2835
    5.910    5.1782
    5.940    5.4415
    5.970    5.3361
    6.000    5.0553
    6.030    5.3361
    6.060    5.0553
    6.090    5.3888
    6.120    5.5819
    6.150    5.4064
    6.180    5.1606
    6.210    6.2313
    6.240    5.3010
    6.270    5.6170
    6.300    6.0734
    6.330    5.1957
    6.360    5.7925
    6.390    5.9505
    6.420    6.1260
    6.450    6.2665
    6.480    6.4771
    6.510    6.8106
    6.540    6.8808
    6.570    7.4601
    6.600    8.0393
    6.630    8.5308
    6.660    9.9877
    6.690   11.5499
    6.720   11.5324
    6.750    9.7069
    6.780    6.3367
    6.810    6.1787
    6.840    5.4239
    6.870    6.3191
    6.900    5.5468
    6.930    5.0904
    6.960    5.1782
    6.990    5.5643
    7.020    5.3888
    7.050    5.6521
    7.080    5.2835
    7.110    5.1957
    7.140    5.6872
    7.170    5.0377
    7.200    5.0026
    7.230    5.1431
    7.260    5.6697
    7.290    5.1255
    7.320    5.0553
    7.350    5.3186
    7.380    5.8452
    7.410    5.3361
    7.440    5.7223
    7.470    5.7223
    7.500    5.5117
    7.530    5.7574
    7.560    5.8101
    7.590    6.2840
    7.620    6.1260
    7.650    7.0037
    7.680    6.8282
    7.710    7.9340
    7.740    8.7941
    7.770    8.8292
    7.800    7.5478
    7.830    5.9505
    7.860    5.6872
    7.890    5.4064
    7.920    5.1080
    7.950    5.8276
    7.980    5.0202
    8.010    5.1431
    8.040    5.2133
    8.070    5.0026
    8.100    5.3537
    8.130    4.9675
    8.160    5.5643
    8.190    4.7744
    8.220    5.2484
    8.250    5.1255
    8.280    5.1606
    8.310    5.1606
    8.340    5.5994
    8.370    5.4239
    8.400    4.7042
    8.430    4.8447
    8.460    5.8276
    8.490    5.3537
    8.520    5.1606
    8.550    5.4590
    8.580    5.0553
    8.610    5.7399
    8.640    6.0383
    8.670    5.5468
    8.700    5.4766
    8.730    5.2308
    8.760    5.0728
    8.790    5.2133
    8.820    5.4064
    8.850    5.0202
    8.880    5.1606
    8.910    5.3712
    8.940    5.2308
    8.970    5.5468
    9.000    5.3537
    9.030    4.9500
    9.060    5.0728
    9.090    5.5117
    9.120    5.1606
    9.150    5.3537
    9.180    5.5819
    9.210    5.5819
    9.240    5.3010
    9.270    5.4064
    9.300    6.4069
    9.330    6.4420
    9.360    6.7404
    9.390    6.9861
    9.420    7.7760
    9.450    9.2680
    9.480   11.1111
    9.510   11.9888
    9.540   11.7430
    9.570    8.8468
    9.600    6.6702
    9.630    5.6872
    9.660    5.1255
    9.690    5.4766
    9.720    5.1957
    9.750    4.9851
    9.780    5.2133
    9.810    5.2133
    9.840    5.1431
    9.870    5.4941
    9.900    5.2835
    9.930    5.1606
    9.960    5.3712
    9.990    4.9500
   10.020    5.6872
   10.050    5.5819
   10.080    5.7223
   10.110    5.5819
   10.140    5.6697
   10.170    6.3718
   10.200    6.0032
   10.230    6.4069
   10.260    7.6180
   10.290    7.6707
   10.320    7.5303
   10.350    6.2489
   10.380    5.2133
   10.410    5.0553
   10.440    5.2133
   10.470    5.4064
   10.500    5.5994
   10.530    5.1431
   10.560    5.1255
   10.590    5.2133
   10.620    4.5814
   10.650    4.9675
   10.680    5.1957
   10.710    5.0202
   10.740    5.5643
   10.770    5.1606
   10.800    5.7223
   10.830    5.5292
   10.860    5.1080
   10.890    5.8276
   10.920    6.0207
   10.950    6.6877
   10.980    6.9686
   11.010    7.1266
   11.040    6.4420
   11.070    6.0558
   11.100    5.0728
   11.130    5.5643
   11.160    4.9149
   11.190    4.7042
   11.220    5.1782
   11.250    5.0026
   11.280    4.8798
   11.310    4.6867
   11.340    4.8095
   11.370    5.0904
   11.400    5.0377
   11.430    4.5989
   11.460    5.1431
   11.490    5.1080
   11.520    5.1782
   11.550    5.8276
   11.580    5.6345
   11.610    5.9681
   11.640    6.8282
   11.670    7.6180
   11.700    8.0218
   11.730    6.3718
   11.760    5.5994
   11.790    5.3537
   11.820    5.4064
   11.850    4.8622
   11.880    5.1957
   11.910    5.1606
   11.940    5.0026
   11.970    5.2308
   12.000    4.9500
   12.030    5.0553
   12.060    4.6867
   12.090    5.0202
   12.120    4.5638
   12.150    4.9149
   12.180    5.0904
   12.210    5.1957
   12.240    5.3537
   12.270    5.0728
   12.300    5.0026
   12.330    5.3888
   12.360    5.2659
   12.390    4.8447
   12.420    5.1080
   12.450    5.0553
   12.480    4.8798
   12.510    4.8798
   12.540    5.4064
   12.570    5.0904
   12.600    5.1431
   12.630    4.9324
   12.660    4.7218
   12.690    4.8095
   12.720    4.9500
   12.750    5.2835
   12.780    5.1255
   12.810    5.5994
   12.840    5.4064
   12.870    5.8803
   12.900    6.0032
   12.930    6.1611
   12.960    6.0909
   12.990    5.8452
   13.020    5.5468
   13.050    5.2659
   13.080    5.0202
   13.110    5.0728
   13.140    4.6867
   13.170    4.7218
   13.200    5.1080
   13.230    5.1782
   13.260    5.2659
   13.290    5.2133
   13.320    5.2484
   13.350    4.9675
   13.380    4.9675
   13.410    4.4936
   13.440    5.5468
   13.470    5.2308
   13.500    5.4064
   13.530    5.5292
   13.560    5.3186
   13.590    4.9500
   13.620    5.4064
   13.650    5.1957
   13.680    4.8095
   13.710    5.0728
   13.740    4.9324
   13.770    4.9675
   13.800    4.9675
   13.830    4.9149
   13.860    4.9851
   13.890    5.0026
   13.920    5.0202
   13.950    5.4064
   13.980    5.6170
   14.010    6.1962
   14.040    6.5298
   14.070    6.5122
   14.100    6.3893
   14.130    6.1436
   14.160    5.3888
   14.190    4.6340
   14.220    5.2133
   14.250    5.3186
   14.280    4.6340
   14.310    5.1957
   14.340    5.1431
   14.370    5.1431
   14.400    5.0202
   14.430    5.1255
   14.460    5.2659
   14.490    5.1431
   14.520    5.1957
   14.550    5.1255
   14.580    5.1782
   14.610    4.5287
   14.640    4.8095
   14.670    5.4415
   14.700    5.0377
   14.730    5.2659
   14.760    4.9149
   14.790    4.7744
   14.820    5.1080
   14.850    5.0728
   14.880    4.7569
   14.910    4.9851
   14.940    5.0202
   14.970    5.0553
   15.000    4.9500
   15.030    4.9324
   15.060    5.6170
   15.090    5.5819
   15.120    5.7750
   15.150    5.2484
   15.180    5.5994
   15.210    5.4415
   15.240    5.1782
   15.270    5.3712
   15.300    5.4064
   15.330    5.3010
   15.360    5.3888
   15.390    4.9324
   15.420    4.7744
   15.450    5.2835
   15.480    5.3361
   15.510    5.1431
   15.540    5.1782
   15.570    5.1431
   15.600    5.3537
   15.630    5.1431
   15.660    5.2659
   15.690    5.2659
   15.720    5.5292
   15.750    4.9324
   15.780    5.1782
   15.810    5.3537
   15.840    5.0728
   15.870    5.0202
   15.900    5.5819
   15.930    5.2308
   15.960    5.5292
   15.990    5.2133
   16.020    5.6872
   16.050    5.2133
   16.080    5.5994
   16.110    5.3712
   16.140    5.3186
   16.170    5.7925
   16.200    5.4590
   16.230    5.3888
   16.260    5.3186
   16.290    5.1957
   16.320    6.2489
   16.350    5.6170
   16.380    5.5117
   16.410    5.6345
   16.440    5.3010
   16.470    6.0383
   16.500    5.7048
   16.530    5.6521
   16.560    5.5994
   16.590    5.8627
   16.620    5.6170
   16.650    5.6872
   16.680    4.9500
   16.710    5.8101
   16.740    5.4590
   16.770    5.4941
   16.800    5.6521
   16.830    5.4766
   16.860    5.7048
   16.890    5.8978
   16.920    5.8803
   16.950    6.1611
   16.980    6.1260
   17.010    7.0388
   17.040    6.3718
   17.070    6.1962
   17.100    5.9505
   17.130    5.7223
   17.160    5.9154
   17.190    5.2133
   17.220    5.4415
   17.250    4.9500
   17.280    5.8276
   17.310    5.5468
   17.340    5.9505
   17.370    5.6697
   17.400    5.7048
   17.430    5.6697
   17.460    6.0032
   17.490    6.0909
   17.520    5.7750
   17.550    5.8803
   17.580    5.5117
   17.610    5.6170
   17.640    5.6697
   17.670    5.8101
   17.700    5.7750
   17.730    6.1611
   17.760    5.6697
   17.790    5.7925
   17.820    6.2489
   17.850    6.0909
   17.880    5.6697
   17.910    5.9329
   17.940    6.1611
   17.970    6.1787
   18.000    5.4766
   18.030    5.7925
   18.060    5.4415
   18.090    5.7574
   18.120    6.2489
   18.150    5.5819
   18.180    5.7750
   18.210    6.2489
   18.240    6.1962
   18.270    6.1611
   18.300    5.5819
   18.330    6.6175
   18.360    6.4420
   18.390    6.0734
   18.420    6.0558
   18.450    5.8627
   18.480    5.6697
   18.510    5.5643
   18.540    5.9154
   18.570    5.8803
   18.600    6.1787
   18.630    5.7223
   18.660    5.7925
   18.690    5.5643
   18.720    5.7399
   18.750    6.1611
   18.780    6.3191
   18.810    6.3367
   18.840    6.6000
   18.870    5.9154
   18.900    5.8803
   18.930    5.9329
   18.960    5.4590
   18.990    5.9505
   19.020    6.5122
   19.050    6.2665
   19.080    5.8978
   19.110    5.9856
   19.140    6.0734
   19.170    6.0909
   19.200    6.1436
   19.230    6.0383
   19.260    6.2313
   19.290    6.0207
   19.320    6.4946
   19.350    6.2665
   19.380    6.2665
   19.410    6.4595
   19.440    6.0383
   19.470    5.9856
   19.500    5.9329
   19.530    6.2489
   19.560    6.9510
   19.590    6.9861
   19.620    6.4069
   19.650    6.4244
   19.680    6.7755
   19.710    6.2313
   19.740    6.1436
   19.770    5.9329
   19.800    6.5649
   19.830    6.2840
   19.860    6.8633
   19.890    6.0734
   19.920    6.1787
   19.950    5.9856
   19.980    6.5649
   20.010    6.2489
   20.040    6.6351
   20.070    6.0207
   20.100    6.3191
   20.130    5.8978
   20.160    6.3893
   20.190    6.0207
   20.220    6.3718
   20.250    6.5473
   20.280    7.0037
   20.310    7.3723
   20.340    6.8984
   20.370    6.6351
   20.400    6.9510
   20.430    6.5298
   20.460    6.8457
   20.490    7.0563
   20.520    6.2138
   20.550    6.6877
   20.580    7.1968
   20.610    6.6175
   20.640    6.7755
   20.670    6.7755
   20.700    7.0388
   20.730    6.9861
   20.760    7.1968
   20.790    6.8808
   20.820    7.7234
   20.850    7.2670
   20.880    7.9164
   20.910    7.7936
   20.940    8.8117
   20.970    9.9526
   21.000   11.3569
   21.030   12.8664
   21.060   14.5340
   21.090   16.6403
   21.120   18.8169
   21.150   23.2403
   21.180   24.3110
   21.210   26.8913
   21.240   28.2254
   21.270   29.5068
   21.300   30.8057
   21.330   32.7892
   21.360   32.4381
   21.390   33.8073
   21.420   32.7014
   21.450   33.1578
   21.480   28.8222
   21.510   24.3988
   21.540   18.1850
   21.570   14.3584
   21.600   10.6372
   21.630    8.3728
   21.660    7.8287
   21.690    7.5303
   21.720    7.4952
   21.750    7.0037
   21.780    7.4250
   21.810    6.9335
   21.840    6.5649
   21.870    6.6702
   21.900    6.8106
   21.930    6.9510
   21.960    6.3542
   21.990    6.7053
   22.020    6.2138
   22.050    6.2138
   22.080    6.4946
   22.110    6.6526
   22.140    6.0558
   22.170    6.5824
   22.200    6.1611
   22.230    6.3893
   22.260    6.1611
   22.290    5.5643
   22.320    5.7750
   22.350    6.3191
   22.380    6.0734
   22.410    5.6345
   22.440    6.5824
   22.470    6.5649
   22.500    6.7930
   22.530    6.4595
   22.560    6.5649
   22.590    6.7053
   22.620    6.6000
   22.650    6.1260
   22.680    6.0734
   22.710    5.9681
   22.740    6.0558
   22.770    6.0207
   22.800    6.3367
   22.830    6.6175
   22.860    6.9159
   22.890    6.7579
   22.920    6.6877
   22.950    6.1962
   22.980    6.4771
   23.010    6.0734
   23.040    6.1962
   23.070    5.8803
   23.100    5.7750
   23.130    6.3191
   23.160    5.8452
   23.190    6.7930
   23.220    6.3542
   23.250    6.0558
   23.280    6.2489
   23.310    6.3718
   23.340    6.6351
   23.370    6.5824
   23.400    7.2494
   23.430    7.6005
   23.460    8.1797
   23.490    9.3031
   23.520   10.0579
   23.550   10.6021
   23.580   10.7249
   23.610   11.6553
   23.640   12.5329
   23.670   11.9537
   23.700   13.3579
   23.730   13.3579
   23.760   13.4983
   23.790   14.2180
   23.820   14.5164
   23.850   13.5334
   23.880   12.1643
   23.910   11.3393
   23.940    9.0925
   23.970    7.7058
   24.000    6.3718
   24.030    5.9329
   24.060    5.9329
   24.090    5.6170
   24.120    5.5819
   24.150    5.5292
   24.180    5.3712
   24.210    5.4941
   24.240    5.1080
   24.270    5.1255
   24.300    5.6697
   24.330    5.6170
   24.360    4.8095
   24.390    5.0202
   24.420    5.5117
   24.450    5.1255
   24.480    5.2308
   24.510    5.4590
   24.540    4.9851
   24.570    5.1431
   24.600    5.3010
   24.630    5.0728
   24.660    4.8798
   24.690    5.0026
   24.720    4.5638
   24.750    4.9500
   24.780    5.1431
   24.810    4.9324
   24.840    4.6165
   24.870    4.8622
   24.900    5.0728
   24.930    5.0553
   24.960    4.4409
   24.990    5.0377
   25.020    4.5814
   25.050    4.7744
   25.080    5.0728
   25.110    4.7569
   25.140    4.8973
   25.170    5.0377
   25.200    5.0553
   25.230    4.5638
   25.260    4.6691
   25.290    4.8798
   25.320    5.2484
   25.350    5.0202
   25.380    4.7569
   25.410    4.6867
   25.440    5.1782
   25.470    5.0377
   25.500    4.9149
   25.530    4.8798
   25.560    4.8798
   25.590    5.0728
   25.620    4.9500
   25.650    4.7744
   25.680    4.6165
   25.710    5.0553
   25.740    5.9505
   25.770    5.4766
   25.800    5.3712
   25.830    5.2308
   25.860    5.0026
   25.890    4.6516
   25.920    4.8271
   25.950    4.8447
   25.980    4.4234
   26.010    4.5287
   26.040    4.8271
   26.070    4.4936
   26.100    4.8447
   26.130    4.5814
   26.160    4.8447
   26.190    4.4936
   26.220    4.7744
   26.250    4.5638
   26.280    4.8447
   26.310    4.6867
   26.340    4.7042
   26.370    4.8798
   26.400    4.5463
   26.430    4.8271
   26.460    4.9851
   26.490    4.8447
   26.520    4.6516
   26.550    4.5814
   26.580    4.6165
   26.610    4.5463
   26.640    4.3532
   26.670    4.7393
   26.700    4.3532
   26.730    4.5989
   26.760    4.6516
   26.790    4.2654
   26.820    4.7393
   26.850    4.4234
   26.880    4.7744
   26.910    4.7218
   26.940    4.4409
   26.970    4.7744
   27.000    5.4941
   27.030    4.9500
   27.060    4.7920
   27.090    4.8622
   27.120    4.5814
   27.150    4.6165
   27.180    4.3532
   27.210    4.6867
   27.240    4.6340
   27.270    4.6516
   27.300    4.8622
   27.330    4.1601
   27.360    4.3883
   27.390    4.5814
   27.420    4.3181
   27.450    4.4409
   27.480    4.1425
   27.510    4.3707
   27.540    4.4936
   27.570    3.8968
   27.600    4.3532
   27.630    4.3356
   27.660    4.7218
   27.690    4.3532
   27.720    4.2654
   27.750    4.1074
   27.780    4.0021
   27.810    4.5287
   27.840    4.3707
   27.870    3.9319
   27.900    4.4409
   27.930    4.3181
   27.960    4.2478
   27.990    4.5638
   28.020    4.3356
   28.050    4.4234
   28.080    4.6340
   28.110    4.6691
   28.140    4.0548
   28.170    4.5814
   28.200    4.8447
   28.230    4.3532
   28.260    4.2830
   28.290    4.4234
   28.320    4.4409
   28.350    4.8271
   28.380    4.6516
   28.410    4.7920
   28.440    4.7569
   28.470    4.1425
   28.500    4.2478
   28.530    4.3005
   28.560    4.0548
   28.590    4.2303
   28.620    4.1425
   28.650    4.1425
   28.680    4.4058
   28.710    4.4234
   28.740    4.3883
   28.770    4.2127
   28.800    3.9319
   28.830    4.1425
   28.860    4.4234
   28.890    4.2478
   28.920    4.6867
   28.950    3.9670
   28.980    4.1601
   29.010    4.3532
   29.040    4.4409
   29.070    4.2830
   29.100    4.0548
   29.130    4.0372
   29.160    4.5989
   29.190    4.6691
   29.220    4.3356
   29.250    4.4760
   29.280    4.3883
   29.310    4.4058
   29.340    4.6867
   29.370    4.0197
   29.400    4.5111
   29.430    4.4760
   29.460    4.5814
   29.490    4.9149
   29.520    4.4409
   29.550    4.2478
   29.580    4.4058
   29.610    4.4409
   29.640    4.4760
   29.670    4.0899
   29.700    4.5814
   29.730    4.8447
   29.760    4.7042
   29.790    4.7218
   29.820    4.8973
   29.850    4.2478
   29.880    4.4234
   29.910    4.4936
   29.940    4.8271
   29.970    4.7393
   30.000    4.4585
   30.030    4.2303
   30.060    4.3181
   30.090    4.0899
   30.120    4.1601
   30.150    4.3532
   30.180    3.9670
   30.210    4.0197
   30.240    4.3707
   30.270    4.1952
   30.300    4.0021
   30.330    4.1601
   30.360    4.4760
   30.390    4.4760
   30.420    4.1250
   30.450    4.0548
   30.480    4.1776
   30.510    4.1074
   30.540    4.3005
   30.570    3.9319
   30.600    3.8266
   30.630    4.0548
   30.660    4.1776
   30.690    3.9319
   30.720    3.9494
   30.750    4.0899
   30.780    3.9846
   30.810    4.1425
   30.840    4.0021
   30.870    4.1074
   30.900    3.8617
   30.930    3.8617
   30.960    3.8968
   30.990    3.9670
   31.020    4.1952
   31.050    4.5287
   31.080    3.9494
   31.110    3.6510
   31.140    4.0197
   31.170    3.5457
   31.200    3.4580
   31.230    3.8441
   31.260    3.9143
   31.290    3.5282
   31.320    3.8792
   31.350    3.8968
   31.380    3.8441
   31.410    3.7915
   31.440    3.8968
   31.470    4.0021
   31.500    3.8968
   31.530    4.0548
   31.560    3.7915
   31.590    3.9846
   31.620    4.0197
   31.650    3.7037
   31.680    3.9846
   31.710    3.9494
   31.740    3.8441
   31.770    4.0197
   31.800    3.9494
   31.830    3.8441
   31.860    3.7213
   31.890    4.1250
   31.920    3.8792
   31.950    3.8617
   31.980    3.8617
   32.010    3.8617
   32.040    3.6335
   32.070    3.8090
   32.100    3.3877
   32.130    4.1952
   32.160    3.8968
   32.190    3.7388
   32.220    4.4760
   32.250    3.6686
   32.280    3.7388
   32.310    3.5457
   32.340    3.4931
   32.370    3.7388
   32.400    3.8441
   32.430    3.8090
   32.460    3.6335
   32.490    3.6335
   32.520    4.0021
   32.550    2.9314
   32.580    3.7739
   32.610    3.1420
   32.640    3.9319
   32.670    3.5106
   32.700    4.0197
   32.730    3.7564
   32.760    3.8617
   32.790    3.5633
   32.820    3.3702
   32.850    3.9494
   32.880    3.7564
   32.910    3.7213
   32.940    3.6686
   32.970    3.3702
   33.000    3.5106
   33.030    3.6862
   33.060    3.9143
   33.090    3.4931
   33.120    4.2303
   33.150    3.5106
   33.180    3.7739
   33.210    3.3000
   33.240    3.5106
   33.270    3.2298
   33.300    3.7213
   33.330    3.5106
   33.360    3.3877
   33.390    3.6159
   33.420    3.1596
   33.450    3.8441
   33.480    3.3526
   33.510    3.1771
   33.540    3.5457
   33.570    3.4053
   33.600    3.2824
   33.630    3.6510
   33.660    3.8090
   33.690    3.9670
   33.720    3.4404
   33.750    3.5633
   33.780    3.4404
   33.810    3.4404
   33.840    3.4580
   33.870    3.4229
   33.900    3.6159
   33.930    3.5282
   33.960    3.2298
   33.990    3.5282
   34.020    3.2473
   34.050    3.5106
   34.080    3.2122
   34.110    3.3702
   34.140    3.2649
   34.170    3.0718
   34.200    3.8441
   34.230    3.5633
   34.260    3.0893
   34.290    3.3175
   34.320    3.1771
   34.350    3.4229
   34.380    3.4053
   34.410    3.3175
   34.440    3.3175
   34.470    3.4404
   34.500    3.3000
   34.530    3.4229
   34.560    3.2473
   34.590    3.2122
   34.620    3.4931
   34.650    3.4931
   34.680    3.4404
   34.710    3.3351
   34.740    3.3877
   34.770    3.4755
   34.800    3.2824
   34.830    3.4931
   34.860    3.1245
   34.890    3.2649
   34.920    3.4053
   34.950    3.2649
   34.980    3.1245
   35.010    3.4229
   35.040    3.4931
   35.070    3.8617
   35.100    3.3877
   35.130    2.8612
   35.160    3.4229
   35.190    3.3000
   35.220    3.3175
   35.250    3.4404
   35.280    3.0893
   35.310    3.5106
   35.340    3.0367
   35.370    3.3526
   35.400    3.1947
   35.430    3.5633
   35.460    3.2298
   35.490    3.2473
   35.520    3.4053
   35.550    3.2298
   35.580    3.5106
   35.610    3.1947
   35.640    3.5282
   35.670    3.3702
   35.700    3.4580
   35.730    3.8792
   35.760    3.5984
   35.790    3.7213
   35.820    3.8968
   35.850    3.5633
   35.880    3.5984
   35.910    3.5633
   35.940    3.6159
   35.970    3.9846
   36.000    4.4760
   36.030    4.4760
   36.060    3.7739
   36.090    4.1425
   36.120    3.9846
   36.150    4.1074
   36.180    4.0021
   36.210    3.9494
   36.240    4.0197
   36.270    4.0021
   36.300    3.6686
   36.330    3.8266
   36.360    3.5457
   36.390    3.4404
   36.420    3.3877
   36.450    3.1245
   36.480    3.2473
   36.510    3.4404
   36.540    2.9314
   36.570    3.2649
   36.600    3.3351
   36.630    2.6681
   36.660    3.3702
   36.690    3.1069
   36.720    2.7734
   36.750    3.2824
   36.780    3.1245
   36.810    3.2824
   36.840    2.6330
   36.870    2.7383
   36.900    3.2298
   36.930    3.1069
   36.960    2.8260
   36.990    3.1069
   37.020    3.3000
   37.050    3.2298
   37.080    2.6681
   37.110    2.6505
   37.140    3.1596
   37.170    3.1947
   37.200    3.0367
   37.230    2.9138
   37.260    2.9840
   37.290    2.9665
   37.320    3.1420
   37.350    3.1245
   37.380    3.0367
   37.410    3.1596
   37.440    2.6505
   37.470    3.0718
   37.500    2.6856
   37.530    3.3175
   37.560    3.5633
   37.590    2.8085
   37.620    2.7909
   37.650    3.3000
   37.680    3.0893
   37.710    2.9489
   37.740    2.9138
   37.770    3.0016
   37.800    3.0016
   37.830    3.0367
   37.860    2.7734
   37.890    2.7032
   37.920    3.4229
   37.950    3.1947
   37.980    3.1420
   38.010    3.2122
   38.040    3.0718
   38.070    2.9840
   38.100    3.1069
   38.130    3.1771
   38.160    3.0016
   38.190    3.0542
   38.220    2.9665
   38.250    3.0542
   38.280    3.3351
   38.310    3.3175
   38.340    3.3526
   38.370    3.4229
   38.400    3.0191
   38.430    3.0191
   38.460    2.7207
   38.490    3.2649
   38.520    2.9138
   38.550    3.0893
   38.580    2.8436
   38.610    2.7558
   38.640    3.1069
   38.670    3.1069
   38.700    3.2824
   38.730    2.8260
   38.760    2.6856
   38.790    2.6505
   38.820    2.8963
   38.850    2.8963
   38.880    2.8963
   38.910    2.9840
   38.940    2.7558
   38.970    3.1420
   39.000    3.0718
   39.030    2.7383
   39.060    3.0016
   39.090    3.1245
   39.120    2.9665
   39.150    2.8787
   39.180    3.0191
   39.210    3.0367
   39.240    3.0718
   39.270    2.9489
   39.300    3.1771
   39.330    3.0191
   39.360    2.9138
   39.390    3.1947
   39.420    2.9314
   39.450    3.1245
   39.480    2.9138
   39.510    3.2473
   39.540    3.0542
   39.570    3.3000
   39.600    2.9489
   39.630    3.0367
   39.660    3.0542
   39.690    2.8612
   39.720    2.9489
   39.750    3.0893
   39.780    2.9840
   39.810    2.7909
   39.840    2.7558
   39.870    2.7909
   39.900    3.0367
   39.930    3.4404
   39.960    3.1596
   39.990    3.1420