File: data/MOCOF-1/PXRD/PXRD_KE-306_Cu-Ka1_capillary-1mm_48s-deg.xyd
    1.500    4.0657
    1.530    4.0712
    1.560    4.0142
    1.590    4.0449
    1.620    4.0251
    1.650    4.0504
    1.680    4.0010
    1.710    3.9857
    1.740    3.9440
    1.770    4.0197
    1.800    4.0800
    1.830    3.9637
    1.860    3.9780
    1.890    4.0251
    1.920    4.0262
    1.950    3.9681
    1.980    3.9955
    2.010    3.9747
    2.040    4.0723
    2.070    3.9056
    2.100    3.9462
    2.130    4.1107
    2.160    4.0438
    2.190    4.1140
    2.220    4.0306
    2.250    3.9878
    2.280    3.9593
    2.310    4.1074
    2.340    3.9494
    2.370    3.9121
    2.400    3.9648
    2.430    3.9363
    2.460    3.8112
    2.490    3.9791
    2.520    3.9703
    2.550    4.0394
    2.580    3.9615
    2.610    3.9176
    2.640    3.9714
    2.670    3.9999
    2.700    4.0131
    2.730    4.0712
    2.760    3.9078
    2.790    3.9900
    2.820    3.9802
    2.850    3.9571
    2.880    3.9813
    2.910    3.9198
    2.940    3.9429
    2.970    3.9385
    3.000    3.9363
    3.030    3.9878
    3.060    3.9878
    3.090    3.9922
    3.120    3.9889
    3.150    4.0109
    3.180    3.9110
    3.210    3.8211
    3.240    3.9846
    3.270    4.0043
    3.300    3.9538
    3.330    3.9626
    3.360    3.9045
    3.390    3.9154
    3.420    3.9330
    3.450    4.0844
    3.480    3.9143
    3.510    3.9209
    3.540    3.9571
    3.570    3.9824
    3.600    3.9505
    3.630    3.9385
    3.660    3.9341
    3.690    4.0372
    3.720    3.9758
    3.750    3.9056
    3.780    3.9374
    3.810    3.8990
    3.840    3.8079
    3.870    3.9440
    3.900    4.0087
    3.930    3.9593
    3.960    3.9286
    3.990    3.9791
    4.020    3.8902
    4.050    4.0482
    4.080    3.8672
    4.110    3.9626
    4.140    3.9988
    4.170    4.0120
    4.200    3.9473
    4.230    3.8584
    4.260    3.9045
    4.290    3.9341
    4.320    3.9484
    4.350    3.9451
    4.380    3.8880
    4.410    3.9440
    4.440    3.9780
    4.470    3.9319
    4.500    4.0032
    4.530    4.0460
    4.560    3.9440
    4.590    3.9527
    4.620    3.9681
    4.650    4.0043
    4.680    3.8825
    4.710    3.9297
    4.740    4.0032
    4.770    3.9791
    4.800    4.0613
    4.830    3.9813
    4.860    3.9714
    4.890    3.8748
    4.920    4.0076
    4.950    3.8299
    4.980    3.9977
    5.010    3.9045
    5.040    3.9999
    5.070    3.9220
    5.100    4.0690
    5.130    3.9911
    5.160    3.8386
    5.190    3.9922
    5.220    4.0624
    5.250    3.9988
    5.280    4.0635
    5.310    3.9725
    5.340    4.0219
    5.370    4.0043
    5.400    3.9780
    5.430    3.9867
    5.460    3.9418
    5.490    3.9527
    5.520    3.9110
    5.550    4.0230
    5.580    3.9462
    5.610    3.9319
    5.640    3.9220
    5.670    4.0306
    5.700    3.9900
    5.730    4.0690
    5.760    3.9977
    5.790    3.9988
    5.820    3.9505
    5.850    4.0394
    5.880    4.0306
    5.910    4.0350
    5.940    4.0515
    5.970    3.9374
    6.000    4.0493
    6.030    3.9758
    6.060    3.9143
    6.090    4.0668
    6.120    4.0273
    6.150    4.0438
    6.180    4.0186
    6.210    4.1019
    6.240    3.9604
    6.270    3.9933
    6.300    4.0076
    6.330    4.0778
    6.360    3.9911
    6.390    4.0295
    6.420    4.1096
    6.450    3.9988
    6.480    4.1392
    6.510    4.0065
    6.540    4.0449
    6.570    4.0767
    6.600    3.9999
    6.630    4.1458
    6.660    4.0405
    6.690    4.0592
    6.720    4.0712
    6.750    4.1096
    6.780    4.0997
    6.810    4.1305
    6.840    4.1535
    6.870    4.0559
    6.900    4.1228
    6.930    4.0822
    6.960    4.0789
    6.990    4.1447
    7.020    4.1974
    7.050    4.1162
    7.080    4.1963
    7.110    4.1316
    7.140    4.1776
    7.170    4.1436
    7.200    4.0723
    7.230    4.2380
    7.260    4.1809
    7.290    4.0976
    7.320    4.0219
    7.350    4.1370
    7.380    4.1645
    7.410    4.1820
    7.440    4.0438
    7.470    4.0701
    7.500    4.1656
    7.530    4.2116
    7.560    4.1162
    7.590    4.1798
    7.620    4.2435
    7.650    4.2654
    7.680    4.1897
    7.710    4.1425
    7.740    4.1436
    7.770    4.2544
    7.800    4.2127
    7.830    4.2511
    7.860    4.1667
    7.890    4.2522
    7.920    4.2095
    7.950    4.0416
    7.980    4.1612
    8.010    4.2632
    8.040    4.1722
    8.070    4.1809
    8.100    4.3027
    8.130    4.2841
    8.160    4.2797
    8.190    4.2665
    8.220    4.2862
    8.250    4.2446
    8.280    4.2281
    8.310    4.2413
    8.340    4.3203
    8.370    4.3971
    8.400    4.3608
    8.430    4.2983
    8.460    4.2928
    8.490    4.3916
    8.520    4.3674
    8.550    4.2522
    8.580    4.2051
    8.610    4.3477
    8.640    4.3378
    8.670    4.3641
    8.700    4.4464
    8.730    4.3784
    8.760    4.3981
    8.790    4.4596
    8.820    4.4256
    8.850    4.4442
    8.880    4.2950
    8.910    4.3532
    8.940    4.3773
    8.970    4.3510
    9.000    4.4969
    9.030    4.3861
    9.060    4.5221
    9.090    4.4387
    9.120    4.4804
    9.150    4.4673
    9.180    4.5781
    9.210    4.4815
    9.240    4.5035
    9.270    4.4629
    9.300    4.5550
    9.330    4.5210
    9.360    4.4486
    9.390    4.5254
    9.420    4.4398
    9.450    4.6110
    9.480    4.5484
    9.510    4.5441
    9.540    4.5177
    9.570    4.5792
    9.600    4.5814
    9.630    4.6000
    9.660    4.6450
    9.690    4.5320
    9.720    4.6955
    9.750    4.6165
    9.780    4.7382
    9.810    4.6077
    9.840    4.7349
    9.870    4.6691
    9.900    4.6285
    9.930    4.7262
    9.960    4.6209
    9.990    4.6603
   10.020    4.7547
   10.050    4.6955
   10.080    4.8293
   10.110    4.7075
   10.140    4.8249
   10.170    4.6757
   10.200    4.8315
   10.230    4.6856
   10.260    4.7646
   10.290    4.8271
   10.320    4.7514
   10.350    4.7119
   10.380    4.8655
   10.410    4.9489
   10.440    4.9379
   10.470    4.8458
   10.500    4.7613
   10.530    4.8721
   10.560    4.9313
   10.590    4.8183
   10.620    4.8809
   10.650    4.7788
   10.680    4.9116
   10.710    5.0081
   10.740    4.8885
   10.770    5.0553
   10.800    4.9280
   10.830    4.8710
   10.860    4.9609
   10.890    4.9851
   10.920    5.0937
   10.950    5.0849
   10.980    5.0805
   11.010    4.8973
   11.040    5.0037
   11.070    5.1562
   11.100    5.0344
   11.130    5.0674
   11.160    5.0268
   11.190    5.1101
   11.220    5.0619
   11.250    5.1431
   11.280    5.0717
   11.310    5.1244
   11.340    5.0981
   11.370    5.2341
   11.400    5.2100
   11.430    5.1672
   11.460    5.2352
   11.490    5.2122
   11.520    5.2758
   11.550    5.2824
   11.580    5.2550
   11.610    5.2144
   11.640    5.3098
   11.670    5.1354
   11.700    5.3734
   11.730    5.3537
   11.760    5.4349
   11.790    5.3877
   11.820    5.4985
   11.850    5.5435
   11.880    5.4305
   11.910    5.5336
   11.940    5.3734
   11.970    5.4031
   12.000    5.2725
   12.030    5.5325
   12.060    5.4568
   12.090    5.4831
   12.120    5.5128
   12.150    5.5874
   12.180    5.6225
   12.210    5.6411
   12.240    5.6038
   12.270    5.6784
   12.300    5.7048
   12.330    5.7212
   12.360    5.7958
   12.390    5.6477
   12.420    5.8616
   12.450    5.8101
   12.480    5.7311
   12.510    5.8463
   12.540    5.9187
   12.570    5.8605
   12.600    5.8891
   12.630    6.0032
   12.660    5.9033
   12.690    5.9516
   12.720    5.8529
   12.750    6.0196
   12.780    6.0811
   12.810    6.0953
   12.840    5.9768
   12.870    6.0361
   12.900    6.1644
   12.930    6.2072
   12.960    6.1370
   12.990    6.1842
   13.020    6.1787
   13.050    6.3312
   13.080    6.1798
   13.110    6.2796
   13.140    6.3356
   13.170    6.4047
   13.200    6.3641
   13.230    6.4091
   13.260    6.3784
   13.290    6.6131
   13.320    6.5177
   13.350    6.4683
   13.380    6.5232
   13.410    6.6406
   13.440    6.7184
   13.470    6.5813
   13.500    6.6757
   13.530    6.7064
   13.560    6.7645
   13.590    6.8336
   13.620    6.8457
   13.650    6.8940
   13.680    6.9521
   13.710    6.9960
   13.740    7.1233
   13.770    6.9598
   13.800    7.0936
   13.830    7.0706
   13.860    7.1375
   13.890    7.2023
   13.920    7.1671
   13.950    7.1551
   13.980    7.2977
   14.010    7.3482
   14.040    7.3679
   14.070    7.4326
   14.100    7.4754
   14.130    7.5094
   14.160    7.6411
   14.190    7.7365
   14.220    7.8177
   14.250    7.7815
   14.280    7.9647
   14.310    7.7343
   14.340    8.0152
   14.370    7.9680
   14.400    8.0360
   14.430    8.0251
   14.460    8.1929
   14.490    8.1216
   14.520    8.1962
   14.550    8.2258
   14.580    8.2280
   14.610    8.2982
   14.640    8.6965
   14.670    8.4419
   14.700    8.4595
   14.730    8.6065
   14.760    8.7480
   14.790    8.7140
   14.820    8.7250
   14.850    8.8885
   14.880    8.9334
   14.910    8.9093
   14.940    9.1133
   14.970    9.0782
   15.000    9.2812
   15.030    9.3415
   15.060    9.4929
   15.090    9.4534
   15.120    9.3953
   15.150    9.6696
   15.180    9.6696
   15.210    9.6630
   15.240    9.8637
   15.270    9.9987
   15.300    9.9449
   15.330   10.2049
   15.360   10.3519
   15.390   10.2411
   15.420   10.3914
   15.450   10.4682
   15.480   10.5154
   15.510   10.7458
   15.540   10.7249
   15.570   10.8445
   15.600   10.9860
   15.630   11.0958
   15.660   11.3843
   15.690   11.3810
   15.720   11.3974
   15.750   11.5225
   15.780   11.4161
   15.810   11.7364
   15.840   11.8023
   15.870   12.0601
   15.900   12.0403
   15.930   12.1972
   15.960   12.3058
   15.990   12.5055
   16.020   12.6240
   16.050   12.6459
   16.080   12.8906
   16.110   12.9125
   16.140   12.9619
   16.170   13.1758
   16.200   13.5236
   16.230   13.3744
   16.260   13.7726
   16.290   13.9799
   16.320   13.9547
   16.350   14.0699
   16.380   14.2816
   16.410   14.2421
   16.440   14.6426
   16.470   14.7578
   16.500   15.0024
   16.530   15.0979
   16.560   15.3688
   16.590   15.2789
   16.620   15.3129
   16.650   15.7374
   16.680   15.7221
   16.710   16.1467
   16.740   16.2706
   16.770   16.4286
   16.800   16.6349
   16.830   16.8565
   16.860   17.0539
   16.890   17.2119
   16.920   17.5059
   16.950   17.4697
   16.980   18.0029
   17.010   18.2794
   17.040   18.0391
   17.070   18.3869
   17.100   18.6754
   17.130   18.7961
   17.160   19.2097
   17.190   19.1844
   17.220   19.5037
   17.250   19.6222
   17.280   19.8372
   17.310   20.1455
   17.340   20.4395
   17.370   20.4998
   17.400   20.9299
   17.430   20.8882
   17.460   21.3544
   17.490   21.6463
   17.520   21.9820
   17.550   21.9589
   17.580   22.2387
   17.610   22.5371
   17.640   22.8201
   17.670   22.9145
   17.700   23.4180
   17.730   23.6956
   17.760   23.7987
   17.790   24.2244
   17.820   24.2299
   17.850   24.2759
   17.880   24.8058
   17.910   25.1646
   17.940   24.8563
   17.970   25.3840
   18.000   25.6824
   18.030   25.7065
   18.060   26.0960
   18.090   26.5194
   18.120   26.3702
   18.150   26.8837
   18.180   26.9945
   18.210   26.9034
   18.240   27.2007
   18.270   27.8228
   18.300   27.9149
   18.330   27.9226
   18.360   28.1376
   18.390   28.3110
   18.420   28.4613
   18.450   28.4634
   18.480   29.1447
   18.510   28.9484
   18.540   28.8474
   18.570   29.0131
   18.600   29.3257
   18.630   29.3729
   18.660   29.5287
   18.690   29.4596
   18.720   29.5825
   18.750   29.6285
   18.780   29.5967
   18.810   30.0059
   18.840   30.0301
   18.870   29.9982
   18.900   29.8962
   18.930   29.9390
   18.960   29.8776
   18.990   29.8885
   19.020   30.0509
   19.050   30.1069
   19.080   29.6450
   19.110   29.8907
   19.140   29.8545
   19.170   29.8458
   19.200   29.6889
   19.230   29.6538
   19.260   29.6176
   19.290   29.0142
   19.320   29.3115
   19.350   29.1524
   19.380   29.0756
   19.410   28.8869
   19.440   28.7926
   19.470   28.4075
   19.500   28.6280
   19.530   28.5205
   19.560   27.7975
   19.590   27.8293
   19.620   27.8359
   19.650   27.4366
   19.680   27.1799
   19.710   27.2128
   19.740   26.8113
   19.770   26.4712
   19.800   26.3187
   19.830   26.3648
   19.860   25.7339
   19.890   25.9424
   19.920   25.6286
   19.950   25.2370
   19.980   24.9287
   20.010   24.8760
   20.040   24.7115
   20.070   24.1761
   20.100   23.9753
   20.130   23.9896
   20.160   23.5519
   20.190   23.3741
   20.220   23.0066
   20.250   22.9946
   20.280   22.7258
   20.310   22.3341
   20.340   22.2771
   20.370   21.8986
   20.400   21.6825
   20.430   21.4663
   20.460   21.1438
   20.490   21.1328
   20.520   20.8586
   20.550   20.4417
   20.580   20.3649
   20.610   20.1137
   20.640   19.9041
   20.670   19.8174
   20.700   19.4104
   20.730   19.1888
   20.760   18.8443
   20.790   18.9420
   20.820   18.6995
   20.850   18.3507
   20.880   18.3573
   20.910   18.1664
   20.940   17.6288
   20.970   17.6826
   21.000   17.5992
   21.030   17.1680
   21.060   17.1252
   21.090   16.9409
   21.120   16.7314
   21.150   16.6030
   21.180   16.1017
   21.210   16.0677
   21.240   16.0633
   21.270   15.6497
   21.300   15.5630
   21.330   15.4928
   21.360   15.3831
   21.390   15.2284
   21.420   14.9783
   21.450   14.7139
   21.480   14.6162
   21.510   14.4528
   21.540   14.4023
   21.570   14.3826
   21.600   14.0688
   21.630   13.8988
   21.660   13.7572
   21.690   13.5828
   21.720   13.6058
   21.750   13.4314
   21.780   13.3294
   21.810   13.2065
   21.840   12.9794
   21.870   12.7216
   21.900   12.7249
   21.930   12.5274
   21.960   12.5702
   21.990   12.4956
   22.020   12.2927
   22.050   12.1698
   22.080   12.1358
   22.110   12.1522
   22.140   11.8253
   22.170   11.7299
   22.200   11.8977
   22.230   11.5456
   22.260   11.6553
   22.290   11.3185
   22.320   11.0837
   22.350   11.0672
   22.380   11.2395
   22.410   11.0047
   22.440   10.9345
   22.470   11.0069
   22.500   10.7546
   22.530   10.7568
   22.560   10.6712
   22.590   10.4671
   22.620   10.4024
   22.650   10.4309
   22.680   10.1852
   22.710   10.0689
   22.740   10.0086
   22.770    9.9570
   22.800    9.9449
   22.830    9.8659
   22.860    9.8253
   22.890    9.8934
   22.920    9.5445
   22.950    9.4172
   22.980    9.6004
   23.010    9.3119
   23.040    9.3273
   23.070    9.3328
   23.100    9.3679
   23.130    9.3393
   23.160    9.0815
   23.190    9.2856
   23.220    9.2461
   23.250    8.9170
   23.280    9.0058
   23.310    8.9192
   23.340    8.7952
   23.370    8.9148
   23.400    8.8215
   23.430    8.8446
   23.460    8.5571
   23.490    8.6504
   23.520    8.6273
   23.550    8.5736
   23.580    8.3805
   23.610    8.3059
   23.640    8.4968
   23.670    8.3257
   23.700    8.1216
   23.730    8.2302
   23.760    8.0744
   23.790    8.2620
   23.820    7.9943
   23.850    8.0613
   23.880    8.0997
   23.910    8.0569
   23.940    7.9307
   23.970    7.8704
   24.000    7.8517
   24.030    7.8100
   24.060    7.8155
   24.090    7.7091
   24.120    7.6246
   24.150    7.6191
   24.180    7.6455
   24.210    7.5105
   24.240    7.4513
   24.270    7.4985
   24.300    7.5061
   24.330    7.5994
   24.360    7.4315
   24.390    7.4754
   24.420    7.2396
   24.450    7.3569
   24.480    7.2593
   24.510    7.3460
   24.540    7.1145
   24.570    7.2363
   24.600    7.1474
   24.630    7.1891
   24.660    7.0706
   24.690    7.0333
   24.720    7.1035
   24.750    7.1090
   24.780    7.0695
   24.810    7.0081
   24.840    6.9817
   24.870    7.0695
   24.900    6.8973
   24.930    6.9609
   24.960    6.8391
   24.990    6.8611
   25.020    6.8128
   25.050    6.8764
   25.080    7.0081
   25.110    6.8216
   25.140    6.7634
   25.170    6.6493
   25.200    6.6065
   25.230    6.6537
   25.260    6.5506
   25.290    6.6976
   25.320    6.5890
   25.350    6.5769
   25.380    6.5298
   25.410    6.6120
   25.440    6.7448
   25.470    6.5210
   25.500    6.5308
   25.530    6.4661
   25.560    6.3959
   25.590    6.4299
   25.620    6.4552
   25.650    6.3981
   25.680    6.3027
   25.710    6.4233
   25.740    6.3125
   25.770    6.2906
   25.800    6.4003
   25.830    6.3838
   25.860    6.4409
   25.890    6.2292
   25.920    6.2654
   25.950    6.1732
   25.980    6.2632
   26.010    6.2401
   26.040    6.1546
   26.070    6.2467
   26.100    6.2423
   26.130    6.2017
   26.160    6.2204
   26.190    6.2226
   26.220    6.1162
   26.250    6.1798
   26.280    6.0811
   26.310    6.1919
   26.340    6.1194
   26.370    6.0438
   26.400    6.0679
   26.430    5.9966
   26.460    6.0525
   26.490    5.9889
   26.520    6.0174
   26.550    5.9220
   26.580    5.9527
   26.610    5.8474
   26.640    6.0043
   26.670    5.8562
   26.700    5.9593
   26.730    5.8627
   26.760    5.9417
   26.790    5.8463
   26.820    5.9637
   26.850    5.8024
   26.880    5.8737
   26.910    5.8199
   26.940    5.8254
   26.970    5.7936
   27.000    5.8660
   27.030    5.8397
   27.060    5.9702
   27.090    5.7377
   27.120    5.8397
   27.150    5.7037
   27.180    5.7530
   27.210    5.6960
   27.240    5.6894
   27.270    5.8397
   27.300    5.6433
   27.330    5.8397
   27.360    5.7059
   27.390    5.5983
   27.420    5.6609
   27.450    5.6795
   27.480    5.6510
   27.510    5.6729
   27.540    5.5534
   27.570    5.4206
   27.600    5.7146
   27.630    5.6159
   27.660    5.6740
   27.690    5.5929
   27.720    5.5885
   27.750    5.5347
   27.780    5.6422
   27.810    5.5490
   27.840    5.5863
   27.870    5.5808
   27.900    5.6016
   27.930    5.5062
   27.960    5.5062
   27.990    5.4996
   28.020    5.5128
   28.050    5.4601
   28.080    5.5402
   28.110    5.5018
   28.140    5.5292
   28.170    5.5084
   28.200    5.4634
   28.230    5.4941
   28.260    5.4085
   28.290    5.4667
   28.320    5.4020
   28.350    5.4744
   28.380    5.3855
   28.410    5.4996
   28.440    5.5183
   28.470    5.5874
   28.500    5.4327
   28.530    5.4415
   28.560    5.4821
   28.590    5.3581
   28.620    5.4360
   28.650    5.3910
   28.680    5.2681
   28.710    5.4305
   28.740    5.3504
   28.770    5.4075
   28.800    5.3702
   28.830    5.3976
   28.860    5.5545
   28.890    5.4217
   28.920    5.3339
   28.950    5.4118
   28.980    5.2934
   29.010    5.3702
   29.040    5.3998
   29.070    5.3537
   29.100    5.3822
   29.130    5.2890
   29.160    5.3219
   29.190    5.1924
   29.220    5.2484
   29.250    5.3219
   29.280    5.2923
   29.310    5.3987
   29.340    5.2857
   29.370    5.2626
   29.400    5.2407
   29.430    5.2506
   29.460    5.3427
   29.490    5.3307
   29.520    5.3877
   29.550    5.2879
   29.580    5.3998
   29.610    5.2604
   29.640    5.2593
   29.670    5.2988
   29.700    5.3054
   29.730    5.2934
   29.760    5.3230
   29.790    5.2977
   29.820    5.2539
   29.850    5.2056
   29.880    5.2670
   29.910    5.2297
   29.940    5.2374
   29.970    5.2879
   30.000    5.3318
   30.030    5.2451
   30.060    5.3164
   30.090    5.3021
   30.120    5.2253
   30.150    5.2133
   30.180    5.1442
   30.210    5.1266
   30.240    5.1968
   30.270    5.3043
   30.300    5.2089
   30.330    5.2341
   30.360    5.2462
   30.390    5.2396
   30.420    5.1595
   30.450    5.1738
   30.480    5.0761
   30.510    5.2912
   30.540    5.2341
   30.570    5.1683
   30.600    5.2166
   30.630    5.1178
   30.660    5.0498
   30.690    5.0926
   30.720    5.1167
   30.750    5.1453
   30.780    5.1738
   30.810    5.1058
   30.840    5.1672
   30.870    5.1178
   30.900    5.2144
   30.930    5.1343
   30.960    5.0674
   30.990    5.2418
   31.020    5.2242
   31.050    5.1299
   31.080    4.9829
   31.110    5.1705
   31.140    5.2407
   31.170    5.1935
   31.200    5.1935
   31.230    5.1760
   31.260    5.1584
   31.290    5.1793
   31.320    5.2242
   31.350    5.0608
   31.380    5.2188
   31.410    5.2297
   31.440    5.1014
   31.470    5.0443
   31.500    5.1869
   31.530    5.0465
   31.560    5.1321
   31.590    5.1891
   31.620    5.1946
   31.650    5.1946
   31.680    5.2199
   31.710    5.2231
   31.740    5.1431
   31.770    5.1299
   31.800    5.0268
   31.830    5.0575
   31.860    5.0465
   31.890    5.1244
   31.920    5.0937
   31.950    5.2133
   31.980    5.1485
   32.010    5.1321
   32.040    5.1244
   32.070    5.1562
   32.100    5.1463
   32.130    5.1365
   32.160    5.0498
   32.190    5.0992
   32.220    4.9544
   32.250    5.1584
   32.280    5.0344
   32.310    5.1167
   32.340    5.1255
   32.370    5.1047
   32.400    5.0761
   32.430    5.0948
   32.460    5.0334
   32.490    5.0334
   32.520    4.9324
   32.550    5.0509
   32.580    4.9982
   32.610    5.0739
   32.640    4.9939
   32.670    5.1332
   32.700    5.0553
   32.730    5.0235
   32.760    5.0312
   32.790    5.0015
   32.820    5.0059
   32.850    4.9675
   32.880    5.0772
   32.910    4.9840
   32.940    5.0674
   32.970    4.9445
   33.000    5.0048
   33.030    5.0147
   33.060    4.9708
   33.090    4.9939
   33.120    4.9478
   33.150    5.0147
   33.180    4.9895
   33.210    5.0114
   33.240    4.9730
   33.270    4.9116
   33.300    4.9544
   33.330    4.9269
   33.360    4.9434
   33.390    4.9533
   33.420    4.9533
   33.450    4.8820
   33.480    4.8743
   33.510    4.9730
   33.540    5.0004
   33.570    4.9324
   33.600    4.8633
   33.630    4.8150
   33.660    5.0268
   33.690    4.8798
   33.720    4.8534
   33.750    4.8973
   33.780    5.0202
   33.810    4.9971
   33.840    4.9335
   33.870    4.9609
   33.900    4.9236
   33.930    4.7799
   33.960    4.8841
   33.990    4.8205
   34.020    4.8095
   34.050    4.8106
   34.080    4.9017
   34.110    4.8743
   34.140    4.8885
   34.170    4.7744
   34.200    4.9050
   34.230    4.9072
   34.260    4.7887
   34.290    4.8008
   34.320    4.8940
   34.350    4.7986
   34.380    4.8885
   34.410    4.8095
   34.440    4.8611
   34.470    4.8052
   34.500    4.8041
   34.530    4.7668
   34.560    4.8787
   34.590    4.9138
   34.620    4.7690
   34.650    4.6724
   34.680    4.8172
   34.710    4.7273
   34.740    4.6944
   34.770    4.7920
   34.800    4.6713
   34.830    4.6625
   34.860    4.7240
   34.890    4.7722
   34.920    4.8161
   34.950    4.7152
   34.980    4.6538
   35.010    4.8183
   35.040    4.6406
   35.070    4.7591
   35.100    4.6472
   35.130    4.7141
   35.160    4.6614
   35.190    4.7053
   35.220    4.7492
   35.250    4.6658
   35.280    4.6702
   35.310    4.6724
   35.340    4.7382
   35.370    4.6603
   35.400    4.6571
   35.430    4.7788
   35.460    4.5649
   35.490    4.6801
   35.520    4.6362
   35.550    4.6022
   35.580    4.5989
   35.610    4.6187
   35.640    4.6252
   35.670    4.6274
   35.700    4.6669
   35.730    4.6033
   35.760    4.6395
   35.790    4.6823
   35.820    4.4892
   35.850    4.6022
   35.880    4.6285
   35.910    4.5934
   35.940    4.5792
   35.970    4.5737
   36.000    4.6406
   36.030    4.4629
   36.060    4.5945
   36.090    4.5265
   36.120    4.4420
   36.150    4.5539
   36.180    4.5320
   36.210    4.5594
   36.240    4.6417
   36.270    4.4409
   36.300    4.5473
   36.330    4.4684
   36.360    4.5912
   36.390    4.6165
   36.420    4.4881
   36.450    4.5210
   36.480    4.5199
   36.510    4.5473
   36.540    4.4771
   36.570    4.4190
   36.600    4.5386
   36.630    4.4267
   36.660    4.4925
   36.690    4.5825
   36.720    4.4717
   36.750    4.5068
   36.780    4.4333
   36.810    4.5495
   36.840    4.3696
   36.870    4.3740
   36.900    4.5057
   36.930    4.4409
   36.960    4.4409
   36.990    4.4892
   37.020    4.3619
   37.050    4.4289
   37.080    4.4815
   37.110    4.4102
   37.140    4.3367
   37.170    4.3981
   37.200    4.3203
   37.230    4.3740
   37.260    4.4574
   37.290    4.3521
   37.320    4.3630
   37.350    4.4091
   37.380    4.2906
   37.410    4.3312
   37.440    4.3499
   37.470    4.3115
   37.500    4.3159
   37.530    4.2709
   37.560    4.3005
   37.590    4.2621
   37.620    4.3038
   37.650    4.3279
   37.680    4.3685
   37.710    4.3159
   37.740    4.3268
   37.770    4.2687
   37.800    4.3411
   37.830    4.3762
   37.860    4.3027
   37.890    4.3301
   37.920    4.2961
   37.950    4.2413
   37.980    4.2226
   38.010    4.2873
   38.040    4.2182
   38.070    4.2555
   38.100    4.1787
   38.130    4.2676
   38.160    4.1996
   38.190    4.2808
   38.220    4.1129
   38.250    4.1129
   38.280    4.2632
   38.310    4.1546
   38.340    4.2610
   38.370    4.3104
   38.400    4.2709
   38.430    4.2095
   38.460    4.2830
   38.490    4.3082
   38.520    4.1612
   38.550    4.1700
   38.580    4.1919
   38.610    4.2259
   38.640    4.1623
   38.670    4.2391
   38.700    4.2544
   38.730    4.2095
   38.760    4.1491
   38.790    4.2095
   38.820    4.1173
   38.850    4.1875
   38.880    4.1765
   38.910    4.1272
   38.940    4.1524
   38.970    4.1173
   39.000    4.0822
   39.030    4.1667
   39.060    4.1129
   39.090    4.1645
   39.120    4.1239
   39.150    4.1447
   39.180    4.1469
   39.210    4.0679
   39.240    4.0350
   39.270    4.1063
   39.300    4.0976
   39.330    4.1118
   39.360    4.1711
   39.390    4.0076
   39.420    4.0273
   39.450    4.1041
   39.480    4.0427
   39.510    4.0943
   39.540    3.9440
   39.570    4.0240
   39.600    4.1338
   39.630    4.0548
   39.660    4.0822
   39.690    3.9615
   39.720    4.0251
   39.750    4.0197
   39.780    3.9835
   39.810    3.9955
   39.840    3.9484
   39.870    4.0613
   39.900    4.0087
   39.930    4.0273
   39.960    3.9571
   39.990    4.0240