File: data/MOCOF-1/PXRD/PXRD_KE-041_Cu-Ka1_capillary-1mm_5s-deg.xyd
    1.500    5.6714
    1.530    5.6819
    1.560    5.6293
    1.590    5.8347
    1.620    5.6398
    1.650    5.7978
    1.680    5.9452
    1.710    5.3555
    1.740    5.4818
    1.770    5.6135
    1.800    5.3555
    1.830    5.4450
    1.860    5.4134
    1.890    5.6293
    1.920    5.3555
    1.950    5.6767
    1.980    5.7978
    2.010    5.4081
    2.040    5.4397
    2.070    5.5977
    2.100    5.7399
    2.130    5.5503
    2.160    5.5240
    2.190    5.5766
    2.220    5.9031
    2.250    5.7715
    2.280    5.7925
    2.310    5.9663
    2.340    5.9294
    2.370    5.9716
    2.400    6.2349
    2.430    6.1032
    2.460    6.2191
    2.490    6.5403
    2.520    6.4666
    2.550    6.3612
    2.580    6.4297
    2.610    6.5245
    2.640    7.0563
    2.670    6.8352
    2.700    6.7457
    2.730    6.8668
    2.760    6.8562
    2.790    7.0563
    2.820    7.1090
    2.850    7.3670
    2.880    7.7146
    2.910    7.5829
    2.940    7.7830
    2.970    8.3412
    3.000    8.2201
    3.030    8.4308
    3.060    8.2833
    3.090    8.4413
    3.120    9.0258
    3.150    9.0521
    3.180    9.2101
    3.210    9.4523
    3.240    9.9526
    3.270   10.1369
    3.300   10.7530
    3.330   10.8899
    3.360   10.8004
    3.390   11.6956
    3.420   11.8009
    3.450   12.5961
    3.480   12.4803
    3.510   12.1064
    3.540   11.0585
    3.570   10.3107
    3.600    9.8315
    3.630    9.1943
    3.660    8.7520
    3.690    8.5519
    3.720    8.3360
    3.750    8.4887
    3.780    8.1780
    3.810    8.4992
    3.840    8.5045
    3.870    8.1043
    3.900    7.8304
    3.930    7.6251
    3.960    7.3196
    3.990    7.3828
    4.020    6.8984
    4.050    6.6772
    4.080    6.3876
    4.110    6.1506
    4.140    6.0821
    4.170    5.5187
    4.200    5.6240
    4.230    5.2923
    4.260    5.5398
    4.290    5.3449
    4.320    5.0079
    4.350    5.2343
    4.380    5.5240
    4.410    5.0869
    4.440    5.0606
    4.470    4.9078
    4.500    4.9184
    4.530    5.0395
    4.560    4.7130
    4.590    5.0237
    4.620    4.7288
    4.650    4.7235
    4.680    4.7815
    4.710    4.9500
    4.740    4.6761
    4.770    4.8341
    4.800    4.2917
    4.830    4.6551
    4.860    4.6288
    4.890    4.3760
    4.920    4.4550
    4.950    4.4339
    4.980    4.3549
    5.010    4.4708
    5.040    4.4918
    5.070    4.2549
    5.100    4.1759
    5.130    4.1864
    5.160    4.3233
    5.190    4.4444
    5.220    4.1969
    5.250    4.3760
    5.280    4.1285
    5.310    4.2707
    5.340    4.2654
    5.370    4.1969
    5.400    4.2180
    5.430    4.0284
    5.460    4.2759
    5.490    4.4339
    5.520    4.2127
    5.550    3.9494
    5.580    4.1338
    5.610    4.1074
    5.640    4.0706
    5.670    4.0548
    5.700    4.2022
    5.730    4.0179
    5.760    3.9336
    5.790    4.1654
    5.820    4.1285
    5.850    4.1706
    5.880    4.2127
    5.910    3.9810
    5.940    4.1232
    5.970    4.0021
    6.000    4.0232
    6.030    4.1127
    6.060    3.9547
    6.090    4.0390
    6.120    4.0390
    6.150    4.1232
    6.180    4.1969
    6.210    4.3075
    6.240    3.9652
    6.270    4.0600
    6.300    4.4128
    6.330    4.1232
    6.360    4.0284
    6.390    4.2549
    6.420    3.9336
    6.450    4.1864
    6.480    4.1285
    6.510    4.2180
    6.540    4.1864
    6.570    4.3075
    6.600    4.2970
    6.630    4.5234
    6.660    4.5603
    6.690    4.5182
    6.720    4.5129
    6.750    4.5076
    6.780    4.7077
    6.810    4.8236
    6.840    5.0342
    6.870    5.0342
    6.900    5.0237
    6.930    5.2133
    6.960    5.3870
    6.990    5.3133
    7.020    5.3239
    7.050    4.9605
    7.080    4.7920
    7.110    4.7446
    7.140    4.6235
    7.170    4.4655
    7.200    4.5761
    7.230    4.5076
    7.260    4.3497
    7.290    4.6182
    7.320    4.3444
    7.350    4.3707
    7.380    4.8815
    7.410    4.5076
    7.440    4.5498
    7.470    4.5234
    7.500    4.4286
    7.530    4.6182
    7.560    4.5972
    7.590    4.5656
    7.620    4.5392
    7.650    4.6867
    7.680    5.0869
    7.710    4.9710
    7.740    5.0448
    7.770    4.9605
    7.800    5.0132
    7.830    4.9921
    7.860    5.1080
    7.890    4.9342
    7.920    4.9921
    7.950    4.6867
    7.980    4.8131
    8.010    4.8341
    8.040    4.9184
    8.070    4.6761
    8.100    4.5656
    8.130    4.6235
    8.160    4.3760
    8.190    4.2443
    8.220    4.2075
    8.250    4.2233
    8.280    4.1390
    8.310    3.9916
    8.340    4.1443
    8.370    3.7809
    8.400    4.1654
    8.430    3.9810
    8.460    3.8547
    8.490    3.8020
    8.520    4.0179
    8.550    4.0969
    8.580    3.8915
    8.610    4.0179
    8.640    3.9705
    8.670    3.8810
    8.700    4.1285
    8.730    3.9916
    8.760    3.9126
    8.790    3.9336
    8.820    3.9863
    8.850    3.7072
    8.880    3.7967
    8.910    4.1601
    8.940    3.8494
    8.970    4.0179
    9.000    3.9336
    9.030    3.8968
    9.060    4.0548
    9.090    3.8073
    9.120    3.7757
    9.150    3.8863
    9.180    3.8863
    9.210    3.9442
    9.240    4.0916
    9.270    3.9284
    9.300    3.7757
    9.330    3.9021
    9.360    3.8020
    9.390    3.9547
    9.420    4.1548
    9.450    4.0126
    9.480    3.6335
    9.510    3.7283
    9.540    3.8073
    9.570    3.7809
    9.600    3.8073
    9.630    3.7388
    9.660    3.8547
    9.690    3.8441
    9.720    3.7283
    9.750    3.8863
    9.780    3.9179
    9.810    3.9442
    9.840    3.9442
    9.870    3.6072
    9.900    3.8178
    9.930    3.7335
    9.960    3.7388
    9.990    3.8336
   10.020    3.7388
   10.050    3.4913
   10.080    3.5545
   10.110    3.7125
   10.140    3.7125
   10.170    3.7809
   10.200    3.9810
   10.230    3.8652
   10.260    3.6862
   10.290    3.7177
   10.320    3.8757
   10.350    3.8336
   10.380    3.8652
   10.410    3.7862
   10.440    3.8441
   10.470    3.9968
   10.500    3.7599
   10.530    3.7704
   10.560    3.7388
   10.590    3.7125
   10.620    3.7599
   10.650    3.5808
   10.680    4.0021
   10.710    3.7915
   10.740    3.8705
   10.770    3.7967
   10.800    3.9231
   10.830    3.5808
   10.860    3.5545
   10.890    3.8073
   10.920    3.7125
   10.950    3.6967
   10.980    3.5756
   11.010    3.8652
   11.040    3.6177
   11.070    3.9968
   11.100    3.8073
   11.130    3.7125
   11.160    3.6862
   11.190    3.8336
   11.220    3.6493
   11.250    3.5914
   11.280    3.6546
   11.310    3.6598
   11.340    3.8441
   11.370    3.7546
   11.400    3.7915
   11.430    3.6388
   11.460    3.5282
   11.490    3.4808
   11.520    3.6914
   11.550    3.8652
   11.580    3.5176
   11.610    3.7704
   11.640    3.8020
   11.670    3.9968
   11.700    3.7809
   11.730    3.7125
   11.760    3.7388
   11.790    3.8020
   11.820    3.7335
   11.850    3.8547
   11.880    3.8231
   11.910    3.7651
   11.940    3.7072
   11.970    3.5598
   12.000    3.6493
   12.030    3.8494
   12.060    3.9284
   12.090    3.6651
   12.120    3.7599
   12.150    3.9758
   12.180    3.6651
   12.210    3.7230
   12.240    3.7967
   12.270    3.7335
   12.300    3.5861
   12.330    3.5861
   12.360    3.5808
   12.390    3.6704
   12.420    3.7757
   12.450    3.6335
   12.480    3.5966
   12.510    3.4808
   12.540    3.6651
   12.570    3.4439
   12.600    3.7125
   12.630    3.6493
   12.660    3.6809
   12.690    3.6651
   12.720    3.6072
   12.750    3.6230
   12.780    3.8125
   12.810    3.7599
   12.840    3.7230
   12.870    3.6651
   12.900    3.7441
   12.930    3.7125
   12.960    3.9073
   12.990    3.7125
   13.020    3.3913
   13.050    3.5703
   13.080    3.7809
   13.110    3.4439
   13.140    3.6914
   13.170    3.9126
   13.200    3.5756
   13.230    3.5966
   13.260    3.6177
   13.290    3.8231
   13.320    3.6335
   13.350    3.5545
   13.380    3.5071
   13.410    3.4018
   13.440    3.6704
   13.470    3.5018
   13.500    3.5756
   13.530    3.6019
   13.560    3.7230
   13.590    3.3439
   13.620    3.4281
   13.650    3.8757
   13.680    3.4018
   13.710    3.3913
   13.740    3.5966
   13.770    3.7019
   13.800    3.8441
   13.830    3.5861
   13.860    3.6493
   13.890    3.5650
   13.920    3.6177
   13.950    3.5229
   13.980    3.5756
   14.010    3.7230
   14.040    3.7862
   14.070    3.4018
   14.100    3.5492
   14.130    3.7019
   14.160    3.6072
   14.190    3.6756
   14.220    3.6651
   14.250    3.5808
   14.280    3.6651
   14.310    3.6546
   14.340    3.5387
   14.370    3.4334
   14.400    3.4597
   14.430    3.5966
   14.460    3.7546
   14.490    3.7125
   14.520    3.6440
   14.550    3.7546
   14.580    3.5914
   14.610    3.6282
   14.640    3.6388
   14.670    3.4913
   14.700    3.6704
   14.730    3.5808
   14.760    3.5492
   14.790    3.6072
   14.820    3.5650
   14.850    3.6282
   14.880    3.6177
   14.910    3.5598
   14.940    3.8336
   14.970    3.6124
   15.000    3.6546
   15.030    3.5598
   15.060    3.6914
   15.090    3.6177
   15.120    3.5808
   15.150    3.6335
   15.180    3.5808
   15.210    3.6598
   15.240    3.5387
   15.270    3.5071
   15.300    3.3123
   15.330    3.8494
   15.360    3.8441
   15.390    3.5808
   15.420    3.6704
   15.450    3.6967
   15.480    3.6177
   15.510    3.6493
   15.540    3.5492
   15.570    3.6335
   15.600    3.8020
   15.630    3.6177
   15.660    3.5492
   15.690    3.5703
   15.720    3.5124
   15.750    3.7177
   15.780    3.7283
   15.810    3.4808
   15.840    3.7967
   15.870    3.7704
   15.900    3.5440
   15.930    3.6598
   15.960    3.4913
   15.990    3.5756
   16.020    3.6335
   16.050    3.5176
   16.080    3.4492
   16.110    3.6704
   16.140    3.6072
   16.170    3.6598
   16.200    3.3965
   16.230    3.6230
   16.260    3.6493
   16.290    3.7072
   16.320    3.5229
   16.350    3.8441
   16.380    3.6019
   16.410    3.5545
   16.440    3.6809
   16.470    3.5229
   16.500    3.5545
   16.530    3.5387
   16.560    3.6756
   16.590    3.7493
   16.620    3.6230
   16.650    3.5914
   16.680    3.7388
   16.710    3.7493
   16.740    3.6177
   16.770    3.6546
   16.800    3.3597
   16.830    3.4387
   16.860    3.5440
   16.890    3.7072
   16.920    3.4913
   16.950    3.6651
   16.980    3.5966
   17.010    3.6704
   17.040    3.6967
   17.070    3.4334
   17.100    3.8073
   17.130    3.6598
   17.160    3.7757
   17.190    3.7441
   17.220    3.7967
   17.250    3.8283
   17.280    3.5229
   17.310    3.8020
   17.340    3.8389
   17.370    3.9126
   17.400    3.9705
   17.430    3.7599
   17.460    3.6809
   17.490    3.8599
   17.520    3.7809
   17.550    3.9442
   17.580    3.9916
   17.610    3.9389
   17.640    4.1022
   17.670    4.0074
   17.700    4.3918
   17.730    4.2707
   17.760    4.2549
   17.790    4.1022
   17.820    4.4023
   17.850    4.5392
   17.880    4.4023
   17.910    4.8131
   17.940    4.8657
   17.970    4.7762
   18.000    4.7393
   18.030    4.5550
   18.060    4.8131
   18.090    4.4760
   18.120    4.4076
   18.150    4.1548
   18.180    4.1390
   18.210    3.7651
   18.240    3.9758
   18.270    3.8389
   18.300    3.7019
   18.330    3.6809
   18.360    3.9600
   18.390    3.7546
   18.420    3.6651
   18.450    3.7546
   18.480    3.7230
   18.510    3.7177
   18.540    3.9389
   18.570    3.7388
   18.600    3.7967
   18.630    3.8968
   18.660    3.9810
   18.690    3.5282
   18.720    3.8125
   18.750    3.8547
   18.780    3.9442
   18.810    3.8599
   18.840    3.9073
   18.870    3.7809
   18.900    3.7809
   18.930    3.6809
   18.960    3.7335
   18.990    3.6440
   19.020    3.8652
   19.050    3.6282
   19.080    3.7915
   19.110    3.8073
   19.140    3.7704
   19.170    3.5492
   19.200    3.7546
   19.230    3.6862
   19.260    3.6756
   19.290    3.8073
   19.320    3.8336
   19.350    3.6440
   19.380    3.7546
   19.410    3.5176
   19.440    3.9073
   19.470    3.5756
   19.500    3.7177
   19.530    3.8494
   19.560    3.7125
   19.590    3.7862
   19.620    3.8178
   19.650    3.9336
   19.680    3.8231
   19.710    3.9073
   19.740    3.4755
   19.770    3.9021
   19.800    3.8125
   19.830    3.8652
   19.860    3.7546
   19.890    3.8810
   19.920    3.8283
   19.950    3.7915
   19.980    3.8494
   20.010    4.0337
   20.040    3.7704
   20.070    3.9442
   20.100    3.7019
   20.130    3.6440
   20.160    3.8599
   20.190    3.7599
   20.220    3.8389
   20.250    3.9810
   20.280    3.7072
   20.310    3.9336
   20.340    3.9126
   20.370    3.9442
   20.400    3.9442
   20.430    3.8863
   20.460    3.8757
   20.490    3.8915
   20.520    3.8073
   20.550    3.7177
   20.580    3.9073
   20.610    3.9336
   20.640    3.8705
   20.670    3.9284
   20.700    3.8705
   20.730    3.9547
   20.760    3.7599
   20.790    3.7651
   20.820    3.8863
   20.850    3.6546
   20.880    3.8757
   20.910    3.6862
   20.940    4.0179
   20.970    3.8705
   21.000    3.9231
   21.030    3.8020
   21.060    3.9494
   21.090    4.0758
   21.120    3.8441
   21.150    3.8810
   21.180    3.8599
   21.210    4.0969
   21.240    4.0390
   21.270    3.9021
   21.300    3.8125
   21.330    4.0284
   21.360    3.6704
   21.390    3.7757
   21.420    3.8283
   21.450    3.8178
   21.480    3.8073
   21.510    3.8863
   21.540    3.9179
   21.570    3.7177
   21.600    3.8915
   21.630    3.8652
   21.660    4.1180
   21.690    4.0706
   21.720    3.6756
   21.750    3.7177
   21.780    4.0390
   21.810    3.8757
   21.840    4.2233
   21.870    3.8757
   21.900    3.9442
   21.930    3.9442
   21.960    3.9547
   21.990    3.9810
   22.020    3.8231
   22.050    4.0653
   22.080    3.9652
   22.110    4.0074
   22.140    3.9284
   22.170    3.9021
   22.200    3.9652
   22.230    4.0232
   22.260    3.8599
   22.290    3.9494
   22.320    3.9547
   22.350    3.8283
   22.380    4.0548
   22.410    4.0495
   22.440    4.0074
   22.470    4.2496
   22.500    3.9547
   22.530    3.8915
   22.560    3.8441
   22.590    3.6282
   22.620    3.9968
   22.650    4.1074
   22.680    3.7072
   22.710    3.7335
   22.740    3.9600
   22.770    3.9494
   22.800    4.0916
   22.830    4.0074
   22.860    3.9968
   22.890    3.9073
   22.920    3.7441
   22.950    3.8231
   22.980    3.9705
   23.010    3.8863
   23.040    3.8073
   23.070    3.8283
   23.100    3.8599
   23.130    3.7441
   23.160    4.0653
   23.190    3.9126
   23.220    4.0390
   23.250    3.7862
   23.280    3.8073
   23.310    3.8283
   23.340    3.7072
   23.370    3.8968
   23.400    3.8389
   23.430    3.9389
   23.460    3.9652
   23.490    3.6756
   23.520    3.8231
   23.550    3.7704
   23.580    3.8652
   23.610    3.8494
   23.640    3.7599
   23.670    3.7704
   23.700    3.9126
   23.730    3.7809
   23.760    3.7704
   23.790    3.9073
   23.820    3.8652
   23.850    3.8125
   23.880    3.9389
   23.910    3.8336
   23.940    3.6862
   23.970    3.9073
   24.000    3.6967
   24.030    3.6230
   24.060    3.8494
   24.090    3.9863
   24.120    3.9968
   24.150    3.7862
   24.180    3.9073
   24.210    3.7335
   24.240    3.8020
   24.270    3.8178
   24.300    3.8389
   24.330    3.8915
   24.360    3.7704
   24.390    3.6809
   24.420    3.7757
   24.450    3.6967
   24.480    3.8389
   24.510    3.8020
   24.540    3.6230
   24.570    3.6230
   24.600    3.7283
   24.630    3.7283
   24.660    3.6230
   24.690    3.6914
   24.720    3.7125
   24.750    3.5966
   24.780    3.7862
   24.810    3.6809
   24.840    3.7441
   24.870    3.7388
   24.900    3.7072
   24.930    3.5545
   24.960    3.6546
   24.990    3.6967
   25.020    3.6967
   25.050    3.7915
   25.080    3.7915
   25.110    3.5229
   25.140    3.6335
   25.170    3.6019
   25.200    3.7757
   25.230    3.5124
   25.260    3.6756
   25.290    3.5176
   25.320    3.6177
   25.350    3.6124
   25.380    3.6809
   25.410    3.5914
   25.440    3.5703
   25.470    3.4860
   25.500    3.5334
   25.530    3.6440
   25.560    3.4334
   25.590    3.7230
   25.620    3.7230
   25.650    3.4071
   25.680    3.5492
   25.710    3.7283
   25.740    3.6282
   25.770    3.4808
   25.800    3.5598
   25.830    3.4597
   25.860    3.5545
   25.890    3.5861
   25.920    3.3755
   25.950    3.5334
   25.980    3.4966
   26.010    3.5440
   26.040    3.4387
   26.070    3.4702
   26.100    3.7177
   26.130    3.3913
   26.160    3.5914
   26.190    3.5440
   26.220    3.4860
   26.250    3.4176
   26.280    3.5914
   26.310    3.3807
   26.340    3.3175
   26.370    3.4387
   26.400    3.5334
   26.430    3.2965
   26.460    3.5440
   26.490    3.3544
   26.520    3.4281
   26.550    3.5282
   26.580    3.2965
   26.610    3.3281
   26.640    3.2807
   26.670    3.4755
   26.700    3.6230
   26.730    3.5756
   26.760    3.3913
   26.790    3.4387
   26.820    3.4755
   26.850    3.4071
   26.880    3.4018
   26.910    3.3386
   26.940    3.1490
   26.970    3.3702
   27.000    3.7388
   27.030    3.4439
   27.060    3.5018
   27.090    3.4176
   27.120    3.3702
   27.150    3.4913
   27.180    3.1859
   27.210    3.4860
   27.240    3.4966
   27.270    3.2701
   27.300    3.2175
   27.330    3.3491
   27.360    3.5756
   27.390    3.3333
   27.420    3.2385
   27.450    3.4018
   27.480    3.2649
   27.510    3.3491
   27.540    3.4439
   27.570    3.4229
   27.600    3.3597
   27.630    3.3807
   27.660    3.3175
   27.690    3.6651
   27.720    3.2965
   27.750    3.3807
   27.780    3.3281
   27.810    3.3544
   27.840    3.3491
   27.870    3.2175
   27.900    3.3965
   27.930    3.3070
   27.960    3.2754
   27.990    3.3544
   28.020    3.3070
   28.050    3.4808
   28.080    3.3386
   28.110    3.1859
   28.140    3.2912
   28.170    3.1385
   28.200    3.2385
   28.230    3.4597
   28.260    3.3281
   28.290    3.3123
   28.320    3.2385
   28.350    3.3281
   28.380    3.0174
   28.410    3.2070
   28.440    3.1701
   28.470    3.2227
   28.500    3.1964
   28.530    3.1332
   28.560    3.1754
   28.590    3.2122
   28.620    3.4018
   28.650    3.3913
   28.680    3.2965
   28.710    3.1543
   28.740    3.4071
   28.770    3.1596
   28.800    3.3333
   28.830    3.2385
   28.860    3.2175
   28.890    3.2649
   28.920    3.3175
   28.950    3.1069
   28.980    3.2491
   29.010    3.2596
   29.040    3.2385
   29.070    3.3070
   29.100    3.0753
   29.130    3.1490
   29.160    2.9700
   29.190    3.1964
   29.220    2.9805
   29.250    3.0648
   29.280    3.1859
   29.310    3.2912
   29.340    3.3491
   29.370    3.1701
   29.400    3.0121
   29.430    3.0753
   29.460    3.1543
   29.490    3.0911
   29.520    3.0648
   29.550    3.3175
   29.580    3.1543
   29.610    2.9384
   29.640    3.1227
   29.670    3.0964
   29.700    3.0858
   29.730    3.1648
   29.760    3.2438
   29.790    2.9700
   29.820    3.0542
   29.850    3.0753
   29.880    2.8541
   29.910    3.0174
   29.940    2.9963
   29.970    3.1490
   30.000    3.0964
   30.030    2.9226
   30.060    2.9173
   30.090    3.1227
   30.120    3.0121
   30.150    3.2807
   30.180    3.0595
   30.210    3.0542
   30.240    3.2227
   30.270    3.1490
   30.300    2.9226
   30.330    3.2227
   30.360    3.0332
   30.390    3.2965
   30.420    2.9542
   30.450    3.0279
   30.480    3.0753
   30.510    2.9963
   30.540    3.1596
   30.570    2.8436
   30.600    2.9384
   30.630    3.0753
   30.660    2.9753
   30.690    2.9647
   30.720    2.9121
   30.750    3.1122
   30.780    3.0542
   30.810    2.8752
   30.840    2.9595
   30.870    2.9384
   30.900    2.9542
   30.930    2.8805
   30.960    2.9068
   30.990    3.0858
   31.020    2.9910
   31.050    2.8647
   31.080    2.8383
   31.110    2.9015
   31.140    3.0437
   31.170    3.0016
   31.200    2.9858
   31.230    3.0332
   31.260    2.8805
   31.290    2.9963
   31.320    3.0068
   31.350    2.8963
   31.380    2.8278
   31.410    2.9595
   31.440    3.0490
   31.470    3.0595
   31.500    3.1438
   31.530    2.9963
   31.560    3.0437
   31.590    2.8857
   31.620    2.8963
   31.650    2.9173
   31.680    2.8857
   31.710    2.9331
   31.740    2.7804
   31.770    2.7699
   31.800    2.8436
   31.830    2.9226
   31.860    2.8594
   31.890    2.7330
   31.920    2.6066
   31.950    2.8225
   31.980    2.8120
   32.010    2.7541
   32.040    2.8067
   32.070    2.9226
   32.100    2.8436
   32.130    2.9068
   32.160    2.7067
   32.190    2.6224
   32.220    2.8910
   32.250    2.8910
   32.280    2.8120
   32.310    2.6962
   32.340    2.8278
   32.370    2.6646
   32.400    2.5592
   32.430    2.8699
   32.460    2.8541
   32.490    2.7067
   32.520    2.7330
   32.550    2.7488
   32.580    2.7593
   32.610    2.8173
   32.640    2.6488
   32.670    2.6646
   32.700    2.8383
   32.730    2.6540
   32.760    2.8857
   32.790    2.6488
   32.820    2.6856
   32.850    2.6909
   32.880    2.5698
   32.910    2.6909
   32.940    2.6119
   32.970    2.7172
   33.000    2.6014
   33.030    2.6593
   33.060    2.6435
   33.090    2.5487
   33.120    2.7435
   33.150    2.5066
   33.180    2.7383
   33.210    2.5487
   33.240    2.4539
   33.270    2.7593
   33.300    2.5224
   33.330    2.5487
   33.360    2.5224
   33.390    2.3591
   33.420    2.3802
   33.450    2.5856
   33.480    2.4961
   33.510    2.4276
   33.540    2.5961
   33.570    2.5645
   33.600    2.6014
   33.630    2.5013
   33.660    2.6382
   33.690    2.6277
   33.720    2.4171
   33.750    2.5013
   33.780    2.5013
   33.810    2.3907
   33.840    2.5803
   33.870    2.5276
   33.900    2.6066
   33.930    2.5382
   33.960    2.5118
   33.990    2.6751
   34.020    2.3433
   34.050    2.5118
   34.080    2.4487
   34.110    2.5013
   34.140    2.5434
   34.170    2.5750
   34.200    2.5592
   34.230    2.4750
   34.260    2.5013
   34.290    2.4434
   34.320    2.3644
   34.350    2.4329
   34.380    2.4697
   34.410    2.2380
   34.440    2.4592
   34.470    2.3749
   34.500    2.4329
   34.530    2.5329
   34.560    2.4118
   34.590    2.3328
   34.620    2.3855
   34.650    2.2696
   34.680    2.5645
   34.710    2.3539
   34.740    2.4276
   34.770    2.4750
   34.800    2.4013
   34.830    2.3170
   34.860    2.3012
   34.890    2.4013
   34.920    2.3065
   34.950    2.3644
   34.980    2.4171
   35.010    2.3802
   35.040    2.4065
   35.070    2.4171
   35.100    2.3433
   35.130    2.3591
   35.160    2.2538
   35.190    2.1959
   35.220    2.2222
   35.250    2.3749
   35.280    2.4118
   35.310    2.3644
   35.340    2.3539
   35.370    2.5171
   35.400    2.4118
   35.430    2.2275
   35.460    2.3539
   35.490    2.3960
   35.520    2.2170
   35.550    2.1643
   35.580    2.3486
   35.610    2.1327
   35.640    2.3065
   35.670    2.3381
   35.700    2.2591
   35.730    2.2117
   35.760    2.3065
   35.790    2.3328
   35.820    2.1854
   35.850    2.2064
   35.880    2.2854
   35.910    2.1169
   35.940    2.3328
   35.970    2.2064
   36.000    2.1590
   36.030    2.2117
   36.060    2.0642
   36.090    2.0537
   36.120    2.2696
   36.150    2.1432
   36.180    2.2328
   36.210    2.1327
   36.240    2.1959
   36.270    2.2749
   36.300    2.2170
   36.330    2.2222
   36.360    2.1485
   36.390    2.3802
   36.420    2.2222
   36.450    2.2591
   36.480    2.0853
   36.510    2.1696
   36.540    2.2064
   36.570    2.2538
   36.600    2.2486
   36.630    2.2012
   36.660    2.1643
   36.690    2.1801
   36.720    2.1116
   36.750    2.0906
   36.780    2.1485
   36.810    2.3275
   36.840    2.0011
   36.870    2.2801
   36.900    2.1485
   36.930    2.0853
   36.960    2.2170
   36.990    2.0537
   37.020    2.2591
   37.050    2.1590
   37.080    2.1485
   37.110    2.0695
   37.140    2.0379
   37.170    2.1590
   37.200    2.2170
   37.230    2.0274
   37.260    2.0853
   37.290    2.1169
   37.320    2.0800
   37.350    2.1485
   37.380    2.1064
   37.410    2.1906
   37.440    2.0484
   37.470    2.1590
   37.500    1.8115
   37.530    2.1380
   37.560    2.0958
   37.590    2.0853
   37.620    2.0958
   37.650    2.0695
   37.680    2.0958
   37.710    2.1064
   37.740    2.0432
   37.770    2.0800
   37.800    1.8747
   37.830    2.0537
   37.860    2.0116
   37.890    2.0326
   37.920    1.9853
   37.950    2.1643
   37.980    2.0484
   38.010    2.0274
   38.040    2.1274
   38.070    2.0958
   38.100    1.9695
   38.130    2.0642
   38.160    2.0274
   38.190    2.0063
   38.220    2.2801
   38.250    2.1380
   38.280    2.0274
   38.310    1.7746
   38.340    1.9695
   38.370    1.9905
   38.400    1.9642
   38.430    1.8536
   38.460    2.0116
   38.490    1.8483
   38.520    2.0695
   38.550    2.0063
   38.580    2.1274
   38.610    2.0063
   38.640    1.9958
   38.670    1.9747
   38.700    1.9905
   38.730    2.0063
   38.760    2.2801
   38.790    1.9326
   38.820    2.0326
   38.850    2.0326
   38.880    1.9379
   38.910    2.0432
   38.940    2.1222
   38.970    2.0484
   39.000    1.9800
   39.030    1.9273
   39.060    1.8273
   39.090    2.0169
   39.120    1.9221
   39.150    1.9010
   39.180    2.0853
   39.210    2.0537
   39.240    1.9537
   39.270    2.0642
   39.300    2.0169
   39.330    2.0169
   39.360    1.8325
   39.390    1.9747
   39.420    1.8167
   39.450    2.0906
   39.480    1.8641
   39.510    2.1011
   39.540    1.9853
   39.570    1.9589
   39.600    1.8220
   39.630    2.1222
   39.660    2.0800
   39.690    1.8694
   39.720    2.0800
   39.750    2.0432
   39.780    1.9695
   39.810    1.8641
   39.840    2.0484
   39.870    1.9800
   39.900    1.9273
   39.930    1.9431
   39.960    1.9326
   39.990    2.0274