File: data/MOCOF-1/PXRD/PXRD_KE-174_Cu-Ka1_capillary-1mm_5s-deg.xyd
    1.500   27.9621
    1.530   27.2986
    1.560   26.8668
    1.590   26.1295
    1.620   25.0974
    1.650   24.6235
    1.680   25.4871
    1.710   23.9916
    1.740   23.8968
    1.770   22.6962
    1.800   22.2538
    1.830   22.0432
    1.860   22.2433
    1.890   21.6430
    1.920   21.0953
    1.950   21.5903
    1.980   20.8952
    2.010   20.9689
    2.040   20.2949
    2.070   21.7272
    2.100   20.9689
    2.130   21.4218
    2.160   20.6003
    2.190   20.6424
    2.220   21.2112
    2.250   20.7899
    2.280   22.1064
    2.310   21.3481
    2.340   21.1901
    2.370   22.2538
    2.400   22.6646
    2.430   22.3381
    2.460   23.4018
    2.490   23.5176
    2.520   24.5392
    2.550   24.2127
    2.580   25.3818
    2.610   25.8662
    2.640   25.9610
    2.670   28.0253
    2.700   28.7309
    2.730   30.6266
    2.760   30.0579
    2.790   31.4376
    2.820   32.4592
    2.850   33.5861
    2.880   34.4076
    2.910   37.4513
    2.940   38.8626
    2.970   41.3586
    3.000   44.3075
    3.030   45.8452
    3.060   48.8362
    3.090   52.1432
    3.120   55.4186
    3.150   59.0837
    3.180   62.8963
    3.210   68.8257
    3.240   75.1132
    3.270   81.1585
    3.300   90.0263
    3.330   98.8731
    3.360  109.8157
    3.390  124.7815
    3.420  136.2823
    3.450  146.0032
    3.480  143.2438
    3.510  127.8357
    3.540  104.6235
    3.570   81.2638
    3.600   65.8241
    3.630   58.8731
    3.660   54.6393
    3.690   52.1222
    3.720   51.9642
    3.750   52.7330
    3.780   54.7657
    3.810   54.8394
    3.840   55.4186
    3.870   57.8515
    3.900   58.0727
    3.930   59.4945
    3.960   58.9363
    3.990   58.7994
    4.020   55.3449
    4.050   54.8921
    4.080   51.7536
    4.110   47.8568
    4.140   43.2438
    4.170   40.3370
    4.200   35.7030
    4.230   33.9337
    4.260   30.1001
    4.290   26.8246
    4.320   23.5492
    4.350   20.9163
    4.380   19.5471
    4.410   17.6409
    4.440   15.8610
    4.470   14.8183
    4.500   14.1864
    4.530   12.7962
    4.560   12.6066
    4.590   11.5429
    4.620   10.7214
    4.650   10.5951
    4.680   10.2791
    4.710   10.2370
    4.740    9.6367
    4.770    9.3207
    4.800    8.8046
    4.830    8.5203
    4.860    8.7941
    4.890    8.5835
    4.920    8.3518
    4.950    8.1833
    4.980    8.2886
    5.010    8.0990
    5.040    7.9621
    5.070    7.6356
    5.100    8.0569
    5.130    7.5092
    5.160    7.6040
    5.190    7.7725
    5.220    7.6672
    5.250    7.3407
    5.280    7.1617
    5.310    7.5619
    5.340    7.2249
    5.370    7.4039
    5.400    7.0669
    5.430    7.0353
    5.460    7.2565
    5.490    6.7930
    5.520    6.8773
    5.550    7.0353
    5.580    6.7720
    5.610    6.8457
    5.640    7.0563
    5.670    6.9616
    5.700    6.5192
    5.730    6.4982
    5.760    6.8878
    5.790    6.7193
    5.820    6.6667
    5.850    6.8457
    5.880    6.9616
    5.910    7.0142
    5.940    6.8457
    5.970    6.8773
    6.000    6.7299
    6.030    6.9721
    6.060    6.5719
    6.090    6.8246
    6.120    6.6561
    6.150    6.7930
    6.180    6.7720
    6.210    6.8457
    6.240    6.8773
    6.270    6.6140
    6.300    6.9405
    6.330    7.1301
    6.360    7.2038
    6.390    7.4776
    6.420    7.0142
    6.450    7.7093
    6.480    7.7514
    6.510    7.8568
    6.540    8.1833
    6.570    8.0674
    6.600    8.8257
    6.630    8.8362
    6.660    8.9310
    6.690    9.6788
    6.720   10.1632
    6.750   10.8478
    6.780   11.3217
    6.810   12.9437
    6.840   13.5018
    6.870   14.8815
    6.900   16.8720
    6.930   17.3460
    6.960   18.3044
    6.990   17.6303
    7.020   16.1032
    7.050   13.9231
    7.080   11.7536
    7.110   10.1422
    7.140    9.3839
    7.170    9.1838
    7.200    8.4676
    7.230    8.2464
    7.260    7.8252
    7.290    8.0042
    7.320    7.5619
    7.350    7.8568
    7.380    8.1306
    7.410    7.4882
    7.440    8.0674
    7.470    7.8989
    7.500    8.0253
    7.530    7.8357
    7.560    7.9094
    7.590    8.1306
    7.620    8.4466
    7.650    8.0674
    7.680    8.7625
    7.710    9.3312
    7.740    9.0679
    7.770    9.2575
    7.800    9.1206
    7.830    9.9210
    7.860    9.6051
    7.890    9.8052
    7.920   10.0474
    7.950   10.1527
    7.980    9.8789
    8.010   10.0579
    8.040    9.9315
    8.070    9.8684
    8.100   10.0053
    8.130   10.5213
    8.160    9.8473
    8.190    9.7420
    8.220   10.3528
    8.250    9.8368
    8.280    9.3207
    8.310    9.6156
    8.340    9.0153
    8.370    8.9837
    8.400    9.0574
    8.430    8.7730
    8.460    8.6572
    8.490    8.3518
    8.520    8.5203
    8.550    8.1306
    8.580    8.1517
    8.610    7.6567
    8.640    7.7199
    8.670    7.7304
    8.700    7.4039
    8.730    7.1827
    8.760    7.2775
    8.790    7.3618
    8.820    7.0669
    8.850    6.8457
    8.880    7.1090
    8.910    6.6456
    8.940    6.5298
    8.970    6.6351
    9.000    6.4666
    9.030    6.6561
    9.060    7.0669
    9.090    6.3296
    9.120    6.1611
    9.150    6.0137
    9.180    6.2981
    9.210    5.9926
    9.240    6.3928
    9.270    6.0032
    9.300    6.1717
    9.330    6.2665
    9.360    6.0558
    9.390    6.4244
    9.420    6.1822
    9.450    6.4560
    9.480    5.8873
    9.510    6.1927
    9.540    6.3191
    9.570    6.1717
    9.600    5.8557
    9.630    6.3507
    9.660    6.2665
    9.690    6.3718
    9.720    6.3296
    9.750    6.3612
    9.780    6.0979
    9.810    6.1506
    9.840    6.2138
    9.870    6.6772
    9.900    6.1611
    9.930    6.1822
    9.960    6.0348
    9.990    5.7820
   10.020    6.2033
   10.050    5.9716
   10.080    5.8452
   10.110    6.0979
   10.140    5.7504
   10.170    6.1927
   10.200    5.9716
   10.230    6.7404
   10.260    5.8768
   10.290    6.4771
   10.320    6.4666
   10.350    6.6140
   10.380    6.5403
   10.410    6.8246
   10.440    6.8562
   10.470    6.8352
   10.500    6.9721
   10.530    6.4034
   10.560    6.6351
   10.590    6.1401
   10.620    6.6667
   10.650    6.4560
   10.680    6.1401
   10.710    6.2665
   10.740    6.2349
   10.770    5.9189
   10.800    5.4976
   10.830    5.9926
   10.860    6.0874
   10.890    6.2243
   10.920    5.8347
   10.950    5.6767
   10.980    6.0664
   11.010    5.9716
   11.040    6.2243
   11.070    6.1190
   11.100    6.0874
   11.130    5.7715
   11.160    6.3612
   11.190    5.9294
   11.220    5.8136
   11.250    5.8557
   11.280    6.3086
   11.310    6.1085
   11.340    6.0348
   11.370    6.2454
   11.400    6.1717
   11.430    6.4034
   11.460    6.1717
   11.490    6.5087
   11.520    6.4771
   11.550    6.4034
   11.580    6.2559
   11.610    6.5824
   11.640    6.0137
   11.670    6.9300
   11.700    6.1822
   11.730    6.2033
   11.760    6.6983
   11.790    6.0874
   11.820    6.3507
   11.850    6.5192
   11.880    6.5403
   11.910    6.5087
   11.940    6.7404
   11.970    6.5403
   12.000    7.0879
   12.030    6.8457
   12.060    6.2454
   12.090    6.7825
   12.120    6.4139
   12.150    6.3928
   12.180    6.4876
   12.210    6.7193
   12.240    6.3718
   12.270    6.8984
   12.300    6.5929
   12.330    6.6877
   12.360    7.0037
   12.390    6.4034
   12.420    6.7509
   12.450    6.4666
   12.480    6.9194
   12.510    6.9826
   12.540    6.6983
   12.570    6.6877
   12.600    6.5298
   12.630    6.6035
   12.660    6.6351
   12.690    6.4982
   12.720    6.2875
   12.750    6.7404
   12.780    6.5719
   12.810    6.2981
   12.840    6.2559
   12.870    6.4560
   12.900    6.3086
   12.930    6.2875
   12.960    6.2665
   12.990    6.1822
   13.020    6.3612
   13.050    6.6983
   13.080    6.0558
   13.110    5.7399
   13.140    6.2454
   13.170    6.1717
   13.200    6.4139
   13.230    6.2665
   13.260    6.0558
   13.290    6.2033
   13.320    6.0453
   13.350    6.3718
   13.380    5.8873
   13.410    6.2454
   13.440    6.3507
   13.470    6.2559
   13.500    6.3086
   13.530    6.2349
   13.560    6.3507
   13.590    5.8662
   13.620    6.6456
   13.650    6.3507
   13.680    6.4034
   13.710    6.3507
   13.740    5.9716
   13.770    6.4244
   13.800    5.9821
   13.830    6.1401
   13.860    5.9926
   13.890    6.0664
   13.920    6.0242
   13.950    6.3507
   13.980    6.1190
   14.010    6.2981
   14.040    6.4455
   14.070    6.2875
   14.100    5.9505
   14.130    6.2665
   14.160    6.2665
   14.190    5.9716
   14.220    6.1927
   14.250    6.0453
   14.280    5.9926
   14.310    5.9716
   14.340    6.5087
   14.370    6.3612
   14.400    6.2243
   14.430    6.2138
   14.460    6.1717
   14.490    5.7504
   14.520    6.0137
   14.550    5.8241
   14.580    6.0348
   14.610    6.2875
   14.640    5.7293
   14.670    6.0558
   14.700    6.0769
   14.730    5.9294
   14.760    6.0453
   14.790    5.8978
   14.820    5.6872
   14.850    6.5403
   14.880    6.2243
   14.910    6.1611
   14.940    5.8873
   14.970    5.9189
   15.000    5.7188
   15.030    5.9084
   15.060    6.0769
   15.090    5.7293
   15.120    5.6872
   15.150    5.9926
   15.180    6.0032
   15.210    6.1717
   15.240    5.7399
   15.270    5.9610
   15.300    5.8241
   15.330    6.1295
   15.360    5.9716
   15.390    6.0874
   15.420    6.0242
   15.450    5.9610
   15.480    5.7925
   15.510    6.5403
   15.540    6.2981
   15.570    6.0979
   15.600    6.1401
   15.630    6.2665
   15.660    6.0137
   15.690    6.7088
   15.720    6.2559
   15.750    6.2138
   15.780    6.2454
   15.810    6.0558
   15.840    6.5298
   15.870    6.2349
   15.900    6.4666
   15.930    6.4560
   15.960    6.1822
   15.990    6.0242
   16.020    6.2349
   16.050    6.8878
   16.080    6.5192
   16.110    6.5298
   16.140    6.4455
   16.170    6.0558
   16.200    6.3718
   16.230    6.7193
   16.260    6.4244
   16.290    6.4771
   16.320    6.2243
   16.350    6.0664
   16.380    6.1085
   16.410    5.7399
   16.440    5.9821
   16.470    6.1822
   16.500    6.0348
   16.530    5.9400
   16.560    6.2033
   16.590    6.0137
   16.620    6.0348
   16.650    6.0242
   16.680    6.0348
   16.710    6.3296
   16.740    5.9610
   16.770    6.1190
   16.800    6.1506
   16.830    6.0137
   16.860    6.0664
   16.890    5.7609
   16.920    5.7925
   16.950    5.8347
   16.980    6.3296
   17.010    5.7399
   17.040    5.6556
   17.070    6.0032
   17.100    5.9926
   17.130    5.8031
   17.160    6.0137
   17.190    5.8768
   17.220    6.0453
   17.250    6.0348
   17.280    6.0664
   17.310    6.0453
   17.340    5.5398
   17.370    5.8873
   17.400    6.3402
   17.430    5.7504
   17.460    6.2033
   17.490    6.4139
   17.520    5.9189
   17.550    5.7293
   17.580    6.2243
   17.610    6.1611
   17.640    5.8557
   17.670    6.2665
   17.700    6.2665
   17.730    5.7609
   17.760    5.7925
   17.790    6.5508
   17.820    6.1506
   17.850    6.1295
   17.880    5.8347
   17.910    5.7399
   17.940    6.5298
   17.970    5.8241
   18.000    6.1401
   18.030    5.9294
   18.060    6.0558
   18.090    6.2559
   18.120    5.9189
   18.150    6.0874
   18.180    6.0769
   18.210    6.2559
   18.240    6.3507
   18.270    5.9294
   18.300    6.1611
   18.330    5.8136
   18.360    6.1085
   18.390    6.1295
   18.420    6.0874
   18.450    6.2349
   18.480    6.3086
   18.510    6.1190
   18.540    6.2349
   18.570    5.8031
   18.600    5.8978
   18.630    5.9926
   18.660    6.0558
   18.690    6.1822
   18.720    6.1611
   18.750    5.9189
   18.780    6.5192
   18.810    6.2665
   18.840    6.6035
   18.870    6.3928
   18.900    6.6035
   18.930    6.3296
   18.960    6.7930
   18.990    7.1933
   19.020    6.9089
   19.050    6.4876
   19.080    6.3191
   19.110    6.0242
   19.140    6.4034
   19.170    6.4455
   19.200    6.0242
   19.230    5.9294
   19.260    6.4034
   19.290    5.9926
   19.320    6.4666
   19.350    6.0242
   19.380    6.4666
   19.410    6.5508
   19.440    6.2138
   19.470    6.2875
   19.500    6.4771
   19.530    6.3612
   19.560    6.5298
   19.590    6.1401
   19.620    6.2349
   19.650    6.6245
   19.680    6.6351
   19.710    6.3191
   19.740    6.7088
   19.770    6.3296
   19.800    6.3612
   19.830    6.4771
   19.860    6.4034
   19.890    6.7404
   19.920    6.6456
   19.950    6.2665
   19.980    6.5192
   20.010    6.4876
   20.040    6.7615
   20.070    6.9510
   20.100    6.6035
   20.130    6.6456
   20.160    6.4982
   20.190    6.9089
   20.220    6.5403
   20.250    6.7193
   20.280    6.9616
   20.310    6.3086
   20.340    6.9089
   20.370    6.2454
   20.400    6.4982
   20.430    6.5298
   20.460    6.8457
   20.490    6.4244
   20.520    6.3928
   20.550    6.7825
   20.580    6.4139
   20.610    6.8352
   20.640    6.4771
   20.670    6.7299
   20.700    6.8668
   20.730    6.4876
   20.760    6.7193
   20.790    6.7825
   20.820    6.9721
   20.850    6.7615
   20.880    6.4560
   20.910    6.7404
   20.940    6.7193
   20.970    6.7299
   21.000    6.9194
   21.030    6.5929
   21.060    6.7509
   21.090    6.8141
   21.120    6.9194
   21.150    6.6667
   21.180    6.3402
   21.210    6.4034
   21.240    6.7193
   21.270    6.5087
   21.300    6.4455
   21.330    6.5719
   21.360    6.6877
   21.390    7.0458
   21.420    6.6035
   21.450    6.8457
   21.480    6.2033
   21.510    6.5192
   21.540    6.4982
   21.570    6.8878
   21.600    6.8036
   21.630    6.6877
   21.660    6.8246
   21.690    6.7088
   21.720    6.6140
   21.750    6.3928
   21.780    6.7509
   21.810    6.7088
   21.840    6.5298
   21.870    6.8036
   21.900    6.6245
   21.930    6.8562
   21.960    6.5824
   21.990    6.6245
   22.020    6.4244
   22.050    6.8457
   22.080    6.8878
   22.110    6.5192
   22.140    6.4455
   22.170    6.7088
   22.200    6.4982
   22.230    6.5298
   22.260    6.5929
   22.290    6.9405
   22.320    7.2249
   22.350    6.4876
   22.380    6.6877
   22.410    6.8352
   22.440    6.5719
   22.470    6.9405
   22.500    6.6456
   22.530    6.7720
   22.560    6.5508
   22.590    6.7088
   22.620    7.0774
   22.650    6.5929
   22.680    6.7720
   22.710    6.6667
   22.740    6.4560
   22.770    6.3612
   22.800    6.4666
   22.830    6.5403
   22.860    6.8457
   22.890    6.7825
   22.920    6.3612
   22.950    6.8246
   22.980    6.7509
   23.010    6.7193
   23.040    6.5403
   23.070    6.6456
   23.100    6.6561
   23.130    6.6351
   23.160    7.3407
   23.190    6.5192
   23.220    6.5403
   23.250    6.4244
   23.280    6.4244
   23.310    6.4666
   23.340    6.6772
   23.370    6.7088
   23.400    6.3507
   23.430    6.3402
   23.460    6.4455
   23.490    6.4244
   23.520    6.8878
   23.550    6.4350
   23.580    6.3612
   23.610    6.5929
   23.640    6.0664
   23.670    6.2454
   23.700    6.5824
   23.730    6.1927
   23.760    6.8141
   23.790    6.2243
   23.820    6.4139
   23.850    6.6245
   23.880    6.2454
   23.910    6.2770
   23.940    6.0032
   23.970    5.9294
   24.000    5.9610
   24.030    6.5719
   24.060    6.4139
   24.090    6.2138
   24.120    6.7088
   24.150    6.2770
   24.180    6.1927
   24.210    6.1190
   24.240    5.9189
   24.270    6.2875
   24.300    5.9505
   24.330    5.9400
   24.360    6.0769
   24.390    6.3612
   24.420    6.1190
   24.450    6.3823
   24.480    6.7615
   24.510    6.3296
   24.540    6.2770
   24.570    6.4560
   24.600    6.2349
   24.630    6.2875
   24.660    6.2243
   24.690    6.6140
   24.720    6.3718
   24.750    6.1295
   24.780    6.0769
   24.810    6.3928
   24.840    6.3612
   24.870    6.3296
   24.900    6.3402
   24.930    6.0242
   24.960    6.3507
   24.990    5.9084
   25.020    6.3086
   25.050    6.0242
   25.080    5.9505
   25.110    6.2138
   25.140    6.3507
   25.170    5.9400
   25.200    6.2981
   25.230    6.1611
   25.260    5.6767
   25.290    6.2033
   25.320    6.3612
   25.350    6.0664
   25.380    6.0979
   25.410    6.2559
   25.440    5.5398
   25.470    6.0453
   25.500    6.3507
   25.530    6.1295
   25.560    6.2454
   25.590    6.0769
   25.620    6.3612
   25.650    6.1295
   25.680    6.0769
   25.710    6.0979
   25.740    5.7188
   25.770    6.1085
   25.800    6.3718
   25.830    5.6451
   25.860    6.0242
   25.890    6.0032
   25.920    5.9926
   25.950    6.0348
   25.980    5.7504
   26.010    5.5924
   26.040    6.1190
   26.070    5.9294
   26.100    5.9400
   26.130    5.9926
   26.160    6.0769
   26.190    5.5714
   26.220    6.0137
   26.250    6.0558
   26.280    6.1611
   26.310    5.6451
   26.340    5.9294
   26.370    5.8241
   26.400    6.0137
   26.430    5.5503
   26.460    5.6345
   26.490    5.9400
   26.520    5.4344
   26.550    5.7715
   26.580    5.7820
   26.610    5.4766
   26.640    6.2033
   26.670    5.7715
   26.700    5.6661
   26.730    5.2554
   26.760    5.7715
   26.790    5.7820
   26.820    5.6345
   26.850    5.8241
   26.880    5.7399
   26.910    5.6029
   26.940    5.8557
   26.970    5.4450
   27.000    6.1611
   27.030    5.5398
   27.060    5.9821
   27.090    5.6135
   27.120    5.4976
   27.150    5.4450
   27.180    5.9716
   27.210    6.0453
   27.240    5.8136
   27.270    5.3291
   27.300    5.4134
   27.330    5.6767
   27.360    5.6661
   27.390    5.5714
   27.420    5.7715
   27.450    5.9610
   27.480    5.8136
   27.510    5.6345
   27.540    5.7399
   27.570    5.2133
   27.600    5.4555
   27.630    5.7925
   27.660    5.6556
   27.690    5.3397
   27.720    5.7504
   27.750    5.7188
   27.780    5.8241
   27.810    5.9400
   27.840    5.5608
   27.870    5.6451
   27.900    6.0348
   27.930    6.0558
   27.960    6.1085
   27.990    6.4666
   28.020    6.2138
   28.050    6.6140
   28.080    6.0874
   28.110    5.9926
   28.140    6.1717
   28.170    5.9821
   28.200    5.8031
   28.230    5.8662
   28.260    5.8241
   28.290    6.3402
   28.320    6.2033
   28.350    5.6872
   28.380    5.7820
   28.410    5.7083
   28.440    5.5292
   28.470    5.4450
   28.500    5.5292
   28.530    5.9716
   28.560    5.6451
   28.590    5.5187
   28.620    5.6451
   28.650    6.1295
   28.680    5.5503
   28.710    5.6451
   28.740    5.4766
   28.770    5.0974
   28.800    5.7715
   28.830    5.4344
   28.860    5.8241
   28.890    5.9610
   28.920    5.8768
   28.950    5.8768
   28.980    6.4350
   29.010    6.2559
   29.040    5.6872
   29.070    5.8768
   29.100    5.8241
   29.130    5.4134
   29.160    5.3607
   29.190    5.6977
   29.220    5.8557
   29.250    5.4871
   29.280    5.6029
   29.310    5.8768
   29.340    5.2765
   29.370    5.5398
   29.400    5.9084
   29.430    5.7293
   29.460    5.2765
   29.490    5.2870
   29.520    5.6029
   29.550    5.6556
   29.580    5.6977
   29.610    5.4660
   29.640    5.4344
   29.670    5.9294
   29.700    5.6872
   29.730    5.4871
   29.760    5.4660
   29.790    5.6977
   29.820    5.5398
   29.850    5.3818
   29.880    5.6029
   29.910    5.6767
   29.940    5.6451
   29.970    5.1290
   30.000    5.8768
   30.030    5.2765
   30.060    5.7715
   30.090    5.8031
   30.120    5.7715
   30.150    5.5714
   30.180    5.4344
   30.210    5.6029
   30.240    5.5819
   30.270    5.6977
   30.300    5.3712
   30.330    5.5398
   30.360    5.4134
   30.390    5.4028
   30.420    5.4555
   30.450    5.4239
   30.480    5.7083
   30.510    5.5292
   30.540    5.1395
   30.570    6.1401
   30.600    5.6977
   30.630    5.2238
   30.660    5.5187
   30.690    5.4976
   30.720    5.6872
   30.750    5.3607
   30.780    5.7715
   30.810    5.5608
   30.840    5.4660
   30.870    5.6661
   30.900    5.9821
   30.930    5.6135
   30.960    5.5819
   30.990    5.7715
   31.020    5.6451
   31.050    5.3923
   31.080    5.1922
   31.110    5.2975
   31.140    5.6767
   31.170    5.4450
   31.200    5.2765
   31.230    5.5398
   31.260    5.6556
   31.290    5.1711
   31.320    5.5292
   31.350    5.5608
   31.380    5.6556
   31.410    5.4344
   31.440    5.5819
   31.470    5.2343
   31.500    5.2133
   31.530    5.3081
   31.560    5.8662
   31.590    5.4766
   31.620    5.3502
   31.650    5.5082
   31.680    5.7925
   31.710    5.7188
   31.740    5.6345
   31.770    6.1085
   31.800    5.9084
   31.830    5.9189
   31.860    6.0664
   31.890    5.8662
   31.920    5.9716
   31.950    5.6872
   31.980    5.6767
   32.010    6.2243
   32.040    6.3402
   32.070    7.1406
   32.100    6.4139
   32.130    6.5403
   32.160    6.2981
   32.190    5.6135
   32.220    5.9505
   32.250    5.8452
   32.280    5.4660
   32.310    5.0658
   32.340    5.4134
   32.370    5.4450
   32.400    5.4766
   32.430    5.6029
   32.460    5.2975
   32.490    5.2659
   32.520    5.4134
   32.550    5.4766
   32.580    4.9816
   32.610    5.2238
   32.640    5.0553
   32.670    5.3712
   32.700    5.4028
   32.730    5.5082
   32.760    5.1606
   32.790    5.2659
   32.820    4.7288
   32.850    5.4450
   32.880    5.2343
   32.910    5.4660
   32.940    5.2238
   32.970    5.4450
   33.000    5.2659
   33.030    5.5082
   33.060    5.0553
   33.090    5.1185
   33.120    5.1501
   33.150    5.5187
   33.180    5.0764
   33.210    5.1606
   33.240    5.1817
   33.270    5.2975
   33.300    5.2027
   33.330    5.1290
   33.360    5.4239
   33.390    5.2133
   33.420    5.4871
   33.450    5.0869
   33.480    5.1711
   33.510    5.4239
   33.540    5.2133
   33.570    4.9500
   33.600    5.0342
   33.630    5.2343
   33.660    4.9816
   33.690    5.5819
   33.720    5.2343
   33.750    5.2870
   33.780    5.5924
   33.810    5.3397
   33.840    5.5292
   33.870    5.3186
   33.900    5.8452
   33.930    5.2975
   33.960    5.3607
   33.990    5.2027
   34.020    5.3081
   34.050    5.1185
   34.080    4.8657
   34.110    4.9078
   34.140    5.1080
   34.170    4.9078
   34.200    5.0974
   34.230    4.7499
   34.260    4.9816
   34.290    4.9289
   34.320    4.8868
   34.350    4.8552
   34.380    4.7920
   34.410    4.9605
   34.440    4.9921
   34.470    5.2238
   34.500    4.9816
   34.530    5.0764
   34.560    4.8657
   34.590    5.1817
   34.620    4.8131
   34.650    5.0448
   34.680    5.1606
   34.710    4.8763
   34.740    4.8552
   34.770    4.9921
   34.800    5.0869
   34.830    4.9605
   34.860    5.3923
   34.890    4.9921
   34.920    4.8868
   34.950    4.8341
   34.980    5.2554
   35.010    5.0448
   35.040    4.8868
   35.070    5.1290
   35.100    5.0658
   35.130    5.3397
   35.160    5.3923
   35.190    5.3818
   35.220    4.8973
   35.250    4.9394
   35.280    4.8657
   35.310    4.7920
   35.340    4.9184
   35.370    4.5287
   35.400    4.6761
   35.430    4.7499
   35.460    4.8657
   35.490    4.8341
   35.520    4.8447
   35.550    4.9289
   35.580    4.8447
   35.610    4.8763
   35.640    4.8447
   35.670    4.8763
   35.700    4.8552
   35.730    4.8657
   35.760    5.2343
   35.790    4.9816
   35.820    4.9500
   35.850    4.5392
   35.880    4.6761
   35.910    4.7183
   35.940    4.7499
   35.970    4.8341
   36.000    4.9605
   36.030    4.7183
   36.060    4.9184
   36.090    4.9921
   36.120    4.9289
   36.150    4.5076
   36.180    4.8763
   36.210    4.6867
   36.240    4.8447
   36.270    4.8236
   36.300    4.7288
   36.330    5.1817
   36.360    4.9816
   36.390    4.6024
   36.420    4.9921
   36.450    4.7499
   36.480    4.9605
   36.510    4.8552
   36.540    4.7077
   36.570    4.9394
   36.600    4.7709
   36.630    4.6761
   36.660    4.5392
   36.690    4.7604
   36.720    4.7604
   36.750    4.7288
   36.780    4.8447
   36.810    5.0764
   36.840    4.4866
   36.870    5.0026
   36.900    4.4023
   36.930    4.6235
   36.960    4.5603
   36.990    4.5919
   37.020    4.6551
   37.050    4.6761
   37.080    4.5708
   37.110    4.9500
   37.140    4.7815
   37.170    4.7920
   37.200    4.9394
   37.230    4.6972
   37.260    4.3075
   37.290    4.8025
   37.320    4.6340
   37.350    4.3707
   37.380    4.7815
   37.410    4.5603
   37.440    4.8341
   37.470    4.7920
   37.500    4.4023
   37.530    4.6340
   37.560    4.4023
   37.590    5.2659
   37.620    4.7815
   37.650    4.9394
   37.680    4.9500
   37.710    4.4444
   37.740    4.6867
   37.770    5.1185
   37.800    4.9605
   37.830    4.7183
   37.860    4.7288
   37.890    4.6551
   37.920    4.7499
   37.950    4.7393
   37.980    4.6656
   38.010    4.5392
   38.040    5.1080
   38.070    4.8657
   38.100    4.8657
   38.130    4.5182
   38.160    4.8763
   38.190    4.8341
   38.220    4.3602
   38.250    4.8763
   38.280    4.7288
   38.310    4.8131
   38.340    4.5498
   38.370    4.8552
   38.400    4.9078
   38.430    4.8763
   38.460    4.7920
   38.490    4.4971
   38.520    4.7709
   38.550    4.8657
   38.580    5.0974
   38.610    5.3081
   38.640    5.0448
   38.670    5.2238
   38.700    4.8341
   38.730    4.9394
   38.760    4.7920
   38.790    4.7815
   38.820    4.5814
   38.850    4.7288
   38.880    4.9184
   38.910    5.0974
   38.940    4.4023
   38.970    4.6235
   39.000    4.8341
   39.030    4.9078
   39.060    5.0974
   39.090    4.9605
   39.120    4.9078
   39.150    5.0342
   39.180    5.0342
   39.210    4.8025
   39.240    4.9078
   39.270    4.7077
   39.300    4.9500
   39.330    5.0658
   39.360    4.8973
   39.390    4.7604
   39.420    4.8552
   39.450    4.6235
   39.480    4.6130
   39.510    4.6867
   39.540    4.6235
   39.570    4.9710
   39.600    4.6551
   39.630    4.5392
   39.660    4.8025
   39.690    4.8447
   39.720    5.1606
   39.750    4.7709
   39.780    4.6340
   39.810    4.5708
   39.840    4.5392
   39.870    4.5603
   39.900    4.9500
   39.930    4.8131
   39.960    4.6761
   39.990    4.7183