File: data/MOCOF-1/PXRD/PXRD_KE-046_Cu-Ka1_capillary-1mm_5s-deg.xyd
    1.500   19.5893
    1.530   19.4313
    1.560   19.5261
    1.590   18.3254
    1.620   17.9568
    1.650   18.5255
    1.680   17.9147
    1.710   18.3781
    1.740   17.2512
    1.770   17.8304
    1.800   17.0405
    1.830   17.1248
    1.860   17.5777
    1.890   18.0727
    1.920   17.2617
    1.950   17.3986
    1.980   17.2828
    2.010   16.7035
    2.040   17.7146
    2.070   17.6619
    2.100   17.9042
    2.130   17.2512
    2.160   17.9358
    2.190   18.1148
    2.220   17.6935
    2.250   18.4834
    2.280   17.9884
    2.310   19.0627
    2.340   18.6309
    2.370   19.4313
    2.400   19.9895
    2.430   21.0743
    2.460   20.6951
    2.490   22.4434
    2.520   23.0226
    2.550   22.9910
    2.580   24.2654
    2.610   24.0126
    2.640   24.6340
    2.670   25.0658
    2.700   27.1827
    2.730   29.2048
    2.760   29.7946
    2.790   30.7004
    2.820   32.2591
    2.850   32.8067
    2.880   35.3765
    2.910   36.2085
    2.940   38.2728
    2.970   41.1901
    3.000   43.0858
    3.030   46.6245
    3.060   49.0679
    3.090   52.9963
    3.120   55.2923
    3.150   59.4313
    3.180   63.4229
    3.210   68.9310
    3.240   74.1759
    3.270   81.5587
    3.300   89.2154
    3.330   97.9358
    3.360  111.2480
    3.390  126.7615
    3.420  147.0985
    3.450  170.6898
    3.480  181.6640
    3.510  166.4455
    3.540  122.9489
    3.570   86.9826
    3.600   68.8994
    3.630   63.3070
    3.660   64.3602
    3.690   67.0248
    3.720   73.1754
    3.750   78.9784
    3.780   88.4676
    3.810   99.7894
    3.840  112.3433
    3.870  132.0379
    3.900  145.4344
    3.930  135.8610
    3.960  106.8141
    3.990   77.1669
    4.020   55.9979
    4.050   40.5477
    4.080   29.9737
    4.110   22.5487
    4.140   17.4829
    4.170   15.1343
    4.200   13.0279
    4.230   12.0590
    4.260   10.8268
    4.290    9.6998
    4.320    9.3312
    4.350    9.0258
    4.380    8.8573
    4.410    8.6467
    4.440    7.9726
    4.470    7.8989
    4.500    7.7830
    4.530    7.7620
    4.560    7.6672
    4.590    7.8041
    4.620    7.6356
    4.650    7.6567
    4.680    7.3934
    4.710    7.6461
    4.740    7.2249
    4.770    7.6672
    4.800    7.4776
    4.830    7.5303
    4.860    7.6145
    4.890    7.5408
    4.920    7.2986
    4.950    7.2670
    4.980    7.5619
    5.010    8.0674
    5.040    7.8146
    5.070    7.8778
    5.100    8.0674
    5.130    8.2359
    5.160    8.3834
    5.190    9.4050
    5.220    8.7941
    5.250    8.9942
    5.280    9.8157
    5.310   10.0474
    5.340   10.1422
    5.370   10.2686
    5.400   11.3639
    5.430   12.7646
    5.460   14.2707
    5.490   16.9458
    5.520   19.9895
    5.550   18.1148
    5.580   11.1954
    5.610    6.6561
    5.640    6.5613
    5.670    6.3507
    5.700    6.1085
    5.730    6.4244
    5.760    6.2981
    5.790    6.4982
    5.820    6.1085
    5.850    6.1190
    5.880    6.0558
    5.910    6.4034
    5.940    6.1085
    5.970    5.9821
    6.000    6.3296
    6.030    6.4350
    6.060    6.5087
    6.090    6.8457
    6.120    6.4771
    6.150    6.4034
    6.180    6.7088
    6.210    6.5508
    6.240    6.9932
    6.270    7.0669
    6.300    7.4144
    6.330    7.3196
    6.360    7.6777
    6.390    7.9831
    6.420    7.8462
    6.450    8.4571
    6.480    8.6888
    6.510    8.8889
    6.540    9.4787
    6.570    9.3944
    6.600   10.4687
    6.630   11.2691
    6.660   11.5534
    6.690   13.1122
    6.720   14.1864
    6.750   15.9558
    6.780   18.0305
    6.810   18.5150
    6.840   18.5045
    6.870   21.1796
    6.900   24.4128
    6.930   29.6682
    6.960   32.2801
    6.990   32.0169
    7.020   26.8036
    7.050   18.7888
    7.080   12.6277
    7.110   10.2370
    7.140    8.6151
    7.170    8.7204
    7.200    8.2570
    7.230    8.0147
    7.260    8.3518
    7.290    8.0674
    7.320    8.2991
    7.350    7.9726
    7.380    9.0153
    7.410    8.9521
    7.440    9.0890
    7.470    9.6472
    7.500   10.2580
    7.530   10.5845
    7.560   11.5956
    7.590   12.3644
    7.620   13.9863
    7.650   15.3870
    7.680   16.7667
    7.710   18.4623
    7.740   21.1690
    7.770   24.0653
    7.800   27.0879
    7.830   27.9937
    7.860   27.2880
    7.890   24.2338
    7.920   21.8747
    7.950   19.3260
    7.980   16.5456
    8.010   14.5024
    8.040   11.5429
    8.070   11.1006
    8.100    9.6367
    8.130    8.6677
    8.160    7.7514
    8.190    7.6145
    8.220    7.4776
    8.250    7.0037
    8.280    6.7193
    8.310    6.8562
    8.340    6.6140
    8.370    6.3823
    8.400    6.6877
    8.430    6.4982
    8.460    6.3612
    8.490    6.6035
    8.520    6.0137
    8.550    6.2243
    8.580    6.2138
    8.610    6.3823
    8.640    6.2559
    8.670    6.3928
    8.700    6.3191
    8.730    6.1506
    8.760    6.4666
    8.790    6.3191
    8.820    5.8136
    8.850    5.7504
    8.880    5.7188
    8.910    5.9926
    8.940    5.7083
    8.970    6.0558
    9.000    5.9505
    9.030    5.6135
    9.060    5.9610
    9.090    5.9926
    9.120    5.9294
    9.150    5.5292
    9.180    6.1295
    9.210    6.1190
    9.240    6.6772
    9.270    6.0032
    9.300    6.5403
    9.330    6.3191
    9.360    6.6772
    9.390    6.9300
    9.420    7.1406
    9.450    7.3196
    9.480    7.9410
    9.510    9.6472
    9.540   10.1948
    9.570   12.3960
    9.600   11.7641
    9.630    9.6051
    9.660    6.5087
    9.690    6.1927
    9.720    5.8031
    9.750    6.1085
    9.780    6.2033
    9.810    6.1822
    9.840    6.2138
    9.870    6.1401
    9.900    5.7925
    9.930    6.0137
    9.960    6.0979
    9.990    5.8873
   10.020    6.0874
   10.050    6.5298
   10.080    5.8452
   10.110    6.2454
   10.140    6.3296
   10.170    6.3823
   10.200    6.4455
   10.230    6.5929
   10.260    6.4876
   10.290    6.9405
   10.320    6.9826
   10.350    7.9621
   10.380    7.3723
   10.410    7.7830
   10.440    6.4876
   10.470    6.9510
   10.500    7.0774
   10.530    6.8773
   10.560    6.4139
   10.590    6.6667
   10.620    6.0242
   10.650    6.1611
   10.680    6.0979
   10.710    6.4455
   10.740    6.1295
   10.770    6.2138
   10.800    6.2665
   10.830    6.4876
   10.860    6.4455
   10.890    6.6772
   10.920    6.8457
   10.950    6.3612
   10.980    7.2670
   11.010    7.1511
   11.040    7.7830
   11.070    8.5097
   11.100    7.5408
   11.130    6.6877
   11.160    6.0979
   11.190    6.1085
   11.220    6.1506
   11.250    6.1190
   11.280    6.2981
   11.310    6.5192
   11.340    6.5087
   11.370    6.6877
   11.400    6.2243
   11.430    6.9405
   11.460    6.5824
   11.490    6.7825
   11.520    6.8036
   11.550    6.8562
   11.580    7.2986
   11.610    7.5724
   11.640    8.2464
   11.670    8.1622
   11.700    8.6677
   11.730    9.2154
   11.760    9.4155
   11.790    8.5519
   11.820    8.1622
   11.850    7.4776
   11.880    7.6672
   11.910    7.4987
   11.940    7.0879
   11.970    6.9194
   12.000    6.8984
   12.030    6.8036
   12.060    6.4455
   12.090    6.5192
   12.120    6.5719
   12.150    6.2665
   12.180    6.0348
   12.210    5.9189
   12.240    5.8978
   12.270    6.0137
   12.300    6.2665
   12.330    6.4139
   12.360    6.2981
   12.390    6.2033
   12.420    6.0348
   12.450    6.0137
   12.480    6.2033
   12.510    5.9926
   12.540    6.0453
   12.570    6.0769
   12.600    6.1927
   12.630    6.1717
   12.660    6.4666
   12.690    6.1401
   12.720    5.8873
   12.750    6.2981
   12.780    6.1295
   12.810    6.3296
   12.840    6.6140
   12.870    6.4139
   12.900    6.5613
   12.930    6.8878
   12.960    7.1195
   12.990    7.3302
   13.020    6.6667
   13.050    6.3296
   13.080    6.2770
   13.110    6.4876
   13.140    6.1611
   13.170    6.4350
   13.200    5.8662
   13.230    6.5298
   13.260    6.1401
   13.290    6.6140
   13.320    6.4771
   13.350    6.1190
   13.380    5.9716
   13.410    6.2349
   13.440    6.5087
   13.470    6.0453
   13.500    6.4244
   13.530    6.5403
   13.560    6.0032
   13.590    6.2243
   13.620    5.9400
   13.650    5.8031
   13.680    6.1085
   13.710    6.2770
   13.740    5.5082
   13.770    5.7083
   13.800    5.8452
   13.830    6.1506
   13.860    5.9400
   13.890    6.0874
   13.920    5.5819
   13.950    5.8136
   13.980    5.8136
   14.010    6.0558
   14.040    6.3086
   14.070    6.0453
   14.100    6.8878
   14.130    6.8773
   14.160    6.4244
   14.190    5.9294
   14.220    5.6451
   14.250    6.1190
   14.280    5.3186
   14.310    5.6556
   14.340    5.6661
   14.370    5.6029
   14.400    5.8347
   14.430    5.7925
   14.460    5.4766
   14.490    5.8136
   14.520    6.0242
   14.550    5.7820
   14.580    5.8768
   14.610    5.5398
   14.640    5.9400
   14.670    5.4450
   14.700    5.7715
   14.730    5.7715
   14.760    5.8978
   14.790    5.5714
   14.820    5.8662
   14.850    6.1717
   14.880    5.7925
   14.910    5.9821
   14.940    6.2138
   14.970    5.8557
   15.000    5.7925
   15.030    6.6245
   15.060    6.3296
   15.090    5.8031
   15.120    6.1295
   15.150    6.2981
   15.180    6.1611
   15.210    6.2981
   15.240    6.3612
   15.270    5.9821
   15.300    6.3086
   15.330    6.1717
   15.360    5.9505
   15.390    6.3507
   15.420    6.2770
   15.450    5.5608
   15.480    6.1717
   15.510    6.5508
   15.540    6.0769
   15.570    6.1506
   15.600    6.2875
   15.630    6.3296
   15.660    6.3928
   15.690    6.5403
   15.720    6.2243
   15.750    6.1927
   15.780    6.2454
   15.810    5.9610
   15.840    6.1085
   15.870    6.4139
   15.900    6.0664
   15.930    5.7715
   15.960    6.0348
   15.990    6.2138
   16.020    6.2349
   16.050    6.0558
   16.080    6.0348
   16.110    6.4666
   16.140    5.7925
   16.170    5.9716
   16.200    6.1822
   16.230    5.6872
   16.260    5.6977
   16.290    5.6556
   16.320    5.4871
   16.350    5.4555
   16.380    5.5714
   16.410    5.3818
   16.440    5.6451
   16.470    5.4976
   16.500    5.6135
   16.530    5.8662
   16.560    5.4871
   16.590    6.0979
   16.620    5.3607
   16.650    5.9821
   16.680    5.8768
   16.710    5.9189
   16.740    5.9505
   16.770    5.6556
   16.800    5.8557
   16.830    5.6872
   16.860    5.8452
   16.890    5.9294
   16.920    5.4766
   16.950    5.7925
   16.980    6.0453
   17.010    5.9716
   17.040    5.9821
   17.070    6.5613
   17.100    6.7088
   17.130    6.4244
   17.160    6.0453
   17.190    6.2349
   17.220    5.9084
   17.250    5.8662
   17.280    5.7399
   17.310    6.0558
   17.340    6.3296
   17.370    5.9400
   17.400    6.3191
   17.430    6.2033
   17.460    6.3296
   17.490    6.5508
   17.520    6.5719
   17.550    6.4455
   17.580    6.3928
   17.610    6.3928
   17.640    6.4034
   17.670    5.8873
   17.700    5.9716
   17.730    6.3191
   17.760    5.9716
   17.790    6.4455
   17.820    6.0769
   17.850    6.1506
   17.880    6.6772
   17.910    6.4876
   17.940    6.5508
   17.970    6.2665
   18.000    6.2559
   18.030    6.0769
   18.060    6.3086
   18.090    6.4771
   18.120    6.0032
   18.150    5.9716
   18.180    5.9926
   18.210    6.2138
   18.240    6.0348
   18.270    5.7609
   18.300    6.0874
   18.330    6.1506
   18.360    6.0979
   18.390    5.9610
   18.420    6.0558
   18.450    6.1190
   18.480    6.1717
   18.510    6.2138
   18.540    5.9821
   18.570    5.9926
   18.600    5.9610
   18.630    5.7925
   18.660    5.9084
   18.690    5.5503
   18.720    6.1190
   18.750    5.8452
   18.780    5.9400
   18.810    5.8241
   18.840    6.1401
   18.870    6.0979
   18.900    5.9400
   18.930    6.0032
   18.960    5.7083
   18.990    6.1717
   19.020    6.0664
   19.050    5.8031
   19.080    6.0242
   19.110    5.9400
   19.140    6.2559
   19.170    6.2454
   19.200    5.8452
   19.230    5.8452
   19.260    6.0137
   19.290    6.3296
   19.320    6.1506
   19.350    6.0874
   19.380    6.3718
   19.410    6.2559
   19.440    6.1401
   19.470    6.2770
   19.500    6.0242
   19.530    5.9926
   19.560    6.4771
   19.590    6.8036
   19.620    6.5929
   19.650    6.7615
   19.680    7.1195
   19.710    6.5298
   19.740    6.2559
   19.770    6.5087
   19.800    6.8668
   19.830    6.8141
   19.860    6.4771
   19.890    6.6140
   19.920    6.6035
   19.950    6.6140
   19.980    6.6561
   20.010    6.6667
   20.040    6.8457
   20.070    7.0248
   20.100    6.4982
   20.130    6.7404
   20.160    6.8457
   20.190    6.8246
   20.220    6.4666
   20.250    7.0353
   20.280    6.7615
   20.310    7.0669
   20.340    7.1617
   20.370    6.7825
   20.400    7.0985
   20.430    7.8041
   20.460    7.1301
   20.490    6.8352
   20.520    6.7299
   20.550    6.7404
   20.580    6.8984
   20.610    6.8878
   20.640    6.9932
   20.670    6.3191
   20.700    6.8984
   20.730    6.7615
   20.760    6.4350
   20.790    6.6035
   20.820    6.8457
   20.850    6.9194
   20.880    6.5508
   20.910    6.4876
   20.940    7.1722
   20.970    7.0353
   21.000    6.6772
   21.030    7.1722
   21.060    7.3302
   21.090    7.2775
   21.120    7.0458
   21.150    7.1195
   21.180    7.3196
   21.210    6.9194
   21.240    6.9510
   21.270    7.0563
   21.300    7.2143
   21.330    6.5929
   21.360    6.5298
   21.390    6.7509
   21.420    6.9826
   21.450    7.0458
   21.480    6.2875
   21.510    7.0248
   21.540    6.7193
   21.570    6.5613
   21.600    6.2981
   21.630    6.4876
   21.660    6.8141
   21.690    6.3402
   21.720    6.6561
   21.750    6.5192
   21.780    6.8036
   21.810    6.6772
   21.840    6.5508
   21.870    6.6351
   21.900    6.7404
   21.930    6.4771
   21.960    6.9510
   21.990    6.8246
   22.020    6.8984
   22.050    6.0242
   22.080    6.9089
   22.110    6.7509
   22.140    6.8984
   22.170    7.1933
   22.200    7.0142
   22.230    7.0563
   22.260    7.1090
   22.290    7.2775
   22.320    6.9194
   22.350    6.9932
   22.380    7.0774
   22.410    7.2143
   22.440    7.5619
   22.470    7.3934
   22.500    7.4882
   22.530    7.5619
   22.560    7.7199
   22.590    7.9410
   22.620    7.6461
   22.650    7.5935
   22.680    7.5092
   22.710    7.3407
   22.740    7.6356
   22.770    7.1722
   22.800    7.3196
   22.830    7.0563
   22.860    7.0563
   22.890    7.2354
   22.920    7.4144
   22.950    7.5619
   22.980    6.9510
   23.010    6.9194
   23.040    6.8878
   23.070    6.9616
   23.100    6.2875
   23.130    6.8878
   23.160    6.3086
   23.190    6.7088
   23.220    6.7193
   23.250    6.7720
   23.280    6.5087
   23.310    6.7720
   23.340    6.4666
   23.370    6.3507
   23.400    6.0453
   23.430    6.4560
   23.460    6.5824
   23.490    6.4139
   23.520    6.4982
   23.550    6.1822
   23.580    6.4666
   23.610    6.1295
   23.640    6.2559
   23.670    6.2770
   23.700    6.1611
   23.730    6.2454
   23.760    6.3507
   23.790    6.5508
   23.820    6.2559
   23.850    6.1717
   23.880    6.6245
   23.910    6.7825
   23.940    6.5508
   23.970    6.5508
   24.000    6.2243
   24.030    6.6667
   24.060    6.4455
   24.090    6.2770
   24.120    6.2243
   24.150    5.9926
   24.180    6.3507
   24.210    6.1611
   24.240    6.5403
   24.270    6.3718
   24.300    6.8878
   24.330    6.5192
   24.360    6.4034
   24.390    6.8141
   24.420    6.6245
   24.450    6.4034
   24.480    6.6140
   24.510    6.6456
   24.540    6.8141
   24.570    6.8562
   24.600    6.6245
   24.630    6.8036
   24.660    6.9721
   24.690    6.6667
   24.720    6.9300
   24.750    6.4244
   24.780    6.7088
   24.810    6.4350
   24.840    6.5192
   24.870    6.7615
   24.900    6.3507
   24.930    6.3612
   24.960    6.0664
   24.990    6.2770
   25.020    6.2243
   25.050    6.3718
   25.080    6.2349
   25.110    5.9294
   25.140    6.2665
   25.170    6.2875
   25.200    6.4560
   25.230    6.1506
   25.260    5.7925
   25.290    6.2243
   25.320    6.2981
   25.350    5.9716
   25.380    6.0558
   25.410    5.5819
   25.440    6.0769
   25.470    5.9505
   25.500    6.1927
   25.530    5.9610
   25.560    6.1401
   25.590    6.2138
   25.620    5.7293
   25.650    6.0032
   25.680    5.9189
   25.710    6.1190
   25.740    6.2243
   25.770    6.2243
   25.800    5.8452
   25.830    6.4034
   25.860    6.1611
   25.890    6.6456
   25.920    6.4455
   25.950    5.7715
   25.980    5.9716
   26.010    5.8768
   26.040    5.8347
   26.070    6.3718
   26.100    6.4455
   26.130    5.7504
   26.160    6.1506
   26.190    5.7925
   26.220    5.9189
   26.250    5.8662
   26.280    5.5187
   26.310    6.2033
   26.340    5.9926
   26.370    6.0558
   26.400    5.6556
   26.430    5.9084
   26.460    6.2349
   26.490    5.9716
   26.520    5.8136
   26.550    6.1085
   26.580    5.8452
   26.610    5.9926
   26.640    6.0032
   26.670    6.1822
   26.700    5.9084
   26.730    6.1295
   26.760    5.9821
   26.790    5.8031
   26.820    5.4976
   26.850    5.7188
   26.880    5.5924
   26.910    5.8768
   26.940    6.2665
   26.970    5.6661
   27.000    6.1506
   27.030    5.7293
   27.060    6.2875
   27.090    6.0664
   27.120    6.0137
   27.150    6.0558
   27.180    5.8031
   27.210    5.5503
   27.240    5.6977
   27.270    6.1506
   27.300    5.8031
   27.330    5.7188
   27.360    5.6872
   27.390    5.5187
   27.420    5.9294
   27.450    5.8031
   27.480    5.9189
   27.510    5.6872
   27.540    5.7293
   27.570    6.0769
   27.600    6.1190
   27.630    6.1295
   27.660    5.8452
   27.690    5.7293
   27.720    5.9084
   27.750    5.6977
   27.780    5.5924
   27.810    5.7083
   27.840    5.8768
   27.870    5.6345
   27.900    5.5398
   27.930    5.8557
   27.960    5.5187
   27.990    5.6767
   28.020    5.5398
   28.050    5.7083
   28.080    5.8978
   28.110    5.8768
   28.140    6.0032
   28.170    6.4139
   28.200    6.1190
   28.230    5.9084
   28.260    5.7925
   28.290    5.6767
   28.320    5.4871
   28.350    5.3291
   28.380    5.7715
   28.410    5.6767
   28.440    5.8136
   28.470    5.5819
   28.500    5.7083
   28.530    5.5398
   28.560    5.7188
   28.590    5.4660
   28.620    5.0553
   28.650    5.2238
   28.680    5.9084
   28.710    5.4450
   28.740    5.2238
   28.770    5.3923
   28.800    5.8978
   28.830    5.2765
   28.860    5.7399
   28.890    5.7820
   28.920    5.4344
   28.950    5.5292
   28.980    5.5714
   29.010    5.3291
   29.040    5.6872
   29.070    5.5819
   29.100    5.5082
   29.130    5.7715
   29.160    5.4028
   29.190    5.7399
   29.220    5.5819
   29.250    5.3502
   29.280    5.5398
   29.310    5.8768
   29.340    5.4344
   29.370    5.4028
   29.400    5.8241
   29.430    5.4450
   29.460    5.3712
   29.490    5.4555
   29.520    5.0974
   29.550    5.2659
   29.580    5.3607
   29.610    5.6767
   29.640    5.1606
   29.670    5.4871
   29.700    5.5819
   29.730    5.7715
   29.760    5.1185
   29.790    5.0764
   29.820    5.5398
   29.850    5.0237
   29.880    5.1185
   29.910    5.4344
   29.940    5.2133
   29.970    5.3818
   30.000    5.4555
   30.030    5.5714
   30.060    5.0869
   30.090    5.3291
   30.120    5.7820
   30.150    5.1922
   30.180    5.3502
   30.210    5.5819
   30.240    5.1501
   30.270    5.4134
   30.300    5.4028
   30.330    5.1922
   30.360    5.5503
   30.390    5.2659
   30.420    5.0342
   30.450    5.4239
   30.480    5.2659
   30.510    5.4660
   30.540    5.1922
   30.570    5.5714
   30.600    5.5714
   30.630    5.0658
   30.660    5.3291
   30.690    5.3291
   30.720    5.2133
   30.750    5.0448
   30.780    5.6029
   30.810    5.4660
   30.840    5.4239
   30.870    5.0448
   30.900    5.4344
   30.930    5.6556
   30.960    5.1080
   30.990    4.9605
   31.020    4.9605
   31.050    5.2659
   31.080    4.8973
   31.110    4.8657
   31.140    5.3397
   31.170    5.3607
   31.200    5.0658
   31.230    5.2238
   31.260    4.9184
   31.290    5.1290
   31.320    5.0658
   31.350    5.2133
   31.380    5.5187
   31.410    5.2659
   31.440    5.2027
   31.470    5.8031
   31.500    4.8025
   31.530    5.2133
   31.560    5.1606
   31.590    5.0553
   31.620    5.1922
   31.650    5.1395
   31.680    5.2554
   31.710    5.6556
   31.740    5.0342
   31.770    5.5503
   31.800    5.2659
   31.830    5.4660
   31.860    5.4134
   31.890    5.4028
   31.920    5.1711
   31.950    5.3712
   31.980    5.3607
   32.010    5.1606
   32.040    5.2133
   32.070    5.0026
   32.100    5.3397
   32.130    5.1185
   32.160    5.4871
   32.190    5.4134
   32.220    5.2870
   32.250    5.0026
   32.280    5.5292
   32.310    5.1080
   32.340    5.0658
   32.370    5.0658
   32.400    5.2870
   32.430    4.8657
   32.460    5.3291
   32.490    4.9710
   32.520    5.1080
   32.550    4.7499
   32.580    4.9816
   32.610    5.1185
   32.640    4.8236
   32.670    5.0553
   32.700    4.8447
   32.730    5.0658
   32.760    4.7288
   32.790    4.9394
   32.820    5.0237
   32.850    5.0237
   32.880    4.6867
   32.910    5.1606
   32.940    4.8341
   32.970    5.3607
   33.000    5.0553
   33.030    4.6130
   33.060    4.9710
   33.090    4.3707
   33.120    5.0026
   33.150    4.8447
   33.180    4.7499
   33.210    4.6551
   33.240    4.6972
   33.270    4.9710
   33.300    4.5814
   33.330    4.6972
   33.360    4.7393
   33.390    4.8236
   33.420    4.7183
   33.450    4.4866
   33.480    4.7815
   33.510    4.8973
   33.540    4.7499
   33.570    5.0974
   33.600    4.9710
   33.630    5.0764
   33.660    4.6235
   33.690    4.7815
   33.720    4.9500
   33.750    5.0764
   33.780    4.9921
   33.810    4.7920
   33.840    4.8763
   33.870    4.9500
   33.900    4.8447
   33.930    4.8552
   33.960    4.8447
   33.990    4.7393
   34.020    4.6551
   34.050    4.6761
   34.080    4.5603
   34.110    4.3813
   34.140    4.6024
   34.170    5.0342
   34.200    5.0869
   34.230    4.7183
   34.260    4.5708
   34.290    4.4655
   34.320    4.8131
   34.350    4.7815
   34.380    4.8657
   34.410    4.7499
   34.440    4.8025
   34.470    4.5498
   34.500    4.6761
   34.530    4.6867
   34.560    4.6761
   34.590    4.3391
   34.620    4.6024
   34.650    4.4234
   34.680    4.8552
   34.710    4.5814
   34.740    4.7499
   34.770    4.8868
   34.800    4.6656
   34.830    4.6551
   34.860    4.2970
   34.890    4.7499
   34.920    4.1811
   34.950    4.4971
   34.980    4.6130
   35.010    4.6656
   35.040    4.3286
   35.070    4.1706
   35.100    4.3813
   35.130    4.6235
   35.160    4.5392
   35.190    4.6130
   35.220    4.6867
   35.250    4.2759
   35.280    4.6761
   35.310    4.2443
   35.340    4.6024
   35.370    4.4128
   35.400    4.6656
   35.430    4.6972
   35.460    4.5498
   35.490    4.2127
   35.520    4.5287
   35.550    4.4023
   35.580    4.4128
   35.610    4.4023
   35.640    4.5182
   35.670    4.6972
   35.700    4.7288
   35.730    4.5814
   35.760    4.5603
   35.790    4.3497
   35.820    4.7077
   35.850    4.4760
   35.880    4.8657
   35.910    4.8868
   35.940    4.2759
   35.970    4.2759
   36.000    4.2233
   36.030    4.4655
   36.060    4.3813
   36.090    4.2233
   36.120    4.6656
   36.150    4.2127
   36.180    4.8657
   36.210    4.3602
   36.240    4.4866
   36.270    4.6972
   36.300    4.6130
   36.330    4.7815
   36.360    4.2443
   36.390    4.3181
   36.420    4.7393
   36.450    4.4760
   36.480    4.5814
   36.510    4.4971
   36.540    3.8336
   36.570    4.2549
   36.600    4.7288
   36.630    4.7393
   36.660    4.4128
   36.690    4.4550
   36.720    4.7393
   36.750    4.0653
   36.780    4.3075
   36.810    4.3918
   36.840    4.1811
   36.870    4.0126
   36.900    4.1180
   36.930    4.4550
   36.960    4.5287
   36.990    4.1390
   37.020    4.3497
   37.050    4.1601
   37.080    4.3497
   37.110    4.6130
   37.140    4.2443
   37.170    4.4550
   37.200    4.0442
   37.230    4.3391
   37.260    4.2759
   37.290    4.2338
   37.320    4.3391
   37.350    4.2654
   37.380    4.1496
   37.410    4.0548
   37.440    4.5814
   37.470    4.1601
   37.500    4.4234
   37.530    4.3075
   37.560    4.2443
   37.590    4.4866
   37.620    4.6130
   37.650    4.2233
   37.680    4.4550
   37.710    4.3075
   37.740    4.3602
   37.770    4.0021
   37.800    3.8757
   37.830    4.1390
   37.860    4.3602
   37.890    4.4339
   37.920    4.0653
   37.950    4.3813
   37.980    4.1811
   38.010    4.4550
   38.040    4.6656
   38.070    4.3497
   38.100    4.4655
   38.130    4.0548
   38.160    4.2022
   38.190    4.3075
   38.220    4.1601
   38.250    4.1601
   38.280    4.0864
   38.310    4.0337
   38.340    4.1496
   38.370    4.1496
   38.400    4.2443
   38.430    4.3075
   38.460    4.1706
   38.490    4.1496
   38.520    4.1496
   38.550    4.1917
   38.580    4.1496
   38.610    3.8968
   38.640    3.9600
   38.670    4.3075
   38.700    4.4760
   38.730    4.3075
   38.760    4.4339
   38.790    4.0864
   38.820    3.8863
   38.850    4.2127
   38.880    3.9916
   38.910    4.3497
   38.940    4.1074
   38.970    4.5708
   39.000    4.6024
   39.030    4.4655
   39.060    3.9916
   39.090    4.1496
   39.120    3.9810
   39.150    4.2549
   39.180    4.3181
   39.210    4.4550
   39.240    3.9389
   39.270    4.3707
   39.300    4.3602
   39.330    4.6024
   39.360    3.8231
   39.390    4.6130
   39.420    4.0864
   39.450    4.2338
   39.480    4.6235
   39.510    4.2443
   39.540    4.1074
   39.570    4.1601
   39.600    4.4550
   39.630    4.3918
   39.660    4.2865
   39.690    4.3075
   39.720    4.2865
   39.750    4.2127
   39.780    4.1917
   39.810    4.5287
   39.840    4.1601
   39.870    4.4023
   39.900    4.4128
   39.930    3.8863
   39.960    3.9916
   39.990    4.2549