File: data/MOCOF-1/PXRD/PXRD_KE-002_Cu-Ka1_capillary-1mm_5s-deg.xyd
    1.500   10.1422
    1.530    9.8262
    1.560    9.7104
    1.590    9.3734
    1.620    9.1732
    1.650    8.9521
    1.680    8.2886
    1.710    8.1833
    1.740    7.8357
    1.770    8.1201
    1.800    7.4671
    1.830    7.1933
    1.860    7.1933
    1.890    7.0353
    1.920    6.8878
    1.950    6.6983
    1.980    6.4771
    2.010    6.2349
    2.040    6.3823
    2.070    6.2981
    2.100    6.3928
    2.130    6.1085
    2.160    5.7925
    2.190    5.8452
    2.220    5.7083
    2.250    5.9505
    2.280    5.9294
    2.310    5.6872
    2.340    5.8031
    2.370    5.3502
    2.400    5.5398
    2.430    5.4871
    2.460    5.2765
    2.490    5.6135
    2.520    5.5924
    2.550    5.4660
    2.580    5.5398
    2.610    5.2238
    2.640    5.8031
    2.670    5.2343
    2.700    5.2238
    2.730    5.4660
    2.760    5.2343
    2.790    5.5082
    2.820    5.4134
    2.850    5.5608
    2.880    5.3186
    2.910    5.2238
    2.940    5.9189
    2.970    5.9821
    3.000    5.9294
    3.030    5.8136
    3.060    5.9189
    3.090    6.2981
    3.120    6.3086
    3.150    6.6351
    3.180    6.5403
    3.210    6.5403
    3.240    6.7088
    3.270    7.2775
    3.300    6.8246
    3.330    7.2038
    3.360    7.0458
    3.390    7.8989
    3.420    8.0990
    3.450    8.4150
    3.480    9.1732
    3.510    8.3623
    3.540    8.6993
    3.570    8.6783
    3.600    8.7204
    3.630    8.9837
    3.660    9.0047
    3.690    8.6572
    3.720    9.0890
    3.750    8.5940
    3.780    8.2359
    3.810    8.2991
    3.840    7.9726
    3.870    7.9726
    3.900    7.4144
    3.930    7.3196
    3.960    7.0458
    3.990    6.7193
    4.020    6.7509
    4.050    6.4771
    4.080    6.6772
    4.110    6.2559
    4.140    6.0664
    4.170    5.9926
    4.200    5.9926
    4.230    5.5187
    4.260    5.4976
    4.290    5.8768
    4.320    5.4134
    4.350    5.4239
    4.380    5.2133
    4.410    5.2659
    4.440    5.3186
    4.470    5.5819
    4.500    5.3081
    4.530    5.5819
    4.560    5.1817
    4.590    5.0237
    4.620    4.9816
    4.650    4.8763
    4.680    4.9605
    4.710    5.0869
    4.740    5.0237
    4.770    4.8131
    4.800    5.1080
    4.830    5.0764
    4.860    4.8131
    4.890    4.8657
    4.920    5.0658
    4.950    4.9816
    4.980    4.5392
    5.010    4.9394
    5.040    4.5182
    5.070    4.6235
    5.100    4.5498
    5.130    4.6235
    5.160    4.5814
    5.190    4.9289
    5.220    4.7604
    5.250    4.7499
    5.280    4.5814
    5.310    4.7288
    5.340    4.8025
    5.370    4.5287
    5.400    4.6024
    5.430    4.1285
    5.460    4.5182
    5.490    4.5603
    5.520    4.1074
    5.550    4.4444
    5.580    4.5287
    5.610    4.6656
    5.640    4.8025
    5.670    4.2127
    5.700    4.3707
    5.730    4.3391
    5.760    4.4023
    5.790    4.2443
    5.820    4.4023
    5.850    4.6340
    5.880    4.2970
    5.910    4.4655
    5.940    4.4128
    5.970    4.0442
    6.000    4.1706
    6.030    4.1074
    6.060    4.3813
    6.090    4.3391
    6.120    4.3075
    6.150    4.4655
    6.180    4.4444
    6.210    4.3286
    6.240    4.2970
    6.270    4.2443
    6.300    4.4444
    6.330    4.1811
    6.360    4.1601
    6.390    4.4128
    6.420    4.3602
    6.450    3.9705
    6.480    3.9389
    6.510    4.1180
    6.540    4.2654
    6.570    4.1180
    6.600    4.1074
    6.630    3.9494
    6.660    3.7704
    6.690    4.0442
    6.720    4.3075
    6.750    4.0758
    6.780    4.2549
    6.810    4.4655
    6.840    3.9073
    6.870    4.1811
    6.900    4.2759
    6.930    4.3602
    6.960    4.6656
    6.990    4.2022
    7.020    4.2022
    7.050    4.1917
    7.080    4.5708
    7.110    4.6445
    7.140    4.3918
    7.170    4.4128
    7.200    4.6445
    7.230    4.2022
    7.260    4.4760
    7.290    4.5392
    7.320    4.4234
    7.350    4.6235
    7.380    4.3391
    7.410    4.3075
    7.440    4.1285
    7.470    4.4866
    7.500    4.2233
    7.530    3.8968
    7.560    4.0232
    7.590    4.1917
    7.620    4.0969
    7.650    4.0864
    7.680    4.0232
    7.710    3.8652
    7.740    4.1390
    7.770    4.1706
    7.800    3.7809
    7.830    3.7493
    7.860    3.9389
    7.890    3.7177
    7.920    3.7809
    7.950    3.5703
    7.980    3.9810
    8.010    3.6230
    8.040    3.8231
    8.070    3.6862
    8.100    3.6862
    8.130    3.9389
    8.160    3.7809
    8.190    3.7809
    8.220    3.7915
    8.250    3.4860
    8.280    3.6756
    8.310    3.7388
    8.340    3.6651
    8.370    3.3070
    8.400    3.5492
    8.430    3.5387
    8.460    3.7177
    8.490    3.6230
    8.520    3.6230
    8.550    3.5808
    8.580    3.9810
    8.610    3.6546
    8.640    3.6862
    8.670    3.7493
    8.700    3.5282
    8.730    3.5808
    8.760    3.6019
    8.790    3.4544
    8.820    3.4123
    8.850    3.2649
    8.880    3.8863
    8.910    3.3281
    8.940    3.5282
    8.970    3.5176
    9.000    3.7809
    9.030    3.6019
    9.060    3.5598
    9.090    3.6440
    9.120    3.4966
    9.150    3.7388
    9.180    3.7388
    9.210    3.6124
    9.240    3.4018
    9.270    3.2543
    9.300    3.4229
    9.330    3.5282
    9.360    3.6335
    9.390    3.3281
    9.420    3.6651
    9.450    3.2333
    9.480    3.3281
    9.510    3.2438
    9.540    3.4123
    9.570    3.4966
    9.600    3.2649
    9.630    3.4966
    9.660    3.4755
    9.690    3.4018
    9.720    3.4439
    9.750    3.2227
    9.780    3.4966
    9.810    3.3386
    9.840    3.3491
    9.870    3.4544
    9.900    3.8231
    9.930    3.5914
    9.960    3.4018
    9.990    3.5071
   10.020    3.4650
   10.050    3.2543
   10.080    3.5598
   10.110    3.4966
   10.140    3.5071
   10.170    3.0648
   10.200    3.4650
   10.230    3.5176
   10.260    3.5387
   10.290    3.4334
   10.320    3.3175
   10.350    3.7072
   10.380    3.2965
   10.410    3.4439
   10.440    3.3386
   10.470    3.6651
   10.500    3.4334
   10.530    3.0648
   10.560    3.1912
   10.590    3.5808
   10.620    3.6019
   10.650    3.3175
   10.680    3.5703
   10.710    3.2333
   10.740    3.1701
   10.770    3.6335
   10.800    3.6651
   10.830    3.7283
   10.860    3.5703
   10.890    3.4544
   10.920    3.3597
   10.950    3.2227
   10.980    3.4123
   11.010    3.3807
   11.040    3.5808
   11.070    3.7704
   11.100    3.5808
   11.130    3.6230
   11.160    3.2859
   11.190    3.3702
   11.220    3.4229
   11.250    3.7704
   11.280    3.3807
   11.310    3.4544
   11.340    3.4123
   11.370    3.4439
   11.400    3.3913
   11.430    3.5808
   11.460    3.4334
   11.490    3.5282
   11.520    3.4544
   11.550    3.5387
   11.580    3.4966
   11.610    3.3807
   11.640    3.1490
   11.670    3.5598
   11.700    3.1912
   11.730    3.3597
   11.760    3.4018
   11.790    3.5176
   11.820    3.4544
   11.850    3.4966
   11.880    3.5914
   11.910    3.5071
   11.940    3.6862
   11.970    3.4544
   12.000    3.6124
   12.030    3.3702
   12.060    3.6756
   12.090    3.3807
   12.120    3.3386
   12.150    3.4755
   12.180    3.3913
   12.210    3.4439
   12.240    3.4439
   12.270    3.4123
   12.300    3.4334
   12.330    3.6756
   12.360    3.4123
   12.390    3.4018
   12.420    3.4860
   12.450    3.4650
   12.480    3.6546
   12.510    3.4229
   12.540    3.2227
   12.570    3.4860
   12.600    3.5808
   12.630    3.3281
   12.660    3.2333
   12.690    3.6019
   12.720    3.2227
   12.750    3.6862
   12.780    3.5282
   12.810    3.2543
   12.840    3.3807
   12.870    3.5598
   12.900    3.2017
   12.930    3.5071
   12.960    3.6230
   12.990    3.4544
   13.020    3.2965
   13.050    3.3702
   13.080    3.3913
   13.110    3.2438
   13.140    3.3491
   13.170    3.3386
   13.200    3.4229
   13.230    3.6019
   13.260    3.8125
   13.290    3.3491
   13.320    3.2649
   13.350    3.4544
   13.380    3.3702
   13.410    3.3597
   13.440    3.2227
   13.470    3.7704
   13.500    3.0542
   13.530    3.1912
   13.560    3.3070
   13.590    3.0332
   13.620    3.4123
   13.650    3.1385
   13.680    3.4334
   13.710    3.4650
   13.740    3.1069
   13.770    3.1912
   13.800    3.5492
   13.830    3.7177
   13.860    2.9700
   13.890    3.1490
   13.920    3.1490
   13.950    3.2754
   13.980    3.2965
   14.010    3.4966
   14.040    3.2017
   14.070    3.3386
   14.100    3.3913
   14.130    3.3702
   14.160    3.1596
   14.190    3.3702
   14.220    3.0964
   14.250    3.2122
   14.280    3.3913
   14.310    3.2017
   14.340    3.5387
   14.370    3.4544
   14.400    3.2227
   14.430    3.0226
   14.460    3.1912
   14.490    3.6335
   14.520    3.2543
   14.550    3.3070
   14.580    3.2438
   14.610    3.4966
   14.640    3.2333
   14.670    3.3702
   14.700    3.4966
   14.730    3.2017
   14.760    3.3175
   14.790    3.2859
   14.820    3.2543
   14.850    3.4650
   14.880    3.3175
   14.910    3.4229
   14.940    3.5282
   14.970    3.3597
   15.000    3.4439
   15.030    3.5914
   15.060    3.1174
   15.090    3.4439
   15.120    3.4966
   15.150    3.3386
   15.180    3.3702
   15.210    3.1806
   15.240    3.3597
   15.270    3.5598
   15.300    3.4860
   15.330    3.1806
   15.360    3.1806
   15.390    3.4018
   15.420    3.5598
   15.450    3.2649
   15.480    3.3702
   15.510    3.3491
   15.540    3.1701
   15.570    3.5598
   15.600    3.2543
   15.630    3.0016
   15.660    3.1490
   15.690    3.4544
   15.720    3.4018
   15.750    3.4018
   15.780    3.3386
   15.810    3.4439
   15.840    3.3386
   15.870    3.5282
   15.900    3.6019
   15.930    3.4018
   15.960    3.6651
   15.990    3.1596
   16.020    3.5598
   16.050    3.3702
   16.080    3.5387
   16.110    3.4755
   16.140    3.2122
   16.170    3.4229
   16.200    3.2122
   16.230    3.4018
   16.260    3.4229
   16.290    3.3702
   16.320    3.5703
   16.350    3.6651
   16.380    3.3386
   16.410    3.4018
   16.440    3.3913
   16.470    3.7177
   16.500    3.5492
   16.530    3.1596
   16.560    3.5808
   16.590    3.5282
   16.620    3.5914
   16.650    3.4650
   16.680    3.4334
   16.710    3.2543
   16.740    3.4544
   16.770    3.4018
   16.800    3.3807
   16.830    3.3491
   16.860    3.5387
   16.890    3.4966
   16.920    3.4018
   16.950    3.5914
   16.980    3.1701
   17.010    3.4544
   17.040    3.4229
   17.070    3.4123
   17.100    3.3702
   17.130    3.3702
   17.160    3.4860
   17.190    3.5387
   17.220    3.4650
   17.250    3.6546
   17.280    3.4544
   17.310    3.6862
   17.340    3.3807
   17.370    3.2649
   17.400    3.7493
   17.430    3.8441
   17.460    3.4544
   17.490    3.6440
   17.520    3.5176
   17.550    3.8336
   17.580    3.4650
   17.610    3.8863
   17.640    3.3175
   17.670    3.6756
   17.700    3.3070
   17.730    3.4334
   17.760    3.2965
   17.790    3.5914
   17.820    3.7915
   17.850    3.8336
   17.880    3.6756
   17.910    4.0126
   17.940    4.1811
   17.970    3.7388
   18.000    3.8231
   18.030    4.3497
   18.060    3.8441
   18.090    4.1285
   18.120    3.8757
   18.150    4.0126
   18.180    3.7072
   18.210    3.5492
   18.240    3.8020
   18.270    3.7177
   18.300    3.3175
   18.330    3.7704
   18.360    3.9389
   18.390    3.5282
   18.420    3.6124
   18.450    3.7283
   18.480    3.7809
   18.510    4.0758
   18.540    3.7283
   18.570    3.5176
   18.600    3.8020
   18.630    3.4650
   18.660    3.8336
   18.690    3.6967
   18.720    3.9179
   18.750    3.5914
   18.780    3.7177
   18.810    3.3807
   18.840    3.6335
   18.870    3.9073
   18.900    3.5703
   18.930    3.7599
   18.960    3.8547
   18.990    3.8652
   19.020    3.5703
   19.050    3.7072
   19.080    3.5071
   19.110    3.9810
   19.140    3.6756
   19.170    3.7704
   19.200    3.6019
   19.230    3.6124
   19.260    3.7493
   19.290    3.6967
   19.320    3.6756
   19.350    3.7809
   19.380    4.0021
   19.410    3.6019
   19.440    3.5914
   19.470    3.8125
   19.500    4.0126
   19.530    3.4650
   19.560    3.8863
   19.590    3.8231
   19.620    3.7915
   19.650    3.6019
   19.680    3.7704
   19.710    3.7493
   19.740    3.8863
   19.770    3.7915
   19.800    3.7072
   19.830    3.9389
   19.860    3.7388
   19.890    3.6967
   19.920    3.6124
   19.950    4.0548
   19.980    3.4966
   20.010    3.6862
   20.040    3.5808
   20.070    3.5914
   20.100    3.7283
   20.130    3.8231
   20.160    3.5176
   20.190    4.0548
   20.220    3.7072
   20.250    4.1285
   20.280    4.1180
   20.310    3.7599
   20.340    4.0864
   20.370    3.6230
   20.400    3.6335
   20.430    3.7388
   20.460    3.9494
   20.490    3.7915
   20.520    3.6651
   20.550    3.6335
   20.580    3.7283
   20.610    3.7704
   20.640    3.8652
   20.670    3.5598
   20.700    3.6862
   20.730    3.5598
   20.760    3.8125
   20.790    3.7177
   20.820    3.5387
   20.850    3.6546
   20.880    3.6651
   20.910    3.7388
   20.940    4.0337
   20.970    3.6019
   21.000    3.8020
   21.030    3.5176
   21.060    3.6756
   21.090    3.9705
   21.120    3.6230
   21.150    3.6019
   21.180    3.8336
   21.210    3.6862
   21.240    4.2654
   21.270    3.4334
   21.300    3.9073
   21.330    3.7072
   21.360    3.7493
   21.390    3.6862
   21.420    3.7072
   21.450    3.6651
   21.480    3.9705
   21.510    3.6651
   21.540    3.7177
   21.570    3.7915
   21.600    3.5598
   21.630    3.5914
   21.660    3.4755
   21.690    3.8968
   21.720    3.9705
   21.750    3.6546
   21.780    3.6967
   21.810    3.9705
   21.840    3.7915
   21.870    4.1285
   21.900    3.9705
   21.930    3.4650
   21.960    3.6230
   21.990    3.6440
   22.020    3.7177
   22.050    3.8231
   22.080    3.7809
   22.110    3.6440
   22.140    3.5703
   22.170    3.6546
   22.200    3.7283
   22.230    3.6546
   22.260    3.6651
   22.290    3.9494
   22.320    3.9494
   22.350    3.8336
   22.380    3.8968
   22.410    4.1074
   22.440    3.8336
   22.470    3.7388
   22.500    3.9600
   22.530    3.8336
   22.560    3.9705
   22.590    3.6651
   22.620    3.8441
   22.650    3.8125
   22.680    3.5176
   22.710    3.6651
   22.740    3.6019
   22.770    3.7388
   22.800    4.0548
   22.830    3.6230
   22.860    3.6230
   22.890    3.8757
   22.920    3.4334
   22.950    3.5492
   22.980    3.4860
   23.010    3.7704
   23.040    3.8125
   23.070    3.5071
   23.100    3.7177
   23.130    3.8125
   23.160    3.9705
   23.190    3.7283
   23.220    3.8863
   23.250    3.6230
   23.280    4.0864
   23.310    3.5071
   23.340    4.0126
   23.370    3.6546
   23.400    3.7809
   23.430    3.6440
   23.460    3.6230
   23.490    3.8125
   23.520    3.5914
   23.550    3.7599
   23.580    3.5282
   23.610    3.5808
   23.640    3.5703
   23.670    3.7177
   23.700    3.8863
   23.730    3.6756
   23.760    3.3913
   23.790    3.6019
   23.820    3.6651
   23.850    3.6335
   23.880    3.8020
   23.910    3.6756
   23.940    3.7493
   23.970    3.8020
   24.000    3.5176
   24.030    3.4229
   24.060    3.5808
   24.090    3.6335
   24.120    3.5282
   24.150    3.6651
   24.180    3.8020
   24.210    3.6967
   24.240    3.8652
   24.270    3.4229
   24.300    3.2965
   24.330    3.7704
   24.360    3.6335
   24.390    3.6546
   24.420    3.4755
   24.450    3.9179
   24.480    3.5176
   24.510    3.5598
   24.540    3.5071
   24.570    3.4650
   24.600    3.6862
   24.630    3.7072
   24.660    3.3597
   24.690    3.7283
   24.720    3.5176
   24.750    3.5703
   24.780    3.3175
   24.810    3.5387
   24.840    3.6862
   24.870    3.5282
   24.900    3.7283
   24.930    3.5071
   24.960    3.5387
   24.990    3.3807
   25.020    3.5387
   25.050    3.4439
   25.080    3.5914
   25.110    3.4018
   25.140    3.3807
   25.170    3.4544
   25.200    3.2333
   25.230    3.4755
   25.260    3.4755
   25.290    3.5598
   25.320    3.3597
   25.350    3.4334
   25.380    3.4123
   25.410    3.4650
   25.440    3.3175
   25.470    3.5387
   25.500    3.4439
   25.530    3.8231
   25.560    3.4755
   25.590    3.6019
   25.620    3.6335
   25.650    3.5492
   25.680    3.3070
   25.710    3.7072
   25.740    3.4439
   25.770    3.2438
   25.800    3.3597
   25.830    3.3597
   25.860    3.2965
   25.890    3.4439
   25.920    3.4755
   25.950    3.1069
   25.980    3.3491
   26.010    3.3597
   26.040    3.0016
   26.070    3.2754
   26.100    3.4334
   26.130    3.3597
   26.160    3.7072
   26.190    3.5176
   26.220    3.3807
   26.250    3.3070
   26.280    3.3702
   26.310    3.2122
   26.340    3.4018
   26.370    3.1069
   26.400    3.3281
   26.430    3.2543
   26.460    3.2965
   26.490    3.0858
   26.520    3.4439
   26.550    2.9910
   26.580    3.2438
   26.610    3.2965
   26.640    3.1174
   26.670    3.2649
   26.700    3.1174
   26.730    3.4334
   26.760    3.4650
   26.790    3.0648
   26.820    3.1069
   26.850    2.8647
   26.880    3.0964
   26.910    3.3491
   26.940    3.0542
   26.970    3.2859
   27.000    3.2227
   27.030    3.2859
   27.060    3.1174
   27.090    3.3386
   27.120    3.2649
   27.150    3.0648
   27.180    3.1912
   27.210    3.0648
   27.240    3.1596
   27.270    3.0332
   27.300    2.9910
   27.330    3.3281
   27.360    3.2543
   27.390    2.9805
   27.420    2.9595
   27.450    3.0648
   27.480    3.0332
   27.510    3.1174
   27.540    3.4755
   27.570    2.9805
   27.600    3.3070
   27.630    2.9279
   27.660    2.8541
   27.690    2.9805
   27.720    3.0648
   27.750    2.9173
   27.780    3.0964
   27.810    3.1806
   27.840    3.1174
   27.870    2.9384
   27.900    2.9173
   27.930    3.2754
   27.960    3.0753
   27.990    2.9279
   28.020    3.1385
   28.050    3.0648
   28.080    3.2438
   28.110    3.0542
   28.140    2.8120
   28.170    3.0437
   28.200    3.4018
   28.230    3.1912
   28.260    3.0332
   28.290    3.2649
   28.320    3.0016
   28.350    2.9910
   28.380    2.7909
   28.410    2.7909
   28.440    2.8436
   28.470    2.8225
   28.500    2.9384
   28.530    3.1280
   28.560    2.9384
   28.590    3.1174
   28.620    3.1912
   28.650    2.7804
   28.680    3.0753
   28.710    3.0121
   28.740    3.0016
   28.770    3.1596
   28.800    2.9910
   28.830    3.0542
   28.860    2.8436
   28.890    2.9068
   28.920    2.8647
   28.950    2.8541
   28.980    2.8963
   29.010    3.0121
   29.040    2.5908
   29.070    2.7804
   29.100    2.8541
   29.130    2.7278
   29.160    3.0542
   29.190    2.7593
   29.220    2.7593
   29.250    2.6330
   29.280    2.8436
   29.310    3.0648
   29.340    2.7488
   29.370    2.8752
   29.400    2.9384
   29.430    2.8963
   29.460    2.7383
   29.490    3.0437
   29.520    2.8015
   29.550    2.6435
   29.580    2.6646
   29.610    2.7278
   29.640    2.8752
   29.670    2.6014
   29.700    2.9595
   29.730    2.7488
   29.760    2.7699
   29.790    2.8857
   29.820    2.6751
   29.850    2.7383
   29.880    3.0542
   29.910    2.5908
   29.940    2.7488
   29.970    2.6962
   30.000    2.9279
   30.030    3.0226
   30.060    2.9279
   30.090    2.8857
   30.120    2.6751
   30.150    2.6962
   30.180    2.6962
   30.210    2.6330
   30.240    2.5066
   30.270    2.4855
   30.300    2.7172
   30.330    2.7383
   30.360    2.6330
   30.390    2.8120
   30.420    2.8963
   30.450    2.4223
   30.480    2.6646
   30.510    2.5276
   30.540    2.6224
   30.570    2.8857
   30.600    2.6224
   30.630    2.9384
   30.660    2.6856
   30.690    2.4434
   30.720    2.8225
   30.750    2.7488
   30.780    2.8541
   30.810    2.6540
   30.840    2.7804
   30.870    2.7172
   30.900    2.4329
   30.930    2.6224
   30.960    2.7067
   30.990    2.6751
   31.020    2.8436
   31.050    2.4223
   31.080    2.5698
   31.110    2.6014
   31.140    2.9910
   31.170    2.7172
   31.200    2.8541
   31.230    2.5592
   31.260    2.6751
   31.290    2.3697
   31.320    2.6856
   31.350    2.6014
   31.380    2.5698
   31.410    2.6540
   31.440    2.3802
   31.470    2.7488
   31.500    2.4961
   31.530    2.6330
   31.560    2.6751
   31.590    2.5592
   31.620    2.5592
   31.650    2.5803
   31.680    2.5382
   31.710    2.6962
   31.740    2.7067
   31.770    2.5171
   31.800    2.3697
   31.830    2.3802
   31.860    2.5276
   31.890    2.6224
   31.920    2.4750
   31.950    2.6435
   31.980    2.2959
   32.010    2.3697
   32.040    2.5066
   32.070    2.5066
   32.100    2.5803
   32.130    2.4118
   32.160    2.4750
   32.190    2.6646
   32.220    2.3802
   32.250    2.3275
   32.280    2.3907
   32.310    2.5698
   32.340    2.3486
   32.370    2.3275
   32.400    2.5171
   32.430    2.3065
   32.460    2.4750
   32.490    2.3170
   32.520    2.2854
   32.550    2.5382
   32.580    2.3486
   32.610    2.6330
   32.640    2.2854
   32.670    2.1696
   32.700    2.4434
   32.730    2.3697
   32.760    2.2012
   32.790    2.3802
   32.820    2.2959
   32.850    2.4329
   32.880    2.1590
   32.910    2.3381
   32.940    2.3697
   32.970    2.0011
   33.000    2.1169
   33.030    2.2012
   33.060    2.2433
   33.090    2.2959
   33.120    2.1274
   33.150    2.1380
   33.180    2.0748
   33.210    2.0642
   33.240    2.0432
   33.270    2.1801
   33.300    2.2433
   33.330    2.1169
   33.360    2.2959
   33.390    2.0958
   33.420    2.2328
   33.450    2.3275
   33.480    2.2538
   33.510    2.2012
   33.540    2.0642
   33.570    2.3170
   33.600    2.0958
   33.630    2.2433
   33.660    2.1801
   33.690    2.1696
   33.720    2.1380
   33.750    2.2117
   33.780    2.0432
   33.810    1.8747
   33.840    1.9379
   33.870    2.0537
   33.900    2.0642
   33.930    2.0116
   33.960    2.1485
   33.990    1.7694
   34.020    1.8536
   34.050    2.0537
   34.080    2.2538
   34.110    1.9800
   34.140    2.0537
   34.170    1.8536
   34.200    2.0642
   34.230    1.9905
   34.260    2.0011
   34.290    2.0853
   34.320    1.9063
   34.350    1.7799
   34.380    2.0116
   34.410    1.9379
   34.440    1.8957
   34.470    1.9484
   34.500    1.8536
   34.530    1.8852
   34.560    1.8747
   34.590    2.0116
   34.620    1.8325
   34.650    1.9695
   34.680    1.8009
   34.710    1.9379
   34.740    1.9063
   34.770    1.9695
   34.800    2.0011
   34.830    1.9800
   34.860    2.0326
   34.890    1.7799
   34.920    1.8115
   34.950    1.8325
   34.980    1.8957
   35.010    2.0326
   35.040    1.8641
   35.070    1.7483
   35.100    1.8325
   35.130    1.9800
   35.160    1.8641
   35.190    1.8220
   35.220    1.8747
   35.250    1.7062
   35.280    1.7062
   35.310    1.9379
   35.340    1.7167
   35.370    1.7904
   35.400    1.8431
   35.430    1.8957
   35.460    1.8220
   35.490    1.7272
   35.520    1.7904
   35.550    1.6640
   35.580    1.7588
   35.610    1.5692
   35.640    1.7272
   35.670    1.8431
   35.700    1.6430
   35.730    1.8431
   35.760    1.6535
   35.790    2.0642
   35.820    1.8536
   35.850    1.6008
   35.880    1.7483
   35.910    1.5271
   35.940    1.7483
   35.970    1.9168
   36.000    1.4429
   36.030    1.7062
   36.060    1.8115
   36.090    1.7378
   36.120    1.7694
   36.150    1.5587
   36.180    1.6956
   36.210    1.8536
   36.240    1.6746
   36.270    1.5903
   36.300    1.7167
   36.330    1.6535
   36.360    1.6008
   36.390    1.5903
   36.420    1.7167
   36.450    1.7272
   36.480    1.6851
   36.510    1.7588
   36.540    1.6114
   36.570    1.5587
   36.600    1.5692
   36.630    1.5166
   36.660    1.5377
   36.690    1.7588
   36.720    1.6114
   36.750    1.5587
   36.780    1.5587
   36.810    1.9273
   36.840    1.6114
   36.870    1.8536
   36.900    1.4007
   36.930    1.4745
   36.960    1.6324
   36.990    1.7378
   37.020    1.5166
   37.050    1.6008
   37.080    1.6114
   37.110    1.7272
   37.140    1.7694
   37.170    1.5692
   37.200    1.5377
   37.230    1.5587
   37.260    1.4534
   37.290    1.6008
   37.320    1.5692
   37.350    1.4218
   37.380    1.5903
   37.410    1.4218
   37.440    1.4850
   37.470    1.6114
   37.500    1.5903
   37.530    1.4745
   37.560    1.6114
   37.590    1.6114
   37.620    1.4323
   37.650    1.4534
   37.680    1.3481
   37.710    1.4218
   37.740    1.5271
   37.770    1.5166
   37.800    1.4639
   37.830    1.5587
   37.860    1.5061
   37.890    1.3902
   37.920    1.3797
   37.950    1.4955
   37.980    1.3375
   38.010    1.4429
   38.040    1.4113
   38.070    1.4218
   38.100    1.4534
   38.130    1.4534
   38.160    1.4850
   38.190    1.4639
   38.220    1.4218
   38.250    1.4639
   38.280    1.4323
   38.310    1.3797
   38.340    1.5377
   38.370    1.5903
   38.400    1.5061
   38.430    1.4745
   38.460    1.2954
   38.490    1.5271
   38.520    1.4850
   38.550    1.5482
   38.580    1.3797
   38.610    1.4850
   38.640    1.5061
   38.670    1.6008
   38.700    1.4850
   38.730    1.3691
   38.760    1.6640
   38.790    1.4323
   38.820    1.4745
   38.850    1.4323
   38.880    1.5061
   38.910    1.6219
   38.940    1.4639
   38.970    1.4639
   39.000    1.1690
   39.030    1.4429
   39.060    1.4534
   39.090    1.3481
   39.120    1.5061
   39.150    1.3375
   39.180    1.4007
   39.210    1.4534
   39.240    1.4218
   39.270    1.6219
   39.300    1.5061
   39.330    1.4007
   39.360    1.4007
   39.390    1.3165
   39.420    1.6640
   39.450    1.4850
   39.480    1.6114
   39.510    1.3586
   39.540    1.4534
   39.570    1.5903
   39.600    1.4007
   39.630    1.4534
   39.660    1.4429
   39.690    1.4218
   39.720    1.3165
   39.750    1.4007
   39.780    1.3481
   39.810    1.4745
   39.840    1.4007
   39.870    1.2217
   39.900    1.2533
   39.930    1.3165
   39.960    1.4007
   39.990    1.3691