File: data/MOCOF-1/PXRD/PXRD_KE-242-3_Cu-Ka1_capillary-1mm_3s-deg.xyd
    1.500   51.5710
    1.530   50.5354
    1.560   49.4471
    1.590   45.1115
    1.620   44.3567
    1.650   41.8466
    1.680   40.1790
    1.710   37.6163
    1.740   36.4929
    1.770   34.6674
    1.800   32.6839
    1.830   31.9466
    1.860   30.7355
    1.890   30.8759
    1.920   28.9977
    1.950   26.9440
    1.980   26.5929
    2.010   24.7850
    2.040   24.6270
    2.070   25.1009
    2.100   23.4509
    2.130   22.1871
    2.160   22.5908
    2.190   20.9233
    2.220   20.4494
    2.250   19.1855
    2.280   19.0627
    2.310   19.4137
    2.340   18.4132
    2.370   17.9919
    2.400   17.3249
    2.430   16.0786
    2.460   17.1143
    2.490   16.8685
    2.520   16.4824
    2.550   15.9031
    2.580   15.4467
    2.610   16.1664
    2.640   14.3233
    2.670   14.7095
    2.700   14.4286
    2.730   13.5159
    2.760   14.1302
    2.790   14.0776
    2.820   14.2882
    2.850   14.3233
    2.880   13.7967
    2.910   13.8318
    2.940   13.7090
    2.970   13.8318
    3.000   14.2005
    3.030   14.0074
    3.060   13.7265
    3.090   13.9372
    3.120   14.4111
    3.150   15.1132
    3.180   16.0786
    3.210   16.0084
    3.240   17.0090
    3.270   17.7286
    3.300   18.4132
    3.330   20.6775
    3.360   22.2047
    3.390   22.7839
    3.420   25.2765
    3.450   27.9445
    3.480   30.3669
    3.510   33.3860
    3.540   37.4759
    3.570   41.5306
    3.600   46.8843
    3.630   53.8880
    3.660   61.5587
    3.690   71.9677
    3.720   84.0618
    3.750  103.6861
    3.780  129.3663
    3.810  173.0385
    3.840  223.1877
    3.870  204.0899
    3.900  118.6941
    3.930   44.7077
    3.960   20.9057
    3.990   15.6047
    4.020   12.8664
    4.050   11.9712
    4.080   10.4616
    4.110   10.3563
    4.140    9.8297
    4.170    9.3207
    4.200    9.1978
    4.230    9.0223
    4.260    8.8117
    4.290    8.8819
    4.320    8.7239
    4.350    8.7414
    4.380    8.4606
    4.410    8.0569
    4.440    8.2149
    4.470    8.1973
    4.500    8.3553
    4.530    8.0744
    4.560    7.9867
    4.590    7.6005
    4.620    7.9691
    4.650    7.1617
    4.680    8.2675
    4.710    7.3547
    4.740    7.9691
    4.770    7.4425
    4.800    8.1095
    4.830    7.8462
    4.860    7.3372
    4.890    7.7234
    4.920    7.5478
    4.950    7.8638
    4.980    8.0393
    5.010    8.6010
    5.040    8.5659
    5.070    8.8117
    5.100    8.6010
    5.130    9.1627
    5.160    9.4611
    5.190   10.2686
    5.220   11.9186
    5.250   12.2170
    5.280   13.7441
    5.310   14.3233
    5.340   17.6584
    5.370   19.9228
    5.400   24.4690
    5.430   32.6488
    5.460   41.5131
    5.490   40.2317
    5.520   27.9972
    5.550   14.3760
    5.580    9.7244
    5.610    8.6888
    5.640    7.7585
    5.670    7.7409
    5.700    7.2143
    5.730    7.3899
    5.760    7.4952
    5.790    7.0915
    5.820    6.9159
    5.850    7.2319
    5.880    6.9686
    5.910    7.2494
    5.940    6.4069
    5.970    6.7404
    6.000    6.5473
    6.030    6.6877
    6.060    6.8282
    6.090    6.6702
    6.120    6.7930
    6.150    6.7053
    6.180    6.4420
    6.210    6.8282
    6.240    6.8457
    6.270    6.8282
    6.300    6.7228
    6.330    6.6526
    6.360    6.4595
    6.390    6.6526
    6.420    6.5649
    6.450    6.0909
    6.480    6.6351
    6.510    7.2319
    6.540    7.0739
    6.570    7.4776
    6.600    7.4952
    6.630    8.0744
    6.660    8.3904
    6.690    9.1627
    6.720    9.0750
    6.750    9.3207
    6.780    7.9164
    6.810    7.6005
    6.840    6.7228
    6.870    6.4946
    6.900    6.5649
    6.930    7.2319
    6.960    6.7053
    6.990    6.5122
    7.020    6.7755
    7.050    6.9686
    7.080    6.2489
    7.110    6.2313
    7.140    6.4946
    7.170    6.9510
    7.200    6.1260
    7.230    6.8633
    7.260    7.1090
    7.290    6.4771
    7.320    6.8984
    7.350    6.8984
    7.380    6.9510
    7.410    6.6877
    7.440    6.9861
    7.470    7.3723
    7.500    7.5127
    7.530    7.1090
    7.560    7.2319
    7.590    7.8638
    7.620    9.0047
    7.650    9.5489
    7.680   11.3217
    7.710   13.6739
    7.740   16.5701
    7.770   19.2206
    7.800   18.5536
    7.830   12.7084
    7.860    8.2851
    7.890    7.0739
    7.920    7.4425
    7.950    6.9335
    7.980    6.8984
    8.010    7.1441
    8.040    7.1968
    8.070    6.4771
    8.100    7.6005
    8.130    6.6351
    8.160    6.3893
    8.190    6.7053
    8.220    7.1090
    8.250    6.8984
    8.280    6.7404
    8.310    7.5478
    8.340    6.3893
    8.370    7.3372
    8.400    6.8633
    8.430    6.7228
    8.460    6.8282
    8.490    6.9159
    8.520    7.3723
    8.550    6.9686
    8.580    7.0388
    8.610    7.7409
    8.640    7.7936
    8.670    9.1101
    8.700   10.0228
    8.730    8.6888
    8.760    7.4601
    8.790    7.5478
    8.820    7.0212
    8.850    7.0739
    8.880    6.8633
    8.910    6.8984
    8.940    6.8808
    8.970    6.5122
    9.000    6.7755
    9.030    6.5122
    9.060    6.8106
    9.090    6.7755
    9.120    6.6000
    9.150    6.4771
    9.180    7.7409
    9.210    6.5298
    9.240    7.1441
    9.270    6.7053
    9.300    7.8813
    9.330    7.8287
    9.360    8.1622
    9.390    8.6010
    9.420    9.6015
    9.450   11.8308
    9.480   13.1473
    9.510   17.0441
    9.540   20.7653
    9.570   18.1324
    9.600   11.6026
    9.630    8.6361
    9.660    7.7409
    9.690    6.8984
    9.720    7.0388
    9.750    7.1441
    9.780    6.9861
    9.810    7.0212
    9.840    6.8633
    9.870    6.7404
    9.900    7.1266
    9.930    7.1441
    9.960    7.2670
    9.990    7.5829
   10.020    7.0388
   10.050    6.9861
   10.080    6.8282
   10.110    7.5303
   10.140    7.6005
   10.170    7.4250
   10.200    7.7585
   10.230    8.6361
   10.260   10.2686
   10.290   11.9537
   10.320   11.4271
   10.350   10.7776
   10.380    8.5484
   10.410    7.6883
   10.440    7.2494
   10.470    6.7404
   10.500    6.8457
   10.530    6.7930
   10.560    6.4069
   10.590    6.9686
   10.620    6.7579
   10.650    6.7579
   10.680    6.7053
   10.710    6.2665
   10.740    6.5473
   10.770    6.8282
   10.800    6.5298
   10.830    6.8808
   10.860    7.1441
   10.890    7.0388
   10.920    7.6005
   10.950    8.3553
   10.980   10.5143
   11.010   11.4973
   11.040   11.6026
   11.070   10.5494
   11.100    7.6532
   11.130    6.8808
   11.160    6.8633
   11.190    7.0563
   11.220    6.1436
   11.250    6.7579
   11.280    6.1787
   11.310    6.4946
   11.340    6.2665
   11.370    6.4595
   11.400    6.3718
   11.430    6.6877
   11.460    6.5824
   11.490    6.2665
   11.520    6.3718
   11.550    7.1792
   11.580    7.0563
   11.610    8.1095
   11.640    9.0750
   11.670   10.7952
   11.700   12.0063
   11.730   10.7425
   11.760    9.2329
   11.790    7.5127
   11.820    6.9510
   11.850    6.4595
   11.880    6.3542
   11.910    6.3016
   11.940    6.0207
   11.970    6.3367
   12.000    6.0909
   12.030    6.1787
   12.060    6.1436
   12.090    6.3367
   12.120    6.4595
   12.150    5.7925
   12.180    6.4595
   12.210    6.2840
   12.240    6.6351
   12.270    6.4069
   12.300    6.3367
   12.330    7.0739
   12.360    7.0739
   12.390    6.9861
   12.420    6.6351
   12.450    5.7750
   12.480    6.2138
   12.510    5.5643
   12.540    6.2665
   12.570    6.2138
   12.600    6.3191
   12.630    5.5468
   12.660    5.9681
   12.690    5.7223
   12.720    6.3718
   12.750    5.9856
   12.780    6.0032
   12.810    6.1260
   12.840    6.5824
   12.870    6.8633
   12.900    7.7936
   12.930    9.1803
   12.960    9.4787
   12.990    8.1271
   13.020    7.4952
   13.050    6.6175
   13.080    6.6526
   13.110    6.4595
   13.140    5.8276
   13.170    6.1611
   13.200    6.3367
   13.230    5.8978
   13.260    5.8276
   13.290    6.3893
   13.320    5.5292
   13.350    5.7399
   13.380    6.5298
   13.410    5.5117
   13.440    6.7579
   13.470    6.8457
   13.500    6.9159
   13.530    7.4250
   13.560    7.4952
   13.590    7.0388
   13.620    5.9329
   13.650    5.8101
   13.680    5.8803
   13.710    5.8276
   13.740    5.8978
   13.770    5.2308
   13.800    6.4244
   13.830    6.1260
   13.860    6.0032
   13.890    5.8276
   13.920    5.8978
   13.950    6.2138
   13.980    6.4595
   14.010    6.6175
   14.040    7.6180
   14.070    9.1803
   14.100    8.7941
   14.130    8.3202
   14.160    7.3547
   14.190    6.2138
   14.220    5.7925
   14.250    6.0207
   14.280    5.5643
   14.310    5.9505
   14.340    5.6170
   14.370    5.9681
   14.400    5.5994
   14.430    5.7750
   14.460    5.9154
   14.490    5.9329
   14.520    5.3712
   14.550    6.0558
   14.580    5.3361
   14.610    5.6872
   14.640    5.5643
   14.670    5.8978
   14.700    5.4590
   14.730    5.4239
   14.760    5.2659
   14.790    5.7399
   14.820    6.6351
   14.850    5.9681
   14.880    5.4239
   14.910    6.1085
   14.940    5.9329
   14.970    6.0207
   15.000    5.5819
   15.030    6.5473
   15.060    5.8978
   15.090    6.0734
   15.120    7.0388
   15.150    7.4601
   15.180    7.4776
   15.210    6.7579
   15.240    6.0207
   15.270    5.7925
   15.300    5.9154
   15.330    5.9329
   15.360    5.2659
   15.390    5.4590
   15.420    5.8452
   15.450    5.7925
   15.480    5.5994
   15.510    5.8803
   15.540    6.3367
   15.570    5.7048
   15.600    5.3361
   15.630    5.8803
   15.660    5.7223
   15.690    5.7925
   15.720    6.2489
   15.750    5.6170
   15.780    5.6697
   15.810    6.2313
   15.840    5.5643
   15.870    6.0032
   15.900    6.1962
   15.930    5.9154
   15.960    5.8452
   15.990    6.0032
   16.020    5.8978
   16.050    5.9154
   16.080    6.4595
   16.110    6.7755
   16.140    7.1090
   16.170    6.7053
   16.200    6.6702
   16.230    6.0207
   16.260    5.6697
   16.290    6.1436
   16.320    5.8452
   16.350    5.8452
   16.380    5.8101
   16.410    5.8803
   16.440    5.8978
   16.470    5.5292
   16.500    6.2313
   16.530    6.3191
   16.560    6.6526
   16.590    6.9159
   16.620    7.1441
   16.650    7.0915
   16.680    6.5649
   16.710    6.0734
   16.740    6.1085
   16.770    5.9681
   16.800    6.0734
   16.830    6.0383
   16.860    6.0383
   16.890    5.8627
   16.920    5.9681
   16.950    6.1611
   16.980    6.7755
   17.010    6.7755
   17.040    8.2675
   17.070    8.6537
   17.100    8.4957
   17.130    7.4601
   17.160    6.7228
   17.190    6.3367
   17.220    6.1611
   17.250    5.6872
   17.280    6.2138
   17.310    5.4415
   17.340    5.8803
   17.370    6.3542
   17.400    5.8627
   17.430    6.2665
   17.460    6.6175
   17.490    6.2840
   17.520    7.2670
   17.550    6.3718
   17.580    6.0207
   17.610    6.1787
   17.640    6.2313
   17.670    5.8627
   17.700    6.0734
   17.730    5.9154
   17.760    6.1260
   17.790    6.5298
   17.820    5.7399
   17.850    6.0032
   17.880    6.1787
   17.910    6.5122
   17.940    6.7228
   17.970    6.2665
   18.000    6.8633
   18.030    6.2313
   18.060    5.8978
   18.090    6.1260
   18.120    5.7223
   18.150    5.6521
   18.180    5.7048
   18.210    6.2489
   18.240    6.2313
   18.270    5.9856
   18.300    6.2313
   18.330    6.1436
   18.360    6.4069
   18.390    6.4244
   18.420    6.7755
   18.450    6.4069
   18.480    5.8803
   18.510    6.0909
   18.540    5.8101
   18.570    6.1436
   18.600    5.8276
   18.630    6.1436
   18.660    6.1260
   18.690    5.6521
   18.720    6.3016
   18.750    6.0207
   18.780    6.5649
   18.810    6.4771
   18.840    6.3893
   18.870    6.2665
   18.900    6.0207
   18.930    6.4946
   18.960    6.3191
   18.990    5.9681
   19.020    6.0558
   19.050    5.7925
   19.080    5.7048
   19.110    5.5117
   19.140    6.1611
   19.170    6.2665
   19.200    6.0909
   19.230    6.2138
   19.260    5.7223
   19.290    5.6697
   19.320    6.1611
   19.350    5.7925
   19.380    6.0207
   19.410    5.5117
   19.440    6.3016
   19.470    6.0207
   19.500    6.2138
   19.530    6.0032
   19.560    6.8457
   19.590    7.0563
   19.620    7.2319
   19.650    6.7579
   19.680    7.2319
   19.710    5.9856
   19.740    6.0734
   19.770    5.5117
   19.800    6.3016
   19.830    5.6872
   19.860    6.0383
   19.890    6.0383
   19.920    6.0207
   19.950    5.6872
   19.980    6.2138
   20.010    6.3016
   20.040    6.4946
   20.070    6.6702
   20.100    6.3367
   20.130    5.8452
   20.160    5.9681
   20.190    5.8101
   20.220    5.9505
   20.250    6.2489
   20.280    6.4771
   20.310    6.7053
   20.340    6.9159
   20.370    8.1622
   20.400    8.0569
   20.430    7.6532
   20.460    7.4776
   20.490    6.9159
   20.520    6.6351
   20.550    5.9681
   20.580    6.0558
   20.610    5.7925
   20.640    5.9681
   20.670    5.3361
   20.700    5.8452
   20.730    6.3542
   20.760    5.7399
   20.790    6.0909
   20.820    6.4244
   20.850    6.2840
   20.880    5.8452
   20.910    6.6000
   20.940    6.0207
   20.970    5.8101
   21.000    6.4069
   21.030    6.5122
   21.060    6.4595
   21.090    5.7399
   21.120    6.6351
   21.150    6.0383
   21.180    6.0734
   21.210    6.2665
   21.240    5.8452
   21.270    5.8627
   21.300    6.3016
   21.330    6.1260
   21.360    5.8452
   21.390    5.8276
   21.420    6.1611
   21.450    5.9154
   21.480    5.9681
   21.510    6.7228
   21.540    6.2138
   21.570    6.3542
   21.600    5.7399
   21.630    6.2665
   21.660    6.2489
   21.690    6.3893
   21.720    6.4420
   21.750    5.7399
   21.780    6.6877
   21.810    6.4771
   21.840    6.8282
   21.870    6.4771
   21.900    6.8633
   21.930    6.3542
   21.960    6.2489
   21.990    6.2313
   22.020    6.1611
   22.050    6.1962
   22.080    6.0383
   22.110    6.1260
   22.140    6.1787
   22.170    6.1260
   22.200    6.3718
   22.230    6.5298
   22.260    7.2319
   22.290    6.4420
   22.320    6.4244
   22.350    6.6526
   22.380    6.2313
   22.410    6.1085
   22.440    6.4244
   22.470    7.1617
   22.500    6.8808
   22.530    7.1968
   22.560    7.8287
   22.590    8.1271
   22.620    8.3728
   22.650    7.5829
   22.680    6.6175
   22.710    6.9510
   22.740    6.2665
   22.770    6.5824
   22.800    7.1441
   22.830    6.8457
   22.860    7.5478
   22.890    8.5308
   22.920    8.7590
   22.950    8.8643
   22.980    8.6712
   23.010    7.7760
   23.040    6.7228
   23.070    6.8984
   23.100    6.3542
   23.130    6.1962
   23.160    6.5473
   23.190    6.7579
   23.220    6.2665
   23.250    7.0563
   23.280    7.0739
   23.310    6.8633
   23.340    6.1787
   23.370    6.6526
   23.400    6.4420
   23.430    5.9154
   23.460    6.5298
   23.490    6.1962
   23.520    6.3016
   23.550    6.7053
   23.580    6.3191
   23.610    6.2665
   23.640    6.4595
   23.670    5.8803
   23.700    6.0909
   23.730    6.3016
   23.760    5.8627
   23.790    5.6697
   23.820    6.2665
   23.850    6.0909
   23.880    6.2489
   23.910    6.6175
   23.940    7.1090
   23.970    6.7930
   24.000    6.7930
   24.030    6.5473
   24.060    6.2489
   24.090    5.4941
   24.120    6.0032
   24.150    6.4420
   24.180    6.2138
   24.210    5.9681
   24.240    6.2138
   24.270    5.8101
   24.300    6.0909
   24.330    5.8803
   24.360    5.3888
   24.390    5.9681
   24.420    5.7750
   24.450    5.8276
   24.480    5.9681
   24.510    5.4415
   24.540    6.1787
   24.570    5.7399
   24.600    6.4420
   24.630    5.9505
   24.660    5.9329
   24.690    5.7925
   24.720    5.7399
   24.750    6.0909
   24.780    6.0032
   24.810    5.9505
   24.840    5.7750
   24.870    5.5117
   24.900    6.1085
   24.930    6.0383
   24.960    5.8803
   24.990    5.6697
   25.020    6.0383
   25.050    5.9505
   25.080    6.0909
   25.110    5.5643
   25.140    5.4941
   25.170    6.3367
   25.200    6.2313
   25.230    6.0032
   25.260    5.7750
   25.290    6.0734
   25.320    5.6345
   25.350    6.2489
   25.380    6.0909
   25.410    6.1962
   25.440    6.3191
   25.470    5.7750
   25.500    5.7925
   25.530    6.3542
   25.560    6.1611
   25.590    5.4766
   25.620    5.9505
   25.650    5.7399
   25.680    6.0032
   25.710    6.2313
   25.740    6.3893
   25.770    6.2840
   25.800    7.4250
   25.830    7.4250
   25.860    7.7409
   25.890    6.9335
   25.920    6.3542
   25.950    5.8452
   25.980    6.4595
   26.010    5.7925
   26.040    5.6345
   26.070    5.8803
   26.100    5.4064
   26.130    6.1611
   26.160    6.0032
   26.190    5.9154
   26.220    5.6170
   26.250    6.0909
   26.280    6.0207
   26.310    5.9856
   26.340    6.0032
   26.370    5.6521
   26.400    6.3893
   26.430    6.2840
   26.460    6.1787
   26.490    6.0909
   26.520    6.1085
   26.550    5.6521
   26.580    6.0558
   26.610    5.8452
   26.640    5.7223
   26.670    5.7925
   26.700    5.4941
   26.730    5.6521
   26.760    5.8803
   26.790    5.4415
   26.820    5.5292
   26.850    5.9505
   26.880    6.1611
   26.910    6.2138
   26.940    6.1611
   26.970    5.8627
   27.000    5.9154
   27.030    6.1787
   27.060    6.1787
   27.090    6.0032
   27.120    6.0032
   27.150    5.5643
   27.180    5.7574
   27.210    5.5468
   27.240    5.4239
   27.270    5.2835
   27.300    5.7048
   27.330    5.1957
   27.360    5.4766
   27.390    5.7223
   27.420    5.5117
   27.450    5.7750
   27.480    5.8101
   27.510    5.4415
   27.540    5.4941
   27.570    6.1611
   27.600    5.8276
   27.630    6.1085
   27.660    6.1260
   27.690    5.9681
   27.720    5.7399
   27.750    5.8276
   27.780    5.4064
   27.810    5.5468
   27.840    5.3537
   27.870    5.3010
   27.900    5.6697
   27.930    6.0558
   27.960    5.6872
   27.990    5.7750
   28.020    5.6170
   28.050    5.4766
   28.080    5.2484
   28.110    5.7925
   28.140    5.9856
   28.170    6.1787
   28.200    6.2313
   28.230    6.0207
   28.260    6.0207
   28.290    5.9154
   28.320    5.8803
   28.350    5.6345
   28.380    5.5468
   28.410    5.6521
   28.440    5.7925
   28.470    6.0383
   28.500    6.0558
   28.530    5.7925
   28.560    6.0207
   28.590    5.5994
   28.620    5.6345
   28.650    5.7223
   28.680    5.7399
   28.710    5.2835
   28.740    5.5117
   28.770    5.1782
   28.800    5.5292
   28.830    5.1255
   28.860    5.4590
   28.890    5.9505
   28.920    5.4239
   28.950    5.3537
   28.980    5.3361
   29.010    5.7925
   29.040    5.7399
   29.070    5.2835
   29.100    5.3537
   29.130    5.1957
   29.160    5.0377
   29.190    5.5292
   29.220    5.7574
   29.250    5.5819
   29.280    5.8627
   29.310    5.7750
   29.340    6.2313
   29.370    5.2835
   29.400    5.8627
   29.430    5.8276
   29.460    5.4064
   29.490    5.3888
   29.520    5.2659
   29.550    5.5819
   29.580    5.2659
   29.610    5.6170
   29.640    5.1957
   29.670    5.2484
   29.700    5.3537
   29.730    5.4590
   29.760    5.2133
   29.790    5.6697
   29.820    5.1431
   29.850    5.4590
   29.880    5.3186
   29.910    5.7925
   29.940    5.5643
   29.970    5.3010
   30.000    5.1606
   30.030    5.4415
   30.060    5.7750
   30.090    5.3186
   30.120    5.2484
   30.150    5.3888
   30.180    4.8447
   30.210    5.2659
   30.240    5.4941
   30.270    5.3361
   30.300    5.4239
   30.330    5.3712
   30.360    5.5117
   30.390    5.7574
   30.420    4.8447
   30.450    5.5117
   30.480    5.3186
   30.510    4.8973
   30.540    5.4064
   30.570    5.1431
   30.600    5.6521
   30.630    5.3888
   30.660    5.2835
   30.690    5.4064
   30.720    5.4766
   30.750    5.0377
   30.780    5.4415
   30.810    5.2484
   30.840    4.8095
   30.870    5.1606
   30.900    4.8095
   30.930    5.1606
   30.960    5.5994
   30.990    5.1782
   31.020    5.3537
   31.050    4.9675
   31.080    5.3010
   31.110    5.2835
   31.140    4.7569
   31.170    4.9500
   31.200    5.3712
   31.230    4.9851
   31.260    5.0904
   31.290    5.2308
   31.320    5.2484
   31.350    4.8798
   31.380    5.4064
   31.410    5.6872
   31.440    5.3537
   31.470    5.8452
   31.500    5.5994
   31.530    5.1080
   31.560    4.9149
   31.590    5.2133
   31.620    5.5468
   31.650    5.4766
   31.680    5.1782
   31.710    4.8095
   31.740    4.9149
   31.770    5.7048
   31.800    5.3712
   31.830    5.2133
   31.860    4.8973
   31.890    5.1255
   31.920    5.7925
   31.950    5.0553
   31.980    5.6697
   32.010    5.2133
   32.040    5.0553
   32.070    5.2835
   32.100    4.9675
   32.130    5.0553
   32.160    5.2835
   32.190    4.7393
   32.220    5.2308
   32.250    5.1431
   32.280    5.7574
   32.310    5.4941
   32.340    5.0904
   32.370    4.8095
   32.400    5.3712
   32.430    5.4941
   32.460    4.8271
   32.490    5.0026
   32.520    4.8973
   32.550    4.9851
   32.580    5.0202
   32.610    5.0728
   32.640    4.7218
   32.670    5.0728
   32.700    5.2133
   32.730    5.0026
   32.760    4.9149
   32.790    5.4766
   32.820    5.4766
   32.850    4.8622
   32.880    5.7574
   32.910    5.1782
   32.940    5.6170
   32.970    5.4415
   33.000    4.8798
   33.030    5.1080
   33.060    5.6697
   33.090    4.9675
   33.120    5.1782
   33.150    5.1957
   33.180    4.9675
   33.210    4.7920
   33.240    4.8271
   33.270    4.9500
   33.300    5.0202
   33.330    4.7920
   33.360    5.0377
   33.390    4.7744
   33.420    4.6340
   33.450    5.0904
   33.480    4.7042
   33.510    4.9675
   33.540    5.0202
   33.570    5.0202
   33.600    4.7042
   33.630    4.8798
   33.660    5.2484
   33.690    5.2835
   33.720    4.7744
   33.750    4.9500
   33.780    4.4409
   33.810    5.4941
   33.840    5.0377
   33.870    5.4415
   33.900    5.0377
   33.930    5.8101
   33.960    5.4590
   33.990    5.1080
   34.020    5.3361
   34.050    4.8622
   34.080    5.0904
   34.110    4.7042
   34.140    5.1431
   34.170    5.4064
   34.200    4.9851
   34.230    5.0553
   34.260    5.0377
   34.290    4.9324
   34.320    4.6867
   34.350    4.7218
   34.380    5.3888
   34.410    4.9149
   34.440    5.0728
   34.470    5.2133
   34.500    5.0728
   34.530    4.7920
   34.560    5.3361
   34.590    4.9851
   34.620    4.9149
   34.650    5.1431
   34.680    4.7744
   34.710    5.1255
   34.740    5.0026
   34.770    5.1080
   34.800    5.1080
   34.830    5.2835
   34.860    4.6691
   34.890    5.1782
   34.920    5.1431
   34.950    4.7744
   34.980    4.5287
   35.010    4.8973
   35.040    5.1431
   35.070    4.5287
   35.100    4.6867
   35.130    4.7393
   35.160    5.3186
   35.190    4.6867
   35.220    5.1606
   35.250    4.4936
   35.280    5.0553
   35.310    5.1782
   35.340    4.8622
   35.370    4.8447
   35.400    4.9324
   35.430    4.6691
   35.460    4.6691
   35.490    5.0553
   35.520    4.5638
   35.550    4.5814
   35.580    4.8447
   35.610    4.7393
   35.640    4.7218
   35.670    4.8271
   35.700    5.0728
   35.730    4.8798
   35.760    4.8095
   35.790    5.0728
   35.820    4.4058
   35.850    5.3186
   35.880    4.7920
   35.910    5.0377
   35.940    4.6691
   35.970    4.7744
   36.000    5.1606
   36.030    4.9149
   36.060    4.5989
   36.090    5.0026
   36.120    4.5638
   36.150    4.6165
   36.180    4.9149
   36.210    4.8622
   36.240    4.6691
   36.270    4.7042
   36.300    4.7393
   36.330    4.9324
   36.360    5.0026
   36.390    4.7744
   36.420    4.6340
   36.450    4.6340
   36.480    4.9851
   36.510    4.6867
   36.540    4.8271
   36.570    5.0202
   36.600    4.7393
   36.630    4.5814
   36.660    4.8798
   36.690    4.9500
   36.720    4.7393
   36.750    4.7393
   36.780    4.6165
   36.810    4.5287
   36.840    4.7393
   36.870    4.8095
   36.900    4.7042
   36.930    5.0026
   36.960    4.8973
   36.990    4.4585
   37.020    4.7744
   37.050    4.7920
   37.080    5.0026
   37.110    5.0728
   37.140    4.8973
   37.170    4.6867
   37.200    4.7744
   37.230    4.5814
   37.260    4.4936
   37.290    4.6867
   37.320    4.6691
   37.350    5.0202
   37.380    4.5111
   37.410    4.7569
   37.440    4.9324
   37.470    4.7920
   37.500    4.6516
   37.530    4.9324
   37.560    4.6867
   37.590    4.9675
   37.620    4.8447
   37.650    4.6340
   37.680    4.7569
   37.710    4.7920
   37.740    4.8622
   37.770    4.5814
   37.800    4.8447
   37.830    5.1782
   37.860    4.7569
   37.890    4.4936
   37.920    4.9675
   37.950    4.8271
   37.980    4.6165
   38.010    4.6516
   38.040    5.0202
   38.070    4.6165
   38.100    4.7218
   38.130    3.9846
   38.160    4.5814
   38.190    4.5463
   38.220    4.8095
   38.250    4.8271
   38.280    4.4936
   38.310    4.3707
   38.340    5.1957
   38.370    4.9500
   38.400    4.8973
   38.430    4.7569
   38.460    4.7042
   38.490    4.5814
   38.520    4.5989
   38.550    5.0026
   38.580    4.5111
   38.610    4.6516
   38.640    4.5287
   38.670    4.7744
   38.700    4.4936
   38.730    5.0728
   38.760    4.6516
   38.790    4.3883
   38.820    4.6867
   38.850    4.4234
   38.880    4.7393
   38.910    4.2830
   38.940    4.3707
   38.970    4.9500
   39.000    4.6691
   39.030    4.7393
   39.060    4.5638
   39.090    4.3356
   39.120    4.3532
   39.150    4.7393
   39.180    4.8447
   39.210    4.7042
   39.240    4.3356
   39.270    4.8798
   39.300    4.4234
   39.330    5.0377
   39.360    4.5463
   39.390    4.6340
   39.420    4.8622
   39.450    4.6691
   39.480    4.7920
   39.510    4.7042
   39.540    4.6867
   39.570    5.2308
   39.600    4.6516
   39.630    4.3181
   39.660    4.9149
   39.690    4.8798
   39.720    4.8271
   39.750    4.7920
   39.780    4.4409
   39.810    4.7744
   39.840    4.3005
   39.870    4.3707
   39.900    4.8447
   39.930    4.4058
   39.960    4.7569
   39.990    4.2127