File: data/MOCOF-1/PXRD/PXRD_KE-242-4_Cu-Ka1_capillary-1mm_3s-deg.xyd
    1.500   28.7871
    1.545   28.6642
    1.590   28.3834
    1.635   26.1190
    1.680   25.5222
    1.725   24.2759
    1.770   23.9951
    1.815   22.9946
    1.860   21.2041
    1.905   20.5722
    1.950   19.8701
    1.995   19.0100
    2.040   20.0105
    2.085   17.9042
    2.130   17.8515
    2.175   17.2196
    2.220   16.9212
    2.265   15.6574
    2.310   15.8329
    2.355   15.5872
    2.400   15.2712
    2.445   15.2185
    2.490   15.5345
    2.535   14.8499
    2.580   13.9547
    2.625   14.6919
    2.670   14.8324
    2.715   13.9898
    2.760   14.0425
    2.805   14.3233
    2.850   15.1483
    2.895   14.9552
    2.940   15.5520
    2.985   15.4643
    3.030   15.6047
    3.075   16.5877
    3.120   17.1143
    3.165   16.7632
    3.210   18.7292
    3.255   19.5542
    3.300   20.4318
    3.345   21.8536
    3.390   23.5738
    3.435   25.5222
    3.480   27.6812
    3.525   30.3844
    3.570   32.7014
    3.615   38.4588
    3.660   45.8136
    3.705   53.0806
    3.750   66.7720
    3.795   91.7325
    3.840  130.7355
    3.885   79.7964
    3.930   22.5733
    3.975   11.4622
    4.020    9.0925
    4.065    8.0920
    4.110    8.2324
    4.155    7.7409
    4.200    7.5829
    4.245    7.3899
    4.290    6.7930
    4.335    6.9335
    4.380    7.1266
    4.425    7.2845
    4.470    7.4952
    4.515    6.9686
    4.560    7.3021
    4.605    7.7585
    4.650    7.3021
    4.695    7.4952
    4.740    7.2670
    4.785    7.0563
    4.830    7.2845
    4.875    8.4430
    4.920    7.8989
    4.965    8.9521
    5.010    8.4606
    5.055    9.6893
    5.100    9.5840
    5.145   10.1281
    5.190   10.4792
    5.235   12.1643
    5.280   13.9547
    5.325   15.0430
    5.370   19.3260
    5.415   24.2057
    5.460   34.6498
    5.505   24.6972
    5.550    9.9877
    5.595    6.8282
    5.640    6.0558
    5.685    5.9505
    5.730    5.7399
    5.775    5.9154
    5.820    5.5468
    5.865    5.5117
    5.910    5.7750
    5.955    5.9856
    6.000    5.9505
    6.045    6.3191
    6.090    5.7925
    6.135    6.0383
    6.180    6.0383
    6.225    5.7223
    6.270    5.7399
    6.315    5.8101
    6.360    6.5122
    6.405    6.7053
    6.450    5.9154
    6.495    6.8633
    6.540    6.9861
    6.585    7.7585
    6.630    8.0042
    6.675    9.8999
    6.720   10.0755
    6.765    8.2149
    6.810    5.7750
    6.855    5.7925
    6.900    5.7574
    6.945    5.3010
    6.990    5.7574
    7.035    5.4239
    7.080    5.7399
    7.125    5.9856
    7.170    5.3186
    7.215    6.1436
    7.260    5.8978
    7.305    5.8803
    7.350    5.5117
    7.395    6.3718
    7.440    6.6702
    7.485    6.2313
    7.530    6.5298
    7.575    6.9686
    7.620    7.4952
    7.665    7.8638
    7.710   10.1808
    7.755   12.3749
    7.800   10.3388
    7.845    6.9510
    7.890    5.5819
    7.935    5.7750
    7.980    5.0728
    8.025    5.8101
    8.070    5.5819
    8.115    5.1782
    8.160    5.9329
    8.205    5.6345
    8.250    5.7048
    8.295    5.8452
    8.340    5.4239
    8.385    5.2308
    8.430    5.6697
    8.475    5.6170
    8.520    5.6872
    8.565    5.7574
    8.610    6.0207
    8.655    6.7053
    8.700    6.5122
    8.745    6.4771
    8.790    5.4941
    8.835    5.7399
    8.880    5.5117
    8.925    5.5994
    8.970    5.8803
    9.015    5.3537
    9.060    5.8276
    9.105    5.8101
    9.150    5.9329
    9.195    6.1260
    9.240    5.7750
    9.285    7.1441
    9.330    7.2494
    9.375    8.0393
    9.420    8.8994
    9.465   11.8132
    9.510   14.8675
    9.555   13.9898
    9.600    8.2500
    9.645    6.1085
    9.690    5.8452
    9.735    5.3712
    9.780    5.6697
    9.825    6.2313
    9.870    5.7048
    9.915    5.0553
    9.960    5.5819
   10.005    5.5117
   10.050    6.0734
   10.095    5.9154
   10.140    6.2840
   10.185    6.0558
   10.230    7.0915
   10.275    8.4606
   10.320    8.0042
   10.365    6.9861
   10.410    5.7574
   10.455    5.8627
   10.500    5.5117
   10.545    5.8803
   10.590    5.8452
   10.635    5.3361
   10.680    5.4590
   10.725    5.6872
   10.770    5.2133
   10.815    5.5117
   10.860    6.1436
   10.905    6.6526
   10.950    6.7579
   10.995    8.4957
   11.040    8.2324
   11.085    6.7755
   11.130    5.7925
   11.175    5.1431
   11.220    5.3888
   11.265    5.0553
   11.310    5.4239
   11.355    5.7048
   11.400    5.0728
   11.445    5.5292
   11.490    5.6521
   11.535    5.7925
   11.580    6.5473
   11.625    7.2845
   11.670    8.7590
   11.715    8.6010
   11.760    6.8633
   11.805    5.4941
   11.850    5.4415
   11.895    5.1606
   11.940    4.8622
   11.985    4.5111
   12.030    5.2659
   12.075    5.0202
   12.120    5.1255
   12.165    5.1782
   12.210    4.9675
   12.255    5.4064
   12.300    5.1431
   12.345    5.6872
   12.390    5.0904
   12.435    4.8095
   12.480    4.6691
   12.525    4.8095
   12.570    4.6516
   12.615    4.8271
   12.660    5.2133
   12.705    4.8798
   12.750    4.8973
   12.795    5.1255
   12.840    5.4415
   12.885    6.3191
   12.930    7.0563
   12.975    6.4420
   13.020    5.1606
   13.065    5.0728
   13.110    4.8973
   13.155    4.8095
   13.200    4.5989
   13.245    5.2133
   13.290    4.8973
   13.335    4.9675
   13.380    5.3186
   13.425    5.0377
   13.470    5.5994
   13.515    6.0032
   13.560    5.5994
   13.605    5.1431
   13.650    4.8095
   13.695    4.5111
   13.740    5.3361
   13.785    4.6516
   13.830    4.2654
   13.875    4.9675
   13.920    5.1255
   13.965    5.4415
   14.010    6.1962
   14.055    6.9510
   14.100    6.9335
   14.145    5.2835
   14.190    4.8973
   14.235    4.7569
   14.280    4.9675
   14.325    5.0904
   14.370    4.7218
   14.415    4.9500
   14.460    4.6867
   14.505    4.9851
   14.550    4.8095
   14.595    4.4585
   14.640    4.8447
   14.685    4.9149
   14.730    4.8973
   14.775    4.5638
   14.820    4.9500
   14.865    4.8973
   14.910    4.5814
   14.955    4.9324
   15.000    5.1957
   15.045    4.5638
   15.090    5.4941
   15.135    5.3712
   15.180    5.1957
   15.225    4.5287
   15.270    4.6867
   15.315    4.9324
   15.360    4.7920
   15.405    4.6340
   15.450    4.3532
   15.495    4.7569
   15.540    4.8095
   15.585    4.5287
   15.630    4.6516
   15.675    4.5638
   15.720    4.5287
   15.765    4.5989
   15.810    4.4409
   15.855    4.4234
   15.900    4.9324
   15.945    4.9500
   15.990    5.0553
   16.035    4.8447
   16.080    5.1957
   16.125    5.3888
   16.170    5.2659
   16.215    5.0553
   16.260    4.2478
   16.305    5.0553
   16.350    4.2654
   16.395    4.5814
   16.440    4.9324
   16.485    5.0026
   16.530    5.3712
   16.575    5.8627
   16.620    5.6170
   16.665    5.3361
   16.710    4.8973
   16.755    4.9675
   16.800    4.8271
   16.845    5.4766
   16.890    5.0904
   16.935    5.2835
   16.980    5.3010
   17.025    6.5122
   17.070    6.6175
   17.115    5.6697
   17.160    5.2308
   17.205    5.0026
   17.250    4.8095
   17.295    4.9324
   17.340    4.7218
   17.385    5.0728
   17.430    5.3537
   17.475    5.2308
   17.520    5.7223
   17.565    5.1782
   17.610    5.2133
   17.655    4.6340
   17.700    5.0026
   17.745    5.0026
   17.790    4.8095
   17.835    4.4936
   17.880    4.8447
   17.925    5.3361
   17.970    5.4415
   18.015    4.9500
   18.060    4.7393
   18.105    4.7393
   18.150    5.2133
   18.195    5.0377
   18.240    4.7569
   18.285    4.8622
   18.330    4.9851
   18.375    5.5292
   18.420    4.7569
   18.465    4.4936
   18.510    4.4585
   18.555    5.0026
   18.600    5.0553
   18.645    4.7744
   18.690    4.9851
   18.735    5.1431
   18.780    5.2133
   18.825    5.1080
   18.870    4.9851
   18.915    4.7393
   18.960    5.0026
   19.005    4.7393
   19.050    5.3712
   19.095    4.6516
   19.140    4.7393
   19.185    5.1957
   19.230    4.7042
   19.275    4.6340
   19.320    4.1952
   19.365    4.9851
   19.410    4.9851
   19.455    5.0026
   19.500    4.7569
   19.545    5.4415
   19.590    4.8095
   19.635    5.4415
   19.680    5.1080
   19.725    5.2133
   19.770    4.5463
   19.815    4.4409
   19.860    4.8447
   19.905    4.4936
   19.950    4.8447
   19.995    5.3888
   20.040    5.7574
   20.085    4.9500
   20.130    4.8271
   20.175    4.8798
   20.220    4.6867
   20.265    5.7399
   20.310    5.7223
   20.355    6.3542
   20.400    6.1260
   20.445    5.5994
   20.490    5.3361
   20.535    5.0904
   20.580    4.7920
   20.625    5.3186
   20.670    4.7920
   20.715    5.1080
   20.760    4.7744
   20.805    5.1255
   20.850    5.2308
   20.895    4.8798
   20.940    5.0202
   20.985    4.4585
   21.030    4.7218
   21.075    4.7393
   21.120    4.9324
   21.165    4.5814
   21.210    4.9500
   21.255    4.8271
   21.300    4.6516
   21.345    4.8973
   21.390    4.8973
   21.435    4.5638
   21.480    5.0026
   21.525    4.5287
   21.570    4.8622
   21.615    4.9675
   21.660    4.9500
   21.705    4.6165
   21.750    5.1255
   21.795    5.3712
   21.840    5.2835
   21.885    5.5468
   21.930    5.5994
   21.975    5.1255
   22.020    5.0904
   22.065    5.4590
   22.110    5.1080
   22.155    4.9500
   22.200    5.1255
   22.245    5.2133
   22.290    4.8622
   22.335    4.9500
   22.380    4.9851
   22.425    5.0553
   22.470    4.8095
   22.515    5.9329
   22.560    6.2840
   22.605    6.4244
   22.650    5.4239
   22.695    4.7920
   22.740    5.1957
   22.785    5.3361
   22.830    5.3186
   22.875    6.8808
   22.920    6.1787
   22.965    5.9329
   23.010    5.5819
   23.055    4.8271
   23.100    4.9851
   23.145    5.4590
   23.190    5.4064
   23.235    5.2835
   23.280    5.3712
   23.325    5.1782
   23.370    4.7744
   23.415    4.6516
   23.460    5.1255
   23.505    4.9851
   23.550    4.9500
   23.595    4.7218
   23.640    4.8095
   23.685    5.0553
   23.730    4.8447
   23.775    4.8622
   23.820    5.0377
   23.865    5.2133
   23.910    4.6867
   23.955    4.7744
   24.000    4.5989
   24.045    5.1255
   24.090    5.0377
   24.135    4.8447
   24.180    4.7218
   24.225    5.2133
   24.270    5.0202
   24.315    4.7744
   24.360    4.6340
   24.405    4.8622
   24.450    4.5463
   24.495    4.6691
   24.540    5.1431
   24.585    5.2835
   24.630    4.6867
   24.675    4.8798
   24.720    4.7920
   24.765    4.4760
   24.810    4.7393
   24.855    4.6691
   24.900    4.7920
   24.945    4.7218
   24.990    4.4058
   25.035    5.1080
   25.080    4.7569
   25.125    4.3707
   25.170    4.2830
   25.215    4.8622
   25.260    4.8973
   25.305    4.4936
   25.350    5.1606
   25.395    4.6516
   25.440    4.9324
   25.485    5.1957
   25.530    4.8271
   25.575    5.0553
   25.620    5.0904
   25.665    4.6867
   25.710    5.5994
   25.755    5.5819
   25.800    5.7223
   25.845    5.7750
   25.890    5.1255
   25.935    4.9324
   25.980    4.8447
   26.025    5.0904
   26.070    4.6516
   26.115    4.6691
   26.160    4.9149
   26.205    4.8095
   26.250    4.4936
   26.295    4.9500
   26.340    4.1601
   26.385    4.7393
   26.430    4.7218
   26.475    4.6867
   26.520    5.0026
   26.565    4.8271
   26.610    4.6691
   26.655    4.5814
   26.700    4.5463
   26.745    4.5638
   26.790    4.4234
   26.835    4.4936
   26.880    4.4409
   26.925    4.6867
   26.970    4.5287
   27.015    4.7393
   27.060    5.1255
   27.105    4.6340
   27.150    4.5287
   27.195    4.4760
   27.240    4.1776
   27.285    4.3005
   27.330    4.3356
   27.375    4.4585
   27.420    4.6165
   27.465    4.6867
   27.510    4.5111
   27.555    4.3883
   27.600    4.6516
   27.645    4.5989
   27.690    4.3883
   27.735    4.1250
   27.780    4.3005
   27.825    4.5463
   27.870    4.5814
   27.915    4.3005
   27.960    4.7920
   28.005    4.5814
   28.050    4.6691
   28.095    4.5638
   28.140    4.8271
   28.185    4.6516
   28.230    4.7744
   28.275    4.7920
   28.320    4.5814
   28.365    4.5989
   28.410    4.4760
   28.455    4.6867
   28.500    4.6340
   28.545    4.4058
   28.590    4.4936
   28.635    4.1074
   28.680    4.4234
   28.725    4.1776
   28.770    3.9319
   28.815    4.4234
   28.860    4.1601
   28.905    4.5463
   28.950    4.3707
   28.995    4.2303
   29.040    4.6340
   29.085    4.7393
   29.130    4.6691
   29.175    4.3181
   29.220    4.3356
   29.265    4.4936
   29.310    4.4760
   29.355    4.3356
   29.400    4.4585
   29.445    4.1074
   29.490    3.8266
   29.535    4.4585
   29.580    4.2654
   29.625    4.3181
   29.670    4.2127
   29.715    4.0723
   29.760    4.3883
   29.805    4.6516
   29.850    4.3532
   29.895    4.4936
   29.940    4.4760
   29.985    3.9846
   30.030    4.2654
   30.075    3.7739
   30.120    4.3356
   30.165    4.2303
   30.210    4.3356
   30.255    4.3707
   30.300    4.1425
   30.345    4.0548
   30.390    4.3356
   30.435    4.0372
   30.480    4.0372
   30.525    4.0021
   30.570    4.5638
   30.615    3.8617
   30.660    4.7218
   30.705    4.5463
   30.750    4.1776
   30.795    3.9846
   30.840    3.9494
   30.885    3.9319
   30.930    4.0021
   30.975    4.3532
   31.020    3.8266
   31.065    3.9670
   31.110    3.8792
   31.155    3.8266
   31.200    3.8968
   31.245    4.0021
   31.290    4.0021
   31.335    4.1776
   31.380    4.3707
   31.425    4.2654
   31.470    4.0548
   31.515    4.0723
   31.560    4.3883
   31.605    4.4760
   31.650    3.9846
   31.695    4.1776
   31.740    4.1425
   31.785    4.3883
   31.830    3.9319
   31.875    3.8441
   31.920    4.3005
   31.965    3.7739
   32.010    4.4058
   32.055    4.0723
   32.100    3.6335
   32.145    3.6510
   32.190    3.9846
   32.235    3.8792
   32.280    3.8617
   32.325    3.9846
   32.370    3.6335
   32.415    4.1250
   32.460    3.8792
   32.505    3.7388
   32.550    3.8968
   32.595    3.8968
   32.640    4.0372
   32.685    4.0723
   32.730    3.9670
   32.775    4.2303
   32.820    4.0723
   32.865    4.3005
   32.910    3.8266
   32.955    3.6335
   33.000    4.2303
   33.045    4.1250
   33.090    4.3532
   33.135    3.6159
   33.180    4.0021
   33.225    4.1250
   33.270    4.0197
   33.315    3.6335
   33.360    3.8968
   33.405    3.8792
   33.450    4.1074
   33.495    3.6159
   33.540    3.9494
   33.585    3.7915
   33.630    3.9494
   33.675    3.7037
   33.720    3.7739
   33.765    3.7739
   33.810    4.2654
   33.855    4.1074
   33.900    4.0899
   33.945    3.9143
   33.990    4.2303
   34.035    3.9494
   34.080    3.8968
   34.125    3.7213
   34.170    4.1074
   34.215    4.0723
   34.260    3.7213
   34.305    3.8968
   34.350    3.5984
   34.395    4.3532
   34.440    3.7564
   34.485    3.8792
   34.530    3.8617
   34.575    3.8792
   34.620    3.4755
   34.665    3.9143
   34.710    4.1074
   34.755    3.6335
   34.800    3.7739
   34.845    3.8617
   34.890    3.3877
   34.935    3.6862
   34.980    4.1250
   35.025    3.7037
   35.070    3.8968
   35.115    3.9494
   35.160    3.8090
   35.205    3.5457
   35.250    3.7739
   35.295    3.8792
   35.340    3.5808
   35.385    3.4404
   35.430    3.5984
   35.475    3.5633
   35.520    3.8266
   35.565    3.6335
   35.610    3.6510
   35.655    3.9319
   35.700    4.3356
   35.745    3.6510
   35.790    3.4931
   35.835    3.7915
   35.880    4.0021
   35.925    3.8090
   35.970    4.1952
   36.015    3.8441
   36.060    3.8792
   36.105    3.6510
   36.150    4.0723
   36.195    3.8617
   36.240    3.5984
   36.285    3.6862
   36.330    3.5984
   36.375    3.6862
   36.420    3.5633
   36.465    3.7739
   36.510    3.5633
   36.555    3.8266
   36.600    3.8090
   36.645    3.5808
   36.690    3.7739
   36.735    3.4931
   36.780    3.7915
   36.825    3.5984
   36.870    3.7915
   36.915    3.5457
   36.960    3.6159
   37.005    3.3000
   37.050    3.7739
   37.095    3.7915
   37.140    4.2303
   37.185    3.6862
   37.230    3.6510
   37.275    3.6335
   37.320    3.3000
   37.365    3.4931
   37.410    3.5808
   37.455    3.7739
   37.500    3.4580
   37.545    3.5633
   37.590    3.6686
   37.635    3.8441
   37.680    3.3877
   37.725    3.9846
   37.770    3.4931
   37.815    3.8266
   37.860    3.6510
   37.905    3.8792
   37.950    3.9319
   37.995    3.4053
   38.040    3.6335
   38.085    3.5984
   38.130    3.6159
   38.175    3.3702
   38.220    3.4404
   38.265    3.7388
   38.310    3.5808
   38.355    3.1947
   38.400    3.6686
   38.445    3.8090
   38.490    3.5984
   38.535    3.8266
   38.580    3.3000
   38.625    3.7388
   38.670    3.5633
   38.715    3.5106
   38.760    3.1596
   38.805    3.4580
   38.850    3.5984
   38.895    3.7388
   38.940    3.5808
   38.985    3.3702
   39.030    3.0893
   39.075    3.6686
   39.120    3.0367
   39.165    3.5984
   39.210    3.5457
   39.255    3.4580
   39.300    3.5633
   39.345    3.5808
   39.390    3.4053
   39.435    3.7739
   39.480    3.6686
   39.525    3.2824
   39.570    3.6686
   39.615    3.5984
   39.660    3.1947
   39.705    3.6159
   39.750    3.8968
   39.795    3.5106
   39.840    3.6159
   39.885    3.6159
   39.930    3.7213
   39.975    3.9494
   40.020    3.7213
   40.065    3.5633
   40.110    3.5106
   40.155    3.3000
   40.200    3.5106
   40.245    3.3877
   40.290    3.5457
   40.335    3.6335
   40.380    4.0021
   40.425    3.6335
   40.470    3.6862
   40.515    3.6510
   40.560    3.4229
   40.605    3.7388
   40.650    3.5808
   40.695    3.7388
   40.740    3.6510
   40.785    3.3351
   40.830    3.5808
   40.875    3.5633
   40.920    3.5808
   40.965    3.6510
   41.010    4.0548
   41.055    3.1947
   41.100    3.4931
   41.145    3.4931
   41.190    3.3877
   41.235    3.2298
   41.280    3.5282
   41.325    3.7213
   41.370    3.6862
   41.415    3.2824
   41.460    3.8441
   41.505    3.1245
   41.550    3.3877
   41.595    3.4580
   41.640    3.2649
   41.685    3.4053
   41.730    3.3877
   41.775    3.8617
   41.820    3.3175
   41.865    3.7564
   41.910    3.4755
   41.955    3.5457
   42.000    3.4580
   42.045    3.4229
   42.090    3.5106
   42.135    3.5457
   42.180    3.1947
   42.225    3.3175
   42.270    3.2473
   42.315    3.8441
   42.360    3.5457
   42.405    3.7037
   42.450    3.2473
   42.495    3.1245
   42.540    3.3877
   42.585    3.1771
   42.630    3.7564
   42.675    3.4755
   42.720    3.5282
   42.765    3.5282
   42.810    3.2122
   42.855    3.3702
   42.900    3.7915
   42.945    3.4755
   42.990    3.7564
   43.035    3.4229
   43.080    3.4580
   43.125    3.8617
   43.170    3.7915
   43.215    3.5984
   43.260    3.7739
   43.305    3.3351
   43.350    3.3702
   43.395    3.6159
   43.440    3.7739
   43.485    3.6159
   43.530    3.5808
   43.575    3.5282
   43.620    3.5633
   43.665    3.5633
   43.710    3.1947
   43.755    3.7915
   43.800    3.4755
   43.845    3.4404
   43.890    3.4755
   43.935    3.6159
   43.980    3.3351
   44.025    3.7388
   44.070    3.5808
   44.115    3.7213
   44.160    3.5984
   44.205    3.3000
   44.250    3.3526
   44.295    3.4755
   44.340    3.4580
   44.385    3.7564
   44.430    3.3877
   44.475    3.3877
   44.520    3.9846
   44.565    3.7037
   44.610    3.2298
   44.655    3.4229
   44.700    3.5457
   44.745    3.6862
   44.790    3.7213
   44.835    3.7564
   44.880    3.5457
   44.925    3.6686
   44.970    3.7037
   45.015    3.8617
   45.060    3.6686
   45.105    3.4404
   45.150    3.5457
   45.195    3.3351
   45.240    3.7213
   45.285    3.1947
   45.330    3.0191
   45.375    3.4931
   45.420    3.0893
   45.465    3.3351
   45.510    3.7388
   45.555    3.4404
   45.600    3.3351
   45.645    3.5633
   45.690    3.4229
   45.735    3.2122
   45.780    3.6335
   45.825    3.5633
   45.870    3.2473
   45.915    3.3351
   45.960    3.2298
   46.005    3.3000
   46.050    3.2473
   46.095    3.3175
   46.140    3.3702
   46.185    3.5282
   46.230    3.5106
   46.275    3.5282
   46.320    3.5808
   46.365    3.4229
   46.410    3.7037
   46.455    3.4931
   46.500    3.3000
   46.545    3.3877
   46.590    3.8266
   46.635    3.5984
   46.680    3.4404
   46.725    3.4755
   46.770    3.3702
   46.815    3.4404
   46.860    3.0893
   46.905    3.1596
   46.950    3.1245
   46.995    3.2473
   47.040    3.5106
   47.085    3.1245
   47.130    3.5106
   47.175    3.0718
   47.220    3.3526
   47.265    3.4755
   47.310    3.5282
   47.355    3.5633
   47.400    3.4931
   47.445    3.2824
   47.490    3.3351
   47.535    3.3702
   47.580    3.4931
   47.625    3.4580
   47.670    3.6862
   47.715    3.3175
   47.760    3.5984
   47.805    3.4755
   47.850    3.5282
   47.895    3.4755
   47.940    3.1420
   47.985    3.3702
   48.030    3.3000
   48.075    3.3175
   48.120    3.0542
   48.165    3.5106
   48.210    3.3175
   48.255    3.5633
   48.300    3.3702
   48.345    3.4229
   48.390    3.0542
   48.435    3.7739
   48.480    3.0367
   48.525    3.4053
   48.570    3.5808
   48.615    3.4229
   48.660    3.3702
   48.705    3.5106
   48.750    3.3351
   48.795    3.3175
   48.840    3.2824
   48.885    3.8441
   48.930    3.1596
   48.975    2.9840
   49.020    3.3175
   49.065    3.2298
   49.110    3.1069
   49.155    3.3702
   49.200    3.6159
   49.245    3.2649
   49.290    3.1771
   49.335    3.2473
   49.380    3.3526
   49.425    3.3526
   49.470    3.4755
   49.515    3.4580
   49.560    3.7388
   49.605    3.4931
   49.650    3.3000
   49.695    3.2473
   49.740    3.4404
   49.785    2.8612
   49.830    3.2649
   49.875    3.3526
   49.920    3.5106
   49.965    2.9489
   49.980    3.0367