File: data/MOCOF-1/PXRD/PXRD_KE-272_Cu-Ka1_film-3mm_3s-deg.xyd
    1.500   16.4473
    1.530   16.9212
    1.560   16.7632
    1.590   15.4116
    1.620   15.1834
    1.650   14.8850
    1.680   15.5872
    1.710   14.7622
    1.740   14.4989
    1.770   13.4808
    1.800   13.7441
    1.830   13.1648
    1.860   13.2526
    1.890   12.7611
    1.920   12.9893
    1.950   12.0414
    1.980   12.3223
    2.010   12.8138
    2.040   11.9888
    2.070   12.2345
    2.100   12.3398
    2.130   12.2872
    2.160   11.8834
    2.190   11.5675
    2.220   11.1638
    2.250   10.4792
    2.280   10.6547
    2.310   10.7952
    2.340   10.9882
    2.370   10.5494
    2.400   10.5143
    2.430   10.2159
    2.460   10.3739
    2.490   10.1457
    2.520    9.9702
    2.550   10.3914
    2.580   10.4441
    2.610   10.2686
    2.640    9.4787
    2.670   10.1983
    2.700   10.0053
    2.730    9.8122
    2.760   10.3739
    2.790    9.7595
    2.820    9.9877
    2.850    9.4260
    2.880    9.3382
    2.910    9.6367
    2.940    9.0223
    2.970    8.6888
    3.000    9.7244
    3.030    9.5138
    3.060    9.6893
    3.090   10.0053
    3.120    9.6191
    3.150   10.3037
    3.180   10.4792
    3.210   10.6723
    3.240   10.1808
    3.270   11.2866
    3.300   11.0409
    3.330   11.3744
    3.360   12.1467
    3.390   13.0068
    3.420   13.4983
    3.450   15.1834
    3.480   15.0957
    3.510   16.9212
    3.540   17.9744
    3.570   21.2392
    3.600   22.4153
    3.630   24.5743
    3.660   29.1030
    3.690   31.9993
    3.720   37.0370
    3.750   43.3386
    3.780   54.5375
    3.810   69.1943
    3.840  101.7027
    3.870  106.7755
    3.900   73.7406
    3.930   27.4355
    3.960   10.7952
    3.990   10.3914
    4.020   10.3739
    4.050    9.0750
    4.080    9.0398
    4.110    8.9345
    4.140    7.9516
    4.170    8.7414
    4.200    8.7765
    4.230    8.6186
    4.260    8.7239
    4.290    9.4260
    4.320    8.0393
    4.350    8.4957
    4.380    8.7590
    4.410    8.7765
    4.440    8.9696
    4.470    8.4957
    4.500    8.5835
    4.530    8.6010
    4.560    8.3904
    4.590    8.5835
    4.620    8.2500
    4.650    8.5133
    4.680    9.1978
    4.710    9.3031
    4.740    9.4611
    4.770    9.0398
    4.800    8.4781
    4.830    9.1978
    4.860    8.9521
    4.890    8.8994
    4.920    8.8117
    4.950    8.8643
    4.980    9.4085
    5.010    9.5138
    5.040    8.7765
    5.070   10.1632
    5.100   10.2510
    5.130   10.0404
    5.160   10.7600
    5.190   10.8478
    5.220   11.1462
    5.250   11.8834
    5.280   12.7260
    5.310   12.3398
    5.340   13.9547
    5.370   14.5164
    5.400   16.2366
    5.430   18.0270
    5.460   23.7142
    5.490   24.8201
    5.520   20.9760
    5.550   14.0951
    5.580   11.4797
    5.610   11.4973
    5.640   10.5494
    5.670   10.6372
    5.700   10.4265
    5.730   10.8303
    5.760   10.7600
    5.790    9.5313
    5.820    9.8473
    5.850    9.9702
    5.880    9.5138
    5.910    9.5489
    5.940    8.8643
    5.970    9.5313
    6.000    8.7063
    6.030    8.7063
    6.060    8.9521
    6.090    8.9696
    6.120    8.4781
    6.150    8.3377
    6.180    8.7765
    6.210    8.0920
    6.240    7.9340
    6.270    8.6186
    6.300    8.2500
    6.330    8.4255
    6.360    8.3026
    6.390    8.4781
    6.420    7.5829
    6.450    8.2851
    6.480    7.7936
    6.510    8.2675
    6.540    8.1622
    6.570    8.5484
    6.600    7.9516
    6.630    8.4255
    6.660    8.8292
    6.690    8.5659
    6.720    9.3734
    6.750   10.0053
    6.780    9.0223
    6.810    7.7936
    6.840    7.7936
    6.870    7.6883
    6.900    7.2143
    6.930    7.0037
    6.960    7.7058
    6.990    7.5127
    7.020    6.8106
    7.050    7.0388
    7.080    7.3899
    7.110    6.9686
    7.140    7.1617
    7.170    7.0212
    7.200    6.7579
    7.230    6.5824
    7.260    6.7053
    7.290    6.6877
    7.320    6.7930
    7.350    6.4771
    7.380    6.6702
    7.410    6.8808
    7.440    6.6175
    7.470    6.6000
    7.500    6.7930
    7.530    6.7755
    7.560    6.8808
    7.590    6.3542
    7.620    6.4946
    7.650    6.7228
    7.680    7.1090
    7.710    7.8111
    7.740    9.0925
    7.770   10.9356
    7.800   10.0755
    7.830    8.6010
    7.860    6.3016
    7.890    6.1787
    7.920    5.9329
    7.950    6.1611
    7.980    6.1962
    8.010    6.2313
    8.040    5.8627
    8.070    5.8803
    8.100    6.5122
    8.130    5.6345
    8.160    6.2665
    8.190    5.5994
    8.220    5.6697
    8.250    5.6697
    8.280    5.8276
    8.310    6.7404
    8.340    5.7750
    8.370    5.6872
    8.400    5.6170
    8.430    5.7048
    8.460    5.7925
    8.490    5.6872
    8.520    5.6345
    8.550    6.1260
    8.580    5.7399
    8.610    5.9154
    8.640    5.8978
    8.670    5.8276
    8.700    6.0734
    8.730    6.0909
    8.760    5.9329
    8.790    5.7574
    8.820    5.7048
    8.850    5.7925
    8.880    5.1255
    8.910    5.6872
    8.940    5.5117
    8.970    5.1431
    9.000    5.4590
    9.030    5.2484
    9.060    4.9675
    9.090    5.8803
    9.120    5.0026
    9.150    5.0904
    9.180    5.7048
    9.210    5.8276
    9.240    5.8276
    9.270    5.2835
    9.300    5.4590
    9.330    5.4766
    9.360    5.2835
    9.390    5.8803
    9.420    6.4244
    9.450    6.7053
    9.480    8.0042
    9.510    9.8999
    9.540   12.7260
    9.570   12.2521
    9.600    9.6542
    9.630    5.6872
    9.660    5.8627
    9.690    5.5117
    9.720    5.1255
    9.750    4.9851
    9.780    5.2835
    9.810    5.0202
    9.840    5.2835
    9.870    5.5994
    9.900    5.6521
    9.930    5.1782
    9.960    5.5994
    9.990    5.5117
   10.020    5.4590
   10.050    5.1606
   10.080    5.6345
   10.110    5.7048
   10.140    5.8803
   10.170    5.5292
   10.200    6.2840
   10.230    6.4946
   10.260    6.8984
   10.290    7.7234
   10.320    9.2856
   10.350    8.2324
   10.380    7.4074
   10.410    6.0909
   10.440    5.5468
   10.470    5.0202
   10.500    5.3361
   10.530    5.3010
   10.560    5.4415
   10.590    5.5468
   10.620    5.2133
   10.650    5.5994
   10.680    5.8276
   10.710    5.4766
   10.740    5.6872
   10.770    5.8627
   10.800    5.7925
   10.830    5.1255
   10.860    5.7925
   10.890    6.4946
   10.920    6.3016
   10.950    6.1260
   10.980    6.6175
   11.010    7.4250
   11.040    8.4255
   11.070    8.0569
   11.100    6.5473
   11.130    5.8101
   11.160    6.0558
   11.190    5.7574
   11.220    5.8627
   11.250    5.7399
   11.280    5.8101
   11.310    5.6521
   11.340    5.3712
   11.370    5.7399
   11.400    5.8101
   11.430    5.0728
   11.460    5.4415
   11.490    5.6521
   11.520    5.8978
   11.550    5.6872
   11.580    5.7925
   11.610    6.1260
   11.640    6.5824
   11.670    7.0739
   11.700    7.8813
   11.730    8.2500
   11.760    8.0218
   11.790    6.1085
   11.820    5.5643
   11.850    5.3537
   11.880    5.8101
   11.910    5.3888
   11.940    5.4766
   11.970    5.1080
   12.000    5.5292
   12.030    5.4766
   12.060    5.4941
   12.090    5.3537
   12.120    5.0728
   12.150    5.2133
   12.180    5.3361
   12.210    5.2484
   12.240    5.5994
   12.270    4.8973
   12.300    5.2659
   12.330    5.7750
   12.360    5.4941
   12.390    6.1085
   12.420    5.5994
   12.450    5.4766
   12.480    5.5468
   12.510    4.8271
   12.540    5.6170
   12.570    5.3537
   12.600    5.5643
   12.630    5.1782
   12.660    5.5292
   12.690    5.4590
   12.720    5.3361
   12.750    5.3888
   12.780    5.1606
   12.810    5.4590
   12.840    5.5819
   12.870    6.3542
   12.900    5.9329
   12.930    7.0739
   12.960    7.8462
   12.990    7.7585
   13.020    6.2313
   13.050    5.1957
   13.080    5.3010
   13.110    5.4590
   13.140    5.3712
   13.170    4.8622
   13.200    4.5989
   13.230    5.4239
   13.260    5.3186
   13.290    5.1957
   13.320    4.9675
   13.350    5.4941
   13.380    5.4590
   13.410    5.0553
   13.440    5.2835
   13.470    6.0383
   13.500    5.9154
   13.530    6.3718
   13.560    6.3893
   13.590    6.0909
   13.620    5.1957
   13.650    5.2133
   13.680    5.0202
   13.710    4.6340
   13.740    5.1782
   13.770    5.4415
   13.800    5.1782
   13.830    4.9500
   13.860    5.3888
   13.890    5.3888
   13.920    5.4415
   13.950    5.0553
   13.980    5.3537
   14.010    5.4590
   14.040    6.1085
   14.070    6.3893
   14.100    7.0563
   14.130    6.8633
   14.160    5.9681
   14.190    5.6345
   14.220    5.4239
   14.250    5.9505
   14.280    5.8452
   14.310    5.3537
   14.340    5.7399
   14.370    5.7399
   14.400    6.1085
   14.430    5.6697
   14.460    5.3712
   14.490    5.2484
   14.520    5.9154
   14.550    5.1606
   14.580    5.3712
   14.610    5.6697
   14.640    5.6521
   14.670    5.2835
   14.700    5.7574
   14.730    5.6345
   14.760    4.7744
   14.790    5.5819
   14.820    5.5292
   14.850    5.2484
   14.880    5.4415
   14.910    5.8803
   14.940    5.3537
   14.970    5.0904
   15.000    5.3361
   15.030    5.5292
   15.060    5.5292
   15.090    5.3186
   15.120    6.0383
   15.150    6.2489
   15.180    5.9681
   15.210    5.5292
   15.240    4.9675
   15.270    5.6872
   15.300    5.2308
   15.330    5.5819
   15.360    5.2484
   15.390    4.9324
   15.420    4.7744
   15.450    5.1080
   15.480    5.0553
   15.510    5.3361
   15.540    5.4064
   15.570    5.0904
   15.600    4.7393
   15.630    5.3361
   15.660    5.2835
   15.690    5.0728
   15.720    5.1782
   15.750    5.0553
   15.780    5.0202
   15.810    4.7569
   15.840    6.0383
   15.870    5.4064
   15.900    5.2659
   15.930    5.2659
   15.960    4.7042
   15.990    4.7744
   16.020    5.2484
   16.050    5.5292
   16.080    5.7750
   16.110    5.6872
   16.140    5.6170
   16.170    5.7048
   16.200    5.6345
   16.230    4.9324
   16.260    5.4590
   16.290    5.3010
   16.320    5.0904
   16.350    5.0202
   16.380    4.9324
   16.410    4.6867
   16.440    5.0553
   16.470    5.5292
   16.500    5.1080
   16.530    5.2308
   16.560    5.2484
   16.590    5.9505
   16.620    6.1787
   16.650    5.9329
   16.680    5.4239
   16.710    5.1080
   16.740    4.9149
   16.770    5.4415
   16.800    4.9149
   16.830    4.8447
   16.860    5.1782
   16.890    5.3537
   16.920    4.7569
   16.950    4.7393
   16.980    5.6697
   17.010    5.6521
   17.040    6.0558
   17.070    7.0915
   17.100    7.0388
   17.130    6.5824
   17.160    5.6345
   17.190    5.3361
   17.220    4.5463
   17.250    5.2308
   17.280    5.2308
   17.310    5.1957
   17.340    4.6340
   17.370    4.5463
   17.400    4.7042
   17.430    5.4064
   17.460    4.8622
   17.490    5.4941
   17.520    5.3010
   17.550    5.5643
   17.580    5.3361
   17.610    5.1957
   17.640    5.2308
   17.670    4.7569
   17.700    4.8973
   17.730    5.1080
   17.760    5.1606
   17.790    4.8622
   17.820    4.8973
   17.850    4.9324
   17.880    5.0026
   17.910    4.7744
   17.940    5.7223
   17.970    5.9154
   18.000    5.3888
   18.030    5.1782
   18.060    5.3712
   18.090    4.9851
   18.120    4.6165
   18.150    4.8095
   18.180    4.7744
   18.210    5.1606
   18.240    4.5814
   18.270    5.0202
   18.300    5.5819
   18.330    5.1431
   18.360    5.2659
   18.390    5.7223
   18.420    5.7223
   18.450    5.1255
   18.480    5.0728
   18.510    4.9500
   18.540    4.7744
   18.570    5.2659
   18.600    4.9675
   18.630    5.1255
   18.660    5.2133
   18.690    4.9675
   18.720    4.8095
   18.750    4.8622
   18.780    4.9500
   18.810    5.6521
   18.840    5.1431
   18.870    5.1782
   18.900    5.0728
   18.930    5.1080
   18.960    4.9675
   18.990    4.7393
   19.020    5.2133
   19.050    5.2308
   19.080    4.9149
   19.110    4.7218
   19.140    4.7218
   19.170    5.6345
   19.200    5.1782
   19.230    4.7569
   19.260    4.9851
   19.290    4.9675
   19.320    5.3888
   19.350    4.7042
   19.380    5.0026
   19.410    4.9675
   19.440    5.1080
   19.470    5.0377
   19.500    4.7920
   19.530    4.9324
   19.560    5.3888
   19.590    5.1957
   19.620    5.6170
   19.650    5.6521
   19.680    5.2484
   19.710    5.1431
   19.740    4.8447
   19.770    4.7218
   19.800    4.8798
   19.830    4.5638
   19.860    4.7218
   19.890    4.8798
   19.920    4.6867
   19.950    4.5989
   19.980    4.5463
   20.010    4.6340
   20.040    4.8271
   20.070    4.5463
   20.100    5.1431
   20.130    4.6516
   20.160    5.0553
   20.190    4.7744
   20.220    4.6691
   20.250    4.7920
   20.280    4.5463
   20.310    4.8271
   20.340    5.1080
   20.370    5.3361
   20.400    6.6000
   20.430    5.8803
   20.460    5.3361
   20.490    4.8798
   20.520    4.3707
   20.550    4.5463
   20.580    4.8447
   20.610    4.9500
   20.640    4.3883
   20.670    4.6340
   20.700    4.6867
   20.730    4.5814
   20.760    4.8973
   20.790    4.4585
   20.820    4.6867
   20.850    4.6165
   20.880    4.8622
   20.910    4.3356
   20.940    4.8973
   20.970    4.5814
   21.000    5.0026
   21.030    4.2830
   21.060    4.4585
   21.090    4.6867
   21.120    4.1776
   21.150    4.3707
   21.180    4.4760
   21.210    4.6691
   21.240    5.0026
   21.270    4.4585
   21.300    4.4936
   21.330    4.5989
   21.360    4.4409
   21.390    4.8095
   21.420    4.7042
   21.450    4.7393
   21.480    4.3883
   21.510    4.5989
   21.540    4.3707
   21.570    4.4936
   21.600    4.6867
   21.630    4.7218
   21.660    4.1776
   21.690    4.8271
   21.720    4.6340
   21.750    4.3532
   21.780    4.3356
   21.810    4.9675
   21.840    4.8271
   21.870    4.8271
   21.900    5.0553
   21.930    4.9851
   21.960    4.7393
   21.990    4.7744
   22.020    4.6516
   22.050    4.4409
   22.080    4.4234
   22.110    4.3005
   22.140    4.6165
   22.170    4.9149
   22.200    4.6516
   22.230    4.9149
   22.260    4.6516
   22.290    4.4585
   22.320    4.3356
   22.350    4.6165
   22.380    4.4409
   22.410    4.6340
   22.440    4.0197
   22.470    4.0021
   22.500    4.5814
   22.530    4.8271
   22.560    5.6697
   22.590    6.1260
   22.620    5.8276
   22.650    5.1782
   22.680    5.2308
   22.710    4.6691
   22.740    4.4936
   22.770    4.4936
   22.800    4.7920
   22.830    4.3005
   22.860    4.3356
   22.890    4.8095
   22.920    5.3537
   22.950    6.1787
   22.980    5.5468
   23.010    5.2484
   23.040    4.3356
   23.070    4.5638
   23.100    4.8095
   23.130    4.1952
   23.160    4.1601
   23.190    4.3883
   23.220    4.4409
   23.250    4.7042
   23.280    4.9675
   23.310    4.7218
   23.340    4.3005
   23.370    4.4058
   23.400    4.3883
   23.430    4.2303
   23.460    3.8266
   23.490    4.2830
   23.520    4.0899
   23.550    4.1776
   23.580    4.2478
   23.610    4.4409
   23.640    4.6165
   23.670    4.3883
   23.700    4.0899
   23.730    4.0021
   23.760    4.4409
   23.790    3.9670
   23.820    4.0899
   23.850    4.4936
   23.880    4.1425
   23.910    4.4585
   23.940    4.4409
   23.970    4.6691
   24.000    4.7393
   24.030    4.5989
   24.060    3.7037
   24.090    4.2654
   24.120    3.7915
   24.150    3.9319
   24.180    4.0723
   24.210    4.2478
   24.240    3.9670
   24.270    4.0372
   24.300    3.8441
   24.330    3.8090
   24.360    3.9143
   24.390    4.2303
   24.420    4.5638
   24.450    4.1776
   24.480    4.0899
   24.510    4.2478
   24.540    4.3356
   24.570    4.2127
   24.600    4.2127
   24.630    4.1250
   24.660    3.9846
   24.690    3.9319
   24.720    3.8441
   24.750    4.2478
   24.780    4.0021
   24.810    4.2830
   24.840    3.9494
   24.870    4.1250
   24.900    4.1074
   24.930    4.3883
   24.960    3.6510
   24.990    4.1776
   25.020    3.7388
   25.050    3.9143
   25.080    3.7739
   25.110    4.0021
   25.140    4.4409
   25.170    3.9319
   25.200    3.7564
   25.230    4.2654
   25.260    3.9670
   25.290    3.9143
   25.320    3.9846
   25.350    3.6862
   25.380    4.0548
   25.410    3.8617
   25.440    4.0548
   25.470    4.1952
   25.500    4.3883
   25.530    4.1601
   25.560    4.3005
   25.590    3.8792
   25.620    4.0723
   25.650    3.8266
   25.680    3.9494
   25.710    3.8090
   25.740    3.7564
   25.770    4.2127
   25.800    4.4585
   25.830    4.6340
   25.860    5.3010
   25.890    5.3361
   25.920    4.2654
   25.950    3.9143
   25.980    4.3181
   26.010    4.0197
   26.040    3.8968
   26.070    3.8968
   26.100    4.1250
   26.130    4.0723
   26.160    3.8266
   26.190    3.9319
   26.220    3.5808
   26.250    3.7915
   26.280    3.5633
   26.310    4.0372
   26.340    3.5282
   26.370    4.0021
   26.400    3.8090
   26.430    4.3883
   26.460    4.3005
   26.490    3.8441
   26.520    4.0899
   26.550    3.8441
   26.580    3.4755
   26.610    3.6510
   26.640    3.6159
   26.670    3.7213
   26.700    3.9143
   26.730    3.7564
   26.760    3.6335
   26.790    3.9319
   26.820    3.7915
   26.850    3.6335
   26.880    3.6510
   26.910    3.1947
   26.940    3.6686
   26.970    3.5106
   27.000    4.0021
   27.030    4.1776
   27.060    4.4058
   27.090    4.4936
   27.120    3.8266
   27.150    3.5282
   27.180    3.7739
   27.210    3.4755
   27.240    3.3175
   27.270    3.5106
   27.300    3.3526
   27.330    3.7388
   27.360    3.5808
   27.390    3.4755
   27.420    3.0893
   27.450    3.5282
   27.480    3.6510
   27.510    3.6686
   27.540    3.6686
   27.570    3.5808
   27.600    3.7564
   27.630    3.9670
   27.660    3.8968
   27.690    3.7739
   27.720    3.6862
   27.750    3.5106
   27.780    3.6335
   27.810    3.6686
   27.840    3.4931
   27.870    3.5106
   27.900    3.6510
   27.930    3.7739
   27.960    3.6335
   27.990    4.4234
   28.020    3.9670
   28.050    3.4404
   28.080    3.5808
   28.110    3.3702
   28.140    3.6510
   28.170    3.6159
   28.200    3.9143
   28.230    3.7388
   28.260    3.6335
   28.290    3.4931
   28.320    3.2824
   28.350    3.4931
   28.380    3.3000
   28.410    3.5106
   28.440    3.8968
   28.470    3.6510
   28.500    3.9143
   28.530    4.1601
   28.560    3.6686
   28.590    3.4404
   28.620    3.6862
   28.650    3.4931
   28.680    3.2473
   28.710    3.3000
   28.740    3.5808
   28.770    3.5106
   28.800    3.5282
   28.830    3.6686
   28.860    3.3526
   28.890    3.7915
   28.920    3.5984
   28.950    3.7213
   28.980    4.0021
   29.010    3.5457
   29.040    3.5808
   29.070    3.6510
   29.100    2.8963
   29.130    3.5633
   29.160    3.8266
   29.190    3.6862
   29.220    3.4580
   29.250    3.1947
   29.280    3.5984
   29.310    3.8968
   29.340    4.0548
   29.370    3.2824
   29.400    3.2649
   29.430    3.1947
   29.460    3.2473
   29.490    3.1947
   29.520    3.0893
   29.550    3.1069
   29.580    2.8787
   29.610    3.2298
   29.640    2.8963
   29.670    3.3702
   29.700    3.1596
   29.730    3.1771
   29.760    3.0542
   29.790    3.1245
   29.820    2.7734
   29.850    3.3000
   29.880    3.1420
   29.910    3.1771
   29.940    3.0191
   29.970    3.1245
   30.000    3.0191
   30.030    3.2298
   30.060    3.0542
   30.090    3.0718
   30.120    2.9840
   30.150    3.1245
   30.180    3.0191
   30.210    2.8085
   30.240    2.9489
   30.270    2.9314
   30.300    3.0542
   30.330    2.8085
   30.360    3.1947
   30.390    3.3000
   30.420    3.4580
   30.450    3.0893
   30.480    3.3877
   30.510    3.1771
   30.540    2.6330
   30.570    2.7558
   30.600    2.9314
   30.630    3.0367
   30.660    3.4053
   30.690    3.1069
   30.720    2.9840
   30.750    3.4229
   30.780    2.9840
   30.810    2.8436
   30.840    2.5979
   30.870    2.9138
   30.900    3.1069
   30.930    3.1771
   30.960    2.6154
   30.990    3.1069
   31.020    2.7909
   31.050    2.8085
   31.080    2.7207
   31.110    2.7207
   31.140    2.7383
   31.170    2.9138
   31.200    3.2824
   31.230    3.0016
   31.260    2.7558
   31.290    2.8085
   31.320    2.9489
   31.350    2.2995
   31.380    3.0367
   31.410    2.7558
   31.440    2.8436
   31.470    3.0893
   31.500    3.3702
   31.530    2.5803
   31.560    2.7383
   31.590    3.1420
   31.620    2.7032
   31.650    3.0016
   31.680    3.0016
   31.710    2.9665
   31.740    2.9489
   31.770    3.1420
   31.800    2.9840
   31.830    2.7383
   31.860    3.3000
   31.890    2.7383
   31.920    2.6154
   31.950    2.7032
   31.980    2.9840
   32.010    2.7032
   32.040    3.1596
   32.070    3.6510
   32.100    3.8266
   32.130    3.4755
   32.160    3.2824
   32.190    3.0542
   32.220    2.7734
   32.250    2.9489
   32.280    2.6330
   32.310    3.2122
   32.340    2.4399
   32.370    2.5628
   32.400    2.7558
   32.430    2.5101
   32.460    2.5628
   32.490    2.6154
   32.520    2.4223
   32.550    2.6505
   32.580    2.8436
   32.610    2.7383
   32.640    2.5803
   32.670    2.5276
   32.700    2.7909
   32.730    2.7909
   32.760    2.6505
   32.790    2.8085
   32.820    2.6330
   32.850    2.5452
   32.880    2.6505
   32.910    2.5979
   32.940    2.8436
   32.970    2.5452
   33.000    2.6154
   33.030    2.8787
   33.060    2.7207
   33.090    2.5452
   33.120    2.5452
   33.150    2.5979
   33.180    2.4399
   33.210    2.9840
   33.240    2.7558
   33.270    2.4223
   33.300    2.8260
   33.330    2.3170
   33.360    2.4048
   33.390    2.7383
   33.420    2.5628
   33.450    2.8612
   33.480    2.6856
   33.510    2.4399
   33.540    2.6330
   33.570    2.0888
   33.600    2.5452
   33.630    2.5452
   33.660    3.0191
   33.690    2.2819
   33.720    2.5628
   33.750    2.5979
   33.780    2.8963
   33.810    2.8260
   33.840    2.4750
   33.870    2.7207
   33.900    2.9840
   33.930    2.5979
   33.960    2.8963
   33.990    2.6856
   34.020    2.8963
   34.050    2.5803
   34.080    2.3872
   34.110    2.6681
   34.140    2.8787
   34.170    2.7207
   34.200    2.7207
   34.230    2.4399
   34.260    2.2819
   34.290    2.5628
   34.320    2.5452
   34.350    2.3872
   34.380    2.1766
   34.410    2.4925
   34.440    2.5101
   34.470    2.7558
   34.500    2.3697
   34.530    2.6330
   34.560    2.4399
   34.590    2.5276
   34.620    2.3170
   34.650    2.6856
   34.680    2.8085
   34.710    2.5979
   34.740    2.5628
   34.770    2.4223
   34.800    2.8787
   34.830    2.7032
   34.860    2.5452
   34.890    2.6505
   34.920    2.5101
   34.950    2.7032
   34.980    2.5276
   35.010    2.5276
   35.040    2.2117
   35.070    2.7909
   35.100    2.6154
   35.130    2.0362
   35.160    2.3872
   35.190    2.5628
   35.220    2.3170
   35.250    2.4925
   35.280    2.2995
   35.310    2.5628
   35.340    2.2995
   35.370    2.4925
   35.400    2.5803
   35.430    2.5628
   35.460    2.8787
   35.490    2.3521
   35.520    2.4925
   35.550    2.6154
   35.580    2.0888
   35.610    2.5628
   35.640    2.5803
   35.670    2.4223
   35.700    2.6681
   35.730    2.3521
   35.760    2.3872
   35.790    2.5276
   35.820    2.4750
   35.850    2.5101
   35.880    2.6330
   35.910    2.5101
   35.940    2.5276
   35.970    2.2995
   36.000    2.6505
   36.030    2.5276
   36.060    2.3872
   36.090    2.2995
   36.120    2.6856
   36.150    2.4048
   36.180    2.3170
   36.210    2.3872
   36.240    2.8260
   36.270    2.8612
   36.300    2.5452
   36.330    2.3697
   36.360    2.8085
   36.390    2.4399
   36.420    2.3521
   36.450    2.6856
   36.480    2.8436
   36.510    2.2819
   36.540    2.5101
   36.570    2.4925
   36.600    2.1941
   36.630    2.7734
   36.660    2.5979
   36.690    2.5979
   36.720    2.5101
   36.750    2.2819
   36.780    2.3521
   36.810    2.4574
   36.840    2.4223
   36.870    2.1415
   36.900    2.4048
   36.930    2.3872
   36.960    2.2995
   36.990    2.4399
   37.020    2.3170
   37.050    2.5101
   37.080    2.4399
   37.110    2.6505
   37.140    2.4399
   37.170    2.3872
   37.200    2.6330
   37.230    2.3346
   37.260    2.3697
   37.290    2.3697
   37.320    2.4399
   37.350    2.0713
   37.380    2.5452
   37.410    2.2643
   37.440    2.3346
   37.470    2.1239
   37.500    2.4223
   37.530    2.4399
   37.560    2.4223
   37.590    2.4399
   37.620    2.4223
   37.650    2.5452
   37.680    2.3170
   37.710    2.2643
   37.740    2.1941
   37.770    2.4399
   37.800    2.2819
   37.830    2.4750
   37.860    2.3170
   37.890    2.3346
   37.920    2.3697
   37.950    2.5628
   37.980    2.7558
   38.010    2.6154
   38.040    2.5101
   38.070    2.0186
   38.100    2.4048
   38.130    2.3346
   38.160    2.3872
   38.190    2.3697
   38.220    2.2819
   38.250    2.1941
   38.280    2.4399
   38.310    2.2643
   38.340    2.7734
   38.370    2.4750
   38.400    2.5452
   38.430    2.6154
   38.460    2.4223
   38.490    2.2643
   38.520    2.4399
   38.550    2.2117
   38.580    2.3170
   38.610    2.4750
   38.640    2.6330
   38.670    2.1766
   38.700    2.2995
   38.730    2.3872
   38.760    2.2117
   38.790    2.2643
   38.820    2.0186
   38.850    2.3170
   38.880    2.6856
   38.910    2.3346
   38.940    2.3346
   38.970    2.3170
   39.000    2.1239
   39.030    2.1064
   39.060    2.1239
   39.090    2.2292
   39.120    2.4925
   39.150    2.1239
   39.180    2.5452
   39.210    2.5803
   39.240    2.3170
   39.270    2.4223
   39.300    2.2819
   39.330    2.3872
   39.360    2.4223
   39.390    2.2292
   39.420    2.4048
   39.450    2.0888
   39.480    2.3697
   39.510    2.1766
   39.540    2.3346
   39.570    2.1766
   39.600    2.2995
   39.630    2.6681
   39.660    2.2643
   39.690    2.0362
   39.720    2.0362
   39.750    2.2468
   39.780    2.5452
   39.810    2.3872
   39.840    2.2468
   39.870    2.1239
   39.900    2.3170
   39.930    2.6505
   39.960    1.9133
   39.990    2.5101