File: data/MOCOF-1/PXRD/PXRD_KE-042_Cu-Ka1_film-3mm_5s-deg.xyd
    1.500    9.1101
    1.530    9.2786
    1.560    9.4050
    1.590    9.3312
    1.620    8.6888
    1.650    8.5835
    1.680    8.5203
    1.710    8.7414
    1.740    8.2675
    1.770    7.9094
    1.800    7.7199
    1.830    7.7725
    1.860    7.8041
    1.890    7.8252
    1.920    7.7514
    1.950    7.7304
    1.980    7.1722
    2.010    7.3407
    2.040    7.2459
    2.070    7.5092
    2.100    7.1511
    2.130    7.0669
    2.160    6.6667
    2.190    7.1722
    2.220    6.5298
    2.250    7.0037
    2.280    6.6351
    2.310    6.3507
    2.340    6.2665
    2.370    6.5403
    2.400    6.5087
    2.430    6.2770
    2.460    6.0348
    2.490    6.4244
    2.520    6.4455
    2.550    6.3191
    2.580    6.5087
    2.610    6.3718
    2.640    6.2981
    2.670    6.2665
    2.700    5.8662
    2.730    6.1611
    2.760    6.2243
    2.790    5.9926
    2.820    6.1611
    2.850    6.2243
    2.880    5.7820
    2.910    6.1717
    2.940    6.1822
    2.970    6.1927
    3.000    5.8978
    3.030    5.8241
    3.060    6.2454
    3.090    6.2770
    3.120    6.3507
    3.150    6.2243
    3.180    6.5824
    3.210    6.4455
    3.240    6.1190
    3.270    6.2981
    3.300    6.5719
    3.330    6.5508
    3.360    7.0353
    3.390    7.1195
    3.420    6.9721
    3.450    7.4355
    3.480    7.8357
    3.510    7.6356
    3.540    7.2249
    3.570    6.9826
    3.600    6.8141
    3.630    6.3191
    3.660    6.0979
    3.690    6.8562
    3.720    6.2454
    3.750    6.1401
    3.780    6.4876
    3.810    6.2875
    3.840    5.8557
    3.870    6.6772
    3.900    6.4139
    3.930    6.5298
    3.960    6.7930
    3.990    6.1822
    4.020    6.2033
    4.050    6.3718
    4.080    5.9926
    4.110    6.0242
    4.140    5.4766
    4.170    5.9189
    4.200    5.9084
    4.230    5.5292
    4.260    5.9400
    4.290    5.9821
    4.320    5.9084
    4.350    5.6451
    4.380    5.9926
    4.410    5.9505
    4.440    6.1401
    4.470    5.8136
    4.500    5.9926
    4.530    5.9505
    4.560    5.8241
    4.590    5.9084
    4.620    6.0137
    4.650    6.0874
    4.680    6.2454
    4.710    6.1717
    4.740    6.0769
    4.770    5.5292
    4.800    5.9716
    4.830    5.8873
    4.860    6.4350
    4.890    6.4455
    4.920    5.6345
    4.950    6.0558
    4.980    6.3086
    5.010    6.4139
    5.040    6.4560
    5.070    6.0979
    5.100    6.4244
    5.130    6.5298
    5.160    6.9300
    5.190    6.6877
    5.220    6.6561
    5.250    7.3302
    5.280    7.3407
    5.310    6.9300
    5.340    7.6883
    5.370    7.4039
    5.400    7.5408
    5.430    7.5724
    5.460    7.8462
    5.490    8.0042
    5.520    7.6145
    5.550    8.3939
    5.580    7.8884
    5.610    8.3202
    5.640    8.0885
    5.670    7.8041
    5.700    7.8041
    5.730    7.5724
    5.760    7.5197
    5.790    7.2249
    5.820    7.0458
    5.850    7.3302
    5.880    7.2354
    5.910    6.9089
    5.940    6.7930
    5.970    6.5719
    6.000    6.2770
    6.030    6.4244
    6.060    5.8347
    6.090    6.1927
    6.120    6.0874
    6.150    5.8452
    6.180    5.7399
    6.210    5.7925
    6.240    5.6556
    6.270    5.8662
    6.300    5.7083
    6.330    5.6451
    6.360    5.4344
    6.390    5.8873
    6.420    5.4766
    6.450    5.5924
    6.480    5.3712
    6.510    5.5714
    6.540    5.3291
    6.570    5.2765
    6.600    5.2133
    6.630    5.3712
    6.660    5.3607
    6.690    5.1290
    6.720    5.2238
    6.750    4.9921
    6.780    5.0237
    6.810    5.0658
    6.840    5.3607
    6.870    5.2975
    6.900    5.7083
    6.930    5.1501
    6.960    4.9184
    6.990    5.1817
    7.020    5.4239
    7.050    4.7604
    7.080    4.9289
    7.110    4.7815
    7.140    5.3607
    7.170    4.8657
    7.200    5.0658
    7.230    4.6235
    7.260    4.6340
    7.290    4.4866
    7.320    4.3602
    7.350    4.3391
    7.380    4.2970
    7.410    4.2549
    7.440    4.2549
    7.470    4.0758
    7.500    4.4128
    7.530    3.9389
    7.560    4.2022
    7.590    4.3813
    7.620    4.1601
    7.650    4.2865
    7.680    4.3391
    7.710    3.9284
    7.740    3.8441
    7.770    4.3497
    7.800    4.2549
    7.830    4.0864
    7.860    4.2865
    7.890    4.2865
    7.920    4.1601
    7.950    4.0864
    7.980    4.0758
    8.010    4.2443
    8.040    4.1285
    8.070    4.1180
    8.100    4.0758
    8.130    3.8652
    8.160    3.6967
    8.190    4.0653
    8.220    4.0969
    8.250    4.0337
    8.280    3.5703
    8.310    3.4860
    8.340    3.6862
    8.370    3.7493
    8.400    3.9600
    8.430    3.5282
    8.460    3.7704
    8.490    3.5071
    8.520    3.8863
    8.550    3.5282
    8.580    3.4544
    8.610    3.7493
    8.640    3.2333
    8.670    3.3070
    8.700    3.5387
    8.730    3.8020
    8.760    3.5808
    8.790    3.2859
    8.820    3.2543
    8.850    3.6967
    8.880    3.5176
    8.910    3.3702
    8.940    3.5387
    8.970    3.6124
    9.000    3.4018
    9.030    3.4439
    9.060    3.5071
    9.090    3.2543
    9.120    3.5176
    9.150    3.2859
    9.180    3.4018
    9.210    3.1490
    9.240    3.2017
    9.270    3.7704
    9.300    3.5387
    9.330    3.2754
    9.360    3.3491
    9.390    3.2227
    9.420    3.5387
    9.450    3.2649
    9.480    3.2649
    9.510    3.4755
    9.540    3.1385
    9.570    3.0753
    9.600    3.1701
    9.630    3.0016
    9.660    3.3386
    9.690    3.3070
    9.720    3.3807
    9.750    3.4966
    9.780    3.0648
    9.810    3.4123
    9.840    3.0858
    9.870    3.5071
    9.900    3.3175
    9.930    3.0964
    9.960    3.4123
    9.990    3.3175
   10.020    3.2543
   10.050    3.4544
   10.080    3.3597
   10.110    3.6124
   10.140    3.4755
   10.170    3.2122
   10.200    3.1490
   10.230    3.1385
   10.260    3.3386
   10.290    3.3597
   10.320    3.3386
   10.350    3.4650
   10.380    3.5282
   10.410    3.4860
   10.440    3.6230
   10.470    3.2543
   10.500    3.5071
   10.530    3.2227
   10.560    3.4860
   10.590    3.9179
   10.620    3.5808
   10.650    3.7177
   10.680    3.6335
   10.710    3.6230
   10.740    3.7177
   10.770    3.5492
   10.800    3.7599
   10.830    3.7704
   10.860    3.5598
   10.890    3.6335
   10.920    3.4018
   10.950    3.6019
   10.980    3.5176
   11.010    3.7493
   11.040    3.7072
   11.070    3.7283
   11.100    3.3386
   11.130    3.7388
   11.160    3.2333
   11.190    4.0864
   11.220    3.5598
   11.250    3.8547
   11.280    3.5808
   11.310    3.5598
   11.340    3.6019
   11.370    3.6756
   11.400    3.8020
   11.430    3.5808
   11.460    3.8231
   11.490    3.7072
   11.520    3.4650
   11.550    3.6230
   11.580    3.7915
   11.610    3.6967
   11.640    3.6335
   11.670    3.6862
   11.700    3.7072
   11.730    3.4123
   11.760    3.5282
   11.790    3.3807
   11.820    3.6440
   11.850    3.3070
   11.880    3.5071
   11.910    3.8652
   11.940    3.3175
   11.970    3.6019
   12.000    3.5387
   12.030    3.6019
   12.060    3.2438
   12.090    3.6230
   12.120    3.2543
   12.150    3.6019
   12.180    3.4123
   12.210    3.4755
   12.240    3.6335
   12.270    3.3702
   12.300    3.5914
   12.330    3.4018
   12.360    3.1490
   12.390    3.3913
   12.420    3.4439
   12.450    3.6124
   12.480    3.3913
   12.510    3.2543
   12.540    3.1701
   12.570    3.5598
   12.600    3.4229
   12.630    3.3597
   12.660    3.5071
   12.690    3.3597
   12.720    3.4334
   12.750    3.5914
   12.780    3.3702
   12.810    3.3491
   12.840    3.3070
   12.870    3.1490
   12.900    3.5703
   12.930    3.0858
   12.960    3.2965
   12.990    3.0332
   13.020    3.2333
   13.050    3.2017
   13.080    3.3702
   13.110    3.4544
   13.140    3.2543
   13.170    3.3070
   13.200    3.3386
   13.230    3.3913
   13.260    3.2438
   13.290    3.6862
   13.320    3.3386
   13.350    3.1069
   13.380    3.2859
   13.410    3.3386
   13.440    3.0858
   13.470    3.5492
   13.500    3.4229
   13.530    3.5914
   13.560    3.1701
   13.590    3.3491
   13.620    2.9910
   13.650    3.7177
   13.680    3.2965
   13.710    3.2227
   13.740    3.2754
   13.770    3.1701
   13.800    3.4650
   13.830    3.0437
   13.860    3.1701
   13.890    3.1596
   13.920    3.3597
   13.950    3.2543
   13.980    3.3913
   14.010    3.4860
   14.040    3.4123
   14.070    3.6651
   14.100    3.6967
   14.130    3.4439
   14.160    3.7072
   14.190    3.5914
   14.220    3.4123
   14.250    3.4334
   14.280    3.4755
   14.310    3.5598
   14.340    3.8125
   14.370    3.8968
   14.400    3.5914
   14.430    3.7177
   14.460    3.7704
   14.490    3.7388
   14.520    3.6862
   14.550    3.4966
   14.580    3.5703
   14.610    3.8968
   14.640    3.7177
   14.670    3.8547
   14.700    3.4966
   14.730    3.8441
   14.760    3.6546
   14.790    3.5071
   14.820    3.2859
   14.850    3.4123
   14.880    3.5387
   14.910    3.2122
   14.940    3.4334
   14.970    3.4650
   15.000    3.5808
   15.030    3.3386
   15.060    3.4229
   15.090    3.4439
   15.120    3.3597
   15.150    3.3702
   15.180    3.4650
   15.210    3.2017
   15.240    3.0648
   15.270    3.2965
   15.300    3.2859
   15.330    3.3702
   15.360    3.4860
   15.390    3.2754
   15.420    3.5703
   15.450    3.1912
   15.480    3.1596
   15.510    3.2859
   15.540    3.4123
   15.570    2.9595
   15.600    3.0016
   15.630    3.4229
   15.660    3.1280
   15.690    3.3175
   15.720    3.1174
   15.750    3.3597
   15.780    3.1806
   15.810    3.1806
   15.840    3.4544
   15.870    3.3070
   15.900    3.3702
   15.930    3.3070
   15.960    3.2227
   15.990    3.2543
   16.020    3.0753
   16.050    3.4018
   16.080    3.2438
   16.110    3.5703
   16.140    3.1596
   16.170    3.3175
   16.200    3.3913
   16.230    3.4123
   16.260    3.2754
   16.290    3.2333
   16.320    3.3281
   16.350    3.4860
   16.380    3.1069
   16.410    3.0648
   16.440    3.2227
   16.470    3.3281
   16.500    3.6019
   16.530    3.5176
   16.560    3.2543
   16.590    3.1701
   16.620    3.3491
   16.650    3.0964
   16.680    3.1596
   16.710    3.2859
   16.740    3.2965
   16.770    3.0858
   16.800    3.0858
   16.830    3.4650
   16.860    3.3913
   16.890    3.1385
   16.920    3.0542
   16.950    3.2333
   16.980    3.3597
   17.010    3.0964
   17.040    3.1385
   17.070    3.1701
   17.100    3.3491
   17.130    3.4334
   17.160    3.1174
   17.190    3.2438
   17.220    3.0858
   17.250    3.1385
   17.280    3.1701
   17.310    3.2017
   17.340    3.2649
   17.370    3.2438
   17.400    3.3702
   17.430    3.2543
   17.460    3.1174
   17.490    3.2859
   17.520    3.1806
   17.550    3.0121
   17.580    3.2859
   17.610    3.3281
   17.640    3.1280
   17.670    3.4544
   17.700    3.0121
   17.730    2.8857
   17.760    3.5914
   17.790    3.2543
   17.820    3.0542
   17.850    3.0858
   17.880    3.0964
   17.910    2.9910
   17.940    3.1701
   17.970    3.0437
   18.000    3.2227
   18.030    2.9173
   18.060    2.9805
   18.090    3.1806
   18.120    3.0753
   18.150    2.9595
   18.180    3.2333
   18.210    3.2017
   18.240    3.0964
   18.270    2.9489
   18.300    3.2438
   18.330    3.1806
   18.360    3.0648
   18.390    3.3597
   18.420    3.1490
   18.450    3.2754
   18.480    2.9805
   18.510    3.3175
   18.540    3.1596
   18.570    3.0542
   18.600    3.2754
   18.630    2.9173
   18.660    3.0858
   18.690    2.9279
   18.720    2.9700
   18.750    3.0437
   18.780    3.2122
   18.810    3.2965
   18.840    3.0016
   18.870    3.1490
   18.900    2.7804
   18.930    2.9279
   18.960    3.1701
   18.990    3.3913
   19.020    3.2859
   19.050    3.0648
   19.080    3.1069
   19.110    3.2227
   19.140    2.8015
   19.170    3.1912
   19.200    3.2017
   19.230    3.2333
   19.260    3.0437
   19.290    2.8225
   19.320    2.9068
   19.350    3.1174
   19.380    2.9805
   19.410    3.0858
   19.440    2.9595
   19.470    2.9805
   19.500    3.1069
   19.530    3.0964
   19.560    3.0016
   19.590    3.1701
   19.620    3.0226
   19.650    3.1280
   19.680    2.8963
   19.710    2.9805
   19.740    2.7067
   19.770    3.0648
   19.800    2.8857
   19.830    2.9595
   19.860    3.1174
   19.890    2.7804
   19.920    2.9805
   19.950    2.7699
   19.980    3.0332
   20.010    2.8857
   20.040    3.0121
   20.070    3.0332
   20.100    2.6435
   20.130    2.9279
   20.160    2.8963
   20.190    2.9173
   20.220    3.0121
   20.250    2.7804
   20.280    3.0858
   20.310    3.1912
   20.340    2.8436
   20.370    2.9384
   20.400    2.6435
   20.430    2.4855
   20.460    3.1490
   20.490    2.8647
   20.520    2.6540
   20.550    2.8647
   20.580    2.9068
   20.610    2.7067
   20.640    2.6330
   20.670    2.6962
   20.700    2.6330
   20.730    2.7804
   20.760    2.7172
   20.790    2.8331
   20.820    2.7804
   20.850    2.6540
   20.880    2.7383
   20.910    2.7067
   20.940    2.8120
   20.970    2.8647
   21.000    2.7278
   21.030    2.7383
   21.060    2.8857
   21.090    2.7488
   21.120    2.7383
   21.150    3.1280
   21.180    2.7278
   21.210    2.8436
   21.240    2.6224
   21.270    2.8120
   21.300    2.8225
   21.330    2.6751
   21.360    2.8436
   21.390    2.9805
   21.420    2.6540
   21.450    2.8436
   21.480    2.7699
   21.510    2.6856
   21.540    2.7909
   21.570    2.8225
   21.600    2.7488
   21.630    2.7909
   21.660    2.7699
   21.690    2.7488
   21.720    2.7067
   21.750    2.6014
   21.780    2.9173
   21.810    2.8015
   21.840    2.4750
   21.870    2.6330
   21.900    2.6014
   21.930    2.5487
   21.960    2.9279
   21.990    2.6224
   22.020    2.6751
   22.050    2.8436
   22.080    2.6119
   22.110    2.9384
   22.140    2.7909
   22.170    2.6751
   22.200    2.4118
   22.230    2.8225
   22.260    2.4013
   22.290    2.6119
   22.320    2.6856
   22.350    2.4013
   22.380    2.4855
   22.410    2.5487
   22.440    2.8225
   22.470    2.4118
   22.500    2.6540
   22.530    2.5803
   22.560    2.6330
   22.590    2.5171
   22.620    2.6540
   22.650    2.3591
   22.680    2.5487
   22.710    2.5066
   22.740    2.4645
   22.770    2.5382
   22.800    2.7488
   22.830    2.6856
   22.860    2.5171
   22.890    2.9068
   22.920    2.4223
   22.950    2.4750
   22.980    2.4961
   23.010    2.5276
   23.040    2.5803
   23.070    2.7699
   23.100    2.4645
   23.130    2.7699
   23.160    2.2433
   23.190    2.5276
   23.220    2.6330
   23.250    2.4855
   23.280    2.4013
   23.310    2.3591
   23.340    2.5382
   23.370    2.4645
   23.400    2.2538
   23.430    2.2854
   23.460    2.4855
   23.490    2.6014
   23.520    2.4329
   23.550    2.3802
   23.580    2.4434
   23.610    2.6119
   23.640    2.3907
   23.670    2.2854
   23.700    2.4645
   23.730    2.3486
   23.760    2.4961
   23.790    2.3381
   23.820    2.1590
   23.850    2.1590
   23.880    2.4539
   23.910    2.4855
   23.940    2.4961
   23.970    2.4539
   24.000    2.1906
   24.030    2.5276
   24.060    2.2012
   24.090    2.3065
   24.120    2.2222
   24.150    2.3065
   24.180    2.2538
   24.210    2.1801
   24.240    2.2012
   24.270    2.3170
   24.300    2.3802
   24.330    2.1485
   24.360    2.6224
   24.390    2.2012
   24.420    2.3170
   24.450    2.2538
   24.480    2.4223
   24.510    2.2643
   24.540    2.4118
   24.570    2.4645
   24.600    2.2328
   24.630    2.1801
   24.660    2.3170
   24.690    2.1696
   24.720    2.0432
   24.750    2.3381
   24.780    2.2643
   24.810    2.4434
   24.840    2.3802
   24.870    2.2538
   24.900    2.2854
   24.930    2.0432
   24.960    2.3802
   24.990    2.3591
   25.020    2.1590
   25.050    2.2854
   25.080    2.2643
   25.110    2.2433
   25.140    2.1801
   25.170    1.9800
   25.200    2.3065
   25.230    2.0116
   25.260    2.2959
   25.290    2.2959
   25.320    1.9379
   25.350    2.1696
   25.380    2.4750
   25.410    2.0537
   25.440    1.9800
   25.470    2.1485
   25.500    2.1696
   25.530    1.9905
   25.560    2.2117
   25.590    2.2012
   25.620    2.4961
   25.650    2.0537
   25.680    2.4118
   25.710    2.2959
   25.740    2.0642
   25.770    1.9379
   25.800    2.2117
   25.830    2.1696
   25.860    2.2854
   25.890    2.1274
   25.920    2.1906
   25.950    2.0748
   25.980    2.0958
   26.010    2.2433
   26.040    2.3065
   26.070    2.0642
   26.100    2.0748
   26.130    1.9273
   26.160    2.2222
   26.190    1.9273
   26.220    1.9800
   26.250    2.0432
   26.280    2.0537
   26.310    2.0958
   26.340    2.0221
   26.370    2.1274
   26.400    1.8957
   26.430    2.0642
   26.460    2.0958
   26.490    2.0537
   26.520    2.0011
   26.550    2.0958
   26.580    1.9800
   26.610    2.1274
   26.640    2.1380
   26.670    2.0748
   26.700    2.0642
   26.730    2.2117
   26.760    2.0011
   26.790    2.0537
   26.820    2.0116
   26.850    2.0116
   26.880    1.9379
   26.910    1.8641
   26.940    1.9484
   26.970    2.1380
   27.000    2.2538
   27.030    2.0432
   27.060    2.0432
   27.090    1.9063
   27.120    1.9063
   27.150    1.8852
   27.180    1.9063
   27.210    1.9063
   27.240    1.9273
   27.270    1.8747
   27.300    1.8220
   27.330    2.0011
   27.360    1.7799
   27.390    1.9379
   27.420    1.9168
   27.450    1.9695
   27.480    1.8957
   27.510    2.2012
   27.540    1.7062
   27.570    1.6640
   27.600    1.7904
   27.630    1.9800
   27.660    1.9800
   27.690    1.8852
   27.720    1.7904
   27.750    1.8536
   27.780    1.9484
   27.810    1.7272
   27.840    1.9589
   27.870    1.7378
   27.900    1.8325
   27.930    1.9800
   27.960    1.9589
   27.990    1.8325
   28.020    1.6956
   28.050    1.8747
   28.080    1.5587
   28.110    1.7588
   28.140    1.9273
   28.170    1.8431
   28.200    1.6219
   28.230    1.8325
   28.260    1.8115
   28.290    1.7062
   28.320    1.6324
   28.350    1.9063
   28.380    1.6640
   28.410    1.8431
   28.440    1.6640
   28.470    1.7694
   28.500    1.7272
   28.530    2.0642
   28.560    1.7378
   28.590    1.7483
   28.620    1.9063
   28.650    2.0642
   28.680    1.9589
   28.710    1.7799
   28.740    1.7378
   28.770    1.8009
   28.800    1.8957
   28.830    1.7062
   28.860    1.6008
   28.890    1.9273
   28.920    1.8431
   28.950    1.7062
   28.980    1.7272
   29.010    1.9800
   29.040    1.9273
   29.070    1.8536
   29.100    1.7483
   29.130    1.8431
   29.160    1.7588
   29.190    1.9273
   29.220    1.7483
   29.250    1.6851
   29.280    1.8747
   29.310    1.8220
   29.340    1.6851
   29.370    1.6746
   29.400    1.8641
   29.430    1.6746
   29.460    1.8009
   29.490    1.8431
   29.520    1.6851
   29.550    1.6430
   29.580    1.7378
   29.610    1.8009
   29.640    1.6219
   29.670    1.7272
   29.700    1.4850
   29.730    1.6114
   29.760    1.6008
   29.790    1.5587
   29.820    1.6008
   29.850    1.4850
   29.880    1.5587
   29.910    1.4850
   29.940    1.6535
   29.970    1.5377
   30.000    1.5166
   30.030    1.5587
   30.060    1.5482
   30.090    1.5166
   30.120    1.5482
   30.150    1.4850
   30.180    1.4955
   30.210    1.5166
   30.240    1.4007
   30.270    1.5482
   30.300    1.7694
   30.330    1.4745
   30.360    1.2849
   30.390    1.5061
   30.420    1.6219
   30.450    1.4639
   30.480    1.5482
   30.510    1.4429
   30.540    1.5166
   30.570    1.5798
   30.600    1.4429
   30.630    1.4534
   30.660    1.6324
   30.690    1.3902
   30.720    1.5482
   30.750    1.5061
   30.780    1.4323
   30.810    1.5061
   30.840    1.3060
   30.870    1.4534
   30.900    1.5798
   30.930    1.7062
   30.960    1.4745
   30.990    1.5061
   31.020    1.4113
   31.050    1.3797
   31.080    1.4639
   31.110    1.5061
   31.140    1.2533
   31.170    1.4850
   31.200    1.5271
   31.230    1.3586
   31.260    1.2112
   31.290    1.3060
   31.320    1.3270
   31.350    1.1796
   31.380    1.4007
   31.410    1.3902
   31.440    1.3586
   31.470    1.4534
   31.500    1.2744
   31.530    1.3165
   31.560    1.3165
   31.590    1.2849
   31.620    1.4534
   31.650    1.2322
   31.680    1.2006
   31.710    1.5271
   31.740    1.3375
   31.770    1.3586
   31.800    1.3060
   31.830    1.2954
   31.860    1.3060
   31.890    1.3902
   31.920    1.1164
   31.950    1.3060
   31.980    1.2428
   32.010    1.1690
   32.040    1.2849
   32.070    1.2849
   32.100    1.1269
   32.130    1.2006
   32.160    1.3165
   32.190    1.1901
   32.220    1.2533
   32.250    1.2849
   32.280    1.3902
   32.310    1.1164
   32.340    1.2954
   32.370    1.2322
   32.400    1.3270
   32.430    1.2849
   32.460    1.1374
   32.490    1.2217
   32.520    1.3270
   32.550    1.2322
   32.580    1.2849
   32.610    1.2849
   32.640    1.2744
   32.670    1.2744
   32.700    0.9900
   32.730    1.2428
   32.760    1.3060
   32.790    1.3902
   32.820    1.3375
   32.850    1.3586
   32.880    1.1374
   32.910    1.1901
   32.940    1.0953
   32.970    1.1585
   33.000    1.4534
   33.030    1.1796
   33.060    1.3481
   33.090    1.2744
   33.120    1.2849
   33.150    1.2638
   33.180    1.2638
   33.210    1.1480
   33.240    1.1796
   33.270    1.1585
   33.300    1.2849
   33.330    1.2428
   33.360    1.3586
   33.390    1.2638
   33.420    1.4639
   33.450    1.1901
   33.480    1.2533
   33.510    1.1164
   33.540    1.2954
   33.570    1.4429
   33.600    1.1901
   33.630    1.3165
   33.660    1.1164
   33.690    1.1164
   33.720    1.2638
   33.750    1.3270
   33.780    1.2849
   33.810    1.4218
   33.840    1.0953
   33.870    1.1901
   33.900    1.1058
   33.930    1.2849
   33.960    1.1585
   33.990    1.1690
   34.020    1.2954
   34.050    1.1585
   34.080    1.1585
   34.110    1.3165
   34.140    1.0321
   34.170    1.1374
   34.200    1.2533
   34.230    1.1269
   34.260    1.1374
   34.290    1.2638
   34.320    1.2533
   34.350    1.0427
   34.380    1.1480
   34.410    1.0321
   34.440    1.2006
   34.470    1.1058
   34.500    1.0848
   34.530    1.1164
   34.560    1.1901
   34.590    1.1901
   34.620    1.2638
   34.650    1.2006
   34.680    1.1690
   34.710    1.0005
   34.740    1.1796
   34.770    1.1164
   34.800    1.1164
   34.830    1.1374
   34.860    1.0427
   34.890    1.0427
   34.920    1.0742
   34.950    1.2006
   34.980    1.2217
   35.010    1.0848
   35.040    1.0532
   35.070    1.1269
   35.100    1.2006
   35.130    1.2112
   35.160    1.2006
   35.190    1.0953
   35.220    1.1058
   35.250    1.0532
   35.280    1.2112
   35.310    1.1901
   35.340    1.0637
   35.370    1.0532
   35.400    1.0427
   35.430    1.1796
   35.460    0.8952
   35.490    1.1690
   35.520    1.1690
   35.550    1.1480
   35.580    1.0321
   35.610    1.2217
   35.640    1.1374
   35.670    1.1796
   35.700    1.1796
   35.730    1.1164
   35.760    1.2217
   35.790    1.0637
   35.820    1.1269
   35.850    1.0742
   35.880    1.1796
   35.910    1.1058
   35.940    0.9057
   35.970    0.9163
   36.000    1.2428
   36.030    1.2217
   36.060    1.1269
   36.090    1.1796
   36.120    1.0637
   36.150    1.1901
   36.180    1.2112
   36.210    1.1585
   36.240    1.1058
   36.270    1.2954
   36.300    1.1374
   36.330    0.9689
   36.360    1.1585
   36.390    1.1269
   36.420    1.0111
   36.450    1.1374
   36.480    1.2006
   36.510    1.0953
   36.540    1.0953
   36.570    1.0637
   36.600    1.0953
   36.630    1.1374
   36.660    1.3060
   36.690    1.1690
   36.720    1.0321
   36.750    1.0216
   36.780    1.1269
   36.810    1.0111
   36.840    1.0848
   36.870    1.1058
   36.900    1.1164
   36.930    0.9268
   36.960    1.1269
   36.990    1.0321
   37.020    1.0953
   37.050    1.2428
   37.080    1.0111
   37.110    0.9795
   37.140    0.9689
   37.170    0.9268
   37.200    1.1058
   37.230    1.0953
   37.260    1.1480
   37.290    1.0848
   37.320    0.9795
   37.350    1.0111
   37.380    1.0111
   37.410    0.9900
   37.440    1.0321
   37.470    1.0848
   37.500    1.0111
   37.530    1.1269
   37.560    1.0637
   37.590    1.1585
   37.620    1.0427
   37.650    1.0321
   37.680    0.9795
   37.710    1.0848
   37.740    1.0742
   37.770    0.9900
   37.800    1.0427
   37.830    1.0216
   37.860    0.9900
   37.890    1.1796
   37.920    0.8531
   37.950    0.9900
   37.980    1.0111
   38.010    1.1058
   38.040    1.0532
   38.070    0.9163
   38.100    0.9373
   38.130    1.0111
   38.160    0.9584
   38.190    0.9479
   38.220    1.0427
   38.250    1.0742
   38.280    1.0216
   38.310    1.1585
   38.340    1.0532
   38.370    0.9900
   38.400    1.1374
   38.430    1.0953
   38.460    1.1585
   38.490    0.9795
   38.520    0.9900
   38.550    1.0953
   38.580    0.9057
   38.610    1.0427
   38.640    1.0953
   38.670    1.0848
   38.700    0.9057
   38.730    0.9373
   38.760    0.9373
   38.790    1.0532
   38.820    0.9163
   38.850    0.9689
   38.880    1.0111
   38.910    1.0848
   38.940    1.1269
   38.970    1.0216
   39.000    1.1164
   39.030    1.0953
   39.060    0.9268
   39.090    0.9057
   39.120    0.8952
   39.150    0.9689
   39.180    0.8741
   39.210    1.0005
   39.240    1.0321
   39.270    0.9479
   39.300    0.8531
   39.330    1.0742
   39.360    1.1480
   39.390    1.1585
   39.420    1.0216
   39.450    1.0005
   39.480    0.8741
   39.510    1.0005
   39.540    1.0532
   39.570    0.9373
   39.600    1.0216
   39.630    0.9163
   39.660    0.9268
   39.690    0.8847
   39.720    1.0005
   39.750    0.8531
   39.780    1.0532
   39.810    1.0532
   39.840    0.9900
   39.870    0.9900
   39.900    0.8531
   39.930    1.0637
   39.960    0.9479
   39.990    1.0953