File: data/MOCOF-1/PXRD/PXRD_KE-172_Cu-Ka1_capillary-1mm_5s-deg.xyd
    1.500   34.8815
    1.530   36.3981
    1.560   37.6093
    1.590   36.4297
    1.620   36.2612
    1.650   34.7657
    1.680   33.3755
    1.710   33.0595
    1.740   32.8067
    1.770   32.1222
    1.800   31.6166
    1.830   30.7109
    1.860   29.3839
    1.890   31.3218
    1.920   29.8473
    1.950   29.6051
    1.980   29.0785
    2.010   29.0258
    2.040   28.5519
    2.070   27.6356
    2.100   28.4571
    2.130   28.7625
    2.160   27.8462
    2.190   28.5203
    2.220   28.4887
    2.250   28.5519
    2.280   28.6045
    2.310   29.6788
    2.340   29.7630
    2.370   29.1101
    2.400   29.4787
    2.430   30.4160
    2.460   31.5535
    2.490   31.1006
    2.520   31.0585
    2.550   33.4387
    2.580   34.2075
    2.610   33.4702
    2.640   35.9347
    2.670   35.5029
    2.700   36.7983
    2.730   38.3465
    2.760   40.1580
    2.790   40.6635
    2.820   42.9700
    2.850   44.9921
    2.880   47.4671
    2.910   48.9100
    2.940   51.8167
    2.970   53.2491
    3.000   57.1564
    3.030   60.4107
    3.060   63.1912
    3.090   68.7414
    3.120   72.5750
    3.150   78.6414
    3.180   84.1496
    3.210   92.0063
    3.240   97.3144
    3.270  107.7831
    3.300  118.5150
    3.330  131.1111
    3.360  143.9600
    3.390  165.4344
    3.420  185.0448
    3.450  201.8852
    3.480  203.0753
    3.510  177.6303
    3.540  141.3481
    3.570  107.1090
    3.600   85.0974
    3.630   74.3865
    3.660   67.0458
    3.690   64.8763
    3.720   64.5919
    3.750   64.9500
    3.780   66.8984
    3.810   68.7836
    3.840   70.5529
    3.870   73.0490
    3.900   77.6725
    3.930   81.8747
    3.960   83.2754
    3.990   84.9605
    4.020   86.3718
    4.050   84.5498
    4.080   83.9705
    4.110   78.4202
    4.140   75.3344
    4.170   69.3207
    4.200   62.6646
    4.230   55.5766
    4.260   48.9100
    4.290   42.7383
    4.320   37.4724
    4.350   32.5645
    4.380   28.3728
    4.410   25.4976
    4.440   23.0964
    4.470   20.4423
    4.500   19.6103
    4.530   17.4092
    4.560   16.0927
    4.590   15.4292
    4.620   14.2601
    4.650   14.0074
    4.680   13.5756
    4.710   12.5013
    4.740   11.7957
    4.770   11.8167
    4.800   11.5324
    4.830   10.7425
    4.860   11.1006
    4.890   10.6056
    4.920   10.7004
    4.950   10.1632
    4.980   10.5635
    5.010    9.8052
    5.040    9.9526
    5.070    9.9842
    5.100    9.3312
    5.130    9.4997
    5.160    9.6788
    5.190    9.4050
    5.220    9.4260
    5.250    9.2996
    5.280    9.2680
    5.310    8.9205
    5.340    8.8573
    5.370    8.7730
    5.400    8.8678
    5.430    8.8257
    5.460    8.6783
    5.490    8.5940
    5.520    8.4360
    5.550    8.8468
    5.580    8.1622
    5.610    8.1201
    5.640    8.0253
    5.670    8.2043
    5.700    8.0147
    5.730    7.9726
    5.760    7.7936
    5.790    8.1938
    5.820    8.2254
    5.850    8.1306
    5.880    7.8989
    5.910    8.1517
    5.940    7.6672
    5.970    8.5413
    6.000    8.4360
    6.030    8.2464
    6.060    8.0463
    6.090    8.4781
    6.120    8.4571
    6.150    7.6040
    6.180    7.9621
    6.210    7.9200
    6.240    8.0147
    6.270    8.7941
    6.300    7.9410
    6.330    8.2570
    6.360    9.3628
    6.390    8.3518
    6.420    9.0258
    6.450    9.1522
    6.480    8.8784
    6.510    9.5840
    6.540    9.6472
    6.570    9.5629
    6.600   10.8899
    6.630   11.0058
    6.660   11.6061
    6.690   12.4908
    6.720   13.5334
    6.750   13.7019
    6.780   14.2917
    6.810   16.2296
    6.840   17.5566
    6.870   19.4629
    6.900   20.9479
    6.930   22.8752
    6.960   25.1290
    6.990   24.7393
    7.020   22.1801
    7.050   18.8415
    7.080   16.1243
    7.110   13.0174
    7.140   11.6166
    7.170   10.6266
    7.200   10.6056
    7.230    9.9842
    7.260   10.0579
    7.290    9.4576
    7.320    9.3312
    7.350    9.3102
    7.380    9.8473
    7.410    9.4365
    7.440    9.4050
    7.470    9.4471
    7.500    9.4050
    7.530    9.3102
    7.560    9.5840
    7.590    9.6472
    7.620   10.1948
    7.650   10.1211
    7.680   10.1738
    7.710   10.3107
    7.740   10.4055
    7.770   10.6898
    7.800   10.5319
    7.830   11.2375
    7.860   11.9642
    7.890   11.3533
    7.920   11.8483
    7.950   11.9010
    7.980   13.1016
    8.010   13.4597
    8.040   12.9858
    8.070   13.4597
    8.100   13.2491
    8.130   13.7335
    8.160   13.4597
    8.190   13.2807
    8.220   13.9442
    8.250   13.5966
    8.280   13.2596
    8.310   13.2385
    8.340   13.1964
    8.370   12.7541
    8.400   12.6382
    8.430   12.0590
    8.460   11.7430
    8.490   11.0058
    8.520   10.9637
    8.550   11.0479
    8.580   10.6161
    8.610   10.8268
    8.640    9.6893
    8.670    9.8262
    8.700    9.5945
    8.730    9.7314
    8.760    9.4471
    8.790    8.8784
    8.820    9.0258
    8.850    8.9521
    8.880    9.0995
    8.910    8.6993
    8.940    8.3096
    8.970    8.4676
    9.000    8.2675
    9.030    8.0569
    9.060    7.9516
    9.090    8.1411
    9.120    7.6040
    9.150    7.7514
    9.180    7.6988
    9.210    7.7093
    9.240    7.4882
    9.270    7.5619
    9.300    7.9094
    9.330    7.9516
    9.360    7.6988
    9.390    7.4987
    9.420    7.3407
    9.450    7.7304
    9.480    7.5935
    9.510    7.5408
    9.540    6.9194
    9.570    7.2670
    9.600    7.6040
    9.630    7.5092
    9.660    7.2249
    9.690    7.3723
    9.720    7.3407
    9.750    7.2354
    9.780    7.2775
    9.810    7.4144
    9.840    7.4460
    9.870    7.8989
    9.900    7.5619
    9.930    7.5408
    9.960    7.4776
    9.990    7.2565
   10.020    6.9194
   10.050    7.8252
   10.080    7.6672
   10.110    7.6356
   10.140    7.5408
   10.170    7.0774
   10.200    7.3934
   10.230    7.7409
   10.260    7.8041
   10.290    7.6040
   10.320    8.1727
   10.350    7.8462
   10.380    7.8884
   10.410    8.3834
   10.440    8.3623
   10.470    8.8257
   10.500    8.6045
   10.530    8.5729
   10.560    8.6151
   10.590    7.6461
   10.620    8.0990
   10.650    7.9094
   10.680    7.8146
   10.710    7.4671
   10.740    7.7936
   10.770    7.9726
   10.800    7.1406
   10.830    7.4566
   10.860    7.1933
   10.890    7.5303
   10.920    7.5197
   10.950    7.2038
   10.980    7.3723
   11.010    7.3934
   11.040    7.3512
   11.070    7.6461
   11.100    7.1617
   11.130    7.3302
   11.160    7.6251
   11.190    7.0669
   11.220    7.3302
   11.250    7.1933
   11.280    7.3934
   11.310    7.6145
   11.340    7.5724
   11.370    7.2143
   11.400    7.3618
   11.430    7.4987
   11.460    7.3828
   11.490    7.6883
   11.520    7.6251
   11.550    7.3512
   11.580    7.4460
   11.610    7.4355
   11.640    7.3196
   11.670    7.7409
   11.700    7.5935
   11.730    7.4882
   11.760    7.8989
   11.790    7.6461
   11.820    7.9200
   11.850    7.6356
   11.880    7.4250
   11.910    7.5513
   11.940    7.4039
   11.970    7.9516
   12.000    8.0885
   12.030    7.8252
   12.060    7.9831
   12.090    7.9621
   12.120    7.6777
   12.150    7.7830
   12.180    7.7830
   12.210    8.1201
   12.240    8.5308
   12.270    7.6672
   12.300    7.7409
   12.330    7.8041
   12.360    8.0674
   12.390    7.6883
   12.420    8.4360
   12.450    8.3518
   12.480    8.2675
   12.510    7.8884
   12.540    8.0569
   12.570    8.0042
   12.600    7.7514
   12.630    8.4150
   12.660    8.0358
   12.690    7.6988
   12.720    7.6988
   12.750    7.8041
   12.780    7.8462
   12.810    8.4676
   12.840    8.1938
   12.870    7.9200
   12.900    7.9937
   12.930    7.9516
   12.960    7.7093
   12.990    7.6672
   13.020    7.5829
   13.050    7.8884
   13.080    7.5619
   13.110    7.8041
   13.140    7.6567
   13.170    7.7620
   13.200    7.4671
   13.230    7.8462
   13.260    7.5829
   13.290    7.3196
   13.320    7.2775
   13.350    7.5513
   13.380    7.7936
   13.410    7.3618
   13.440    7.8673
   13.470    7.8778
   13.500    7.7620
   13.530    7.6567
   13.560    7.4987
   13.590    7.9516
   13.620    8.2991
   13.650    7.5197
   13.680    7.8462
   13.710    7.0985
   13.740    7.2143
   13.770    7.7936
   13.800    7.4566
   13.830    7.1195
   13.860    7.4987
   13.890    7.3618
   13.920    7.6883
   13.950    7.4039
   13.980    7.7725
   14.010    7.6461
   14.040    7.1301
   14.070    7.4882
   14.100    7.7409
   14.130    7.8041
   14.160    6.6351
   14.190    6.9826
   14.220    7.5935
   14.250    7.2354
   14.280    7.5197
   14.310    7.2670
   14.340    7.3196
   14.370    7.5092
   14.400    7.1827
   14.430    6.7404
   14.460    7.1617
   14.490    6.9932
   14.520    7.2249
   14.550    7.4671
   14.580    7.3723
   14.610    7.3302
   14.640    7.4987
   14.670    7.7093
   14.700    7.5408
   14.730    7.4882
   14.760    6.7299
   14.790    7.2459
   14.820    6.9616
   14.850    7.1827
   14.880    7.0879
   14.910    7.1511
   14.940    6.9194
   14.970    7.1195
   15.000    7.0563
   15.030    7.2670
   15.060    6.8668
   15.090    7.1406
   15.120    7.6672
   15.150    6.5403
   15.180    7.1511
   15.210    7.3091
   15.240    7.1406
   15.270    7.4566
   15.300    7.2249
   15.330    7.4144
   15.360    7.5303
   15.390    7.4355
   15.420    7.1722
   15.450    7.0774
   15.480    7.0669
   15.510    7.0774
   15.540    7.2354
   15.570    7.4355
   15.600    7.6461
   15.630    7.2775
   15.660    7.3934
   15.690    7.0669
   15.720    7.4144
   15.750    6.9510
   15.780    7.3407
   15.810    7.4776
   15.840    7.2249
   15.870    7.1827
   15.900    7.2038
   15.930    6.9405
   15.960    7.0563
   15.990    6.9721
   16.020    7.0879
   16.050    7.1511
   16.080    7.2775
   16.110    6.9089
   16.140    7.5619
   16.170    6.9932
   16.200    7.1406
   16.230    7.0774
   16.260    7.5408
   16.290    6.9300
   16.320    7.2986
   16.350    7.1933
   16.380    7.4355
   16.410    7.0563
   16.440    7.1406
   16.470    7.1195
   16.500    7.1090
   16.530    7.1511
   16.560    7.2143
   16.590    7.2565
   16.620    6.8141
   16.650    7.1722
   16.680    7.2354
   16.710    7.4566
   16.740    6.9405
   16.770    7.4144
   16.800    6.9616
   16.830    6.8562
   16.860    6.9194
   16.890    6.7615
   16.920    7.0248
   16.950    7.4250
   16.980    7.0774
   17.010    6.8562
   17.040    7.0248
   17.070    6.9721
   17.100    6.7404
   17.130    6.4666
   17.160    6.8562
   17.190    7.1195
   17.220    7.4882
   17.250    7.4039
   17.280    7.4250
   17.310    7.0142
   17.340    7.1301
   17.370    7.3091
   17.400    6.8352
   17.430    7.1406
   17.460    7.2354
   17.490    7.4039
   17.520    7.3196
   17.550    7.1406
   17.580    7.1933
   17.610    7.4144
   17.640    7.5197
   17.670    7.2670
   17.700    7.1827
   17.730    7.0458
   17.760    6.9616
   17.790    7.2038
   17.820    6.9932
   17.850    6.8141
   17.880    7.4039
   17.910    7.3091
   17.940    7.0985
   17.970    7.4671
   18.000    7.4671
   18.030    6.9932
   18.060    6.7088
   18.090    7.5197
   18.120    7.3618
   18.150    7.4776
   18.180    8.0463
   18.210    7.5408
   18.240    7.0985
   18.270    7.8462
   18.300    7.6567
   18.330    7.0458
   18.360    7.1090
   18.390    7.1617
   18.420    7.2459
   18.450    6.9510
   18.480    7.0353
   18.510    7.4987
   18.540    7.2143
   18.570    6.8878
   18.600    7.2143
   18.630    7.1195
   18.660    7.3407
   18.690    7.4355
   18.720    7.5935
   18.750    7.2354
   18.780    7.4882
   18.810    7.2038
   18.840    7.0774
   18.870    6.7299
   18.900    7.1406
   18.930    7.3723
   18.960    7.6251
   18.990    7.2986
   19.020    7.5935
   19.050    7.7199
   19.080    7.3618
   19.110    7.6040
   19.140    7.3618
   19.170    7.6672
   19.200    7.6777
   19.230    7.6356
   19.260    7.5935
   19.290    7.5303
   19.320    7.4460
   19.350    7.1617
   19.380    7.3828
   19.410    7.8357
   19.440    7.8357
   19.470    7.8568
   19.500    7.7199
   19.530    7.4987
   19.560    7.4144
   19.590    7.6145
   19.620    7.4776
   19.650    7.7514
   19.680    7.5197
   19.710    8.0674
   19.740    7.9305
   19.770    8.1833
   19.800    7.6145
   19.830    8.0990
   19.860    7.7620
   19.890    8.2043
   19.920    7.8146
   19.950    8.0147
   19.980    7.7620
   20.010    8.0463
   20.040    7.8673
   20.070    7.8673
   20.100    8.0674
   20.130    7.8673
   20.160    7.7620
   20.190    8.2254
   20.220    8.2675
   20.250    8.5835
   20.280    8.3623
   20.310    8.2886
   20.340    7.8568
   20.370    7.9200
   20.400    7.6777
   20.430    8.5835
   20.460    8.2570
   20.490    8.2991
   20.520    8.5624
   20.550    7.9200
   20.580    8.2675
   20.610    8.0147
   20.640    8.2570
   20.670    7.9621
   20.700    7.5724
   20.730    8.0885
   20.760    7.7830
   20.790    7.9410
   20.820    8.1833
   20.850    8.0885
   20.880    7.9410
   20.910    7.9094
   20.940    8.1833
   20.970    8.2780
   21.000    7.9937
   21.030    8.2886
   21.060    8.3623
   21.090    8.1622
   21.120    8.1622
   21.150    8.1833
   21.180    8.2464
   21.210    8.0253
   21.240    7.9516
   21.270    7.9094
   21.300    8.0253
   21.330    8.0674
   21.360    7.8989
   21.390    8.0147
   21.420    8.1517
   21.450    7.8568
   21.480    8.6572
   21.510    7.8462
   21.540    8.2043
   21.570    7.8778
   21.600    8.5097
   21.630    8.0569
   21.660    7.9937
   21.690    8.1201
   21.720    8.2886
   21.750    8.0990
   21.780    8.3202
   21.810    7.8989
   21.840    7.7936
   21.870    7.8357
   21.900    8.0042
   21.930    7.7725
   21.960    7.9410
   21.990    7.6461
   22.020    7.9516
   22.050    8.2991
   22.080    7.8989
   22.110    8.2570
   22.140    7.7936
   22.170    8.1095
   22.200    8.2570
   22.230    8.1306
   22.260    7.5724
   22.290    8.4044
   22.320    7.9621
   22.350    8.3728
   22.380    8.0779
   22.410    8.0463
   22.440    7.8673
   22.470    8.1622
   22.500    7.9726
   22.530    7.7199
   22.560    8.2043
   22.590    8.0253
   22.620    7.7409
   22.650    7.5829
   22.680    8.0569
   22.710    7.9937
   22.740    8.0253
   22.770    7.5935
   22.800    7.9831
   22.830    7.8989
   22.860    8.0885
   22.890    7.6356
   22.920    7.6251
   22.950    8.2464
   22.980    7.9726
   23.010    8.1095
   23.040    7.9516
   23.070    8.0358
   23.100    7.6672
   23.130    7.8252
   23.160    7.7620
   23.190    7.1827
   23.220    7.7514
   23.250    7.7725
   23.280    7.7304
   23.310    7.6883
   23.340    7.7199
   23.370    7.6251
   23.400    8.0463
   23.430    7.5619
   23.460    7.7830
   23.490    7.6567
   23.520    7.4144
   23.550    7.4776
   23.580    7.7304
   23.610    7.8462
   23.640    7.6672
   23.670    7.8673
   23.700    7.8462
   23.730    7.8568
   23.760    7.7514
   23.790    7.5092
   23.820    7.9937
   23.850    7.7093
   23.880    7.6356
   23.910    7.6461
   23.940    7.4460
   23.970    7.9726
   24.000    7.6988
   24.030    7.3407
   24.060    7.4671
   24.090    7.0669
   24.120    7.5092
   24.150    7.6356
   24.180    7.8568
   24.210    7.4987
   24.240    7.4882
   24.270    7.2565
   24.300    7.4144
   24.330    7.4987
   24.360    7.4882
   24.390    7.4671
   24.420    7.6145
   24.450    7.3302
   24.480    7.5303
   24.510    7.4250
   24.540    7.3302
   24.570    7.6567
   24.600    7.8357
   24.630    7.5619
   24.660    7.6145
   24.690    7.5829
   24.720    7.2459
   24.750    7.3618
   24.780    7.1195
   24.810    7.6988
   24.840    7.0879
   24.870    6.8562
   24.900    7.4566
   24.930    7.4987
   24.960    7.3512
   24.990    6.9721
   25.020    7.3512
   25.050    7.2565
   25.080    7.2986
   25.110    7.4355
   25.140    7.4671
   25.170    7.1195
   25.200    7.4250
   25.230    7.3828
   25.260    7.6356
   25.290    7.4250
   25.320    7.2986
   25.350    7.2986
   25.380    7.2775
   25.410    7.2775
   25.440    7.3091
   25.470    6.9826
   25.500    6.9721
   25.530    6.9300
   25.560    7.1511
   25.590    7.2775
   25.620    7.3618
   25.650    6.9826
   25.680    6.7193
   25.710    6.9089
   25.740    7.4039
   25.770    6.8773
   25.800    7.1090
   25.830    7.0879
   25.860    7.1406
   25.890    6.8562
   25.920    7.2354
   25.950    7.3618
   25.980    6.9089
   26.010    7.1090
   26.040    6.9194
   26.070    7.2038
   26.100    7.0142
   26.130    7.0563
   26.160    6.5613
   26.190    6.9721
   26.220    7.0142
   26.250    6.5192
   26.280    7.0248
   26.310    6.8036
   26.340    6.5824
   26.370    6.8984
   26.400    6.6035
   26.430    6.6035
   26.460    6.8773
   26.490    7.1090
   26.520    6.5298
   26.550    6.7615
   26.580    6.5403
   26.610    6.8246
   26.640    6.8984
   26.670    6.7930
   26.700    6.8036
   26.730    6.6456
   26.760    6.7825
   26.790    7.1722
   26.820    6.2243
   26.850    6.5929
   26.880    6.9194
   26.910    6.6772
   26.940    6.8668
   26.970    6.8773
   27.000    6.7615
   27.030    6.7615
   27.060    6.6456
   27.090    6.9826
   27.120    7.2249
   27.150    6.4771
   27.180    6.8562
   27.210    6.9721
   27.240    6.5087
   27.270    6.4560
   27.300    6.9826
   27.330    6.8352
   27.360    6.9932
   27.390    6.6140
   27.420    6.7299
   27.450    6.5403
   27.480    6.1506
   27.510    6.6772
   27.540    6.4560
   27.570    6.8562
   27.600    6.6983
   27.630    6.7615
   27.660    6.7193
   27.690    6.7299
   27.720    6.7404
   27.750    6.5824
   27.780    6.7930
   27.810    6.4244
   27.840    6.7509
   27.870    6.9194
   27.900    6.6245
   27.930    6.3928
   27.960    6.8457
   27.990    6.8668
   28.020    6.5192
   28.050    6.3402
   28.080    6.7088
   28.110    6.8984
   28.140    6.6035
   28.170    6.8878
   28.200    6.8457
   28.230    7.0985
   28.260    6.2349
   28.290    6.6983
   28.320    7.0248
   28.350    6.7615
   28.380    7.4144
   28.410    6.5929
   28.440    6.7930
   28.470    6.6351
   28.500    6.8352
   28.530    6.9194
   28.560    6.8773
   28.590    6.7825
   28.620    6.7720
   28.650    6.8668
   28.680    6.6140
   28.710    6.5087
   28.740    6.8141
   28.770    6.7299
   28.800    6.2981
   28.830    6.6140
   28.860    6.8036
   28.890    6.4666
   28.920    6.6245
   28.950    6.3928
   28.980    6.5192
   29.010    6.2033
   29.040    6.7299
   29.070    6.7615
   29.100    6.5929
   29.130    6.3296
   29.160    6.6456
   29.190    6.6245
   29.220    6.3086
   29.250    6.3823
   29.280    6.3612
   29.310    6.1927
   29.340    6.4560
   29.370    7.2775
   29.400    6.1611
   29.430    6.8141
   29.460    6.3823
   29.490    6.5087
   29.520    6.2243
   29.550    6.5403
   29.580    6.5192
   29.610    6.2559
   29.640    6.0348
   29.670    6.2770
   29.700    6.6245
   29.730    6.3823
   29.760    6.0874
   29.790    6.3402
   29.820    6.3296
   29.850    6.4771
   29.880    6.3507
   29.910    6.4982
   29.940    6.1401
   29.970    6.0032
   30.000    6.4771
   30.030    6.1085
   30.060    6.3507
   30.090    6.5403
   30.120    6.2349
   30.150    6.7509
   30.180    6.0769
   30.210    6.4139
   30.240    6.0874
   30.270    6.3296
   30.300    6.5192
   30.330    6.4666
   30.360    6.5929
   30.390    6.5087
   30.420    6.4139
   30.450    6.0769
   30.480    5.8452
   30.510    6.0348
   30.540    6.3296
   30.570    6.4455
   30.600    6.4982
   30.630    6.2033
   30.660    6.0874
   30.690    6.2349
   30.720    6.6561
   30.750    6.2033
   30.780    6.0453
   30.810    6.2981
   30.840    6.3086
   30.870    6.2454
   30.900    6.3823
   30.930    6.4876
   30.960    6.3823
   30.990    6.4876
   31.020    6.0032
   31.050    6.3718
   31.080    6.3928
   31.110    5.9716
   31.140    5.8662
   31.170    6.1401
   31.200    6.0453
   31.230    6.4034
   31.260    6.0137
   31.290    6.3191
   31.320    6.4034
   31.350    5.7820
   31.380    6.0137
   31.410    6.2138
   31.440    6.3296
   31.470    6.1085
   31.500    6.3507
   31.530    6.1190
   31.560    6.3191
   31.590    6.2033
   31.620    6.6667
   31.650    5.6872
   31.680    6.3718
   31.710    6.2559
   31.740    6.7825
   31.770    6.4666
   31.800    6.7615
   31.830    6.5087
   31.860    6.6456
   31.890    6.5403
   31.920    6.4350
   31.950    6.0979
   31.980    6.6983
   32.010    6.1190
   32.040    6.0874
   32.070    6.1822
   32.100    5.9610
   32.130    6.4666
   32.160    5.9294
   32.190    6.3928
   32.220    6.2243
   32.250    5.8347
   32.280    6.5719
   32.310    6.4139
   32.340    6.1927
   32.370    6.3612
   32.400    6.0032
   32.430    5.8557
   32.460    6.4560
   32.490    6.0874
   32.520    6.1085
   32.550    6.4034
   32.580    6.2981
   32.610    6.1506
   32.640    6.1927
   32.670    6.3612
   32.700    6.1506
   32.730    6.3402
   32.760    6.1190
   32.790    6.2349
   32.820    5.9716
   32.850    6.4982
   32.880    6.0874
   32.910    5.8241
   32.940    6.7615
   32.970    6.1611
   33.000    6.2454
   33.030    6.0769
   33.060    6.0453
   33.090    6.0874
   33.120    5.9821
   33.150    5.9716
   33.180    5.8136
   33.210    5.8978
   33.240    6.2349
   33.270    6.3086
   33.300    5.8241
   33.330    6.1611
   33.360    5.9821
   33.390    6.3402
   33.420    6.0979
   33.450    5.8452
   33.480    5.8768
   33.510    5.7188
   33.540    5.7083
   33.570    6.1717
   33.600    6.1717
   33.630    6.1506
   33.660    5.8347
   33.690    6.2138
   33.720    5.7293
   33.750    5.8873
   33.780    5.8978
   33.810    6.0032
   33.840    5.7083
   33.870    5.6345
   33.900    5.8557
   33.930    5.7188
   33.960    5.6661
   33.990    5.4028
   34.020    5.7399
   34.050    5.8978
   34.080    5.6556
   34.110    5.6556
   34.140    6.1611
   34.170    5.6661
   34.200    6.2243
   34.230    5.7399
   34.260    6.2033
   34.290    6.3718
   34.320    5.8347
   34.350    5.8136
   34.380    5.7820
   34.410    5.7399
   34.440    5.5292
   34.470    5.7188
   34.500    6.0874
   34.530    5.7083
   34.560    5.4871
   34.590    5.7083
   34.620    6.0558
   34.650    5.9189
   34.680    5.5187
   34.710    5.7399
   34.740    5.9294
   34.770    5.7293
   34.800    5.8347
   34.830    5.4134
   34.860    5.8768
   34.890    5.7820
   34.920    5.7083
   34.950    5.6872
   34.980    5.8136
   35.010    5.7504
   35.040    5.9610
   35.070    6.0348
   35.100    5.7188
   35.130    5.8136
   35.160    5.9189
   35.190    5.8873
   35.220    5.9821
   35.250    5.7293
   35.280    5.6240
   35.310    5.8347
   35.340    6.1401
   35.370    5.5503
   35.400    5.7504
   35.430    5.2659
   35.460    5.7188
   35.490    6.1190
   35.520    5.8452
   35.550    5.4450
   35.580    5.9505
   35.610    5.6661
   35.640    5.6977
   35.670    5.9294
   35.700    5.5082
   35.730    5.5819
   35.760    5.6872
   35.790    5.7609
   35.820    5.7293
   35.850    5.6661
   35.880    5.9294
   35.910    5.5398
   35.940    5.7293
   35.970    5.7820
   36.000    5.3818
   36.030    5.4766
   36.060    5.7293
   36.090    5.8031
   36.120    6.0874
   36.150    5.4871
   36.180    5.5924
   36.210    5.4766
   36.240    5.9610
   36.270    5.6451
   36.300    6.1190
   36.330    5.5608
   36.360    5.7925
   36.390    5.8347
   36.420    5.8557
   36.450    5.3712
   36.480    5.3818
   36.510    5.6345
   36.540    5.8662
   36.570    5.6240
   36.600    5.4134
   36.630    5.7399
   36.660    6.0032
   36.690    5.8978
   36.720    6.1085
   36.750    5.8347
   36.780    5.5714
   36.810    5.5187
   36.840    6.0348
   36.870    5.5714
   36.900    5.5714
   36.930    5.5398
   36.960    5.5503
   36.990    5.3712
   37.020    5.7925
   37.050    5.4871
   37.080    5.7188
   37.110    5.9716
   37.140    5.6767
   37.170    5.6556
   37.200    5.4239
   37.230    5.5819
   37.260    5.2870
   37.290    6.1611
   37.320    5.5082
   37.350    5.2659
   37.380    5.3818
   37.410    5.7820
   37.440    5.7399
   37.470    5.9610
   37.500    5.3186
   37.530    5.4660
   37.560    5.7504
   37.590    5.5187
   37.620    5.6240
   37.650    5.4239
   37.680    5.1606
   37.710    5.4976
   37.740    5.4344
   37.770    5.3502
   37.800    5.8347
   37.830    5.7188
   37.860    5.5924
   37.890    5.8873
   37.920    5.5292
   37.950    5.2027
   37.980    5.6029
   38.010    5.7399
   38.040    5.2133
   38.070    5.7715
   38.100    5.3712
   38.130    5.1711
   38.160    5.4134
   38.190    5.5398
   38.220    5.2975
   38.250    5.6451
   38.280    5.5082
   38.310    5.4555
   38.340    5.7293
   38.370    5.4555
   38.400    5.7504
   38.430    5.1711
   38.460    5.5924
   38.490    5.6872
   38.520    5.4239
   38.550    5.7504
   38.580    5.5819
   38.610    5.3291
   38.640    5.4450
   38.670    5.6872
   38.700    5.9189
   38.730    5.5292
   38.760    5.4555
   38.790    5.4555
   38.820    5.6135
   38.850    4.9500
   38.880    5.4134
   38.910    5.2343
   38.940    5.4239
   38.970    5.4766
   39.000    5.6977
   39.030    5.7715
   39.060    5.3712
   39.090    5.4239
   39.120    5.3291
   39.150    5.4660
   39.180    5.3923
   39.210    5.0342
   39.240    5.5292
   39.270    5.6345
   39.300    5.4660
   39.330    5.8347
   39.360    5.3397
   39.390    5.4871
   39.420    5.2554
   39.450    5.8557
   39.480    5.5714
   39.510    5.6977
   39.540    5.4976
   39.570    5.2133
   39.600    5.6872
   39.630    5.7609
   39.660    5.7820
   39.690    5.6556
   39.720    5.6240
   39.750    5.6661
   39.780    5.5292
   39.810    5.1922
   39.840    5.7399
   39.870    5.6872
   39.900    5.4660
   39.930    5.5503
   39.960    5.1395
   39.990    5.5819