File: data/MOCOF-1/PXRD/PXRD_KE-055_Cu-Ka1_film-3mm_5s-deg.xyd
    1.500   11.1006
    1.530   10.9110
    1.560   11.2902
    1.590   10.9953
    1.620   10.3633
    1.650   10.1316
    1.680   10.3528
    1.710    9.6051
    1.740    9.7946
    1.770   10.1527
    1.800    9.2891
    1.830    9.3523
    1.860    8.7836
    1.890    9.2048
    1.920    8.7098
    1.950    8.8994
    1.980    8.1622
    2.010    8.4676
    2.040    8.0253
    2.070    8.2149
    2.100    8.7309
    2.130    7.8041
    2.160    7.6883
    2.190    8.0674
    2.220    7.2459
    2.250    7.4882
    2.280    7.8357
    2.310    7.2249
    2.340    7.7304
    2.370    7.1090
    2.400    7.3512
    2.430    7.3407
    2.460    7.0985
    2.490    7.3302
    2.520    7.0458
    2.550    7.1195
    2.580    7.0985
    2.610    6.8246
    2.640    6.8246
    2.670    6.7509
    2.700    6.8141
    2.730    6.8668
    2.760    6.4771
    2.790    6.7930
    2.820    6.7404
    2.850    6.6140
    2.880    6.6877
    2.910    6.6035
    2.940    6.5929
    2.970    6.3296
    3.000    6.9405
    3.030    7.1301
    3.060    6.6667
    3.090    7.0248
    3.120    6.7720
    3.150    6.5929
    3.180    7.2459
    3.210    7.5303
    3.240    7.5935
    3.270    7.4039
    3.300    7.7199
    3.330    8.3834
    3.360    8.2149
    3.390    8.6572
    3.420    8.7836
    3.450   10.0685
    3.480    9.7104
    3.510   10.2475
    3.540   11.1006
    3.570   10.7530
    3.600   10.6161
    3.630   10.8268
    3.660   10.2475
    3.690   10.3107
    3.720    9.9631
    3.750    9.4365
    3.780    9.0258
    3.810    9.4681
    3.840    9.1732
    3.870    8.2675
    3.900    8.2991
    3.930    7.8884
    3.960    8.1411
    3.990    7.7409
    4.020    8.0253
    4.050    7.7409
    4.080    7.5513
    4.110    7.2038
    4.140    7.5935
    4.170    7.3828
    4.200    6.9300
    4.230    7.2775
    4.260    7.2249
    4.290    6.8773
    4.320    7.1301
    4.350    7.1301
    4.380    6.9089
    4.410    7.0774
    4.440    7.0037
    4.470    6.7825
    4.500    6.7404
    4.530    6.9300
    4.560    6.7615
    4.590    6.9932
    4.620    6.6772
    4.650    7.3302
    4.680    6.9194
    4.710    7.0669
    4.740    7.1301
    4.770    7.0985
    4.800    6.9616
    4.830    7.0458
    4.860    6.8984
    4.890    6.5403
    4.920    6.3718
    4.950    7.1301
    4.980    6.9932
    5.010    7.4144
    5.040    7.1301
    5.070    7.4987
    5.100    7.4566
    5.130    7.5513
    5.160    7.4987
    5.190    7.7620
    5.220    8.0042
    5.250    8.1201
    5.280    8.5835
    5.310    8.0779
    5.340    8.1833
    5.370    8.0569
    5.400    8.2780
    5.430    8.2780
    5.460    8.8257
    5.490    8.7414
    5.520    8.8784
    5.550    8.6783
    5.580    8.7414
    5.610    9.0258
    5.640    8.6888
    5.670    8.8573
    5.700    8.8046
    5.730    8.4255
    5.760    8.4150
    5.790    7.9094
    5.820    7.7620
    5.850    7.7725
    5.880    7.7830
    5.910    7.6672
    5.940    7.3302
    5.970    7.2565
    6.000    6.7509
    6.030    7.0353
    6.060    6.8878
    6.090    6.6772
    6.120    6.6983
    6.150    6.3507
    6.180    6.2981
    6.210    6.3402
    6.240    6.5508
    6.270    6.3402
    6.300    6.1611
    6.330    6.3928
    6.360    5.7083
    6.390    5.9821
    6.420    6.0137
    6.450    5.9505
    6.480    6.0032
    6.510    5.7399
    6.540    6.0137
    6.570    6.0137
    6.600    5.5608
    6.630    6.0874
    6.660    5.5398
    6.690    5.8557
    6.720    5.4450
    6.750    5.5187
    6.780    5.3502
    6.810    5.4766
    6.840    5.8452
    6.870    5.6345
    6.900    5.2027
    6.930    5.2343
    6.960    5.0448
    6.990    4.9921
    7.020    5.6240
    7.050    5.2870
    7.080    5.6556
    7.110    5.5503
    7.140    5.8347
    7.170    5.6451
    7.200    5.1817
    7.230    5.7504
    7.260    5.4134
    7.290    5.1501
    7.320    5.0974
    7.350    5.1395
    7.380    5.4555
    7.410    4.9078
    7.440    5.1080
    7.470    4.8447
    7.500    4.7077
    7.530    4.6340
    7.560    4.5392
    7.590    4.4339
    7.620    4.2338
    7.650    4.4550
    7.680    4.5182
    7.710    4.7709
    7.740    4.5814
    7.770    4.5603
    7.800    4.6656
    7.830    4.3602
    7.860    4.2127
    7.890    4.2127
    7.920    4.3391
    7.950    4.2127
    7.980    4.0758
    8.010    4.0758
    8.040    3.7599
    8.070    4.4655
    8.100    4.1285
    8.130    3.8020
    8.160    4.1917
    8.190    4.0758
    8.220    4.1601
    8.250    4.2127
    8.280    3.6124
    8.310    3.9284
    8.340    3.8968
    8.370    3.6862
    8.400    3.8336
    8.430    3.5071
    8.460    3.6440
    8.490    3.6124
    8.520    4.0864
    8.550    3.7704
    8.580    3.6440
    8.610    3.5914
    8.640    3.5176
    8.670    3.7388
    8.700    3.6756
    8.730    3.5703
    8.760    3.3597
    8.790    3.4439
    8.820    3.5492
    8.850    3.4229
    8.880    3.5703
    8.910    3.8231
    8.940    3.6230
    8.970    3.6651
    9.000    3.4018
    9.030    3.6862
    9.060    3.4439
    9.090    3.6230
    9.120    3.6335
    9.150    3.5176
    9.180    3.4229
    9.210    3.2649
    9.240    3.7599
    9.270    3.4650
    9.300    3.6440
    9.330    3.6651
    9.360    3.4229
    9.390    3.5703
    9.420    3.6546
    9.450    3.3491
    9.480    3.3807
    9.510    3.5176
    9.540    3.6019
    9.570    3.5282
    9.600    3.5598
    9.630    3.0964
    9.660    3.2543
    9.690    3.3597
    9.720    3.5492
    9.750    3.4966
    9.780    3.4860
    9.810    3.3807
    9.840    3.5598
    9.870    3.2122
    9.900    3.2227
    9.930    3.4439
    9.960    3.4650
    9.990    3.6546
   10.020    3.6124
   10.050    3.6335
   10.080    3.7599
   10.110    3.2227
   10.140    3.4018
   10.170    3.5703
   10.200    3.2649
   10.230    3.7177
   10.260    3.3807
   10.290    3.7493
   10.320    3.4018
   10.350    3.6756
   10.380    3.6019
   10.410    3.4439
   10.440    3.5703
   10.470    3.4123
   10.500    3.6230
   10.530    3.0753
   10.560    3.3386
   10.590    3.7704
   10.620    3.4860
   10.650    3.8441
   10.680    3.5914
   10.710    3.8231
   10.740    3.6651
   10.770    3.7493
   10.800    3.7388
   10.830    3.5071
   10.860    3.8231
   10.890    3.6546
   10.920    3.5492
   10.950    3.8547
   10.980    3.7388
   11.010    3.7809
   11.040    3.9284
   11.070    3.3491
   11.100    3.8231
   11.130    3.6862
   11.160    3.8020
   11.190    3.6440
   11.220    3.7177
   11.250    3.8441
   11.280    3.8652
   11.310    3.5492
   11.340    3.6651
   11.370    3.9705
   11.400    3.4966
   11.430    3.4439
   11.460    3.7493
   11.490    3.6230
   11.520    3.7388
   11.550    3.7915
   11.580    3.7493
   11.610    3.6651
   11.640    3.7283
   11.670    3.8125
   11.700    3.6335
   11.730    3.6124
   11.760    3.5914
   11.790    3.5598
   11.820    3.3070
   11.850    3.7177
   11.880    3.7493
   11.910    3.8441
   11.940    3.5071
   11.970    3.6124
   12.000    3.7388
   12.030    3.7809
   12.060    3.5387
   12.090    3.8441
   12.120    3.7493
   12.150    3.4334
   12.180    3.6019
   12.210    3.3070
   12.240    3.5492
   12.270    3.3070
   12.300    3.4123
   12.330    3.8652
   12.360    3.6019
   12.390    3.4650
   12.420    3.5703
   12.450    3.6651
   12.480    3.5282
   12.510    3.7704
   12.540    3.6019
   12.570    3.2649
   12.600    3.2438
   12.630    3.8652
   12.660    3.3491
   12.690    3.1596
   12.720    3.6230
   12.750    3.4334
   12.780    3.3175
   12.810    3.4966
   12.840    3.1069
   12.870    3.5703
   12.900    3.2438
   12.930    3.5808
   12.960    3.4018
   12.990    3.4018
   13.020    3.6124
   13.050    3.1912
   13.080    3.4650
   13.110    3.4229
   13.140    3.4966
   13.170    3.2859
   13.200    3.1806
   13.230    3.8336
   13.260    3.6440
   13.290    3.4860
   13.320    3.2649
   13.350    3.3281
   13.380    3.4650
   13.410    3.1701
   13.440    3.4860
   13.470    3.5703
   13.500    3.2438
   13.530    3.7177
   13.560    3.5071
   13.590    3.8020
   13.620    3.0542
   13.650    3.6967
   13.680    3.6756
   13.710    3.5808
   13.740    3.4544
   13.770    3.6335
   13.800    3.5282
   13.830    3.4860
   13.860    3.4229
   13.890    3.2649
   13.920    3.8652
   13.950    3.4439
   13.980    3.4334
   14.010    3.8757
   14.040    3.8441
   14.070    3.6756
   14.100    3.8863
   14.130    3.7388
   14.160    3.6440
   14.190    3.5808
   14.220    3.9494
   14.250    3.8863
   14.280    3.8231
   14.310    3.8757
   14.340    4.1074
   14.370    4.2338
   14.400    4.2338
   14.430    3.9179
   14.460    3.9916
   14.490    3.8863
   14.520    3.9389
   14.550    3.8863
   14.580    3.8441
   14.610    3.8652
   14.640    3.8968
   14.670    3.7072
   14.700    3.9284
   14.730    3.6756
   14.760    3.8968
   14.790    3.9600
   14.820    3.5808
   14.850    3.7493
   14.880    3.5808
   14.910    3.4123
   14.940    3.3175
   14.970    3.6756
   15.000    3.6019
   15.030    3.5492
   15.060    3.6230
   15.090    3.5282
   15.120    3.3175
   15.150    3.4544
   15.180    3.2017
   15.210    3.6440
   15.240    3.3597
   15.270    3.2649
   15.300    3.2227
   15.330    3.4123
   15.360    3.3175
   15.390    3.2333
   15.420    3.4860
   15.450    3.5808
   15.480    3.2438
   15.510    3.1912
   15.540    3.5071
   15.570    3.2017
   15.600    3.4966
   15.630    3.7915
   15.660    3.3702
   15.690    3.0648
   15.720    3.3807
   15.750    3.5703
   15.780    3.5492
   15.810    3.3913
   15.840    3.5598
   15.870    3.5176
   15.900    3.4439
   15.930    3.3702
   15.960    3.4229
   15.990    3.2859
   16.020    3.4123
   16.050    3.2649
   16.080    3.4650
   16.110    3.4123
   16.140    3.3597
   16.170    3.5598
   16.200    3.5071
   16.230    3.4229
   16.260    3.5914
   16.290    3.4229
   16.320    3.7072
   16.350    3.5703
   16.380    3.4860
   16.410    3.5071
   16.440    3.4755
   16.470    3.4018
   16.500    3.4439
   16.530    3.5703
   16.560    3.5071
   16.590    3.5282
   16.620    3.4334
   16.650    3.4334
   16.680    3.4966
   16.710    3.2438
   16.740    3.2965
   16.770    3.4229
   16.800    3.6440
   16.830    3.5808
   16.860    3.7388
   16.890    3.4544
   16.920    3.2754
   16.950    3.3807
   16.980    3.5176
   17.010    3.2122
   17.040    3.3807
   17.070    3.3175
   17.100    3.2543
   17.130    3.4439
   17.160    3.1806
   17.190    3.6440
   17.220    3.5492
   17.250    3.4755
   17.280    3.2965
   17.310    3.2965
   17.340    3.4018
   17.370    3.5703
   17.400    3.4544
   17.430    3.2859
   17.460    3.5387
   17.490    3.6019
   17.520    3.3175
   17.550    3.4123
   17.580    3.4966
   17.610    3.1912
   17.640    3.3702
   17.670    3.5282
   17.700    3.4650
   17.730    3.1912
   17.760    3.4018
   17.790    3.2438
   17.820    3.3597
   17.850    3.5914
   17.880    3.6862
   17.910    3.5071
   17.940    3.6019
   17.970    3.2965
   18.000    3.4860
   18.030    3.5914
   18.060    3.4650
   18.090    3.4544
   18.120    3.4229
   18.150    3.4018
   18.180    3.4966
   18.210    3.5176
   18.240    3.4123
   18.270    3.3491
   18.300    3.5071
   18.330    3.4755
   18.360    3.6967
   18.390    3.2649
   18.420    3.4123
   18.450    3.5282
   18.480    3.5176
   18.510    3.5808
   18.540    3.2649
   18.570    3.8125
   18.600    3.4018
   18.630    3.4544
   18.660    3.8863
   18.690    3.9600
   18.720    3.6019
   18.750    3.4755
   18.780    3.6651
   18.810    3.3597
   18.840    3.2017
   18.870    3.4123
   18.900    3.4123
   18.930    3.5282
   18.960    3.2859
   18.990    3.5176
   19.020    3.5598
   19.050    3.7599
   19.080    3.7072
   19.110    3.4439
   19.140    3.1280
   19.170    3.3491
   19.200    3.3175
   19.230    3.3175
   19.260    3.2754
   19.290    3.3175
   19.320    3.2333
   19.350    3.2122
   19.380    3.2017
   19.410    3.4229
   19.440    3.3070
   19.470    3.2649
   19.500    3.3491
   19.530    3.4018
   19.560    3.2017
   19.590    3.0226
   19.620    3.4544
   19.650    3.5808
   19.680    3.1069
   19.710    3.0964
   19.740    3.2122
   19.770    3.3281
   19.800    3.1490
   19.830    3.4755
   19.860    3.1806
   19.890    3.2649
   19.920    3.1174
   19.950    3.0437
   19.980    3.2543
   20.010    3.0753
   20.040    3.4229
   20.070    3.5071
   20.100    3.2859
   20.130    3.1174
   20.160    3.2017
   20.190    3.4439
   20.220    3.2649
   20.250    3.2122
   20.280    3.4755
   20.310    3.0332
   20.340    3.0121
   20.370    3.3702
   20.400    3.6862
   20.430    3.3386
   20.460    3.0648
   20.490    3.2017
   20.520    3.1174
   20.550    3.2965
   20.580    3.2754
   20.610    3.1385
   20.640    3.0437
   20.670    3.3386
   20.700    2.9700
   20.730    3.2438
   20.760    2.9805
   20.790    2.9910
   20.820    2.9384
   20.850    2.9384
   20.880    3.1385
   20.910    2.9279
   20.940    3.0542
   20.970    3.0648
   21.000    2.9068
   21.030    3.0332
   21.060    3.0753
   21.090    3.0016
   21.120    3.2965
   21.150    2.9489
   21.180    3.1385
   21.210    3.0016
   21.240    3.1280
   21.270    2.9068
   21.300    3.1385
   21.330    2.9805
   21.360    2.8120
   21.390    2.8225
   21.420    3.0964
   21.450    3.0016
   21.480    2.9910
   21.510    2.8963
   21.540    3.0542
   21.570    3.1701
   21.600    3.2438
   21.630    3.1069
   21.660    3.0437
   21.690    3.0964
   21.720    3.0542
   21.750    3.1806
   21.780    2.7488
   21.810    2.9700
   21.840    2.7909
   21.870    2.7699
   21.900    2.9805
   21.930    2.7909
   21.960    2.8120
   21.990    2.9068
   22.020    2.8436
   22.050    2.9805
   22.080    2.7278
   22.110    2.9700
   22.140    2.9489
   22.170    2.8015
   22.200    2.9489
   22.230    3.0332
   22.260    2.9173
   22.290    2.9279
   22.320    2.8752
   22.350    3.0437
   22.380    3.0437
   22.410    2.7909
   22.440    2.8225
   22.470    2.6119
   22.500    2.6962
   22.530    2.8120
   22.560    2.6119
   22.590    2.8963
   22.620    2.4855
   22.650    2.8647
   22.680    2.5276
   22.710    2.6540
   22.740    2.5698
   22.770    2.7383
   22.800    2.7593
   22.830    2.3486
   22.860    2.6224
   22.890    2.9068
   22.920    2.8647
   22.950    2.7699
   22.980    2.9068
   23.010    2.8120
   23.040    2.6856
   23.070    2.6540
   23.100    2.8963
   23.130    2.8015
   23.160    2.8225
   23.190    2.8752
   23.220    2.7067
   23.250    2.6962
   23.280    2.6224
   23.310    2.6330
   23.340    2.6646
   23.370    2.7172
   23.400    2.7172
   23.430    2.7909
   23.460    2.4750
   23.490    2.4329
   23.520    2.6856
   23.550    2.7593
   23.580    2.3697
   23.610    2.6330
   23.640    2.5382
   23.670    2.7488
   23.700    2.6014
   23.730    2.5487
   23.760    2.6435
   23.790    2.6224
   23.820    2.5276
   23.850    2.6751
   23.880    2.3907
   23.910    2.5276
   23.940    2.4750
   23.970    2.7699
   24.000    2.1169
   24.030    2.6330
   24.060    2.4013
   24.090    2.5382
   24.120    2.5171
   24.150    2.5698
   24.180    2.6540
   24.210    2.3381
   24.240    2.7593
   24.270    2.6646
   24.300    2.5382
   24.330    2.2222
   24.360    2.4013
   24.390    2.4855
   24.420    2.3907
   24.450    2.4118
   24.480    2.2117
   24.510    2.5803
   24.540    2.4434
   24.570    2.3170
   24.600    2.4539
   24.630    2.2433
   24.660    2.8541
   24.690    2.3381
   24.720    2.3697
   24.750    2.3697
   24.780    2.4013
   24.810    2.3907
   24.840    2.3275
   24.870    2.3697
   24.900    2.4855
   24.930    2.3591
   24.960    2.4329
   24.990    2.3802
   25.020    2.5171
   25.050    2.4539
   25.080    2.0958
   25.110    2.1906
   25.140    2.3170
   25.170    2.3381
   25.200    2.6330
   25.230    2.2433
   25.260    2.5066
   25.290    2.3802
   25.320    2.2749
   25.350    2.5592
   25.380    2.3170
   25.410    2.3065
   25.440    2.3591
   25.470    2.5382
   25.500    2.2538
   25.530    2.4223
   25.560    2.2433
   25.590    2.5803
   25.620    2.1590
   25.650    2.3170
   25.680    2.4013
   25.710    2.0853
   25.740    2.2643
   25.770    2.1485
   25.800    2.4118
   25.830    2.3065
   25.860    2.2222
   25.890    2.3907
   25.920    2.2433
   25.950    2.3591
   25.980    2.2643
   26.010    2.3486
   26.040    2.0011
   26.070    2.1064
   26.100    2.2749
   26.130    2.1906
   26.160    2.1064
   26.190    2.3381
   26.220    2.3486
   26.250    2.2222
   26.280    2.2222
   26.310    2.3486
   26.340    2.4855
   26.370    2.1906
   26.400    1.9905
   26.430    2.2538
   26.460    2.0853
   26.490    2.0326
   26.520    2.2328
   26.550    2.1064
   26.580    2.4223
   26.610    2.1485
   26.640    2.2012
   26.670    2.1485
   26.700    2.1801
   26.730    2.1380
   26.760    2.1696
   26.790    2.2222
   26.820    2.3591
   26.850    2.1380
   26.880    2.0748
   26.910    2.1485
   26.940    2.0221
   26.970    2.0537
   27.000    2.2222
   27.030    2.1906
   27.060    2.1380
   27.090    2.0853
   27.120    2.0221
   27.150    2.0326
   27.180    1.9063
   27.210    1.9905
   27.240    1.8957
   27.270    1.9800
   27.300    2.0958
   27.330    1.9379
   27.360    2.0958
   27.390    1.9589
   27.420    1.9695
   27.450    2.1590
   27.480    2.1696
   27.510    1.9800
   27.540    2.0642
   27.570    1.8852
   27.600    2.0116
   27.630    1.9379
   27.660    2.1064
   27.690    1.9168
   27.720    1.9484
   27.750    1.8852
   27.780    1.9379
   27.810    1.8325
   27.840    1.8325
   27.870    1.9379
   27.900    1.9589
   27.930    1.9905
   27.960    1.8115
   27.990    1.8852
   28.020    1.7167
   28.050    2.0748
   28.080    2.0642
   28.110    1.8431
   28.140    1.8852
   28.170    1.9273
   28.200    1.7272
   28.230    1.7799
   28.260    1.8325
   28.290    1.9273
   28.320    1.7167
   28.350    1.8641
   28.380    1.9379
   28.410    2.1274
   28.440    1.6324
   28.470    2.0748
   28.500    2.2012
   28.530    1.8431
   28.560    1.6640
   28.590    1.9484
   28.620    1.8009
   28.650    1.7904
   28.680    2.0642
   28.710    1.8747
   28.740    1.9589
   28.770    1.8641
   28.800    1.8115
   28.830    1.9589
   28.860    2.0537
   28.890    1.8641
   28.920    1.9484
   28.950    2.0537
   28.980    2.0326
   29.010    2.0958
   29.040    2.2749
   29.070    1.8220
   29.100    1.7378
   29.130    2.0011
   29.160    1.9589
   29.190    1.7799
   29.220    1.5798
   29.250    2.0221
   29.280    1.8641
   29.310    1.8220
   29.340    1.7167
   29.370    1.5166
   29.400    1.7904
   29.430    1.9168
   29.460    1.6008
   29.490    1.8220
   29.520    1.7694
   29.550    1.8957
   29.580    1.6430
   29.610    1.4534
   29.640    1.4955
   29.670    1.6219
   29.700    1.7694
   29.730    1.4534
   29.760    1.8536
   29.790    1.6324
   29.820    1.5692
   29.850    1.4218
   29.880    1.6851
   29.910    1.5377
   29.940    1.4745
   29.970    1.6219
   30.000    1.5061
   30.030    1.7799
   30.060    1.6008
   30.090    1.5903
   30.120    1.4323
   30.150    1.4850
   30.180    1.5587
   30.210    1.4534
   30.240    1.5798
   30.270    1.4850
   30.300    1.3691
   30.330    1.6219
   30.360    1.5061
   30.390    1.4955
   30.420    1.4850
   30.450    1.5798
   30.480    1.3165
   30.510    1.6535
   30.540    1.5271
   30.570    1.5377
   30.600    1.6008
   30.630    1.6640
   30.660    1.5482
   30.690    1.6956
   30.720    1.3586
   30.750    1.5166
   30.780    1.3797
   30.810    1.4745
   30.840    1.3481
   30.870    1.2954
   30.900    1.4955
   30.930    1.4850
   30.960    1.4113
   30.990    1.5061
   31.020    1.3481
   31.050    1.5903
   31.080    1.3586
   31.110    1.2849
   31.140    1.4850
   31.170    1.6219
   31.200    1.6114
   31.230    1.6008
   31.260    1.4323
   31.290    1.5271
   31.320    1.4007
   31.350    1.4007
   31.380    1.3691
   31.410    1.3270
   31.440    1.4534
   31.470    1.3902
   31.500    1.3691
   31.530    1.2428
   31.560    1.3797
   31.590    1.3691
   31.620    1.2954
   31.650    1.3797
   31.680    1.3270
   31.710    1.3165
   31.740    1.3060
   31.770    1.3586
   31.800    1.4429
   31.830    1.4113
   31.860    1.4113
   31.890    1.4745
   31.920    1.4323
   31.950    1.2533
   31.980    1.2849
   32.010    1.2954
   32.040    1.2217
   32.070    1.4850
   32.100    1.7378
   32.130    2.0221
   32.160    1.7272
   32.190    1.3481
   32.220    1.3481
   32.250    1.1585
   32.280    1.2428
   32.310    1.1480
   32.340    1.3691
   32.370    1.2217
   32.400    1.2533
   32.430    1.2954
   32.460    1.2428
   32.490    1.2006
   32.520    1.2638
   32.550    1.2849
   32.580    1.3060
   32.610    1.4007
   32.640    1.4323
   32.670    1.1058
   32.700    1.3797
   32.730    1.4007
   32.760    1.2849
   32.790    1.2322
   32.820    1.1690
   32.850    1.3165
   32.880    1.1796
   32.910    1.2638
   32.940    1.0953
   32.970    1.3270
   33.000    1.2533
   33.030    1.2954
   33.060    1.3165
   33.090    1.2322
   33.120    1.1901
   33.150    1.3586
   33.180    1.2006
   33.210    1.2112
   33.240    1.3165
   33.270    1.0953
   33.300    1.1585
   33.330    1.3481
   33.360    1.2533
   33.390    1.0953
   33.420    1.3375
   33.450    1.1058
   33.480    1.1796
   33.510    1.1374
   33.540    1.1901
   33.570    1.1901
   33.600    1.2849
   33.630    1.0953
   33.660    1.1690
   33.690    1.0848
   33.720    1.0848
   33.750    1.1690
   33.780    1.1690
   33.810    1.1480
   33.840    1.2638
   33.870    1.2217
   33.900    1.2428
   33.930    1.1585
   33.960    1.2849
   33.990    1.2533
   34.020    1.2638
   34.050    1.0321
   34.080    1.0953
   34.110    1.2322
   34.140    1.1796
   34.170    1.0321
   34.200    1.0637
   34.230    1.1164
   34.260    1.0321
   34.290    1.1058
   34.320    1.1269
   34.350    1.0005
   34.380    1.1058
   34.410    1.0005
   34.440    1.0637
   34.470    0.9795
   34.500    1.1269
   34.530    1.1058
   34.560    1.1374
   34.590    1.1269
   34.620    1.1269
   34.650    1.0427
   34.680    1.1058
   34.710    1.1480
   34.740    1.1690
   34.770    1.2428
   34.800    0.9689
   34.830    1.1585
   34.860    1.1058
   34.890    1.0111
   34.920    1.1269
   34.950    1.2217
   34.980    1.1164
   35.010    1.1480
   35.040    1.2533
   35.070    1.2744
   35.100    1.1690
   35.130    1.1690
   35.160    1.1374
   35.190    1.1164
   35.220    1.0005
   35.250    1.1374
   35.280    1.1269
   35.310    1.0637
   35.340    1.0637
   35.370    1.0427
   35.400    1.1164
   35.430    1.0427
   35.460    1.1269
   35.490    1.1374
   35.520    1.0637
   35.550    1.0532
   35.580    1.0532
   35.610    1.1585
   35.640    1.0637
   35.670    1.2217
   35.700    1.0848
   35.730    1.1901
   35.760    1.0427
   35.790    0.9584
   35.820    1.1269
   35.850    1.1901
   35.880    1.2322
   35.910    1.1269
   35.940    0.9584
   35.970    1.3060
   36.000    1.1269
   36.030    1.1164
   36.060    1.2849
   36.090    1.1269
   36.120    1.0848
   36.150    1.0321
   36.180    1.1269
   36.210    1.0532
   36.240    1.0427
   36.270    1.0532
   36.300    0.9795
   36.330    1.0005
   36.360    1.0637
   36.390    1.1058
   36.420    1.3060
   36.450    1.2006
   36.480    1.3060
   36.510    1.2322
   36.540    1.0111
   36.570    1.1164
   36.600    1.2744
   36.630    1.0637
   36.660    1.0532
   36.690    1.1901
   36.720    0.9689
   36.750    1.1164
   36.780    1.1164
   36.810    1.0637
   36.840    0.9795
   36.870    0.9689
   36.900    1.1058
   36.930    0.9689
   36.960    1.0005
   36.990    1.1058
   37.020    0.9900
   37.050    0.9479
   37.080    1.0848
   37.110    1.0848
   37.140    0.9795
   37.170    1.0216
   37.200    1.2006
   37.230    1.0953
   37.260    0.9900
   37.290    1.0637
   37.320    0.8531
   37.350    1.0427
   37.380    1.0111
   37.410    1.0953
   37.440    1.0216
   37.470    0.9689
   37.500    1.0216
   37.530    1.0427
   37.560    1.0005
   37.590    1.0848
   37.620    1.1058
   37.650    0.9584
   37.680    0.8425
   37.710    0.9373
   37.740    0.9584
   37.770    1.0637
   37.800    0.9584
   37.830    1.1058
   37.860    1.0216
   37.890    1.0427
   37.920    1.0848
   37.950    1.1164
   37.980    0.9584
   38.010    0.9900
   38.040    1.1269
   38.070    0.9479
   38.100    1.0111
   38.130    1.0427
   38.160    0.9163
   38.190    1.0216
   38.220    0.8425
   38.250    0.9584
   38.280    1.0427
   38.310    1.0111
   38.340    1.1269
   38.370    1.0111
   38.400    1.0321
   38.430    1.0532
   38.460    1.0111
   38.490    1.0532
   38.520    1.0005
   38.550    1.0005
   38.580    1.0005
   38.610    1.2428
   38.640    1.1269
   38.670    1.1269
   38.700    0.9900
   38.730    1.0321
   38.760    0.9479
   38.790    1.0111
   38.820    0.7478
   38.850    1.0111
   38.880    1.0321
   38.910    0.9689
   38.940    1.0742
   38.970    1.0005
   39.000    0.9163
   39.030    1.1585
   39.060    1.0111
   39.090    1.0111
   39.120    0.9584
   39.150    1.0005
   39.180    0.8847
   39.210    0.9163
   39.240    0.9373
   39.270    0.9479
   39.300    1.0005
   39.330    1.0427
   39.360    0.9163
   39.390    1.1164
   39.420    0.9584
   39.450    0.8847
   39.480    1.0321
   39.510    0.7794
   39.540    1.0848
   39.570    0.8636
   39.600    1.0321
   39.630    1.0427
   39.660    1.0216
   39.690    0.8004
   39.720    0.8425
   39.750    0.9479
   39.780    1.0427
   39.810    1.0427
   39.840    1.0848
   39.870    0.8847
   39.900    1.0321
   39.930    0.9057
   39.960    0.8952
   39.990    0.8636