File: data/MOCOF-1/PXRD/PXRD_KE-004_Cu-Ka1_capillary-1mm_5s-deg.xyd
    1.500   23.0226
    1.530   22.5382
    1.560   22.8225
    1.590   21.3797
    1.620   22.7172
    1.650   21.7167
    1.680   20.9268
    1.710   21.1164
    1.740   19.7051
    1.770   20.0632
    1.800   19.1785
    1.830   18.8310
    1.860   19.0205
    1.890   18.5466
    1.920   18.5045
    1.950   18.1885
    1.980   18.0621
    2.010   17.9674
    2.040   16.8615
    2.070   17.1775
    2.100   17.1669
    2.130   16.2507
    2.160   17.0195
    2.190   16.0927
    2.220   16.0400
    2.250   16.2401
    2.280   16.3139
    2.310   15.8715
    2.340   15.7873
    2.370   15.5029
    2.400   16.0716
    2.430   15.4292
    2.460   15.7662
    2.490   15.3449
    2.520   14.5761
    2.550   14.9763
    2.580   14.9026
    2.610   14.6393
    2.640   15.2501
    2.670   14.7657
    2.700   14.0495
    2.730   14.2391
    2.760   14.3549
    2.790   13.7967
    2.820   14.2917
    2.850   14.3549
    2.880   14.3865
    2.910   14.4392
    2.940   14.4497
    2.970   14.5445
    3.000   14.9763
    3.030   14.7446
    3.060   15.0816
    3.090   15.3344
    3.120   15.5134
    3.150   16.2296
    3.180   15.8399
    3.210   16.7983
    3.240   17.9568
    3.270   17.0511
    3.300   17.2301
    3.330   17.9884
    3.360   18.7888
    3.390   19.1785
    3.420   20.4107
    3.450   21.3375
    3.480   22.0116
    3.510   22.4961
    3.540   23.1912
    3.570   23.7599
    3.600   24.9710
    3.630   24.3707
    3.660   23.4755
    3.690   22.8120
    3.720   21.6008
    3.750   20.5161
    3.780   20.2633
    3.810   18.9152
    3.840   17.9989
    3.870   17.2933
    3.900   16.8404
    3.930   16.2296
    3.960   15.6503
    3.990   14.8605
    4.020   14.5761
    4.050   13.7546
    4.080   13.5650
    4.110   12.3749
    4.140   11.9958
    4.170   12.0695
    4.200   11.7114
    4.230   12.2275
    4.260   11.4481
    4.290   10.9110
    4.320   10.8899
    4.350   10.2370
    4.380   11.0269
    4.410   10.1422
    4.440   10.0369
    4.470   10.0053
    4.500   10.0474
    4.530   10.0158
    4.560    9.7525
    4.590    9.0469
    4.620    9.8789
    4.650    9.3207
    4.680    9.1311
    4.710    9.1206
    4.740    9.3102
    4.770    8.7204
    4.800    8.8257
    4.830    8.5519
    4.860    9.1101
    4.890    9.1206
    4.920    9.0469
    4.950    8.9626
    4.980    8.8362
    5.010    8.1833
    5.040    8.8889
    5.070    8.2043
    5.100    7.8884
    5.130    8.6888
    5.160    8.2464
    5.190    8.1411
    5.220    8.1201
    5.250    7.9094
    5.280    7.8884
    5.310    7.8884
    5.340    7.8778
    5.370    7.8884
    5.400    7.7304
    5.430    7.6777
    5.460    6.9932
    5.490    7.6145
    5.520    7.7514
    5.550    7.4039
    5.580    7.5935
    5.610    7.2880
    5.640    7.3407
    5.670    7.3091
    5.700    7.0774
    5.730    7.0879
    5.760    7.4144
    5.790    7.0563
    5.820    7.2565
    5.850    7.0458
    5.880    6.9616
    5.910    6.8141
    5.940    6.8773
    5.970    7.2249
    6.000    7.3407
    6.030    7.1301
    6.060    6.7404
    6.090    7.3618
    6.120    6.8878
    6.150    7.2880
    6.180    7.3091
    6.210    7.0142
    6.240    7.1617
    6.270    7.2249
    6.300    6.7299
    6.330    7.5619
    6.360    7.2038
    6.390    7.1722
    6.420    6.5719
    6.450    6.6035
    6.480    6.7615
    6.510    5.9821
    6.540    6.3823
    6.570    6.5508
    6.600    6.1190
    6.630    6.1611
    6.660    6.5087
    6.690    6.7404
    6.720    6.5087
    6.750    6.2981
    6.780    6.5192
    6.810    6.0558
    6.840    6.3612
    6.870    6.2665
    6.900    6.6667
    6.930    6.0453
    6.960    6.6983
    6.990    7.0353
    7.020    7.1090
    7.050    6.9826
    7.080    6.9194
    7.110    7.1827
    7.140    7.2670
    7.170    6.8352
    7.200    6.9300
    7.230    6.8457
    7.260    7.1827
    7.290    7.2775
    7.320    7.0248
    7.350    6.7404
    7.380    6.7088
    7.410    6.7404
    7.440    6.6351
    7.470    6.7825
    7.500    6.5613
    7.530    6.5192
    7.560    6.5508
    7.590    6.6667
    7.620    6.3823
    7.650    5.9821
    7.680    6.3612
    7.710    6.1717
    7.740    6.2770
    7.770    6.0769
    7.800    5.8768
    7.830    5.9400
    7.860    6.1190
    7.890    6.0558
    7.920    6.2349
    7.950    6.1401
    7.980    5.6029
    8.010    5.9400
    8.040    5.3397
    8.070    5.8452
    8.100    5.9610
    8.130    6.0769
    8.160    5.5187
    8.190    5.6767
    8.220    5.8136
    8.250    5.5714
    8.280    5.4871
    8.310    5.3712
    8.340    5.9505
    8.370    5.4028
    8.400    5.2765
    8.430    5.2133
    8.460    5.3291
    8.490    5.4028
    8.520    5.3502
    8.550    5.2133
    8.580    5.2554
    8.610    5.1817
    8.640    5.1711
    8.670    5.5398
    8.700    4.8341
    8.730    4.9921
    8.760    5.0026
    8.790    5.1817
    8.820    4.9500
    8.850    5.2343
    8.880    4.8447
    8.910    5.4134
    8.940    5.0764
    8.970    5.2765
    9.000    5.2449
    9.030    4.9605
    9.060    5.2343
    9.090    5.4134
    9.120    5.2659
    9.150    5.2238
    9.180    4.9921
    9.210    4.9710
    9.240    5.0553
    9.270    4.9078
    9.300    5.2870
    9.330    4.8236
    9.360    4.7709
    9.390    5.2343
    9.420    4.8131
    9.450    4.5814
    9.480    4.9710
    9.510    4.5076
    9.540    4.8552
    9.570    4.8763
    9.600    4.7499
    9.630    4.8657
    9.660    4.8657
    9.690    4.9394
    9.720    4.8131
    9.750    4.7393
    9.780    4.9078
    9.810    4.7815
    9.840    4.9500
    9.870    5.0658
    9.900    4.6235
    9.930    4.5708
    9.960    4.7604
    9.990    4.7288
   10.020    4.7604
   10.050    4.9289
   10.080    5.0658
   10.110    4.4655
   10.140    4.6235
   10.170    4.8236
   10.200    4.4550
   10.230    4.7604
   10.260    4.8657
   10.290    4.6551
   10.320    4.8025
   10.350    4.7920
   10.380    4.6551
   10.410    4.5498
   10.440    4.7709
   10.470    4.8131
   10.500    4.5603
   10.530    4.5182
   10.560    4.6551
   10.590    4.7920
   10.620    4.5287
   10.650    4.5603
   10.680    4.4866
   10.710    4.9921
   10.740    4.7709
   10.770    4.9184
   10.800    5.0869
   10.830    5.0553
   10.860    4.8447
   10.890    4.7183
   10.920    4.8025
   10.950    4.6445
   10.980    4.8763
   11.010    4.6761
   11.040    4.8131
   11.070    4.5182
   11.100    4.9394
   11.130    4.6972
   11.160    4.5498
   11.190    4.7393
   11.220    4.9184
   11.250    4.5919
   11.280    4.8025
   11.310    4.8236
   11.340    4.9710
   11.370    4.7183
   11.400    5.0026
   11.430    4.6551
   11.460    4.7604
   11.490    4.9921
   11.520    4.6235
   11.550    4.7604
   11.580    4.2970
   11.610    4.5392
   11.640    4.5287
   11.670    4.5182
   11.700    4.8236
   11.730    4.5919
   11.760    4.7288
   11.790    4.6445
   11.820    4.7393
   11.850    4.9184
   11.880    4.6972
   11.910    5.0132
   11.940    4.8657
   11.970    4.4128
   12.000    4.3602
   12.030    4.5708
   12.060    4.8552
   12.090    4.5287
   12.120    4.6656
   12.150    4.4128
   12.180    4.8236
   12.210    4.6551
   12.240    4.7183
   12.270    4.3391
   12.300    4.2338
   12.330    4.7920
   12.360    4.6445
   12.390    4.3497
   12.420    4.7815
   12.450    4.6972
   12.480    4.7393
   12.510    4.6130
   12.540    4.5603
   12.570    4.6867
   12.600    4.8236
   12.630    4.6867
   12.660    4.8341
   12.690    5.1501
   12.720    4.9394
   12.750    4.8552
   12.780    4.7183
   12.810    4.7393
   12.840    4.9394
   12.870    4.5603
   12.900    4.5814
   12.930    4.5708
   12.960    4.4550
   12.990    4.5182
   13.020    4.5498
   13.050    4.4023
   13.080    4.2654
   13.110    4.5392
   13.140    4.3497
   13.170    4.6761
   13.200    4.6340
   13.230    4.5392
   13.260    4.3602
   13.290    4.6340
   13.320    4.4866
   13.350    4.4234
   13.380    4.3286
   13.410    4.4866
   13.440    4.6551
   13.470    4.3181
   13.500    4.6867
   13.530    4.1811
   13.560    4.7393
   13.590    4.4128
   13.620    4.3918
   13.650    4.7077
   13.680    4.7920
   13.710    4.7183
   13.740    4.2759
   13.770    4.8341
   13.800    4.5603
   13.830    4.5498
   13.860    4.5392
   13.890    4.4760
   13.920    4.8657
   13.950    4.6972
   13.980    4.1074
   14.010    4.4971
   14.040    4.5182
   14.070    4.5919
   14.100    4.7920
   14.130    4.6972
   14.160    4.6024
   14.190    4.7815
   14.220    4.5287
   14.250    4.5814
   14.280    4.6445
   14.310    4.7709
   14.340    4.7604
   14.370    4.8025
   14.400    4.8025
   14.430    4.8868
   14.460    4.6130
   14.490    4.5287
   14.520    4.7604
   14.550    4.4971
   14.580    4.6656
   14.610    4.5392
   14.640    4.3497
   14.670    4.4550
   14.700    4.9816
   14.730    4.5287
   14.760    4.2970
   14.790    4.4128
   14.820    4.5708
   14.850    4.8131
   14.880    4.8341
   14.910    4.4866
   14.940    4.7183
   14.970    4.9816
   15.000    4.5708
   15.030    4.7499
   15.060    4.6130
   15.090    4.4444
   15.120    4.8973
   15.150    4.5287
   15.180    4.8025
   15.210    4.9394
   15.240    4.8341
   15.270    4.6340
   15.300    4.6024
   15.330    5.0658
   15.360    4.6761
   15.390    4.5076
   15.420    4.7499
   15.450    4.4023
   15.480    4.8447
   15.510    4.4655
   15.540    4.4339
   15.570    4.5814
   15.600    4.5814
   15.630    4.7393
   15.660    4.5287
   15.690    4.6551
   15.720    4.3497
   15.750    4.4971
   15.780    4.3602
   15.810    4.8657
   15.840    4.5814
   15.870    4.8131
   15.900    4.9394
   15.930    4.6235
   15.960    4.5498
   15.990    4.8236
   16.020    4.7077
   16.050    4.8973
   16.080    4.6024
   16.110    4.9078
   16.140    4.8025
   16.170    4.8657
   16.200    4.5603
   16.230    4.6551
   16.260    4.7499
   16.290    4.6235
   16.320    4.4760
   16.350    5.0658
   16.380    4.7709
   16.410    4.8341
   16.440    4.9394
   16.470    5.1290
   16.500    5.1185
   16.530    5.0658
   16.560    5.0764
   16.590    5.0342
   16.620    5.0026
   16.650    5.1290
   16.680    4.6235
   16.710    5.0553
   16.740    4.7709
   16.770    4.9289
   16.800    4.8552
   16.830    4.8236
   16.860    4.8552
   16.890    4.8131
   16.920    4.5603
   16.950    5.0342
   16.980    4.5076
   17.010    5.0974
   17.040    4.8763
   17.070    5.1185
   17.100    4.8763
   17.130    4.7709
   17.160    5.3502
   17.190    4.9816
   17.220    5.2343
   17.250    5.1922
   17.280    4.8868
   17.310    4.8552
   17.340    4.5392
   17.370    5.2765
   17.400    4.6867
   17.430    4.8447
   17.460    5.0974
   17.490    5.1817
   17.520    4.8236
   17.550    5.0553
   17.580    5.1817
   17.610    5.2765
   17.640    5.0342
   17.670    5.2238
   17.700    5.1711
   17.730    4.9500
   17.760    5.0026
   17.790    5.3818
   17.820    5.1711
   17.850    5.2238
   17.880    5.1817
   17.910    5.2975
   17.940    5.4555
   17.970    5.2659
   18.000    5.2027
   18.030    5.4871
   18.060    5.2449
   18.090    5.3923
   18.120    5.2975
   18.150    5.2975
   18.180    5.4028
   18.210    5.5503
   18.240    5.5608
   18.270    5.1395
   18.300    5.4555
   18.330    5.7399
   18.360    5.7609
   18.390    5.8136
   18.420    6.2770
   18.450    6.5298
   18.480    5.9294
   18.510    6.1401
   18.540    5.7820
   18.570    5.6767
   18.600    5.2975
   18.630    5.5924
   18.660    5.5819
   18.690    5.3712
   18.720    5.4555
   18.750    5.2975
   18.780    5.6345
   18.810    5.6977
   18.840    5.7609
   18.870    5.9294
   18.900    6.3296
   18.930    6.3507
   18.960    6.8457
   18.990    6.9089
   19.020    6.8878
   19.050    6.4982
   19.080    6.4982
   19.110    6.0453
   19.140    6.0874
   19.170    5.5714
   19.200    6.0032
   19.230    5.9189
   19.260    5.6135
   19.290    5.5292
   19.320    5.4766
   19.350    6.0242
   19.380    5.4660
   19.410    5.6135
   19.440    5.4871
   19.470    5.3186
   19.500    5.5398
   19.530    5.3397
   19.560    5.3081
   19.590    5.8136
   19.620    5.5187
   19.650    5.5924
   19.680    6.1506
   19.710    5.6977
   19.740    5.5924
   19.770    5.6451
   19.800    5.0237
   19.830    5.1185
   19.860    5.4450
   19.890    5.4450
   19.920    5.2343
   19.950    5.3923
   19.980    5.3081
   20.010    5.2659
   20.040    5.3923
   20.070    5.5187
   20.100    5.6977
   20.130    5.4134
   20.160    4.9816
   20.190    5.5398
   20.220    5.7820
   20.250    5.6240
   20.280    5.7293
   20.310    5.8978
   20.340    5.5924
   20.370    6.2243
   20.400    5.9505
   20.430    6.5719
   20.460    6.8141
   20.490    6.9826
   20.520    6.4876
   20.550    6.3823
   20.580    7.0037
   20.610    5.9400
   20.640    5.7504
   20.670    5.9716
   20.700    5.6977
   20.730    5.5187
   20.760    5.4134
   20.790    5.2975
   20.820    5.1817
   20.850    5.5714
   20.880    5.4555
   20.910    5.0974
   20.940    5.1711
   20.970    5.5292
   21.000    5.2870
   21.030    5.4871
   21.060    5.3186
   21.090    5.0974
   21.120    5.3186
   21.150    5.5924
   21.180    5.3186
   21.210    5.1606
   21.240    5.4555
   21.270    5.2449
   21.300    5.3081
   21.330    5.2765
   21.360    5.4134
   21.390    5.3818
   21.420    5.6135
   21.450    5.8557
   21.480    5.6977
   21.510    5.7820
   21.540    5.6872
   21.570    5.8241
   21.600    5.2765
   21.630    5.7504
   21.660    6.1401
   21.690    5.5608
   21.720    5.8978
   21.750    5.6661
   21.780    5.3712
   21.810    5.4766
   21.840    5.3291
   21.870    5.4976
   21.900    5.6135
   21.930    5.1817
   21.960    5.6135
   21.990    5.3712
   22.020    5.7188
   22.050    5.4871
   22.080    4.9710
   22.110    5.1185
   22.140    5.5292
   22.170    5.3397
   22.200    5.6977
   22.230    5.2765
   22.260    5.5714
   22.290    5.5398
   22.320    5.2765
   22.350    5.3081
   22.380    5.5082
   22.410    5.5503
   22.440    5.5819
   22.470    5.4976
   22.500    5.5187
   22.530    5.7293
   22.560    5.2133
   22.590    4.9605
   22.620    5.2659
   22.650    5.4555
   22.680    5.4660
   22.710    5.2870
   22.740    5.6661
   22.770    5.7820
   22.800    5.6345
   22.830    5.6661
   22.860    5.8347
   22.890    5.5714
   22.920    5.8978
   22.950    5.3818
   22.980    5.6767
   23.010    5.2659
   23.040    5.7925
   23.070    5.1185
   23.100    5.3923
   23.130    5.4028
   23.160    5.2343
   23.190    5.2554
   23.220    5.6767
   23.250    5.4028
   23.280    5.4660
   23.310    4.8025
   23.340    5.5819
   23.370    4.8236
   23.400    5.2133
   23.430    5.2449
   23.460    4.9500
   23.490    5.0974
   23.520    5.2238
   23.550    5.3607
   23.580    4.9921
   23.610    5.3923
   23.640    5.4239
   23.670    5.2975
   23.700    4.8131
   23.730    4.9921
   23.760    5.3081
   23.790    5.2343
   23.820    5.4239
   23.850    5.3081
   23.880    5.6556
   23.910    5.4344
   23.940    5.4344
   23.970    5.5082
   24.000    5.6345
   24.030    5.2870
   24.060    5.0132
   24.090    4.9289
   24.120    4.9921
   24.150    5.0553
   24.180    5.2765
   24.210    5.0764
   24.240    4.7920
   24.270    4.8447
   24.300    4.2865
   24.330    5.0658
   24.360    4.9710
   24.390    4.7709
   24.420    4.9184
   24.450    4.8025
   24.480    4.9605
   24.510    4.7920
   24.540    4.7183
   24.570    4.8131
   24.600    4.7709
   24.630    4.7920
   24.660    4.8131
   24.690    5.2027
   24.720    4.7709
   24.750    4.7499
   24.780    4.3707
   24.810    4.9500
   24.840    4.8552
   24.870    4.9500
   24.900    4.3286
   24.930    4.7920
   24.960    4.8973
   24.990    4.7288
   25.020    4.8236
   25.050    4.8025
   25.080    4.9289
   25.110    4.8131
   25.140    4.4655
   25.170    4.4550
   25.200    4.3181
   25.230    4.7077
   25.260    5.2238
   25.290    4.3918
   25.320    4.6867
   25.350    4.6024
   25.380    4.5603
   25.410    4.7815
   25.440    4.4971
   25.470    4.4866
   25.500    4.2759
   25.530    4.4128
   25.560    4.4971
   25.590    4.4760
   25.620    4.2654
   25.650    4.6130
   25.680    4.8236
   25.710    4.4760
   25.740    4.1811
   25.770    4.1706
   25.800    4.3181
   25.830    4.6551
   25.860    4.7183
   25.890    4.3707
   25.920    4.2549
   25.950    4.0969
   25.980    4.0758
   26.010    4.2865
   26.040    4.4550
   26.070    4.3075
   26.100    4.6972
   26.130    4.4234
   26.160    4.4866
   26.190    4.4971
   26.220    4.4128
   26.250    4.3497
   26.280    4.5287
   26.310    4.1917
   26.340    3.9810
   26.370    4.0337
   26.400    4.0442
   26.430    4.1180
   26.460    3.8125
   26.490    3.9494
   26.520    4.1390
   26.550    4.1496
   26.580    4.3497
   26.610    4.1074
   26.640    4.3813
   26.670    4.1706
   26.700    4.2022
   26.730    4.0864
   26.760    4.2759
   26.790    4.2970
   26.820    4.0442
   26.850    3.9284
   26.880    4.2233
   26.910    4.5392
   26.940    3.9073
   26.970    4.2233
   27.000    4.0758
   27.030    4.0126
   27.060    4.0126
   27.090    4.0548
   27.120    3.9810
   27.150    4.1074
   27.180    3.7283
   27.210    3.8757
   27.240    3.8863
   27.270    4.0653
   27.300    4.2338
   27.330    4.3181
   27.360    4.1074
   27.390    4.2970
   27.420    3.9179
   27.450    4.2127
   27.480    3.8968
   27.510    4.1180
   27.540    3.8441
   27.570    4.1496
   27.600    4.0232
   27.630    3.5808
   27.660    3.6967
   27.690    3.8863
   27.720    3.7072
   27.750    3.7809
   27.780    4.1180
   27.810    3.9810
   27.840    4.0864
   27.870    3.7177
   27.900    3.6335
   27.930    3.6335
   27.960    3.6651
   27.990    3.8968
   28.020    3.8125
   28.050    3.8336
   28.080    3.8757
   28.110    3.6756
   28.140    3.7599
   28.170    3.8968
   28.200    3.6967
   28.230    3.7493
   28.260    3.6862
   28.290    3.8757
   28.320    3.7493
   28.350    3.6546
   28.380    3.5492
   28.410    3.5598
   28.440    3.7704
   28.470    3.4439
   28.500    3.8547
   28.530    3.8757
   28.560    3.4650
   28.590    3.8547
   28.620    3.8863
   28.650    4.0126
   28.680    3.7704
   28.710    3.4860
   28.740    3.8125
   28.770    3.9179
   28.800    3.4123
   28.830    3.8757
   28.860    3.6651
   28.890    3.9705
   28.920    3.4439
   28.950    3.5914
   28.980    3.6440
   29.010    3.7072
   29.040    3.5598
   29.070    3.6756
   29.100    3.3702
   29.130    3.3913
   29.160    3.5071
   29.190    3.3807
   29.220    3.2859
   29.250    3.4755
   29.280    3.2859
   29.310    3.1912
   29.340    3.4334
   29.370    3.3913
   29.400    3.3175
   29.430    3.6862
   29.460    3.4755
   29.490    3.5914
   29.520    3.6546
   29.550    3.4018
   29.580    3.4123
   29.610    3.4334
   29.640    3.5176
   29.670    3.5282
   29.700    3.6651
   29.730    3.7072
   29.760    3.4755
   29.790    3.5808
   29.820    3.6019
   29.850    3.3175
   29.880    3.4966
   29.910    3.3386
   29.940    3.6019
   29.970    3.2754
   30.000    3.3491
   30.030    3.2965
   30.060    3.1806
   30.090    3.6546
   30.120    3.4229
   30.150    3.2965
   30.180    3.6230
   30.210    3.3281
   30.240    3.4860
   30.270    3.2122
   30.300    3.2649
   30.330    3.3807
   30.360    3.2122
   30.390    3.2754
   30.420    3.5387
   30.450    3.2438
   30.480    3.5071
   30.510    3.0753
   30.540    3.2122
   30.570    3.2859
   30.600    3.3386
   30.630    3.3807
   30.660    3.1701
   30.690    3.0437
   30.720    3.3070
   30.750    3.2227
   30.780    2.9805
   30.810    3.0332
   30.840    3.2543
   30.870    3.0648
   30.900    2.9700
   30.930    3.0121
   30.960    3.2859
   30.990    3.0016
   31.020    3.1280
   31.050    3.0016
   31.080    2.9384
   31.110    3.1596
   31.140    3.3281
   31.170    3.2227
   31.200    2.8647
   31.230    2.8647
   31.260    3.1490
   31.290    2.8541
   31.320    3.2649
   31.350    3.0753
   31.380    3.0542
   31.410    3.0121
   31.440    2.7278
   31.470    2.9384
   31.500    2.9068
   31.530    2.9068
   31.560    3.0648
   31.590    3.1280
   31.620    3.0964
   31.650    3.1912
   31.680    3.0016
   31.710    3.0121
   31.740    2.8120
   31.770    2.8436
   31.800    3.0964
   31.830    2.8963
   31.860    2.7909
   31.890    2.7593
   31.920    2.9384
   31.950    3.1385
   31.980    2.8857
   32.010    2.6540
   32.040    2.8225
   32.070    2.8541
   32.100    2.6646
   32.130    2.9068
   32.160    2.7593
   32.190    2.7488
   32.220    3.0332
   32.250    2.8647
   32.280    2.7278
   32.310    2.6540
   32.340    2.6646
   32.370    3.1174
   32.400    2.6330
   32.430    2.8857
   32.460    2.7383
   32.490    2.8752
   32.520    2.6856
   32.550    2.6751
   32.580    2.8541
   32.610    2.9700
   32.640    2.7593
   32.670    2.7804
   32.700    2.8752
   32.730    2.5171
   32.760    2.8541
   32.790    2.7172
   32.820    2.9384
   32.850    2.8120
   32.880    2.6751
   32.910    2.7593
   32.940    2.7488
   32.970    2.6435
   33.000    2.6540
   33.030    2.4961
   33.060    2.7383
   33.090    2.8963
   33.120    2.4539
   33.150    2.4961
   33.180    2.4118
   33.210    2.6856
   33.240    2.3802
   33.270    2.3381
   33.300    2.4855
   33.330    2.6014
   33.360    2.6751
   33.390    2.3907
   33.420    2.4329
   33.450    2.3486
   33.480    2.4645
   33.510    2.4539
   33.540    2.6330
   33.570    2.7804
   33.600    2.5803
   33.630    2.6856
   33.660    2.1906
   33.690    2.7278
   33.720    2.6646
   33.750    2.5592
   33.780    2.4434
   33.810    2.3907
   33.840    2.4118
   33.870    2.5276
   33.900    2.6224
   33.930    2.3802
   33.960    2.3802
   33.990    2.4645
   34.020    2.6540
   34.050    2.6540
   34.080    2.6435
   34.110    2.3907
   34.140    2.5066
   34.170    2.4434
   34.200    2.2222
   34.230    2.4539
   34.260    2.6540
   34.290    2.5487
   34.320    2.3591
   34.350    2.5382
   34.380    2.4223
   34.410    2.3697
   34.440    2.3065
   34.470    2.4223
   34.500    2.2959
   34.530    2.4539
   34.560    2.2222
   34.590    2.3381
   34.620    2.2538
   34.650    2.1696
   34.680    2.3591
   34.710    2.3697
   34.740    2.3697
   34.770    2.4013
   34.800    2.2328
   34.830    2.1801
   34.860    2.3486
   34.890    2.1801
   34.920    2.3486
   34.950    2.3381
   34.980    2.1801
   35.010    2.2433
   35.040    2.3275
   35.070    2.1696
   35.100    2.1274
   35.130    2.0642
   35.160    2.2959
   35.190    2.1485
   35.220    2.2959
   35.250    1.9905
   35.280    1.9800
   35.310    2.1696
   35.340    2.2643
   35.370    2.2538
   35.400    2.2222
   35.430    2.1906
   35.460    2.0958
   35.490    1.9695
   35.520    1.8325
   35.550    2.0116
   35.580    2.0642
   35.610    2.1906
   35.640    2.1169
   35.670    2.2643
   35.700    2.1696
   35.730    2.1906
   35.760    2.2222
   35.790    2.0116
   35.820    2.0116
   35.850    2.0537
   35.880    2.0642
   35.910    2.0432
   35.940    2.4329
   35.970    2.0011
   36.000    2.0958
   36.030    2.1696
   36.060    2.1380
   36.090    2.1696
   36.120    2.1485
   36.150    2.3381
   36.180    2.1274
   36.210    2.1064
   36.240    2.2012
   36.270    2.0958
   36.300    1.9800
   36.330    2.2222
   36.360    1.9063
   36.390    2.0537
   36.420    2.2643
   36.450    2.2117
   36.480    2.1485
   36.510    1.8957
   36.540    2.0537
   36.570    2.1064
   36.600    1.9589
   36.630    2.2643
   36.660    1.7694
   36.690    1.9273
   36.720    1.9273
   36.750    2.0326
   36.780    1.7378
   36.810    2.1169
   36.840    1.8957
   36.870    1.9905
   36.900    1.8325
   36.930    2.0326
   36.960    1.7588
   36.990    1.9695
   37.020    1.9905
   37.050    1.9905
   37.080    1.9168
   37.110    1.9800
   37.140    1.9168
   37.170    2.0326
   37.200    1.8220
   37.230    1.9379
   37.260    1.9484
   37.290    1.9905
   37.320    1.9273
   37.350    1.6114
   37.380    1.7904
   37.410    1.9063
   37.440    1.8220
   37.470    1.9484
   37.500    1.9379
   37.530    2.0116
   37.560    1.8641
   37.590    1.8957
   37.620    1.7483
   37.650    1.6956
   37.680    1.8641
   37.710    1.8325
   37.740    1.9695
   37.770    2.0326
   37.800    1.7904
   37.830    1.6114
   37.860    1.8009
   37.890    1.7904
   37.920    1.5482
   37.950    1.8115
   37.980    1.7799
   38.010    1.7378
   38.040    1.7062
   38.070    1.6430
   38.100    1.5798
   38.130    1.7483
   38.160    1.6640
   38.190    1.6956
   38.220    1.8009
   38.250    1.6851
   38.280    1.7378
   38.310    1.9273
   38.340    1.5903
   38.370    1.8641
   38.400    1.8325
   38.430    1.8325
   38.460    1.9273
   38.490    1.7799
   38.520    1.6535
   38.550    1.7799
   38.580    1.8852
   38.610    1.8641
   38.640    1.7272
   38.670    1.8957
   38.700    1.7272
   38.730    1.9379
   38.760    1.7694
   38.790    1.8009
   38.820    1.7167
   38.850    2.0432
   38.880    1.8536
   38.910    1.7483
   38.940    1.7588
   38.970    1.7062
   39.000    1.6219
   39.030    1.7167
   39.060    1.8536
   39.090    1.7799
   39.120    1.8009
   39.150    1.6640
   39.180    1.7694
   39.210    1.8431
   39.240    1.9589
   39.270    1.7483
   39.300    1.9589
   39.330    1.7694
   39.360    1.6430
   39.390    1.8115
   39.420    1.8009
   39.450    1.7062
   39.480    1.8852
   39.510    1.7483
   39.540    1.9379
   39.570    1.5377
   39.600    1.6008
   39.630    1.7378
   39.660    1.7799
   39.690    1.6430
   39.720    1.7588
   39.750    1.6430
   39.780    1.6640
   39.810    2.0221
   39.840    1.8220
   39.870    1.7272
   39.900    1.6535
   39.930    1.5271
   39.960    1.7904
   39.990    1.7694