File: data/MOCOF-1/PXRD/PXRD_KE-081_Cu-Ka1_capillary-1mm_5s-deg.xyd
    1.500   15.8083
    1.530   16.4402
    1.560   16.8088
    1.590   16.8826
    1.620   16.2928
    1.650   15.9874
    1.680   15.5766
    1.710   15.4292
    1.740   15.3976
    1.770   15.2185
    1.800   14.4076
    1.830   14.3760
    1.860   13.7967
    1.890   14.3444
    1.920   14.3128
    1.950   14.2917
    1.980   13.7757
    2.010   13.4597
    2.040   13.7019
    2.070   13.4702
    2.100   13.2280
    2.130   12.9331
    2.160   13.0174
    2.190   13.1964
    2.220   12.9121
    2.250   12.7857
    2.280   12.2380
    2.310   13.1859
    2.340   13.4808
    2.370   12.7751
    2.400   12.8594
    2.430   12.8173
    2.460   12.6909
    2.490   12.4697
    2.520   12.8278
    2.550   12.5645
    2.580   13.0490
    2.610   13.2701
    2.640   13.1438
    2.670   12.6066
    2.700   13.5756
    2.730   13.3755
    2.760   13.5861
    2.790   13.5756
    2.820   14.1127
    2.850   13.5966
    2.880   14.7657
    2.910   14.3865
    2.940   14.7446
    2.970   15.1975
    3.000   15.7557
    3.030   15.6609
    3.060   16.2612
    3.090   16.2296
    3.120   17.4829
    3.150   18.4939
    3.180   18.8099
    3.210   19.8631
    3.240   20.2212
    3.270   21.8009
    3.300   22.5276
    3.330   23.0964
    3.360   24.5498
    3.390   26.2665
    3.420   27.4566
    3.450   29.8999
    3.480   31.5535
    3.510   32.8805
    3.540   35.9768
    3.570   38.7256
    3.600   40.4529
    3.630   44.3707
    3.660   48.0885
    3.690   55.9136
    3.720   60.8847
    3.750   68.9205
    3.780   81.6956
    3.810   98.7994
    3.840  126.2138
    3.870  146.9405
    3.900  132.5750
    3.930   71.9958
    3.960   27.5408
    3.990   16.0821
    4.020   12.9226
    4.050   11.2480
    4.080   10.2370
    4.110    9.1732
    4.140    9.3312
    4.170    8.7520
    4.200    8.6572
    4.230    8.4466
    4.260    7.8462
    4.290    7.7725
    4.320    7.7936
    4.350    7.4039
    4.380    7.4671
    4.410    7.7936
    4.440    7.6145
    4.470    7.5408
    4.500    7.7936
    4.530    7.4460
    4.560    7.5408
    4.590    7.5197
    4.620    7.5829
    4.650    7.8357
    4.680    7.8568
    4.710    7.5092
    4.740    7.5303
    4.770    7.6040
    4.800    7.4671
    4.830    7.7936
    4.860    8.1306
    4.890    8.3096
    4.920    8.3518
    4.950    8.0569
    4.980    8.6467
    5.010    9.0153
    5.040    8.9837
    5.070    9.3839
    5.100    9.8368
    5.130    9.9421
    5.160   10.1632
    5.190   11.0900
    5.220   11.8905
    5.250   11.9115
    5.280   12.7857
    5.310   14.2917
    5.340   15.7241
    5.370   17.4092
    5.400   18.8942
    5.430   23.0226
    5.460   27.5197
    5.490   32.1327
    5.520   29.7946
    5.550   19.2628
    5.580   10.4581
    5.610    8.5413
    5.640    7.3723
    5.670    7.1511
    5.700    6.8246
    5.730    6.7404
    5.760    6.4876
    5.790    6.5403
    5.820    6.6772
    5.850    6.5719
    5.880    6.3928
    5.910    6.3718
    5.940    6.5087
    5.970    6.2033
    6.000    6.1611
    6.030    6.4244
    6.060    6.7193
    6.090    6.5824
    6.120    6.1717
    6.150    6.2559
    6.180    6.1822
    6.210    6.3718
    6.240    6.0558
    6.270    6.2454
    6.300    7.1301
    6.330    7.0142
    6.360    6.3402
    6.390    7.0669
    6.420    6.7825
    6.450    6.8457
    6.480    6.9194
    6.510    6.7720
    6.540    7.5724
    6.570    7.3618
    6.600    7.7514
    6.630    7.9305
    6.660    8.1201
    6.690    9.1101
    6.720   10.5213
    6.750   10.8268
    6.780    9.9105
    6.810    8.2570
    6.840    6.7509
    6.870    6.5403
    6.900    6.6035
    6.930    6.4034
    6.960    6.5403
    6.990    6.5087
    7.020    6.5824
    7.050    6.1506
    7.080    6.4350
    7.110    6.1295
    7.140    6.5508
    7.170    6.6983
    7.200    6.0348
    7.230    6.3612
    7.260    6.2770
    7.290    6.5613
    7.320    6.1295
    7.350    6.3507
    7.380    6.9405
    7.410    6.6140
    7.440    6.5508
    7.470    6.8141
    7.500    7.0248
    7.530    7.2775
    7.560    7.4250
    7.590    7.5724
    7.620    7.9305
    7.650    8.0253
    7.680    8.4466
    7.710    9.6367
    7.740   10.8162
    7.770   11.6272
    7.800   12.7962
    7.830   11.4060
    7.860    8.6151
    7.890    6.8036
    7.920    6.3612
    7.950    6.6456
    7.980    6.1611
    8.010    6.3612
    8.040    6.4771
    8.070    6.2349
    8.100    6.2981
    8.130    6.1822
    8.160    6.3718
    8.190    6.3823
    8.220    6.1717
    8.250    6.4876
    8.280    5.9610
    8.310    5.9821
    8.340    5.9716
    8.370    6.1717
    8.400    6.2243
    8.430    6.4139
    8.460    6.3718
    8.490    6.3402
    8.520    6.6772
    8.550    6.5298
    8.580    6.1295
    8.610    6.5929
    8.640    6.3402
    8.670    6.5824
    8.700    7.2354
    8.730    6.9932
    8.760    6.5192
    8.790    6.5613
    8.820    6.1295
    8.850    6.3191
    8.880    6.2665
    8.910    6.6456
    8.940    6.4350
    8.970    6.1927
    9.000    6.2875
    9.030    6.4350
    9.060    6.4560
    9.090    6.4560
    9.120    6.4455
    9.150    6.8246
    9.180    6.8036
    9.210    7.3091
    9.240    7.1195
    9.270    7.4355
    9.300    7.6145
    9.330    8.3939
    9.360    8.0990
    9.390    9.7104
    9.420    9.6472
    9.450   10.8899
    9.480   12.3539
    9.510   15.1764
    9.540   16.7667
    9.570   18.1569
    9.600   14.7341
    9.630   10.4687
    9.660    7.8252
    9.690    7.1511
    9.720    6.5719
    9.750    6.5508
    9.780    6.8246
    9.810    6.4666
    9.840    6.4560
    9.870    5.8768
    9.900    6.0979
    9.930    6.7299
    9.960    6.4666
    9.990    6.5403
   10.020    7.0563
   10.050    6.6561
   10.080    6.8984
   10.110    6.6983
   10.140    7.3407
   10.170    7.0563
   10.200    7.5197
   10.230    7.9726
   10.260    8.5729
   10.290    9.5103
   10.320   10.2370
   10.350   10.2791
   10.380    9.0679
   10.410    7.3828
   10.440    6.7615
   10.470    6.2454
   10.500    6.4982
   10.530    6.4876
   10.560    6.3928
   10.590    6.0769
   10.620    6.2875
   10.650    6.1085
   10.680    6.6245
   10.710    6.1822
   10.740    6.4455
   10.770    6.3718
   10.800    6.6035
   10.830    6.6561
   10.860    6.5613
   10.890    7.1511
   10.920    6.8141
   10.950    7.5619
   10.980    8.4360
   11.010    8.4887
   11.040    9.4787
   11.070    9.3523
   11.100    8.0147
   11.130    7.1301
   11.160    6.5298
   11.190    6.4139
   11.220    6.3718
   11.250    5.9294
   11.280    6.0348
   11.310    5.7820
   11.340    6.1611
   11.370    5.7504
   11.400    6.3507
   11.430    6.3718
   11.460    6.6035
   11.490    6.0137
   11.520    6.3086
   11.550    7.0458
   11.580    7.0037
   11.610    7.4039
   11.640    7.4144
   11.670    8.0779
   11.700    9.2996
   11.730    9.0469
   11.760    9.1943
   11.790    7.2670
   11.820    6.7193
   11.850    6.1927
   11.880    6.6456
   11.910    6.0874
   11.940    5.7609
   11.970    5.9610
   12.000    6.0453
   12.030    6.0558
   12.060    5.9400
   12.090    5.9294
   12.120    5.6345
   12.150    5.6240
   12.180    5.6345
   12.210    5.8241
   12.240    5.8557
   12.270    6.1506
   12.300    6.3718
   12.330    6.3718
   12.360    6.0874
   12.390    6.6561
   12.420    6.1506
   12.450    5.8768
   12.480    5.5714
   12.510    5.2133
   12.540    5.9926
   12.570    5.9821
   12.600    5.7715
   12.630    5.8136
   12.660    5.7609
   12.690    5.5503
   12.720    6.0558
   12.750    6.0242
   12.780    6.0032
   12.810    6.2454
   12.840    6.0558
   12.870    6.7930
   12.900    7.1511
   12.930    8.0569
   12.960    8.3096
   12.990    8.0147
   13.020    7.1195
   13.050    6.3928
   13.080    5.6872
   13.110    5.9716
   13.140    5.3818
   13.170    5.7715
   13.200    5.7504
   13.230    5.5608
   13.260    5.4239
   13.290    5.8873
   13.320    5.8452
   13.350    5.4976
   13.380    6.0242
   13.410    5.8241
   13.440    6.0242
   13.470    6.8036
   13.500    6.9089
   13.530    7.1722
   13.560    6.9826
   13.590    6.8562
   13.620    6.0874
   13.650    5.8031
   13.680    5.7293
   13.710    5.5082
   13.740    5.6556
   13.770    5.4766
   13.800    5.2870
   13.830    5.5819
   13.860    5.6556
   13.890    5.7399
   13.920    5.8031
   13.950    5.8978
   13.980    5.6556
   14.010    6.1401
   14.040    6.8773
   14.070    7.1827
   14.100    8.0569
   14.130    7.6145
   14.160    6.7193
   14.190    6.3823
   14.220    5.5608
   14.250    5.6345
   14.280    5.3923
   14.310    5.8873
   14.340    5.7609
   14.370    5.5398
   14.400    5.2343
   14.430    5.2870
   14.460    5.7083
   14.490    5.1817
   14.520    5.5714
   14.550    5.6661
   14.580    5.5608
   14.610    5.3923
   14.640    5.5714
   14.670    5.4450
   14.700    5.1711
   14.730    5.1711
   14.760    5.3818
   14.790    5.5398
   14.820    5.5082
   14.850    5.0869
   14.880    5.3186
   14.910    5.3923
   14.940    5.3712
   14.970    5.8557
   15.000    5.6029
   15.030    5.5292
   15.060    5.5292
   15.090    6.0874
   15.120    5.9400
   15.150    6.2454
   15.180    6.1190
   15.210    5.9821
   15.240    5.5608
   15.270    5.6872
   15.300    5.5924
   15.330    5.4028
   15.360    5.2027
   15.390    5.6451
   15.420    5.6345
   15.450    5.4239
   15.480    5.5819
   15.510    5.4555
   15.540    5.8031
   15.570    5.4134
   15.600    5.3712
   15.630    5.4766
   15.660    5.6767
   15.690    5.2975
   15.720    5.4555
   15.750    5.4976
   15.780    5.6451
   15.810    5.5503
   15.840    5.2659
   15.870    5.7820
   15.900    5.4344
   15.930    5.4344
   15.960    5.6556
   15.990    5.6135
   16.020    5.3397
   16.050    5.4976
   16.080    5.8557
   16.110    5.9084
   16.140    5.9400
   16.170    5.9084
   16.200    6.3718
   16.230    5.5503
   16.260    5.4766
   16.290    5.2343
   16.320    5.5292
   16.350    5.7925
   16.380    5.7399
   16.410    5.4344
   16.440    6.1506
   16.470    5.6872
   16.500    5.6135
   16.530    5.8452
   16.560    5.9189
   16.590    6.2349
   16.620    6.4560
   16.650    6.1822
   16.680    5.9821
   16.710    5.7820
   16.740    5.8662
   16.770    5.5292
   16.800    5.6977
   16.830    5.8241
   16.860    5.8768
   16.890    5.8347
   16.920    6.2138
   16.950    5.8978
   16.980    6.4350
   17.010    6.2243
   17.040    6.9194
   17.070    7.6145
   17.100    7.3828
   17.130    6.8036
   17.160    6.2665
   17.190    6.0979
   17.220    6.0348
   17.250    5.6240
   17.280    5.2133
   17.310    5.6977
   17.340    5.4344
   17.370    5.5924
   17.400    5.7293
   17.430    5.5292
   17.460    5.8241
   17.490    6.2243
   17.520    5.7188
   17.550    6.0032
   17.580    6.0453
   17.610    5.6135
   17.640    5.6029
   17.670    5.8136
   17.700    5.4555
   17.730    5.1185
   17.760    5.9294
   17.790    5.3712
   17.820    6.0348
   17.850    5.7188
   17.880    5.8873
   17.910    5.8662
   17.940    5.9821
   17.970    6.1927
   18.000    6.5192
   18.030    5.3607
   18.060    5.8662
   18.090    5.6767
   18.120    5.5187
   18.150    5.7083
   18.180    5.5714
   18.210    5.7083
   18.240    5.6029
   18.270    5.9821
   18.300    5.8452
   18.330    6.2665
   18.360    5.9926
   18.390    5.6345
   18.420    6.4350
   18.450    6.3507
   18.480    5.9716
   18.510    5.7083
   18.540    5.8557
   18.570    5.8978
   18.600    5.7715
   18.630    5.4344
   18.660    5.7083
   18.690    5.8136
   18.720    5.6767
   18.750    5.6451
   18.780    5.8978
   18.810    6.1506
   18.840    5.9716
   18.870    5.9189
   18.900    5.6240
   18.930    6.0769
   18.960    5.7715
   18.990    6.2138
   19.020    5.8136
   19.050    6.3191
   19.080    5.7504
   19.110    5.6661
   19.140    5.5187
   19.170    5.8557
   19.200    5.6451
   19.230    5.6240
   19.260    5.4871
   19.290    5.5398
   19.320    5.5608
   19.350    5.7399
   19.380    5.7925
   19.410    5.8662
   19.440    5.8557
   19.470    5.9400
   19.500    5.9821
   19.530    5.9821
   19.560    5.9294
   19.590    6.3086
   19.620    6.3823
   19.650    6.4244
   19.680    6.4982
   19.710    5.9400
   19.740    5.6451
   19.770    5.5924
   19.800    5.8978
   19.830    5.5819
   19.860    5.9400
   19.890    5.7504
   19.920    6.0032
   19.950    5.6240
   19.980    5.3291
   20.010    5.7188
   20.040    5.7293
   20.070    5.7083
   20.100    5.5292
   20.130    6.0769
   20.160    6.2770
   20.190    6.0769
   20.220    5.8136
   20.250    5.7504
   20.280    6.0769
   20.310    6.1822
   20.340    6.7825
   20.370    6.9405
   20.400    7.4566
   20.430    7.3723
   20.460    7.0037
   20.490    6.4034
   20.520    6.3402
   20.550    6.1927
   20.580    5.6977
   20.610    5.7925
   20.640    6.4666
   20.670    5.8031
   20.700    6.0032
   20.730    5.8557
   20.760    5.5819
   20.790    5.9400
   20.820    5.7925
   20.850    5.7188
   20.880    5.6029
   20.910    5.7715
   20.940    5.7715
   20.970    5.7820
   21.000    5.6240
   21.030    5.8136
   21.060    6.1506
   21.090    5.8662
   21.120    6.0979
   21.150    6.1611
   21.180    5.4976
   21.210    5.8452
   21.240    5.7609
   21.270    6.1927
   21.300    6.1401
   21.330    5.7399
   21.360    5.8241
   21.390    6.0979
   21.420    6.2243
   21.450    5.6556
   21.480    5.8978
   21.510    6.0137
   21.540    5.8978
   21.570    6.0769
   21.600    5.8557
   21.630    5.7820
   21.660    6.0348
   21.690    6.0137
   21.720    5.8768
   21.750    6.0137
   21.780    6.2243
   21.810    6.3612
   21.840    6.1190
   21.870    6.7088
   21.900    6.7193
   21.930    6.3507
   21.960    5.9926
   21.990    6.1295
   22.020    5.9821
   22.050    6.1401
   22.080    6.2138
   22.110    6.0032
   22.140    5.8557
   22.170    6.0137
   22.200    6.4666
   22.230    6.4771
   22.260    6.3612
   22.290    6.2875
   22.320    5.9821
   22.350    6.2349
   22.380    5.8662
   22.410    6.3612
   22.440    6.3086
   22.470    6.4982
   22.500    6.5824
   22.530    7.5197
   22.560    7.1406
   22.590    7.4250
   22.620    7.7199
   22.650    7.0458
   22.680    6.7404
   22.710    6.3191
   22.740    6.0979
   22.770    6.4034
   22.800    6.3296
   22.830    6.3191
   22.860    6.8036
   22.890    7.2986
   22.920    7.3302
   22.950    7.2459
   22.980    7.2670
   23.010    7.2986
   23.040    6.3823
   23.070    5.8978
   23.100    6.1506
   23.130    5.6556
   23.160    6.1717
   23.190    6.5298
   23.220    6.3402
   23.250    6.5403
   23.280    6.4771
   23.310    6.6035
   23.340    6.5613
   23.370    6.3823
   23.400    6.3191
   23.430    6.1190
   23.460    5.8347
   23.490    5.8978
   23.520    5.7820
   23.550    6.2770
   23.580    6.3296
   23.610    6.0664
   23.640    5.6135
   23.670    5.9084
   23.700    6.2349
   23.730    5.6767
   23.760    6.1717
   23.790    6.0137
   23.820    5.9189
   23.850    5.7293
   23.880    6.1295
   23.910    6.3086
   23.940    6.2770
   23.970    6.2665
   24.000    6.2349
   24.030    5.9084
   24.060    5.5608
   24.090    6.0242
   24.120    5.6661
   24.150    5.8978
   24.180    5.7820
   24.210    5.9610
   24.240    5.9084
   24.270    5.8452
   24.300    5.9294
   24.330    5.5292
   24.360    5.7609
   24.390    5.6767
   24.420    5.7399
   24.450    6.1190
   24.480    5.9716
   24.510    5.8136
   24.540    5.5292
   24.570    5.8978
   24.600    6.1401
   24.630    5.7504
   24.660    5.7399
   24.690    5.8136
   24.720    5.6345
   24.750    5.7504
   24.780    5.6977
   24.810    5.8136
   24.840    5.7504
   24.870    6.0453
   24.900    6.1085
   24.930    6.0664
   24.960    5.6661
   24.990    5.5503
   25.020    5.5187
   25.050    5.8136
   25.080    5.6029
   25.110    5.5292
   25.140    5.7820
   25.170    5.9716
   25.200    5.6872
   25.230    5.8873
   25.260    6.3296
   25.290    6.2981
   25.320    5.8768
   25.350    5.8452
   25.380    5.8241
   25.410    5.7715
   25.440    5.8136
   25.470    5.7293
   25.500    5.9821
   25.530    5.4344
   25.560    5.9716
   25.590    5.7504
   25.620    5.8978
   25.650    5.5503
   25.680    6.2349
   25.710    6.0558
   25.740    6.1190
   25.770    6.1401
   25.800    6.7720
   25.830    6.8878
   25.860    6.7193
   25.890    6.7720
   25.920    6.4771
   25.950    6.0874
   25.980    6.0032
   26.010    6.0453
   26.040    5.8031
   26.070    5.7399
   26.100    5.5503
   26.130    5.6029
   26.160    5.6977
   26.190    5.8031
   26.220    5.8557
   26.250    5.5503
   26.280    5.9505
   26.310    5.5714
   26.340    5.6345
   26.370    6.0348
   26.400    6.2349
   26.430    5.7293
   26.460    6.1717
   26.490    6.0664
   26.520    5.8452
   26.550    5.5187
   26.580    5.6661
   26.610    5.8136
   26.640    5.5819
   26.670    5.9716
   26.700    5.5924
   26.730    5.5608
   26.760    5.6977
   26.790    5.5187
   26.820    5.6661
   26.850    5.5819
   26.880    5.3607
   26.910    5.5398
   26.940    5.7399
   26.970    5.6029
   27.000    6.0032
   27.030    6.0032
   27.060    6.0032
   27.090    5.4555
   27.120    5.7083
   27.150    5.3712
   27.180    5.4766
   27.210    5.4660
   27.240    4.8763
   27.270    5.4766
   27.300    5.4344
   27.330    5.5398
   27.360    5.3607
   27.390    5.5398
   27.420    5.3712
   27.450    5.6135
   27.480    4.9184
   27.510    5.5924
   27.540    5.5714
   27.570    5.4976
   27.600    6.0242
   27.630    5.7504
   27.660    5.7399
   27.690    5.5819
   27.720    5.6556
   27.750    5.8031
   27.780    5.0342
   27.810    5.4660
   27.840    5.8768
   27.870    5.6029
   27.900    5.6872
   27.930    5.6029
   27.960    5.7715
   27.990    6.0979
   28.020    5.6556
   28.050    5.7715
   28.080    5.5082
   28.110    5.7820
   28.140    5.6977
   28.170    5.6767
   28.200    5.6977
   28.230    5.8136
   28.260    6.0979
   28.290    5.7609
   28.320    5.5292
   28.350    5.6240
   28.380    5.3291
   28.410    5.6135
   28.440    5.7715
   28.470    5.4134
   28.500    5.6135
   28.530    5.6872
   28.560    5.6661
   28.590    5.6240
   28.620    5.3081
   28.650    5.9926
   28.680    5.4239
   28.710    5.7715
   28.740    5.2975
   28.770    5.3397
   28.800    5.0974
   28.830    5.3607
   28.860    5.4976
   28.890    5.4450
   28.920    5.6135
   28.950    5.0237
   28.980    5.5503
   29.010    5.3923
   29.040    5.2449
   29.070    5.7925
   29.100    5.4134
   29.130    5.2870
   29.160    5.4344
   29.190    5.1711
   29.220    5.6661
   29.250    5.3712
   29.280    5.6135
   29.310    5.7820
   29.340    5.6135
   29.370    5.5082
   29.400    5.0448
   29.430    4.7393
   29.460    5.5714
   29.490    5.2238
   29.520    5.2765
   29.550    5.2027
   29.580    5.0448
   29.610    5.3923
   29.640    5.0448
   29.670    4.9921
   29.700    5.0553
   29.730    5.3081
   29.760    5.2765
   29.790    5.6661
   29.820    5.3607
   29.850    5.4028
   29.880    5.6345
   29.910    5.2238
   29.940    5.2449
   29.970    5.2238
   30.000    5.0658
   30.030    4.9816
   30.060    5.0869
   30.090    5.4239
   30.120    5.4028
   30.150    5.3818
   30.180    5.3291
   30.210    5.3397
   30.240    5.0448
   30.270    4.8973
   30.300    5.2554
   30.330    5.4239
   30.360    5.1711
   30.390    5.0869
   30.420    5.2659
   30.450    5.4134
   30.480    5.6345
   30.510    4.9078
   30.540    5.2554
   30.570    5.2870
   30.600    5.4028
   30.630    5.0658
   30.660    4.9500
   30.690    5.1501
   30.720    5.2659
   30.750    5.1922
   30.780    5.0237
   30.810    4.9710
   30.840    5.1080
   30.870    4.9921
   30.900    4.9816
   30.930    5.2027
   30.960    4.9394
   30.990    4.5498
   31.020    5.0448
   31.050    5.0132
   31.080    4.8552
   31.110    4.7920
   31.140    5.0132
   31.170    4.8657
   31.200    4.7920
   31.230    4.8341
   31.260    4.8973
   31.290    4.8657
   31.320    5.0342
   31.350    5.1501
   31.380    5.2027
   31.410    4.8657
   31.440    4.9816
   31.470    5.0448
   31.500    5.3291
   31.530    4.8763
   31.560    4.9500
   31.590    5.0869
   31.620    4.8025
   31.650    5.0974
   31.680    4.9605
   31.710    5.1606
   31.740    5.2975
   31.770    5.0658
   31.800    5.2343
   31.830    5.2238
   31.860    5.1395
   31.890    4.8447
   31.920    4.9710
   31.950    4.9078
   31.980    4.8868
   32.010    5.0974
   32.040    4.9921
   32.070    5.8873
   32.100    5.4871
   32.130    5.4766
   32.160    5.4450
   32.190    5.2343
   32.220    4.8236
   32.250    4.9394
   32.280    4.5603
   32.310    4.8447
   32.340    4.6130
   32.370    4.4655
   32.400    4.2970
   32.430    4.6656
   32.460    4.8973
   32.490    4.8236
   32.520    4.8131
   32.550    5.0553
   32.580    4.6024
   32.610    4.8552
   32.640    4.5814
   32.670    4.5708
   32.700    4.6445
   32.730    4.6656
   32.760    4.7499
   32.790    4.7815
   32.820    4.8131
   32.850    4.8657
   32.880    4.7604
   32.910    4.6340
   32.940    4.5392
   32.970    4.6024
   33.000    4.5919
   33.030    4.6340
   33.060    4.4128
   33.090    4.6024
   33.120    4.8552
   33.150    4.3286
   33.180    4.7499
   33.210    4.7288
   33.240    4.4655
   33.270    4.4550
   33.300    4.4023
   33.330    4.5919
   33.360    4.3813
   33.390    4.4866
   33.420    4.5814
   33.450    4.3075
   33.480    4.5708
   33.510    4.3602
   33.540    4.5708
   33.570    4.6656
   33.600    4.5498
   33.630    4.5814
   33.660    4.4444
   33.690    4.6761
   33.720    4.8025
   33.750    4.6551
   33.780    4.9500
   33.810    5.2975
   33.840    4.9078
   33.870    4.8025
   33.900    5.3818
   33.930    5.1501
   33.960    4.5498
   33.990    4.7604
   34.020    4.9605
   34.050    4.5392
   34.080    4.6972
   34.110    4.7288
   34.140    4.8236
   34.170    4.6340
   34.200    4.3918
   34.230    4.2970
   34.260    4.2549
   34.290    4.6551
   34.320    4.1811
   34.350    4.3497
   34.380    4.3391
   34.410    4.4234
   34.440    4.3918
   34.470    4.4234
   34.500    4.4339
   34.530    4.2022
   34.560    4.6972
   34.590    4.5182
   34.620    4.4550
   34.650    4.5603
   34.680    4.7288
   34.710    4.5392
   34.740    4.3497
   34.770    4.3707
   34.800    4.4023
   34.830    4.0021
   34.860    4.3918
   34.890    4.5076
   34.920    4.5498
   34.950    4.7709
   34.980    4.2970
   35.010    4.5498
   35.040    4.3286
   35.070    4.5708
   35.100    4.4760
   35.130    4.0232
   35.160    4.3707
   35.190    4.3391
   35.220    4.4760
   35.250    4.1074
   35.280    4.5287
   35.310    4.5498
   35.340    4.6656
   35.370    4.4550
   35.400    4.5919
   35.430    4.1917
   35.460    4.0021
   35.490    4.3286
   35.520    4.1285
   35.550    4.0021
   35.580    4.2654
   35.610    4.0548
   35.640    4.2865
   35.670    4.2970
   35.700    4.4023
   35.730    3.9705
   35.760    4.4023
   35.790    4.3075
   35.820    4.2022
   35.850    4.2443
   35.880    4.3813
   35.910    3.8757
   35.940    4.4023
   35.970    4.4550
   36.000    3.9600
   36.030    4.2970
   36.060    4.1917
   36.090    4.4866
   36.120    3.9705
   36.150    4.0337
   36.180    4.2443
   36.210    4.3181
   36.240    4.1390
   36.270    4.4760
   36.300    4.3602
   36.330    3.8968
   36.360    4.1496
   36.390    4.2022
   36.420    4.1706
   36.450    4.2022
   36.480    4.0232
   36.510    4.4339
   36.540    4.3707
   36.570    4.2233
   36.600    4.4866
   36.630    4.5498
   36.660    4.1917
   36.690    4.5076
   36.720    4.6972
   36.750    4.4550
   36.780    3.7388
   36.810    4.2338
   36.840    4.0442
   36.870    3.9810
   36.900    3.9494
   36.930    4.1917
   36.960    4.0442
   36.990    4.2759
   37.020    4.2127
   37.050    4.1496
   37.080    4.2970
   37.110    4.3602
   37.140    4.2127
   37.170    4.0758
   37.200    4.1706
   37.230    4.2233
   37.260    4.3075
   37.290    3.6335
   37.320    3.9705
   37.350    4.0232
   37.380    4.1180
   37.410    4.1601
   37.440    4.1390
   37.470    4.0232
   37.500    4.1601
   37.530    4.2654
   37.560    4.3286
   37.590    3.9810
   37.620    4.2654
   37.650    4.0126
   37.680    4.2338
   37.710    3.9389
   37.740    3.8231
   37.770    4.2549
   37.800    4.3602
   37.830    4.1496
   37.860    4.3286
   37.890    4.0232
   37.920    4.0864
   37.950    4.1811
   37.980    4.3181
   38.010    4.1917
   38.040    4.0758
   38.070    4.2127
   38.100    3.6862
   38.130    3.9179
   38.160    3.9916
   38.190    3.9389
   38.220    4.1601
   38.250    3.9494
   38.280    3.8441
   38.310    4.1390
   38.340    3.9916
   38.370    4.2233
   38.400    3.8652
   38.430    3.9073
   38.460    4.2549
   38.490    3.9810
   38.520    4.0758
   38.550    4.3602
   38.580    4.3391
   38.610    4.0969
   38.640    4.1811
   38.670    4.2022
   38.700    4.1180
   38.730    4.2654
   38.760    3.8125
   38.790    4.2233
   38.820    4.0442
   38.850    4.1601
   38.880    4.2022
   38.910    4.2338
   38.940    3.9073
   38.970    3.9073
   39.000    3.7915
   39.030    3.9600
   39.060    4.1811
   39.090    3.9179
   39.120    4.0232
   39.150    4.2127
   39.180    4.0442
   39.210    3.9916
   39.240    3.9600
   39.270    3.9284
   39.300    4.1601
   39.330    4.1074
   39.360    3.7599
   39.390    4.0969
   39.420    4.2654
   39.450    3.8968
   39.480    3.8652
   39.510    3.9389
   39.540    4.1285
   39.570    4.0864
   39.600    3.8863
   39.630    4.2443
   39.660    4.0232
   39.690    3.9179
   39.720    4.1496
   39.750    3.7177
   39.780    4.2127
   39.810    3.8441
   39.840    3.9916
   39.870    3.9810
   39.900    4.0232
   39.930    3.9389
   39.960    3.9600
   39.990    4.0442