File: data/MOCOF-1/PXRD/PXRD_KE-164_Cu-Ka1_capillary-1mm_5s-deg.xyd
    1.500   59.6419
    1.530   59.1048
    1.560   57.2196
    1.590   54.3023
    1.620   51.6798
    1.650   48.2570
    1.680   46.8246
    1.710   43.5703
    1.740   43.1806
    1.770   41.0111
    1.800   39.2101
    1.830   36.6825
    1.860   35.0395
    1.890   34.1338
    1.920   33.3228
    1.950   30.8057
    1.980   30.2580
    2.010   29.4787
    2.040   28.3623
    2.070   27.7304
    2.100   25.4766
    2.130   25.7293
    2.160   23.8441
    2.190   23.0226
    2.220   22.4013
    2.250   21.3270
    2.280   20.3897
    2.310   19.9052
    2.340   19.6209
    2.370   18.2201
    2.400   18.7888
    2.430   17.4408
    2.460   17.8726
    2.490   16.1453
    2.520   15.8399
    2.550   15.2501
    2.580   14.7551
    2.610   14.4076
    2.640   14.2180
    2.670   13.7862
    2.700   13.3333
    2.730   12.2486
    2.760   12.9963
    2.790   12.4276
    2.820   12.1748
    2.850   11.2480
    2.880   11.3007
    2.910   11.5008
    2.940   10.5424
    2.970   11.1427
    3.000   10.7214
    3.030    9.9421
    3.060    9.9737
    3.090    9.5103
    3.120    9.6051
    3.150    9.3734
    3.180    9.7209
    3.210    8.6045
    3.240    8.8994
    3.270    8.6467
    3.300    8.4887
    3.330    8.4571
    3.360    8.8046
    3.390    7.5513
    3.420    7.8462
    3.450    7.9200
    3.480    7.7830
    3.510    7.8041
    3.540    7.2880
    3.570    7.8041
    3.600    7.4671
    3.630    7.3723
    3.660    6.8773
    3.690    7.4039
    3.720    6.9300
    3.750    6.8562
    3.780    6.7930
    3.810    6.6877
    3.840    6.7088
    3.870    6.6561
    3.900    6.6245
    3.930    6.2033
    3.960    6.2349
    3.990    6.4771
    4.020    5.9294
    4.050    6.1190
    4.080    6.1822
    4.110    5.8978
    4.140    6.1085
    4.170    5.7715
    4.200    5.8241
    4.230    6.1295
    4.260    6.2559
    4.290    5.8662
    4.320    5.9400
    4.350    5.7609
    4.380    5.7293
    4.410    5.7188
    4.440    5.8873
    4.470    5.5503
    4.500    5.2975
    4.530    5.5819
    4.560    5.3291
    4.590    5.5819
    4.620    5.5082
    4.650    5.7715
    4.680    5.7399
    4.710    5.2765
    4.740    5.0974
    4.770    5.6345
    4.800    5.5398
    4.830    5.5082
    4.860    5.4766
    4.890    5.2449
    4.920    5.3818
    4.950    5.2343
    4.980    5.3607
    5.010    5.2870
    5.040    5.0132
    5.070    5.4555
    5.100    4.9394
    5.130    5.3291
    5.160    4.8552
    5.190    5.2133
    5.220    4.8973
    5.250    4.8552
    5.280    5.0342
    5.310    5.0974
    5.340    5.0764
    5.370    5.1922
    5.400    4.9184
    5.430    4.9710
    5.460    4.8341
    5.490    5.0974
    5.520    4.8763
    5.550    4.7709
    5.580    5.0869
    5.610    5.2133
    5.640    4.9500
    5.670    5.2027
    5.700    4.9500
    5.730    4.6445
    5.760    5.2449
    5.790    4.9921
    5.820    4.6972
    5.850    5.0132
    5.880    4.9500
    5.910    4.7604
    5.940    4.6340
    5.970    5.0553
    6.000    4.8025
    6.030    4.9289
    6.060    4.9710
    6.090    4.8657
    6.120    4.7604
    6.150    4.9500
    6.180    4.6656
    6.210    4.6656
    6.240    4.8657
    6.270    4.7499
    6.300    4.5392
    6.330    5.2133
    6.360    4.4760
    6.390    4.6656
    6.420    4.9710
    6.450    5.0658
    6.480    4.6551
    6.510    4.7709
    6.540    4.8131
    6.570    4.8341
    6.600    4.6130
    6.630    5.1395
    6.660    4.6130
    6.690    4.7815
    6.720    4.6130
    6.750    4.7709
    6.780    4.6340
    6.810    4.5603
    6.840    4.7393
    6.870    4.5287
    6.900    4.7393
    6.930    4.8763
    6.960    4.7920
    6.990    4.8657
    7.020    4.9394
    7.050    4.8341
    7.080    4.6761
    7.110    5.0237
    7.140    4.6235
    7.170    4.4760
    7.200    4.7920
    7.230    4.6761
    7.260    4.6761
    7.290    4.5182
    7.320    4.5498
    7.350    4.7815
    7.380    5.2449
    7.410    4.5076
    7.440    4.6761
    7.470    4.8025
    7.500    4.6972
    7.530    4.9710
    7.560    4.5182
    7.590    4.6972
    7.620    4.7183
    7.650    4.7604
    7.680    4.8763
    7.710    4.5182
    7.740    4.9078
    7.770    4.8763
    7.800    4.7499
    7.830    4.5076
    7.860    4.7709
    7.890    4.4550
    7.920    4.7815
    7.950    4.7815
    7.980    4.8657
    8.010    4.3918
    8.040    4.7499
    8.070    5.1711
    8.100    4.9078
    8.130    5.3186
    8.160    4.9394
    8.190    4.8341
    8.220    4.8868
    8.250    4.8973
    8.280    4.8131
    8.310    4.5919
    8.340    4.4971
    8.370    4.9816
    8.400    4.9921
    8.430    4.7077
    8.460    4.5814
    8.490    4.9078
    8.520    5.2238
    8.550    4.8552
    8.580    4.7604
    8.610    4.9921
    8.640    4.8552
    8.670    4.7077
    8.700    4.9078
    8.730    4.7077
    8.760    4.8763
    8.790    4.6972
    8.820    4.8973
    8.850    4.7499
    8.880    4.7604
    8.910    4.9500
    8.940    4.8763
    8.970    5.0026
    9.000    5.0869
    9.030    4.7604
    9.060    4.9394
    9.090    4.9394
    9.120    4.6235
    9.150    4.8868
    9.180    4.9289
    9.210    4.8236
    9.240    5.0974
    9.270    5.0237
    9.300    5.1922
    9.330    4.8025
    9.360    5.1922
    9.390    5.1606
    9.420    4.8025
    9.450    4.9605
    9.480    4.7920
    9.510    5.1395
    9.540    5.0764
    9.570    5.1395
    9.600    4.9394
    9.630    5.0026
    9.660    5.0237
    9.690    5.0869
    9.720    4.9921
    9.750    4.9921
    9.780    5.0132
    9.810    5.1922
    9.840    4.9605
    9.870    5.1290
    9.900    4.8763
    9.930    5.0764
    9.960    5.3502
    9.990    5.0237
   10.020    5.1185
   10.050    5.1817
   10.080    4.6761
   10.110    4.9500
   10.140    4.8973
   10.170    5.5292
   10.200    5.4450
   10.230    4.9605
   10.260    5.0764
   10.290    5.2343
   10.320    4.9500
   10.350    5.2133
   10.380    5.0553
   10.410    5.0342
   10.440    5.0342
   10.470    4.8763
   10.500    5.1395
   10.530    5.2343
   10.560    4.8763
   10.590    4.8973
   10.620    4.7288
   10.650    5.2238
   10.680    4.9289
   10.710    5.3291
   10.740    5.1711
   10.770    5.1606
   10.800    4.9605
   10.830    5.1817
   10.860    5.2027
   10.890    5.1817
   10.920    4.6656
   10.950    4.7183
   10.980    4.9921
   11.010    4.6656
   11.040    4.7604
   11.070    5.2238
   11.100    4.9710
   11.130    5.1290
   11.160    4.8552
   11.190    5.2238
   11.220    4.9394
   11.250    4.7288
   11.280    4.7815
   11.310    5.0342
   11.340    4.8131
   11.370    4.5814
   11.400    5.1817
   11.430    4.9078
   11.460    5.1501
   11.490    4.8341
   11.520    4.5708
   11.550    4.8131
   11.580    4.7288
   11.610    4.6867
   11.640    5.0237
   11.670    4.5814
   11.700    4.6130
   11.730    4.7920
   11.760    4.6972
   11.790    4.7815
   11.820    4.8657
   11.850    4.5076
   11.880    4.4550
   11.910    4.5182
   11.940    4.9394
   11.970    4.9394
   12.000    4.6024
   12.030    4.9289
   12.060    4.5287
   12.090    4.7815
   12.120    4.7920
   12.150    4.4866
   12.180    4.6761
   12.210    4.2654
   12.240    5.0553
   12.270    4.6656
   12.300    4.3602
   12.330    4.7077
   12.360    4.5392
   12.390    4.3075
   12.420    4.4655
   12.450    4.4128
   12.480    4.6130
   12.510    4.2970
   12.540    4.3918
   12.570    4.6445
   12.600    4.3813
   12.630    4.5708
   12.660    4.3813
   12.690    4.4971
   12.720    4.5498
   12.750    4.2654
   12.780    4.5498
   12.810    4.2865
   12.840    4.3286
   12.870    4.5708
   12.900    4.4971
   12.930    4.4339
   12.960    4.4128
   12.990    4.3181
   13.020    4.6972
   13.050    4.4234
   13.080    4.6761
   13.110    4.4550
   13.140    4.5708
   13.170    4.3602
   13.200    4.1706
   13.230    4.1074
   13.260    4.4866
   13.290    4.4655
   13.320    4.2865
   13.350    4.5814
   13.380    4.3075
   13.410    4.2759
   13.440    4.3391
   13.470    4.5287
   13.500    4.4550
   13.530    4.3497
   13.560    4.0337
   13.590    4.2865
   13.620    4.4866
   13.650    4.5076
   13.680    4.2865
   13.710    4.4866
   13.740    4.0864
   13.770    4.3602
   13.800    4.2970
   13.830    4.1811
   13.860    4.1285
   13.890    4.1180
   13.920    4.3707
   13.950    3.9389
   13.980    4.0758
   14.010    4.4234
   14.040    4.0232
   14.070    4.3391
   14.100    4.2865
   14.130    4.0126
   14.160    4.2654
   14.190    4.3813
   14.220    4.3918
   14.250    4.4023
   14.280    4.4023
   14.310    4.2443
   14.340    4.0442
   14.370    4.1285
   14.400    4.3497
   14.430    4.1496
   14.460    4.4128
   14.490    4.1811
   14.520    4.1811
   14.550    4.3707
   14.580    4.3391
   14.610    4.2549
   14.640    4.4023
   14.670    4.2654
   14.700    4.4339
   14.730    3.8968
   14.760    4.2759
   14.790    4.3286
   14.820    4.3181
   14.850    4.3918
   14.880    4.2865
   14.910    4.1706
   14.940    4.3391
   14.970    4.1601
   15.000    4.3391
   15.030    4.2022
   15.060    4.6867
   15.090    4.2654
   15.120    4.2443
   15.150    4.5708
   15.180    4.1601
   15.210    4.4128
   15.240    4.5603
   15.270    3.9494
   15.300    4.2549
   15.330    4.1285
   15.360    4.3497
   15.390    4.4023
   15.420    4.1074
   15.450    4.1601
   15.480    4.4023
   15.510    4.2233
   15.540    4.2970
   15.570    4.4655
   15.600    4.4128
   15.630    4.3707
   15.660    4.3497
   15.690    4.1811
   15.720    4.5498
   15.750    4.3497
   15.780    4.3181
   15.810    3.9916
   15.840    4.1706
   15.870    4.2970
   15.900    4.5392
   15.930    4.2233
   15.960    4.2654
   15.990    4.1390
   16.020    4.0864
   16.050    4.1917
   16.080    4.2127
   16.110    4.3602
   16.140    4.3602
   16.170    4.3075
   16.200    4.3707
   16.230    4.0864
   16.260    4.0864
   16.290    4.3286
   16.320    4.0758
   16.350    4.5919
   16.380    4.2759
   16.410    4.4655
   16.440    4.2970
   16.470    4.0969
   16.500    4.2338
   16.530    4.4023
   16.560    4.4760
   16.590    4.2549
   16.620    4.2127
   16.650    4.3391
   16.680    4.3602
   16.710    3.8441
   16.740    4.5708
   16.770    4.5076
   16.800    4.5287
   16.830    3.9389
   16.860    4.2865
   16.890    4.3918
   16.920    4.3391
   16.950    4.1390
   16.980    4.2759
   17.010    4.2759
   17.040    4.3813
   17.070    4.4339
   17.100    4.3286
   17.130    4.2549
   17.160    4.3181
   17.190    4.2970
   17.220    4.0864
   17.250    4.2022
   17.280    4.2233
   17.310    4.0337
   17.340    4.1285
   17.370    4.2127
   17.400    4.2022
   17.430    4.1706
   17.460    4.2443
   17.490    4.1601
   17.520    4.5919
   17.550    3.8863
   17.580    4.3075
   17.610    4.3918
   17.640    4.1706
   17.670    4.3918
   17.700    4.0548
   17.730    4.3497
   17.760    4.3602
   17.790    4.3075
   17.820    4.1285
   17.850    4.4128
   17.880    4.1706
   17.910    4.3391
   17.940    4.2970
   17.970    4.2233
   18.000    4.3707
   18.030    4.2654
   18.060    4.2549
   18.090    4.1706
   18.120    4.1496
   18.150    4.2338
   18.180    4.2549
   18.210    4.1601
   18.240    4.1496
   18.270    4.3602
   18.300    4.3602
   18.330    4.2022
   18.360    4.3497
   18.390    4.1811
   18.420    4.1390
   18.450    4.2549
   18.480    4.2127
   18.510    3.9494
   18.540    4.3286
   18.570    4.1811
   18.600    4.3181
   18.630    3.8652
   18.660    4.2127
   18.690    4.2970
   18.720    4.4339
   18.750    4.3707
   18.780    4.4866
   18.810    4.2443
   18.840    4.3497
   18.870    4.2338
   18.900    4.1285
   18.930    4.3918
   18.960    4.5603
   18.990    4.1601
   19.020    4.2865
   19.050    4.3707
   19.080    4.1811
   19.110    4.4023
   19.140    4.2233
   19.170    4.3075
   19.200    4.4128
   19.230    4.1706
   19.260    4.3602
   19.290    4.1601
   19.320    4.4866
   19.350    4.3918
   19.380    4.3707
   19.410    4.2127
   19.440    4.1074
   19.470    4.1390
   19.500    4.1496
   19.530    4.0232
   19.560    4.4234
   19.590    4.2654
   19.620    4.4760
   19.650    4.8341
   19.680    4.4550
   19.710    4.3707
   19.740    4.2759
   19.770    4.1811
   19.800    4.5814
   19.830    4.5076
   19.860    4.2759
   19.890    4.4655
   19.920    4.3918
   19.950    4.3707
   19.980    4.4866
   20.010    4.2022
   20.040    4.2865
   20.070    4.2443
   20.100    4.3286
   20.130    4.7288
   20.160    4.2549
   20.190    4.4655
   20.220    4.4550
   20.250    4.3602
   20.280    4.1180
   20.310    4.1285
   20.340    4.1496
   20.370    4.3286
   20.400    4.3286
   20.430    4.4760
   20.460    4.3286
   20.490    4.0653
   20.520    4.5919
   20.550    4.3918
   20.580    4.3918
   20.610    4.0232
   20.640    4.5287
   20.670    4.3602
   20.700    4.4550
   20.730    4.5814
   20.760    4.1706
   20.790    4.4128
   20.820    4.5498
   20.850    4.3497
   20.880    4.5603
   20.910    4.4444
   20.940    4.5182
   20.970    4.6130
   21.000    4.4655
   21.030    4.3707
   21.060    4.2443
   21.090    4.4866
   21.120    4.5076
   21.150    4.3075
   21.180    4.3391
   21.210    4.2654
   21.240    4.2443
   21.270    4.3602
   21.300    4.3918
   21.330    4.3602
   21.360    4.2549
   21.390    4.6235
   21.420    4.7077
   21.450    4.6551
   21.480    4.3602
   21.510    4.4339
   21.540    4.4444
   21.570    4.3181
   21.600    4.1496
   21.630    4.6340
   21.660    4.3707
   21.690    4.6761
   21.720    4.2443
   21.750    4.4444
   21.780    4.4128
   21.810    4.3602
   21.840    4.4866
   21.870    4.2865
   21.900    4.0758
   21.930    4.4971
   21.960    4.4760
   21.990    4.5814
   22.020    4.3918
   22.050    4.2865
   22.080    4.1811
   22.110    4.2759
   22.140    4.0653
   22.170    4.5814
   22.200    4.0864
   22.230    4.2233
   22.260    4.4866
   22.290    4.5182
   22.320    4.1811
   22.350    4.6130
   22.380    4.0442
   22.410    4.3602
   22.440    4.4971
   22.470    4.4971
   22.500    4.7815
   22.530    4.4866
   22.560    4.4971
   22.590    4.2759
   22.620    4.2759
   22.650    4.2865
   22.680    4.5287
   22.710    4.2654
   22.740    4.2865
   22.770    4.1917
   22.800    4.2759
   22.830    4.4234
   22.860    4.4866
   22.890    4.2654
   22.920    4.2759
   22.950    4.4339
   22.980    4.5498
   23.010    4.4971
   23.040    4.4550
   23.070    4.3813
   23.100    4.7604
   23.130    4.4655
   23.160    4.1601
   23.190    4.5182
   23.220    4.5814
   23.250    4.6340
   23.280    4.2022
   23.310    4.2970
   23.340    4.3602
   23.370    4.0126
   23.400    4.2022
   23.430    4.2865
   23.460    4.5076
   23.490    4.4550
   23.520    4.4234
   23.550    4.4550
   23.580    3.9284
   23.610    4.4971
   23.640    4.2127
   23.670    4.0653
   23.700    4.5182
   23.730    4.2654
   23.760    4.2970
   23.790    4.3075
   23.820    4.1180
   23.850    4.5919
   23.880    4.2127
   23.910    4.4128
   23.940    4.2759
   23.970    4.3813
   24.000    4.7920
   24.030    4.1706
   24.060    4.4234
   24.090    4.0969
   24.120    4.5603
   24.150    4.6130
   24.180    4.2759
   24.210    4.0758
   24.240    4.3286
   24.270    4.2759
   24.300    4.1390
   24.330    4.3391
   24.360    4.3497
   24.390    4.2654
   24.420    4.2233
   24.450    4.4866
   24.480    4.2970
   24.510    4.2759
   24.540    4.3391
   24.570    4.0548
   24.600    4.1390
   24.630    4.2443
   24.660    4.2443
   24.690    4.0969
   24.720    4.1917
   24.750    4.3181
   24.780    4.1706
   24.810    4.1811
   24.840    4.0337
   24.870    4.2549
   24.900    4.0126
   24.930    4.4866
   24.960    4.2759
   24.990    3.7072
   25.020    4.2549
   25.050    4.4760
   25.080    3.8441
   25.110    4.4234
   25.140    4.3918
   25.170    4.1706
   25.200    4.1074
   25.230    4.3075
   25.260    4.0758
   25.290    3.7704
   25.320    4.2865
   25.350    4.1390
   25.380    4.2338
   25.410    4.4023
   25.440    4.3286
   25.470    4.0864
   25.500    4.1917
   25.530    3.9179
   25.560    4.3075
   25.590    4.1811
   25.620    4.1496
   25.650    4.2970
   25.680    4.0864
   25.710    4.1285
   25.740    4.1285
   25.770    4.4550
   25.800    3.7809
   25.830    4.2233
   25.860    4.1390
   25.890    3.8336
   25.920    3.8863
   25.950    3.6862
   25.980    3.9600
   26.010    4.5392
   26.040    3.9494
   26.070    3.9284
   26.100    3.9705
   26.130    4.1074
   26.160    4.1074
   26.190    4.1390
   26.220    4.2970
   26.250    4.3602
   26.280    3.9389
   26.310    4.0442
   26.340    3.9810
   26.370    4.0969
   26.400    4.0126
   26.430    4.0337
   26.460    3.9389
   26.490    4.0232
   26.520    4.0442
   26.550    4.0337
   26.580    4.0758
   26.610    3.9284
   26.640    4.0969
   26.670    4.3181
   26.700    3.6967
   26.730    4.0442
   26.760    3.9284
   26.790    4.0126
   26.820    3.8652
   26.850    3.8547
   26.880    3.9916
   26.910    4.2233
   26.940    3.9179
   26.970    4.2865
   27.000    3.8125
   27.030    3.8125
   27.060    3.5808
   27.090    3.8441
   27.120    4.1601
   27.150    3.9494
   27.180    3.7283
   27.210    3.7809
   27.240    3.7493
   27.270    4.1390
   27.300    3.6967
   27.330    4.0969
   27.360    3.8125
   27.390    3.8757
   27.420    3.9494
   27.450    4.0021
   27.480    3.6440
   27.510    4.3918
   27.540    3.5914
   27.570    3.8547
   27.600    3.7915
   27.630    3.8125
   27.660    3.8863
   27.690    3.8547
   27.720    4.2127
   27.750    3.7809
   27.780    3.7809
   27.810    3.8863
   27.840    3.8863
   27.870    3.7704
   27.900    3.5598
   27.930    3.6967
   27.960    3.9073
   27.990    3.9179
   28.020    3.8652
   28.050    3.8231
   28.080    3.5808
   28.110    3.7599
   28.140    4.0126
   28.170    3.8231
   28.200    3.8547
   28.230    4.0758
   28.260    3.6440
   28.290    3.7072
   28.320    3.9179
   28.350    3.7072
   28.380    3.7072
   28.410    3.7599
   28.440    4.1074
   28.470    3.7599
   28.500    3.6335
   28.530    3.8336
   28.560    3.7283
   28.590    3.7283
   28.620    3.4860
   28.650    4.0864
   28.680    3.7599
   28.710    3.8020
   28.740    3.7809
   28.770    3.9705
   28.800    3.7704
   28.830    3.4966
   28.860    3.7493
   28.890    3.6862
   28.920    3.7283
   28.950    3.6862
   28.980    4.0653
   29.010    4.0864
   29.040    3.7599
   29.070    3.7072
   29.100    3.6967
   29.130    3.4334
   29.160    3.7493
   29.190    3.5387
   29.220    3.8125
   29.250    3.6651
   29.280    4.0232
   29.310    3.4755
   29.340    3.7599
   29.370    3.4334
   29.400    3.6756
   29.430    3.6756
   29.460    3.7493
   29.490    3.8125
   29.520    3.4439
   29.550    3.6546
   29.580    3.4229
   29.610    3.7599
   29.640    3.6546
   29.670    3.4439
   29.700    3.5914
   29.730    3.6230
   29.760    3.4966
   29.790    3.4966
   29.820    3.6440
   29.850    3.6230
   29.880    3.5071
   29.910    3.5176
   29.940    3.5598
   29.970    3.5176
   30.000    3.5914
   30.030    3.5598
   30.060    3.5914
   30.090    3.5176
   30.120    3.4755
   30.150    3.5387
   30.180    3.5598
   30.210    3.5282
   30.240    3.2333
   30.270    3.7915
   30.300    3.6335
   30.330    3.6862
   30.360    3.6019
   30.390    3.6019
   30.420    3.4966
   30.450    3.5071
   30.480    3.5071
   30.510    3.5071
   30.540    3.4018
   30.570    3.3070
   30.600    3.0542
   30.630    3.5492
   30.660    3.4860
   30.690    3.3491
   30.720    3.4650
   30.750    3.5387
   30.780    3.6019
   30.810    3.2122
   30.840    3.6756
   30.870    3.4755
   30.900    3.4650
   30.930    3.3386
   30.960    3.5387
   30.990    3.4860
   31.020    3.5492
   31.050    3.3702
   31.080    3.4018
   31.110    3.2965
   31.140    3.3281
   31.170    3.4229
   31.200    3.5282
   31.230    3.5282
   31.260    3.5492
   31.290    3.6967
   31.320    3.7283
   31.350    3.3386
   31.380    3.4650
   31.410    3.2438
   31.440    3.3702
   31.470    3.4860
   31.500    3.4650
   31.530    3.4860
   31.560    3.4123
   31.590    3.4018
   31.620    3.4966
   31.650    3.4544
   31.680    3.7072
   31.710    3.5071
   31.740    3.3175
   31.770    3.4860
   31.800    3.4123
   31.830    3.4544
   31.860    3.5808
   31.890    3.3702
   31.920    3.6230
   31.950    3.5282
   31.980    3.8441
   32.010    3.6967
   32.040    3.5282
   32.070    3.5071
   32.100    3.4966
   32.130    3.5071
   32.160    3.1806
   32.190    3.7072
   32.220    3.5914
   32.250    3.4860
   32.280    3.5282
   32.310    3.3913
   32.340    3.5703
   32.370    3.3597
   32.400    3.2754
   32.430    3.2227
   32.460    3.2859
   32.490    3.3070
   32.520    3.2438
   32.550    3.0858
   32.580    3.3175
   32.610    3.3597
   32.640    3.4650
   32.670    3.4966
   32.700    2.9910
   32.730    3.7283
   32.760    3.3386
   32.790    3.1385
   32.820    3.1280
   32.850    3.3386
   32.880    3.2017
   32.910    3.4650
   32.940    3.3807
   32.970    3.3175
   33.000    3.0753
   33.030    3.4334
   33.060    3.0753
   33.090    3.0648
   33.120    2.9489
   33.150    3.3491
   33.180    3.3913
   33.210    3.0226
   33.240    3.1069
   33.270    3.3913
   33.300    3.1174
   33.330    3.2543
   33.360    3.2754
   33.390    3.2754
   33.420    3.0542
   33.450    2.9173
   33.480    3.2859
   33.510    3.1596
   33.540    3.0332
   33.570    3.0226
   33.600    3.0542
   33.630    3.1174
   33.660    3.0648
   33.690    3.0542
   33.720    2.9068
   33.750    2.9384
   33.780    3.4334
   33.810    3.1806
   33.840    2.9384
   33.870    2.9384
   33.900    3.1069
   33.930    3.1069
   33.960    2.9595
   33.990    3.0858
   34.020    3.2122
   34.050    2.9910
   34.080    3.0964
   34.110    2.9489
   34.140    2.9384
   34.170    2.9068
   34.200    3.2122
   34.230    3.1385
   34.260    3.0332
   34.290    2.9384
   34.320    3.0964
   34.350    2.8015
   34.380    2.9068
   34.410    2.8015
   34.440    3.0121
   34.470    3.1912
   34.500    2.7593
   34.530    3.2122
   34.560    2.7278
   34.590    2.8647
   34.620    2.7488
   34.650    2.8647
   34.680    2.8331
   34.710    3.0437
   34.740    3.0858
   34.770    3.1490
   34.800    2.8647
   34.830    2.7699
   34.860    3.0753
   34.890    2.7593
   34.920    3.1280
   34.950    3.0016
   34.980    3.1069
   35.010    2.8225
   35.040    3.0226
   35.070    3.2227
   35.100    2.9489
   35.130    3.0753
   35.160    2.9173
   35.190    2.8752
   35.220    2.9805
   35.250    3.0332
   35.280    2.8436
   35.310    2.9910
   35.340    2.8120
   35.370    2.8225
   35.400    2.8120
   35.430    2.7909
   35.460    2.8541
   35.490    2.9279
   35.520    2.9068
   35.550    2.9910
   35.580    2.6014
   35.610    2.8015
   35.640    2.7804
   35.670    2.7593
   35.700    3.1174
   35.730    3.0542
   35.760    3.0858
   35.790    2.6962
   35.820    3.0332
   35.850    2.5908
   35.880    3.0964
   35.910    2.8541
   35.940    2.9595
   35.970    2.7909
   36.000    2.9173
   36.030    3.0437
   36.060    2.7699
   36.090    2.5698
   36.120    2.7278
   36.150    2.9279
   36.180    2.9068
   36.210    2.8963
   36.240    2.5803
   36.270    3.1701
   36.300    2.7699
   36.330    2.7804
   36.360    2.7488
   36.390    2.8331
   36.420    2.8120
   36.450    2.8015
   36.480    2.7383
   36.510    2.8647
   36.540    2.7383
   36.570    2.4645
   36.600    2.7804
   36.630    2.6224
   36.660    2.7488
   36.690    2.6751
   36.720    2.8120
   36.750    2.9910
   36.780    2.9384
   36.810    2.9279
   36.840    2.6646
   36.870    2.6119
   36.900    2.6751
   36.930    2.7383
   36.960    2.8857
   36.990    2.6962
   37.020    2.6014
   37.050    2.9805
   37.080    2.5592
   37.110    2.7488
   37.140    2.7172
   37.170    2.8436
   37.200    2.8120
   37.230    2.8225
   37.260    2.6330
   37.290    2.5803
   37.320    2.7172
   37.350    2.7909
   37.380    2.4118
   37.410    2.8225
   37.440    2.5698
   37.470    2.7383
   37.500    2.5171
   37.530    2.6751
   37.560    2.7593
   37.590    2.8963
   37.620    2.8225
   37.650    2.6014
   37.680    2.8331
   37.710    2.4118
   37.740    2.6224
   37.770    2.6962
   37.800    2.7593
   37.830    3.0964
   37.860    2.5698
   37.890    2.6119
   37.920    2.8647
   37.950    2.5382
   37.980    3.0121
   38.010    2.4645
   38.040    2.6540
   38.070    2.4855
   38.100    2.6751
   38.130    2.7383
   38.160    2.7172
   38.190    2.4855
   38.220    2.7172
   38.250    2.6119
   38.280    2.4750
   38.310    2.6856
   38.340    2.7488
   38.370    2.6014
   38.400    2.4750
   38.430    2.8541
   38.460    2.7699
   38.490    2.8331
   38.520    2.6330
   38.550    2.7699
   38.580    2.5382
   38.610    2.7593
   38.640    2.6540
   38.670    2.4961
   38.700    2.3275
   38.730    2.6224
   38.760    2.7067
   38.790    2.6751
   38.820    2.8225
   38.850    2.6751
   38.880    2.5908
   38.910    2.6962
   38.940    2.8015
   38.970    2.7383
   39.000    2.8541
   39.030    2.4855
   39.060    2.4855
   39.090    2.7383
   39.120    2.5066
   39.150    2.4961
   39.180    2.8752
   39.210    2.6014
   39.240    2.4961
   39.270    2.7383
   39.300    2.9068
   39.330    2.8015
   39.360    2.7488
   39.390    2.5487
   39.420    2.5803
   39.450    2.8120
   39.480    2.7383
   39.510    2.8225
   39.540    2.7172
   39.570    2.3697
   39.600    2.7278
   39.630    2.6962
   39.660    2.7909
   39.690    2.5803
   39.720    2.6856
   39.750    2.8541
   39.780    2.6014
   39.810    2.6119
   39.840    2.6962
   39.870    2.9489
   39.900    2.5487
   39.930    2.7383
   39.960    2.5171
   39.990    2.7383