File: data/MOCOF-1/PXRD/PXRD_KE-133_Cu-Ka1_capillary-1mm_5s-deg.xyd
    1.500   16.7667
    1.530   16.5456
    1.560   16.5666
    1.590   15.9031
    1.620   16.1980
    1.650   14.9447
    1.680   15.1975
    1.710   15.5556
    1.740   14.8394
    1.770   14.5972
    1.800   14.3971
    1.830   13.9231
    1.860   14.1443
    1.890   13.6598
    1.920   13.7335
    1.950   12.5540
    1.980   12.8383
    2.010   12.5856
    2.040   12.2064
    2.070   11.9221
    2.100   11.7746
    2.130   11.4376
    2.160   11.1638
    2.190   11.3533
    2.220   10.8689
    2.250   10.8899
    2.280   10.3739
    2.310   10.5108
    2.340   10.4371
    2.370    9.8999
    2.400   10.0790
    2.430    9.9210
    2.460    9.6051
    2.490    9.3207
    2.520    9.4576
    2.550    9.4681
    2.580    8.9626
    2.610    8.8994
    2.640    8.5729
    2.670    8.8468
    2.700    8.6256
    2.730    8.2780
    2.760    8.4360
    2.790    8.1095
    2.820    7.8673
    2.850    8.1306
    2.880    7.8357
    2.910    7.9831
    2.940    7.6672
    2.970    7.4776
    3.000    7.4250
    3.030    7.3302
    3.060    7.0458
    3.090    7.1511
    3.120    7.2565
    3.150    7.0353
    3.180    6.8668
    3.210    7.3302
    3.240    7.0353
    3.270    6.4982
    3.300    6.5403
    3.330    6.7720
    3.360    6.3928
    3.390    6.3507
    3.420    6.2981
    3.450    6.4666
    3.480    6.5929
    3.510    6.8878
    3.540    6.1401
    3.570    6.2981
    3.600    5.8557
    3.630    6.0137
    3.660    5.9716
    3.690    6.1927
    3.720    6.0453
    3.750    5.8557
    3.780    6.0558
    3.810    5.9821
    3.840    5.7188
    3.870    6.2243
    3.900    5.9610
    3.930    5.5187
    3.960    5.5714
    3.990    5.6556
    4.020    6.0769
    4.050    5.2449
    4.080    6.1401
    4.110    5.4660
    4.140    5.7188
    4.170    5.0237
    4.200    5.9189
    4.230    5.9926
    4.260    5.6029
    4.290    5.6029
    4.320    5.7715
    4.350    5.5398
    4.380    5.5819
    4.410    5.2554
    4.440    5.4028
    4.470    5.2659
    4.500    5.0974
    4.530    5.2343
    4.560    5.0342
    4.590    5.4555
    4.620    5.5292
    4.650    5.1817
    4.680    5.2449
    4.710    5.3397
    4.740    5.4134
    4.770    5.0132
    4.800    5.1606
    4.830    5.7293
    4.860    5.1501
    4.890    5.2659
    4.920    5.0237
    4.950    5.0026
    4.980    4.9289
    5.010    5.1711
    5.040    5.0974
    5.070    5.0026
    5.100    4.9394
    5.130    4.9289
    5.160    5.2659
    5.190    4.8131
    5.220    4.6867
    5.250    4.7920
    5.280    4.9078
    5.310    4.7288
    5.340    4.4866
    5.370    4.6761
    5.400    4.4971
    5.430    4.8447
    5.460    4.7077
    5.490    4.7393
    5.520    4.3918
    5.550    5.0132
    5.580    4.9394
    5.610    5.1817
    5.640    4.6130
    5.670    4.8552
    5.700    4.8131
    5.730    4.7077
    5.760    4.4760
    5.790    4.6867
    5.820    4.6867
    5.850    4.4655
    5.880    4.6867
    5.910    4.7393
    5.940    4.5182
    5.970    4.5814
    6.000    4.6972
    6.030    4.5814
    6.060    4.5498
    6.090    4.5708
    6.120    4.8131
    6.150    4.3918
    6.180    4.3286
    6.210    4.4023
    6.240    4.6761
    6.270    4.4760
    6.300    4.5708
    6.330    4.5182
    6.360    4.1811
    6.390    4.9921
    6.420    4.2443
    6.450    4.8341
    6.480    4.3181
    6.510    4.2338
    6.540    4.3707
    6.570    4.2654
    6.600    4.3707
    6.630    4.5182
    6.660    4.4023
    6.690    4.6551
    6.720    4.3391
    6.750    4.5498
    6.780    4.4971
    6.810    4.6761
    6.840    4.7499
    6.870    4.3181
    6.900    4.5603
    6.930    4.5708
    6.960    4.2549
    6.990    4.5814
    7.020    4.7499
    7.050    4.7499
    7.080    4.7499
    7.110    4.8657
    7.140    4.2443
    7.170    4.4444
    7.200    4.7709
    7.230    4.4655
    7.260    4.5603
    7.290    4.7709
    7.320    4.7077
    7.350    4.4655
    7.380    4.7815
    7.410    4.1496
    7.440    4.4866
    7.470    4.4339
    7.500    4.6340
    7.530    4.6235
    7.560    4.5919
    7.590    4.3813
    7.620    4.4760
    7.650    4.6972
    7.680    4.4971
    7.710    4.6130
    7.740    4.5287
    7.770    4.4339
    7.800    4.2549
    7.830    4.5603
    7.860    4.6235
    7.890    4.5603
    7.920    4.6761
    7.950    4.4655
    7.980    4.2549
    8.010    4.5287
    8.040    4.5182
    8.070    4.2759
    8.100    4.5814
    8.130    4.3391
    8.160    4.7077
    8.190    4.6551
    8.220    4.6340
    8.250    4.6551
    8.280    4.8025
    8.310    4.5814
    8.340    4.7077
    8.370    4.5919
    8.400    4.3286
    8.430    4.4339
    8.460    4.2338
    8.490    4.4023
    8.520    4.7288
    8.550    4.7288
    8.580    4.3497
    8.610    4.4128
    8.640    4.7920
    8.670    4.1496
    8.700    4.4655
    8.730    4.5392
    8.760    4.5919
    8.790    4.4128
    8.820    4.4339
    8.850    4.5076
    8.880    4.4234
    8.910    4.1811
    8.940    4.1706
    8.970    4.2127
    9.000    4.2865
    9.030    4.1706
    9.060    4.4128
    9.090    4.3075
    9.120    4.8763
    9.150    4.5392
    9.180    4.0653
    9.210    4.2127
    9.240    4.5287
    9.270    4.4128
    9.300    4.3391
    9.330    4.1601
    9.360    4.1601
    9.390    4.4550
    9.420    4.0337
    9.450    4.2759
    9.480    4.2127
    9.510    4.1917
    9.540    4.4655
    9.570    4.0864
    9.600    4.7077
    9.630    4.3918
    9.660    4.4234
    9.690    4.2759
    9.720    4.3497
    9.750    3.9916
    9.780    4.5814
    9.810    4.2654
    9.840    4.1496
    9.870    4.1285
    9.900    4.0864
    9.930    4.2233
    9.960    4.2233
    9.990    4.0864
   10.020    3.9705
   10.050    4.2865
   10.080    4.1390
   10.110    4.3707
   10.140    4.3075
   10.170    4.2127
   10.200    4.3181
   10.230    4.3286
   10.260    4.0232
   10.290    4.1917
   10.320    4.2865
   10.350    4.2970
   10.380    4.4234
   10.410    3.9600
   10.440    4.0758
   10.470    3.9284
   10.500    4.4234
   10.530    4.1074
   10.560    3.6756
   10.590    4.0232
   10.620    4.0969
   10.650    4.1180
   10.680    4.1706
   10.710    4.2127
   10.740    3.9494
   10.770    4.3918
   10.800    4.1496
   10.830    4.0864
   10.860    4.0021
   10.890    4.2233
   10.920    3.7915
   10.950    4.1601
   10.980    4.1180
   11.010    3.9916
   11.040    4.0232
   11.070    3.9284
   11.100    4.0548
   11.130    4.0021
   11.160    4.3075
   11.190    4.0442
   11.220    4.1811
   11.250    4.1180
   11.280    4.2654
   11.310    4.1180
   11.340    4.1496
   11.370    4.1390
   11.400    3.8336
   11.430    4.2233
   11.460    4.1074
   11.490    4.1811
   11.520    3.6862
   11.550    3.8652
   11.580    4.1601
   11.610    3.9073
   11.640    3.8863
   11.670    4.0126
   11.700    3.6651
   11.730    4.0337
   11.760    4.1180
   11.790    3.9284
   11.820    4.1285
   11.850    3.8441
   11.880    4.2127
   11.910    3.8547
   11.940    4.3075
   11.970    4.0442
   12.000    3.8547
   12.030    3.8020
   12.060    3.8125
   12.090    3.9600
   12.120    3.9179
   12.150    3.8757
   12.180    3.8020
   12.210    3.4439
   12.240    3.8125
   12.270    3.9389
   12.300    3.9600
   12.330    3.8863
   12.360    3.8336
   12.390    4.2759
   12.420    3.8231
   12.450    4.0126
   12.480    4.0126
   12.510    3.9916
   12.540    3.5808
   12.570    3.6651
   12.600    4.0864
   12.630    3.9916
   12.660    3.6756
   12.690    4.0442
   12.720    4.0442
   12.750    3.6019
   12.780    3.9810
   12.810    3.6546
   12.840    3.9705
   12.870    4.3075
   12.900    3.7388
   12.930    4.0021
   12.960    4.0548
   12.990    3.8125
   13.020    3.9389
   13.050    4.0337
   13.080    3.5492
   13.110    3.9073
   13.140    3.8652
   13.170    3.5492
   13.200    3.7072
   13.230    3.9494
   13.260    4.0442
   13.290    3.6967
   13.320    3.8125
   13.350    3.8863
   13.380    3.6019
   13.410    4.0442
   13.440    3.7599
   13.470    4.0232
   13.500    3.9073
   13.530    3.6230
   13.560    4.0758
   13.590    3.8231
   13.620    3.7283
   13.650    3.8336
   13.680    4.2022
   13.710    3.9916
   13.740    3.9705
   13.770    4.0758
   13.800    3.9600
   13.830    3.6440
   13.860    3.6967
   13.890    3.9179
   13.920    4.0442
   13.950    3.7493
   13.980    3.9810
   14.010    3.7599
   14.040    3.9600
   14.070    3.7599
   14.100    3.8863
   14.130    3.7072
   14.160    3.5176
   14.190    3.6967
   14.220    3.9705
   14.250    4.1706
   14.280    4.1390
   14.310    3.9389
   14.340    3.7704
   14.370    3.8441
   14.400    4.1601
   14.430    3.9179
   14.460    3.6546
   14.490    4.0232
   14.520    4.0442
   14.550    3.8968
   14.580    3.8968
   14.610    3.9284
   14.640    3.6651
   14.670    3.9810
   14.700    3.7915
   14.730    4.0126
   14.760    3.6967
   14.790    4.0969
   14.820    3.7915
   14.850    3.7493
   14.880    3.9179
   14.910    4.0653
   14.940    3.8441
   14.970    3.8863
   15.000    3.9705
   15.030    4.0653
   15.060    4.0232
   15.090    4.1811
   15.120    3.9284
   15.150    3.8652
   15.180    3.7388
   15.210    4.0548
   15.240    4.0653
   15.270    4.1390
   15.300    3.8020
   15.330    3.9810
   15.360    3.9179
   15.390    4.1180
   15.420    3.8547
   15.450    4.2443
   15.480    3.9494
   15.510    3.7072
   15.540    4.0232
   15.570    3.7809
   15.600    3.8968
   15.630    3.9179
   15.660    3.8336
   15.690    4.0758
   15.720    3.7283
   15.750    3.6124
   15.780    3.7704
   15.810    4.1811
   15.840    3.9073
   15.870    3.7283
   15.900    3.8441
   15.930    3.8652
   15.960    3.5914
   15.990    4.0653
   16.020    3.8231
   16.050    3.7177
   16.080    4.0232
   16.110    3.8020
   16.140    3.7388
   16.170    3.9810
   16.200    3.9705
   16.230    3.8231
   16.260    4.0337
   16.290    4.2549
   16.320    4.0548
   16.350    3.9705
   16.380    3.9705
   16.410    4.2233
   16.440    3.8125
   16.470    4.2127
   16.500    4.0021
   16.530    3.9179
   16.560    4.1074
   16.590    4.0969
   16.620    3.8863
   16.650    3.8757
   16.680    3.9284
   16.710    3.9073
   16.740    3.8863
   16.770    3.9810
   16.800    4.0548
   16.830    3.7177
   16.860    3.9916
   16.890    4.1706
   16.920    4.0653
   16.950    4.3497
   16.980    4.2759
   17.010    4.0548
   17.040    4.1074
   17.070    4.0442
   17.100    4.0548
   17.130    4.1706
   17.160    3.9600
   17.190    4.1917
   17.220    3.8757
   17.250    4.0021
   17.280    4.0969
   17.310    4.0864
   17.340    4.2443
   17.370    4.0126
   17.400    3.7493
   17.430    4.0548
   17.460    4.3075
   17.490    4.1390
   17.520    4.0653
   17.550    3.9705
   17.580    3.9494
   17.610    3.9284
   17.640    4.1917
   17.670    3.9600
   17.700    4.1285
   17.730    4.0021
   17.760    4.2233
   17.790    4.3602
   17.820    4.2022
   17.850    4.1074
   17.880    4.2443
   17.910    4.0442
   17.940    4.1180
   17.970    3.9389
   18.000    4.2022
   18.030    4.3286
   18.060    4.4971
   18.090    4.5814
   18.120    4.2338
   18.150    4.0126
   18.180    4.4234
   18.210    3.6967
   18.240    4.1390
   18.270    4.1285
   18.300    4.5919
   18.330    4.0864
   18.360    4.0653
   18.390    4.2022
   18.420    4.0337
   18.450    4.2233
   18.480    4.1706
   18.510    4.2865
   18.540    3.9389
   18.570    4.1496
   18.600    3.7915
   18.630    4.2549
   18.660    4.1917
   18.690    4.1917
   18.720    4.1390
   18.750    4.0653
   18.780    3.8336
   18.810    4.2338
   18.840    4.0864
   18.870    4.2759
   18.900    4.2127
   18.930    4.2338
   18.960    4.4128
   18.990    4.2865
   19.020    4.3707
   19.050    4.4234
   19.080    4.0864
   19.110    4.0864
   19.140    4.4444
   19.170    4.0337
   19.200    4.1390
   19.230    4.2338
   19.260    4.3075
   19.290    4.4655
   19.320    4.5708
   19.350    4.5182
   19.380    4.1917
   19.410    4.4655
   19.440    4.4128
   19.470    3.9916
   19.500    4.2549
   19.530    4.4023
   19.560    4.1601
   19.590    4.1180
   19.620    4.3497
   19.650    4.3813
   19.680    4.4971
   19.710    3.8968
   19.740    4.2233
   19.770    4.5392
   19.800    4.4128
   19.830    4.2970
   19.860    4.2233
   19.890    4.1811
   19.920    4.3286
   19.950    4.3707
   19.980    4.0864
   20.010    4.2233
   20.040    4.4866
   20.070    3.9073
   20.100    4.4655
   20.130    4.2233
   20.160    4.2022
   20.190    4.1074
   20.220    4.0969
   20.250    4.4128
   20.280    4.3181
   20.310    4.2022
   20.340    4.5076
   20.370    4.2970
   20.400    4.1917
   20.430    4.2549
   20.460    4.0864
   20.490    4.2865
   20.520    4.2127
   20.550    4.3707
   20.580    4.2654
   20.610    4.2127
   20.640    4.4866
   20.670    4.4971
   20.700    4.0442
   20.730    4.0758
   20.760    4.4971
   20.790    4.1811
   20.820    4.3391
   20.850    3.9073
   20.880    4.5603
   20.910    4.1390
   20.940    4.2549
   20.970    4.5392
   21.000    4.1917
   21.030    4.1917
   21.060    4.5814
   21.090    4.4971
   21.120    4.4339
   21.150    4.2865
   21.180    4.1180
   21.210    4.2022
   21.240    4.4866
   21.270    4.6972
   21.300    4.2233
   21.330    4.3075
   21.360    4.1180
   21.390    4.2022
   21.420    4.3602
   21.450    4.2338
   21.480    4.4128
   21.510    4.3497
   21.540    3.9810
   21.570    4.6235
   21.600    4.1917
   21.630    4.0021
   21.660    4.4023
   21.690    4.2233
   21.720    4.4550
   21.750    3.9916
   21.780    4.1601
   21.810    4.2127
   21.840    4.5392
   21.870    4.3181
   21.900    4.3602
   21.930    4.2022
   21.960    4.2338
   21.990    4.3707
   22.020    4.2654
   22.050    4.6235
   22.080    4.1706
   22.110    4.6972
   22.140    4.6024
   22.170    4.2022
   22.200    4.2022
   22.230    4.3707
   22.260    4.2443
   22.290    4.3602
   22.320    4.3918
   22.350    4.3497
   22.380    4.3918
   22.410    4.4128
   22.440    4.4234
   22.470    4.1496
   22.500    4.5814
   22.530    4.2338
   22.560    4.1285
   22.590    4.4760
   22.620    4.5287
   22.650    4.4023
   22.680    4.1706
   22.710    4.2970
   22.740    4.0442
   22.770    4.2654
   22.800    4.3497
   22.830    3.9179
   22.860    4.0126
   22.890    3.8231
   22.920    4.0864
   22.950    4.3286
   22.980    4.4760
   23.010    3.9916
   23.040    4.2654
   23.070    4.3497
   23.100    4.2759
   23.130    4.0653
   23.160    4.2654
   23.190    4.3497
   23.220    4.2549
   23.250    4.2233
   23.280    4.3391
   23.310    4.0548
   23.340    4.3813
   23.370    3.8336
   23.400    4.4234
   23.430    3.9073
   23.460    4.1285
   23.490    4.0864
   23.520    4.3075
   23.550    3.9284
   23.580    3.9705
   23.610    4.4550
   23.640    3.9810
   23.670    4.0232
   23.700    3.9810
   23.730    3.9916
   23.760    4.3918
   23.790    4.2654
   23.820    3.9494
   23.850    4.0232
   23.880    4.2970
   23.910    4.1180
   23.940    4.2549
   23.970    4.1496
   24.000    3.8863
   24.030    3.9179
   24.060    4.1496
   24.090    4.2443
   24.120    4.0126
   24.150    4.2233
   24.180    4.0442
   24.210    4.2443
   24.240    4.1074
   24.270    4.1180
   24.300    4.0337
   24.330    3.9494
   24.360    4.0653
   24.390    4.0548
   24.420    4.1285
   24.450    4.1285
   24.480    3.9494
   24.510    4.0442
   24.540    3.8125
   24.570    3.9705
   24.600    3.7809
   24.630    3.7283
   24.660    3.9179
   24.690    3.6546
   24.720    3.8863
   24.750    3.8441
   24.780    3.8441
   24.810    3.7599
   24.840    3.6967
   24.870    4.0232
   24.900    3.9284
   24.930    3.8336
   24.960    3.8020
   24.990    3.8757
   25.020    4.1180
   25.050    3.7283
   25.080    3.8336
   25.110    3.6546
   25.140    3.6440
   25.170    4.0548
   25.200    4.1917
   25.230    3.4123
   25.260    3.8968
   25.290    3.9389
   25.320    3.8125
   25.350    3.7599
   25.380    4.0864
   25.410    3.7493
   25.440    3.9389
   25.470    3.7388
   25.500    3.7915
   25.530    3.6967
   25.560    3.8231
   25.590    3.9179
   25.620    3.6967
   25.650    4.1706
   25.680    3.8125
   25.710    3.8231
   25.740    3.8547
   25.770    3.5808
   25.800    3.6967
   25.830    3.6756
   25.860    3.8125
   25.890    4.0126
   25.920    3.9179
   25.950    3.5492
   25.980    3.7599
   26.010    3.9389
   26.040    3.7283
   26.070    3.4439
   26.100    3.5387
   26.130    3.7809
   26.160    3.8231
   26.190    4.0126
   26.220    3.7493
   26.250    3.7283
   26.280    3.6546
   26.310    3.8757
   26.340    3.9494
   26.370    3.6862
   26.400    3.8441
   26.430    3.9600
   26.460    3.6756
   26.490    3.4123
   26.520    3.7177
   26.550    3.8441
   26.580    3.6651
   26.610    3.6124
   26.640    3.5492
   26.670    3.5176
   26.700    3.6440
   26.730    3.7177
   26.760    3.5176
   26.790    3.5598
   26.820    3.8020
   26.850    3.5071
   26.880    3.5914
   26.910    3.6335
   26.940    3.4334
   26.970    3.4544
   27.000    3.2965
   27.030    3.5282
   27.060    3.8336
   27.090    3.7177
   27.120    3.7915
   27.150    3.6546
   27.180    3.6230
   27.210    3.8020
   27.240    3.7915
   27.270    3.5914
   27.300    3.8441
   27.330    3.4439
   27.360    3.4860
   27.390    3.6440
   27.420    3.2965
   27.450    3.3913
   27.480    3.3913
   27.510    3.4650
   27.540    3.6335
   27.570    3.5071
   27.600    3.4018
   27.630    3.2122
   27.660    3.3913
   27.690    3.5598
   27.720    3.8231
   27.750    3.3386
   27.780    3.6440
   27.810    3.3386
   27.840    3.0753
   27.870    3.1596
   27.900    3.5387
   27.930    3.3386
   27.960    3.7283
   27.990    3.7283
   28.020    3.8547
   28.050    3.4018
   28.080    3.6967
   28.110    3.3807
   28.140    3.3491
   28.170    3.1806
   28.200    3.2965
   28.230    3.5071
   28.260    3.5808
   28.290    3.2333
   28.320    3.3491
   28.350    3.3175
   28.380    3.3913
   28.410    3.5071
   28.440    3.4123
   28.470    3.4650
   28.500    3.2122
   28.530    3.3281
   28.560    3.3491
   28.590    3.2122
   28.620    3.3807
   28.650    3.1174
   28.680    3.3386
   28.710    3.4229
   28.740    3.3281
   28.770    3.2017
   28.800    3.3597
   28.830    3.1280
   28.860    3.2754
   28.890    3.4860
   28.920    3.4123
   28.950    3.5387
   28.980    3.5176
   29.010    3.4229
   29.040    3.4229
   29.070    3.3281
   29.100    3.2859
   29.130    3.3913
   29.160    3.4229
   29.190    3.5703
   29.220    2.9700
   29.250    3.3386
   29.280    3.3281
   29.310    3.2859
   29.340    3.1069
   29.370    3.1701
   29.400    3.3913
   29.430    3.4229
   29.460    3.3491
   29.490    3.1174
   29.520    3.0226
   29.550    3.0437
   29.580    2.9805
   29.610    3.2859
   29.640    3.2017
   29.670    2.8331
   29.700    3.1701
   29.730    3.5808
   29.760    3.2333
   29.790    2.9068
   29.820    2.9700
   29.850    3.5703
   29.880    3.0542
   29.910    3.0858
   29.940    3.0753
   29.970    3.4966
   30.000    3.0332
   30.030    3.0753
   30.060    3.0016
   30.090    3.0542
   30.120    2.9068
   30.150    3.0437
   30.180    3.1806
   30.210    3.0332
   30.240    3.2543
   30.270    3.0332
   30.300    3.3386
   30.330    3.2649
   30.360    3.0121
   30.390    3.1490
   30.420    3.3070
   30.450    3.2754
   30.480    3.0332
   30.510    3.1490
   30.540    3.2438
   30.570    3.2965
   30.600    2.9805
   30.630    3.0753
   30.660    3.1385
   30.690    2.9910
   30.720    3.3386
   30.750    3.0437
   30.780    3.0542
   30.810    2.9700
   30.840    2.8857
   30.870    3.2017
   30.900    3.2227
   30.930    2.9910
   30.960    3.0964
   30.990    3.1069
   31.020    2.9384
   31.050    3.0226
   31.080    3.2543
   31.110    2.8541
   31.140    3.0016
   31.170    2.8120
   31.200    3.2122
   31.230    2.8752
   31.260    2.9173
   31.290    2.9595
   31.320    2.8647
   31.350    3.1701
   31.380    2.8963
   31.410    2.9068
   31.440    3.0332
   31.470    2.8436
   31.500    2.9805
   31.530    3.0753
   31.560    3.1701
   31.590    3.0437
   31.620    3.0858
   31.650    3.0964
   31.680    2.9489
   31.710    3.0016
   31.740    2.8015
   31.770    3.0753
   31.800    3.2122
   31.830    2.6646
   31.860    3.2543
   31.890    3.0648
   31.920    3.1280
   31.950    3.0858
   31.980    3.1912
   32.010    2.8541
   32.040    3.2649
   32.070    3.4018
   32.100    3.1069
   32.130    3.3281
   32.160    3.2859
   32.190    3.0121
   32.220    3.0332
   32.250    3.1280
   32.280    2.9068
   32.310    2.9489
   32.340    2.8015
   32.370    3.0332
   32.400    2.6856
   32.430    2.7804
   32.460    2.8857
   32.490    2.9279
   32.520    2.8331
   32.550    2.5908
   32.580    2.7699
   32.610    2.8120
   32.640    2.6540
   32.670    2.7909
   32.700    2.5592
   32.730    2.6224
   32.760    2.7383
   32.790    2.7593
   32.820    2.7067
   32.850    3.0332
   32.880    2.6962
   32.910    2.7699
   32.940    2.8015
   32.970    2.8436
   33.000    2.3802
   33.030    2.8225
   33.060    2.6962
   33.090    2.7278
   33.120    2.3486
   33.150    2.4329
   33.180    2.6856
   33.210    2.7488
   33.240    2.6751
   33.270    2.4645
   33.300    2.6751
   33.330    2.6330
   33.360    2.6751
   33.390    2.4961
   33.420    2.6962
   33.450    2.7383
   33.480    2.9279
   33.510    2.6856
   33.540    2.8647
   33.570    2.4855
   33.600    2.4539
   33.630    2.4223
   33.660    2.5592
   33.690    2.6856
   33.720    2.6014
   33.750    2.8015
   33.780    2.9068
   33.810    2.7172
   33.840    2.6119
   33.870    2.7593
   33.900    2.8120
   33.930    2.6119
   33.960    2.6962
   33.990    2.7804
   34.020    2.4329
   34.050    2.5803
   34.080    2.4961
   34.110    2.4118
   34.140    2.2222
   34.170    2.3907
   34.200    2.2749
   34.230    2.4013
   34.260    2.6119
   34.290    2.8541
   34.320    2.4750
   34.350    2.5171
   34.380    2.5171
   34.410    2.6962
   34.440    2.3802
   34.470    2.3486
   34.500    2.3170
   34.530    2.3275
   34.560    2.3802
   34.590    2.3591
   34.620    2.2643
   34.650    2.4223
   34.680    2.4223
   34.710    2.5066
   34.740    2.3697
   34.770    2.3275
   34.800    2.4539
   34.830    2.3170
   34.860    2.4013
   34.890    2.5382
   34.920    2.3591
   34.950    2.4750
   34.980    2.2854
   35.010    2.7172
   35.040    2.2959
   35.070    2.5487
   35.100    2.2959
   35.130    2.3907
   35.160    2.4855
   35.190    2.2643
   35.220    2.4434
   35.250    2.3591
   35.280    2.4223
   35.310    2.2117
   35.340    2.2643
   35.370    2.3275
   35.400    2.1801
   35.430    2.3697
   35.460    2.4434
   35.490    2.3907
   35.520    2.2959
   35.550    2.1590
   35.580    2.5276
   35.610    2.2433
   35.640    2.2959
   35.670    2.2328
   35.700    2.3802
   35.730    2.2959
   35.760    2.4434
   35.790    2.2117
   35.820    2.4750
   35.850    2.4013
   35.880    2.2643
   35.910    2.4013
   35.940    2.2222
   35.970    2.2328
   36.000    2.2854
   36.030    2.2328
   36.060    2.2854
   36.090    2.3381
   36.120    2.4750
   36.150    2.2117
   36.180    2.3486
   36.210    2.3486
   36.240    2.0221
   36.270    2.2433
   36.300    2.2959
   36.330    2.3591
   36.360    2.2854
   36.390    2.2012
   36.420    2.3697
   36.450    2.2854
   36.480    2.0958
   36.510    2.1169
   36.540    2.4013
   36.570    2.1801
   36.600    2.1696
   36.630    2.2854
   36.660    2.2328
   36.690    2.2959
   36.720    2.1169
   36.750    2.1380
   36.780    2.2222
   36.810    2.0642
   36.840    2.3170
   36.870    2.2538
   36.900    2.3170
   36.930    2.1485
   36.960    2.3065
   36.990    2.3065
   37.020    2.2117
   37.050    2.2222
   37.080    2.3275
   37.110    2.0537
   37.140    2.1064
   37.170    2.2959
   37.200    1.9695
   37.230    2.1169
   37.260    2.1906
   37.290    2.0853
   37.320    2.0432
   37.350    2.3381
   37.380    1.9379
   37.410    2.1380
   37.440    2.3065
   37.470    2.1274
   37.500    2.1590
   37.530    2.1380
   37.560    2.0326
   37.590    2.3381
   37.620    2.1380
   37.650    1.9063
   37.680    2.0326
   37.710    2.3275
   37.740    2.1169
   37.770    1.9063
   37.800    2.2433
   37.830    2.3802
   37.860    2.1485
   37.890    2.4329
   37.920    2.0748
   37.950    2.2117
   37.980    2.0116
   38.010    2.3275
   38.040    1.9695
   38.070    2.0958
   38.100    2.1906
   38.130    2.0537
   38.160    2.2012
   38.190    2.0221
   38.220    2.1274
   38.250    2.1801
   38.280    2.2117
   38.310    2.2117
   38.340    2.0958
   38.370    2.3486
   38.400    2.0537
   38.430    2.1064
   38.460    2.1169
   38.490    2.1590
   38.520    2.2222
   38.550    2.2538
   38.580    2.1590
   38.610    2.3170
   38.640    2.1064
   38.670    2.2012
   38.700    2.2854
   38.730    2.1169
   38.760    1.9800
   38.790    2.3697
   38.820    2.1696
   38.850    2.2959
   38.880    1.8220
   38.910    2.0642
   38.940    2.0116
   38.970    2.2012
   39.000    1.9168
   39.030    1.8641
   39.060    2.1696
   39.090    1.9168
   39.120    1.9800
   39.150    1.8325
   39.180    1.9695
   39.210    2.0432
   39.240    1.9905
   39.270    2.1380
   39.300    2.1274
   39.330    2.1696
   39.360    1.9379
   39.390    2.1169
   39.420    2.0432
   39.450    2.1801
   39.480    2.0432
   39.510    2.0116
   39.540    1.7588
   39.570    2.1169
   39.600    2.1696
   39.630    2.0853
   39.660    2.3170
   39.690    2.0116
   39.720    2.0853
   39.750    1.9589
   39.780    2.1485
   39.810    1.9063
   39.840    2.0011
   39.870    2.1801
   39.900    1.9379
   39.930    1.9905
   39.960    1.8747
   39.990    2.1274