File: data/MOCOF-1/PXRD/PXRD_KE-199-2_Co-Ka1_capillary-1mm_5s-deg.xyd
    1.500   13.0658
    1.530   12.9374
    1.560   11.8673
    1.590   12.6378
    1.620   11.8566
    1.650   10.6902
    1.680   11.1718
    1.710    9.9518
    1.740   10.0482
    1.770    9.3419
    1.800    9.3740
    1.830    9.7271
    1.860    8.8283
    1.890    8.1969
    1.920    8.1541
    1.950    8.1648
    1.980    7.4585
    2.010    7.6726
    2.040    7.4585
    2.070    7.1910
    2.100    7.2552
    2.130    6.3670
    2.160    6.6025
    2.190    6.8272
    2.220    6.0032
    2.250    5.9925
    2.280    6.3670
    2.310    5.8641
    2.340    5.3398
    2.370    5.2541
    2.400    5.8213
    2.430    5.3398
    2.460    5.2113
    2.490    5.3505
    2.520    5.4789
    2.550    5.2113
    2.580    5.0187
    2.610    5.0936
    2.640    5.0508
    2.670    5.3398
    2.700    5.1364
    2.730    5.0508
    2.760    4.9759
    2.790    5.1257
    2.820    5.1364
    2.850    5.3505
    2.880    5.1043
    2.910    5.0508
    2.940    5.3398
    2.970    5.2434
    3.000    5.4682
    3.030    5.4468
    3.060    5.4682
    3.090    5.9176
    3.120    5.8106
    3.150    6.2600
    3.180    5.8427
    3.210    6.6881
    3.240    6.2279
    3.270    6.7416
    3.300    6.9021
    3.330    7.5441
    3.360    7.1589
    3.390    8.1006
    3.420    7.8973
    3.450    8.5928
    3.480    9.2777
    3.510    9.9304
    3.540   10.6581
    3.570   10.8828
    3.600   10.9363
    3.630   12.4666
    3.660   13.3975
    3.690   14.3499
    3.720   15.2702
    3.750   17.2285
    3.780   18.4591
    3.810   19.9465
    3.840   22.8143
    3.870   24.8582
    3.900   27.2017
    3.930   32.3060
    3.960   36.6292
    3.990   40.3745
    4.020   43.9486
    4.050   40.7705
    4.080   33.5474
    4.110   25.5859
    4.140   19.9572
    4.170   17.8277
    4.200   15.2060
    4.230   15.0990
    4.260   15.2488
    4.290   15.2167
    4.320   17.1215
    4.350   17.6886
    4.380   19.7111
    4.410   21.4660
    4.440   24.5693
    4.470   30.2836
    4.500   38.5019
    4.530   39.5078
    4.560   20.2996
    4.590   15.9016
    4.620   16.0514
    4.650   15.9551
    4.680   15.8266
    4.710   16.2654
    4.740   16.0407
    4.770   15.1953
    4.800   14.2643
    4.830   13.8363
    4.860   13.7293
    4.890   12.5201
    4.920   10.9256
    4.950   10.0482
    4.980    8.8711
    5.010    7.4157
    5.040    6.7630
    5.070    5.8962
    5.100    5.3077
    5.130    4.2376
    5.160    3.7453
    5.190    3.3387
    5.220    3.1889
    5.250    3.0284
    5.280    2.6752
    5.310    2.6752
    5.340    2.7180
    5.370    2.2472
    5.400    2.0867
    5.430    2.1509
    5.460    1.8727
    5.490    2.0332
    5.520    1.7657
    5.550    1.7764
    5.580    1.8299
    5.610    1.8085
    5.640    1.7228
    5.670    1.7871
    5.700    1.6907
    5.730    1.7764
    5.760    1.6800
    5.790    1.6800
    5.820    1.8299
    5.850    1.6479
    5.880    1.6158
    5.910    1.7978
    5.940    1.8406
    5.970    1.9369
    6.000    1.8834
    6.030    1.7228
    6.060    1.9690
    6.090    2.1402
    6.120    2.0439
    6.150    2.1937
    6.180    2.4291
    6.210    2.5361
    6.240    2.6324
    6.270    3.2745
    6.300    3.8737
    6.330    4.8154
    6.360    5.5966
    6.390    7.2659
    6.420    5.5645
    6.450    2.2472
    6.480    1.4339
    6.510    1.4232
    6.540    1.3697
    6.570    1.2413
    6.600    1.1878
    6.630    1.1022
    6.660    1.1450
    6.690    0.9417
    6.720    1.1236
    6.750    1.3055
    6.780    1.1450
    6.810    1.1985
    6.840    1.1022
    6.870    1.0487
    6.900    1.0487
    6.930    1.0915
    6.960    1.0808
    6.990    1.1664
    7.020    1.1771
    7.050    1.1343
    7.080    1.0594
    7.110    1.0273
    7.140    1.0808
    7.170    1.2520
    7.200    1.0273
    7.230    1.1236
    7.260    1.1771
    7.290    1.1878
    7.320    0.9845
    7.350    1.1557
    7.380    1.2841
    7.410    0.9845
    7.440    1.1129
    7.470    1.4446
    7.500    1.3697
    7.530    1.3269
    7.560    1.3269
    7.590    1.2627
    7.620    1.7764
    7.650    1.4767
    7.680    1.7764
    7.710    2.0653
    7.740    2.4505
    7.770    2.4933
    7.800    2.9213
    7.830    3.6811
    7.860    3.5313
    7.890    2.7929
    7.920    2.8678
    7.950    2.8999
    7.980    3.0926
    8.010    3.5313
    8.040    4.0877
    8.070    4.3018
    8.100    4.6228
    8.130    4.1199
    8.160    3.3173
    8.190    2.8036
    8.220    2.2365
    8.250    1.8406
    8.280    1.7014
    8.310    1.4339
    8.340    1.4981
    8.370    1.3804
    8.400    1.3697
    8.430    1.3162
    8.460    1.2734
    8.490    1.1343
    8.520    1.1985
    8.550    1.1236
    8.580    1.1022
    8.610    1.2841
    8.640    1.2841
    8.670    1.4232
    8.700    1.3697
    8.730    1.3376
    8.760    1.5088
    8.790    1.3055
    8.820    1.3804
    8.850    1.5944
    8.880    1.5409
    8.910    1.6693
    8.940    1.7442
    8.970    2.0332
    9.000    2.1723
    9.030    2.6859
    9.060    2.9106
    9.090    2.3114
    9.120    1.6479
    9.150    1.6800
    9.180    1.7549
    9.210    1.5302
    9.240    1.6907
    9.270    1.5302
    9.300    1.8192
    9.330    1.7335
    9.360    2.0118
    9.390    1.9476
    9.420    1.7978
    9.450    2.1081
    9.480    1.8299
    9.510    2.0118
    9.540    1.9904
    9.570    2.0439
    9.600    1.8941
    9.630    2.1402
    9.660    2.0546
    9.690    1.8192
    9.720    2.0225
    9.750    1.9048
    9.780    1.8192
    9.810    2.0332
    9.840    1.8513
    9.870    1.5837
    9.900    1.6693
    9.930    1.8192
    9.960    1.6586
    9.990    1.4981
   10.020    1.4232
   10.050    1.7121
   10.080    1.6693
   10.110    1.4018
   10.140    1.5302
   10.170    1.4018
   10.200    1.2199
   10.230    1.3911
   10.260    1.1557
   10.290    1.2948
   10.320    1.3483
   10.350    1.1450
   10.380    1.0594
   10.410    1.1771
   10.440    1.1022
   10.470    1.0059
   10.500    1.0487
   10.530    1.2841
   10.560    1.0808
   10.590    1.1450
   10.620    0.9738
   10.650    1.1022
   10.680    0.8882
   10.710    1.1664
   10.740    1.0594
   10.770    1.0808
   10.800    1.0273
   10.830    1.1771
   10.860    1.0808
   10.890    1.2841
   10.920    1.3590
   10.950    1.4874
   10.980    1.6372
   11.010    1.9583
   11.040    2.2472
   11.070    2.8250
   11.100    4.3339
   11.130    3.4136
   11.160    1.5409
   11.190    1.3376
   11.220    0.9203
   11.250    0.9203
   11.280    0.8989
   11.310    0.9096
   11.340    1.0487
   11.370    1.0380
   11.400    1.0273
   11.430    0.8561
   11.460    1.0380
   11.490    0.9203
   11.520    0.8775
   11.550    0.9310
   11.580    0.9524
   11.610    0.9952
   11.640    1.0594
   11.670    0.8454
   11.700    0.9738
   11.730    1.0487
   11.760    0.9631
   11.790    1.1343
   11.820    0.9631
   11.850    1.0166
   11.880    1.1343
   11.910    1.2734
   11.940    1.3376
   11.970    1.6586
   12.000    1.8834
   12.030    1.9476
   12.060    1.3376
   12.090    1.1022
   12.120    0.9952
   12.150    1.2092
   12.180    1.1878
   12.210    1.1343
   12.240    1.1129
   12.270    1.0594
   12.300    1.0487
   12.330    1.0915
   12.360    0.9203
   12.390    0.8454
   12.420    0.9203
   12.450    0.8133
   12.480    0.8989
   12.510    0.8775
   12.540    0.9738
   12.570    0.9096
   12.600    1.2627
   12.630    1.0166
   12.660    1.1236
   12.690    1.0915
   12.720    1.2413
   12.750    1.0380
   12.780    1.4125
   12.810    1.4660
   12.840    1.7871
   12.870    1.4874
   12.900    1.0915
   12.930    1.0273
   12.960    0.9310
   12.990    0.7384
   13.020    0.8561
   13.050    0.8989
   13.080    0.8882
   13.110    0.7919
   13.140    0.8561
   13.170    0.9096
   13.200    0.9524
   13.230    0.9845
   13.260    1.0166
   13.290    0.9952
   13.320    0.9952
   13.350    0.9631
   13.380    0.9952
   13.410    1.0166
   13.440    1.0166
   13.470    1.1343
   13.500    1.1236
   13.530    1.2199
   13.560    1.3376
   13.590    1.8406
   13.620    1.8727
   13.650    1.4660
   13.680    1.1985
   13.710    0.9738
   13.740    0.8775
   13.770    0.8561
   13.800    1.0594
   13.830    0.9524
   13.860    1.0059
   13.890    0.9524
   13.920    1.0808
   13.950    0.9203
   13.980    0.8240
   14.010    1.1022
   14.040    0.8775
   14.070    0.9417
   14.100    0.7491
   14.130    0.9096
   14.160    0.9310
   14.190    0.9738
   14.220    0.9417
   14.250    1.0380
   14.280    0.8561
   14.310    1.0059
   14.340    1.2627
   14.370    1.0487
   14.400    1.1450
   14.430    1.0059
   14.460    1.0701
   14.490    1.0808
   14.520    0.9738
   14.550    0.9310
   14.580    1.0273
   14.610    0.9845
   14.640    1.0380
   14.670    0.9417
   14.700    1.1129
   14.730    1.0273
   14.760    0.9952
   14.790    1.0701
   14.820    1.0701
   14.850    0.9524
   14.880    1.1236
   14.910    0.9310
   14.940    0.8775
   14.970    1.1771
   15.000    1.3911
   15.030    1.4125
   15.060    1.4125
   15.090    1.4446
   15.120    1.2627
   15.150    0.9845
   15.180    0.9417
   15.210    0.9952
   15.240    0.8882
   15.270    1.0808
   15.300    0.8454
   15.330    0.9203
   15.360    0.8668
   15.390    0.8668
   15.420    1.0594
   15.450    0.9952
   15.480    1.0487
   15.510    1.0594
   15.540    0.8133
   15.570    1.0701
   15.600    0.9203
   15.630    1.1022
   15.660    1.0487
   15.690    1.1022
   15.720    1.1236
   15.750    1.1557
   15.780    1.2520
   15.810    0.9310
   15.840    1.0166
   15.870    0.9417
   15.900    1.1450
   15.930    0.9952
   15.960    0.7812
   15.990    0.8668
   16.020    0.7919
   16.050    0.8133
   16.080    0.8989
   16.110    0.9203
   16.140    0.9631
   16.170    0.9524
   16.200    1.0701
   16.230    0.8454
   16.260    1.0166
   16.290    0.9096
   16.320    1.0166
   16.350    1.1557
   16.380    1.3055
   16.410    1.3376
   16.440    1.0380
   16.470    0.8882
   16.500    0.8026
   16.530    0.8775
   16.560    0.7812
   16.590    0.8775
   16.620    1.0273
   16.650    0.7384
   16.680    0.9310
   16.710    0.7491
   16.740    0.8668
   16.770    0.8240
   16.800    0.8775
   16.830    0.8775
   16.860    0.8882
   16.890    0.8668
   16.920    0.8989
   16.950    0.8775
   16.980    0.8240
   17.010    0.8882
   17.040    0.7384
   17.070    0.8026
   17.100    0.9631
   17.130    0.8561
   17.160    0.8240
   17.190    0.7598
   17.220    0.8668
   17.250    0.8989
   17.280    0.8561
   17.310    0.9845
   17.340    0.7384
   17.370    0.7170
   17.400    0.7598
   17.430    0.7919
   17.460    0.8240
   17.490    0.8454
   17.520    0.7919
   17.550    1.0487
   17.580    0.9203
   17.610    0.8882
   17.640    0.9203
   17.670    1.1450
   17.700    0.7170
   17.730    0.8668
   17.760    0.7170
   17.790    0.8240
   17.820    0.7063
   17.850    0.7384
   17.880    0.7812
   17.910    0.8561
   17.940    0.9524
   17.970    1.0059
   18.000    0.9203
   18.030    0.8775
   18.060    0.8668
   18.090    0.7812
   18.120    0.6849
   18.150    0.9524
   18.180    0.7919
   18.210    0.8347
   18.240    0.8668
   18.270    0.8668
   18.300    0.8561
   18.330    0.8240
   18.360    0.7277
   18.390    1.0487
   18.420    0.7384
   18.450    0.7491
   18.480    0.8454
   18.510    0.8240
   18.540    0.8026
   18.570    0.6207
   18.600    0.7598
   18.630    0.9310
   18.660    0.8347
   18.690    0.8989
   18.720    0.8454
   18.750    0.9310
   18.780    0.9631
   18.810    0.9417
   18.840    0.9738
   18.870    0.8989
   18.900    0.8775
   18.930    0.6528
   18.960    0.9203
   18.990    0.6849
   19.020    0.9096
   19.050    0.8347
   19.080    0.7384
   19.110    0.8133
   19.140    0.7598
   19.170    0.9203
   19.200    0.8133
   19.230    0.8668
   19.260    0.9417
   19.290    0.8989
   19.320    0.8561
   19.350    0.8775
   19.380    0.9096
   19.410    0.7705
   19.440    0.6742
   19.470    0.8668
   19.500    0.8668
   19.530    0.8347
   19.560    0.9524
   19.590    0.8026
   19.620    0.7705
   19.650    0.9952
   19.680    0.8454
   19.710    0.8561
   19.740    0.8668
   19.770    0.9845
   19.800    1.0059
   19.830    1.1985
   19.860    1.4232
   19.890    1.2199
   19.920    0.9417
   19.950    0.8882
   19.980    0.8775
   20.010    0.8026
   20.040    0.7063
   20.070    0.8026
   20.100    0.8133
   20.130    0.7063
   20.160    0.8775
   20.190    0.7277
   20.220    0.8347
   20.250    0.8668
   20.280    0.7384
   20.310    1.0166
   20.340    0.9310
   20.370    0.8775
   20.400    0.9738
   20.430    0.9096
   20.460    1.0380
   20.490    0.7919
   20.520    0.7812
   20.550    0.7063
   20.580    0.8026
   20.610    0.8026
   20.640    0.8668
   20.670    0.7812
   20.700    0.9524
   20.730    0.8775
   20.760    0.8347
   20.790    0.7705
   20.820    0.7598
   20.850    0.8026
   20.880    0.9417
   20.910    0.9738
   20.940    0.8133
   20.970    0.8882
   21.000    0.9631
   21.030    0.8775
   21.060    0.9310
   21.090    0.8668
   21.120    0.9845
   21.150    0.7063
   21.180    0.8561
   21.210    0.8347
   21.240    0.8561
   21.270    0.7170
   21.300    0.7491
   21.330    0.8454
   21.360    0.9096
   21.390    0.9845
   21.420    1.0701
   21.450    0.7812
   21.480    0.9738
   21.510    0.8133
   21.540    0.8026
   21.570    0.7277
   21.600    0.7812
   21.630    0.8775
   21.660    0.8989
   21.690    0.7705
   21.720    0.9203
   21.750    0.7919
   21.780    0.7063
   21.810    0.8882
   21.840    0.9524
   21.870    0.7277
   21.900    0.9096
   21.930    0.9096
   21.960    0.7705
   21.990    0.8133
   22.020    0.8775
   22.050    0.7919
   22.080    0.7598
   22.110    0.9524
   22.140    0.8775
   22.170    0.9203
   22.200    0.8989
   22.230    0.8133
   22.260    1.0487
   22.290    0.8668
   22.320    0.9096
   22.350    1.0273
   22.380    0.9096
   22.410    0.8882
   22.440    0.8775
   22.470    1.1450
   22.500    1.0594
   22.530    0.8133
   22.560    0.9952
   22.590    0.7919
   22.620    0.8989
   22.650    0.8775
   22.680    0.8454
   22.710    0.9845
   22.740    0.9952
   22.770    0.9417
   22.800    1.0915
   22.830    0.8989
   22.860    1.1129
   22.890    1.0380
   22.920    0.8775
   22.950    0.8454
   22.980    0.8026
   23.010    0.9738
   23.040    0.8775
   23.070    0.8561
   23.100    0.9845
   23.130    1.0808
   23.160    0.8026
   23.190    0.9631
   23.220    1.0487
   23.250    0.9096
   23.280    0.9631
   23.310    0.9524
   23.340    0.8989
   23.370    0.8882
   23.400    1.0273
   23.430    0.9631
   23.460    1.0059
   23.490    1.1129
   23.520    0.8882
   23.550    0.9096
   23.580    0.9096
   23.610    1.1343
   23.640    1.0808
   23.670    1.1343
   23.700    1.3055
   23.730    1.2841
   23.760    1.3483
   23.790    0.9417
   23.820    1.0594
   23.850    1.0380
   23.880    0.8347
   23.910    0.9096
   23.940    1.0273
   23.970    1.1343
   24.000    1.0701
   24.030    0.8454
   24.060    1.0808
   24.090    1.0059
   24.120    1.0166
   24.150    0.9738
   24.180    0.8775
   24.210    0.9952
   24.240    1.1129
   24.270    1.0166
   24.300    1.0273
   24.330    0.9631
   24.360    0.9203
   24.390    1.0487
   24.420    1.0701
   24.450    0.9310
   24.480    1.0487
   24.510    1.1664
   24.540    0.9952
   24.570    0.9096
   24.600    1.0487
   24.630    1.1878
   24.660    0.9096
   24.690    1.0701
   24.720    1.0808
   24.750    0.9631
   24.780    0.9845
   24.810    1.1236
   24.840    0.9417
   24.870    0.9524
   24.900    0.9738
   24.930    1.0166
   24.960    1.0273
   24.990    0.8882
   25.020    0.9631
   25.050    0.9203
   25.080    0.9096
   25.110    0.8989
   25.140    1.0487
   25.170    0.8775
   25.200    1.1129
   25.230    0.9845
   25.260    0.8668
   25.290    0.9310
   25.320    0.9310
   25.350    1.0915
   25.380    1.0166
   25.410    0.8347
   25.440    1.0808
   25.470    0.9845
   25.500    0.9952
   25.530    1.0915
   25.560    1.0487
   25.590    1.0059
   25.620    0.8775
   25.650    0.8347
   25.680    1.0487
   25.710    0.8989
   25.740    0.9524
   25.770    0.9096
   25.800    0.9310
   25.830    0.9952
   25.860    0.9952
   25.890    1.1878
   25.920    1.0701
   25.950    0.9631
   25.980    1.0273
   26.010    0.9631
   26.040    0.9310
   26.070    0.9096
   26.100    0.9845
   26.130    1.0380
   26.160    1.0915
   26.190    1.1129
   26.220    1.2841
   26.250    1.1557
   26.280    1.2199
   26.310    1.2306
   26.340    1.0594
   26.370    1.1343
   26.400    1.0059
   26.430    0.9417
   26.460    0.9203
   26.490    0.8133
   26.520    1.1022
   26.550    1.0380
   26.580    0.9845
   26.610    1.0701
   26.640    1.1450
   26.670    1.4339
   26.700    1.3376
   26.730    1.0808
   26.760    0.9524
   26.790    0.8775
   26.820    0.8454
   26.850    0.8775
   26.880    1.0594
   26.910    0.8882
   26.940    1.1450
   26.970    1.0059
   27.000    0.8133
   27.030    0.9203
   27.060    1.0701
   27.090    1.0059
   27.120    0.9096
   27.150    0.9845
   27.180    0.8240
   27.210    0.9203
   27.240    0.9738
   27.270    1.0594
   27.300    1.0166
   27.330    1.0380
   27.360    0.8882
   27.390    0.8347
   27.420    0.8882
   27.450    0.9631
   27.480    0.9417
   27.510    0.8347
   27.540    0.9524
   27.570    1.0059
   27.600    0.8775
   27.630    0.7919
   27.660    0.8882
   27.690    0.7063
   27.720    0.8882
   27.750    0.8240
   27.780    0.9631
   27.810    0.9738
   27.840    1.0166
   27.870    1.0915
   27.900    1.0808
   27.930    0.8561
   27.960    0.8561
   27.990    0.8454
   28.020    0.9310
   28.050    0.7491
   28.080    0.7919
   28.110    1.0808
   28.140    0.8775
   28.170    0.8882
   28.200    0.8347
   28.230    0.9738
   28.260    0.8775
   28.290    0.7491
   28.320    0.8240
   28.350    1.0059
   28.380    0.8454
   28.410    0.8882
   28.440    0.8775
   28.470    0.8989
   28.500    0.8882
   28.530    0.8347
   28.560    0.9631
   28.590    0.7277
   28.620    0.8775
   28.650    0.9845
   28.680    1.0166
   28.710    0.7705
   28.740    0.9096
   28.770    0.8026
   28.800    0.6528
   28.830    0.7705
   28.860    0.8133
   28.890    0.8775
   28.920    0.8882
   28.950    0.9096
   28.980    0.9524
   29.010    0.7812
   29.040    0.8561
   29.070    0.8133
   29.100    0.7598
   29.130    0.7384
   29.160    0.7919
   29.190    0.7598
   29.220    0.7277
   29.250    0.9096
   29.280    0.8133
   29.310    0.9203
   29.340    0.8454
   29.370    0.8775
   29.400    0.8347
   29.430    0.7812
   29.460    0.7812
   29.490    0.9203
   29.520    0.8026
   29.550    0.7812
   29.580    0.7170
   29.610    0.8775
   29.640    0.7812
   29.670    0.7384
   29.700    0.6956
   29.730    0.8026
   29.760    0.8026
   29.790    0.8775
   29.820    0.9096
   29.850    0.7812
   29.880    0.7598
   29.910    0.7170
   29.940    0.8026
   29.970    0.8561
   30.000    0.9631
   30.030    1.0701
   30.060    0.7598
   30.090    1.0808
   30.120    0.8561
   30.150    0.8347
   30.180    0.8561
   30.210    0.6635
   30.240    0.7384
   30.270    0.8026
   30.300    0.5886
   30.330    0.8775
   30.360    0.8240
   30.390    0.7170
   30.420    0.7812
   30.450    0.6956
   30.480    0.8026
   30.510    0.7384
   30.540    0.7384
   30.570    0.6635
   30.600    0.6742
   30.630    0.5993
   30.660    0.7384
   30.690    0.7598
   30.720    0.6528
   30.750    0.7705
   30.780    0.8454
   30.810    0.7812
   30.840    0.9096
   30.870    0.8347
   30.900    0.6421
   30.930    0.7063
   30.960    0.8240
   30.990    0.6314
   31.020    0.6635
   31.050    0.8026
   31.080    0.6849
   31.110    0.6421
   31.140    0.7812
   31.170    0.6742
   31.200    0.7063
   31.230    0.7491
   31.260    0.6956
   31.290    0.7705
   31.320    0.9096
   31.350    0.7384
   31.380    0.8240
   31.410    0.7277
   31.440    0.7384
   31.470    0.8775
   31.500    0.8347
   31.530    0.7705
   31.560    0.8561
   31.590    0.7170
   31.620    0.7063
   31.650    0.8347
   31.680    0.6314
   31.710    0.5243
   31.740    0.6849
   31.770    0.7812
   31.800    0.7063
   31.830    0.7277
   31.860    0.6742
   31.890    0.6742
   31.920    0.5886
   31.950    0.6314
   31.980    0.5886
   32.010    0.7063
   32.040    0.7063
   32.070    0.6207
   32.100    0.6635
   32.130    0.7277
   32.160    0.6528
   32.190    0.8026
   32.220    0.7491
   32.250    0.8026
   32.280    0.6421
   32.310    0.5778
   32.340    0.7705
   32.370    0.6528
   32.400    0.7063
   32.430    0.6635
   32.460    0.6635
   32.490    0.5886
   32.520    0.5778
   32.550    0.6635
   32.580    0.7491
   32.610    0.5886
   32.640    0.7063
   32.670    0.6100
   32.700    0.8454
   32.730    0.7491
   32.760    0.6100
   32.790    0.8454
   32.820    0.8133
   32.850    0.6956
   32.880    0.6742
   32.910    0.8026
   32.940    0.8026
   32.970    0.7598
   33.000    0.8882
   33.030    0.7491
   33.060    0.8026
   33.090    0.8240
   33.120    0.7063
   33.150    0.7277
   33.180    0.8240
   33.210    0.6849
   33.240    0.6528
   33.270    0.6100
   33.300    0.6207
   33.330    0.6207
   33.360    0.6742
   33.390    0.5993
   33.420    0.7063
   33.450    0.6421
   33.480    0.6207
   33.510    0.6207
   33.540    0.6207
   33.570    0.7277
   33.600    0.6314
   33.630    0.6100
   33.660    0.5350
   33.690    0.6207
   33.720    0.7063
   33.750    0.7063
   33.780    0.5350
   33.810    0.5671
   33.840    0.6956
   33.870    0.6742
   33.900    0.7170
   33.930    0.8240
   33.960    0.6207
   33.990    0.4922
   34.020    0.5778
   34.050    0.6528
   34.080    0.8240
   34.110    0.6742
   34.140    0.6635
   34.170    0.6742
   34.200    0.6849
   34.230    0.6528
   34.260    0.7063
   34.290    0.6528
   34.320    0.5136
   34.350    0.5350
   34.380    0.6421
   34.410    0.5778
   34.440    0.6421
   34.470    0.6635
   34.500    0.6635
   34.530    0.6421
   34.560    0.5350
   34.590    0.7919
   34.620    0.6100
   34.650    0.6956
   34.680    0.6956
   34.710    0.7063
   34.740    0.5778
   34.770    0.5564
   34.800    0.6528
   34.830    0.5993
   34.860    0.6207
   34.890    0.5350
   34.920    0.6635
   34.950    0.5136
   34.980    0.4494
   35.010    0.5457
   35.040    0.6635
   35.070    0.7063
   35.100    0.6314
   35.130    0.5671
   35.160    0.4922
   35.190    0.6528
   35.220    0.5457
   35.250    0.5564
   35.280    0.4922
   35.310    0.5671
   35.340    0.6207
   35.370    0.6849
   35.400    0.5457
   35.430    0.6421
   35.460    0.5778
   35.490    0.5993
   35.520    0.5778
   35.550    0.6956
   35.580    0.6528
   35.610    0.5671
   35.640    0.6742
   35.670    0.7598
   35.700    0.6742
   35.730    0.6207
   35.760    0.5136
   35.790    0.5243
   35.820    0.5993
   35.850    0.4922
   35.880    0.5136
   35.910    0.6207
   35.940    0.4494
   35.970    0.5993
   36.000    0.5457
   36.030    0.5457
   36.060    0.3959
   36.090    0.4922
   36.120    0.5243
   36.150    0.4708
   36.180    0.4708
   36.210    0.4922
   36.240    0.5136
   36.270    0.5457
   36.300    0.5886
   36.330    0.6742
   36.360    0.7063
   36.390    0.5350
   36.420    0.4601
   36.450    0.5886
   36.480    0.5778
   36.510    0.5029
   36.540    0.5671
   36.570    0.5136
   36.600    0.6742
   36.630    0.4280
   36.660    0.5671
   36.690    0.7170
   36.720    0.6207
   36.750    0.6314
   36.780    0.5564
   36.810    0.6635
   36.840    0.6207
   36.870    0.5243
   36.900    0.6207
   36.930    0.5778
   36.960    0.5243
   36.990    0.4601
   37.020    0.4601
   37.050    0.6421
   37.080    0.5350
   37.110    0.7598
   37.140    0.6207
   37.170    0.5778
   37.200    0.4815
   37.230    0.5350
   37.260    0.5243
   37.290    0.6421
   37.320    0.5350
   37.350    0.5671
   37.380    0.5671
   37.410    0.5029
   37.440    0.4494
   37.470    0.4601
   37.500    0.5029
   37.530    0.6421
   37.560    0.5993
   37.590    0.4494
   37.620    0.4815
   37.650    0.4494
   37.680    0.5136
   37.710    0.5778
   37.740    0.4066
   37.770    0.5886
   37.800    0.4066
   37.830    0.5671
   37.860    0.5136
   37.890    0.5029
   37.920    0.5350
   37.950    0.4922
   37.980    0.4708
   38.010    0.4601
   38.040    0.4815
   38.070    0.4601
   38.100    0.4815
   38.130    0.4708
   38.160    0.5136
   38.190    0.5778
   38.220    0.5029
   38.250    0.4815
   38.280    0.5136
   38.310    0.4922
   38.340    0.5564
   38.370    0.5457
   38.400    0.5350
   38.430    0.4387
   38.460    0.4815
   38.490    0.4601
   38.520    0.4494
   38.550    0.4815
   38.580    0.5029
   38.610    0.5457
   38.640    0.4494
   38.670    0.4173
   38.700    0.4708
   38.730    0.5136
   38.760    0.4922
   38.790    0.3852
   38.820    0.4708
   38.850    0.4066
   38.880    0.4922
   38.910    0.4494
   38.940    0.5029
   38.970    0.3959
   39.000    0.5136
   39.030    0.4708
   39.060    0.4066
   39.090    0.4922
   39.120    0.4601
   39.150    0.4173
   39.180    0.5243
   39.210    0.4173
   39.240    0.5029
   39.270    0.4922
   39.300    0.3959
   39.330    0.4066
   39.360    0.3959
   39.390    0.4066
   39.420    0.4708
   39.450    0.4708
   39.480    0.5136
   39.510    0.5778
   39.540    0.5350
   39.570    0.5243
   39.600    0.4922
   39.630    0.4601
   39.660    0.5243
   39.690    0.4494
   39.720    0.4280
   39.750    0.3745
   39.780    0.4815
   39.810    0.5457
   39.840    0.4280
   39.870    0.4494
   39.900    0.4173
   39.930    0.3210
   39.960    0.3531
   39.990    0.3959