File: data/MOCOF-1/PXRD/PXRD_KE-050_Cu-Ka1_capillary-1mm_5s-deg.xyd
    1.500   20.4739
    1.530   20.8531
    1.560   20.7056
    1.590   20.1790
    1.620   20.3791
    1.650   19.3049
    1.680   19.4418
    1.710   20.3054
    1.740   19.8315
    1.770   20.1474
    1.800   19.7367
    1.830   18.9047
    1.860   18.6625
    1.890   18.5993
    1.920   18.3781
    1.950   18.4729
    1.980   18.5466
    2.010   18.3254
    2.040   18.0411
    2.070   18.1464
    2.100   17.8515
    2.130   17.4829
    2.160   17.6830
    2.190   17.4724
    2.220   18.1359
    2.250   17.2722
    2.280   17.5566
    2.310   17.8831
    2.340   16.7246
    2.370   17.3986
    2.400   17.8199
    2.430   17.6619
    2.460   17.5461
    2.490   17.6303
    2.520   18.2622
    2.550   18.5677
    2.580   19.0943
    2.610   18.3044
    2.640   18.2412
    2.670   18.7046
    2.700   19.6840
    2.730   19.0311
    2.760   20.5582
    2.790   19.5893
    2.820   20.0948
    2.850   21.1374
    2.880   21.0743
    2.910   22.2959
    2.940   22.1906
    2.970   22.9173
    3.000   23.6230
    3.030   24.3813
    3.060   25.8452
    3.090   25.7293
    3.120   27.0142
    3.150   28.4044
    3.180   29.9737
    3.210   31.4692
    3.240   32.8383
    3.270   33.9337
    3.300   35.8294
    3.330   38.0621
    3.360   40.6109
    3.390   42.1801
    3.420   44.3707
    3.450   48.7204
    3.480   51.9115
    3.510   55.2501
    3.540   59.8736
    3.570   62.8225
    3.600   71.2586
    3.630   77.8304
    3.660   84.9816
    3.690   92.3433
    3.720  105.7715
    3.750  117.3249
    3.780  134.9447
    3.810  156.1559
    3.840  196.8615
    3.870  264.5498
    3.900  324.2970
    3.930  297.2512
    3.960  148.2886
    3.990   31.4903
    4.020   15.8189
    4.050   12.8805
    4.080   12.3117
    4.110   10.7952
    4.140   10.6161
    4.170   10.4265
    4.200   10.5319
    4.230    9.9315
    4.260   10.2791
    4.290   10.3002
    4.320    9.9842
    4.350   10.1632
    4.380    9.9631
    4.410   10.2159
    4.440    9.9315
    4.470   10.2475
    4.500   10.7741
    4.530    9.7420
    4.560   10.2896
    4.590   10.1843
    4.620   10.2475
    4.650   10.1632
    4.680   10.6056
    4.710   11.0374
    4.740   10.9847
    4.770   11.3533
    4.800   11.6693
    4.830   11.9537
    4.860   11.5956
    4.890   12.1854
    4.920   12.1854
    4.950   13.0490
    4.980   13.4281
    5.010   13.6598
    5.040   14.6814
    5.070   15.2712
    5.100   15.6714
    5.130   17.2196
    5.160   17.6935
    5.190   18.9152
    5.220   21.0321
    5.250   22.5171
    5.280   23.6124
    5.310   26.6983
    5.340   30.1843
    5.370   34.0495
    5.400   38.1991
    5.430   44.8447
    5.460   55.9136
    5.490   73.9547
    5.520   91.8589
    5.550   86.4876
    5.580   47.8146
    5.610   15.4713
    5.640    9.5419
    5.670    9.0153
    5.700    9.2154
    5.730    8.8678
    5.760    8.5940
    5.790    8.0358
    5.820    8.9415
    5.850    8.2991
    5.880    8.5203
    5.910    8.0885
    5.940    8.3623
    5.970    8.5308
    6.000    8.2991
    6.030    8.0674
    6.060    7.5724
    6.090    7.7409
    6.120    8.4044
    6.150    8.4044
    6.180    8.1095
    6.210    8.0779
    6.240    8.2991
    6.270    8.6572
    6.300    8.2043
    6.330    8.7730
    6.360    8.8257
    6.390    8.5413
    6.420    9.0679
    6.450    9.4471
    6.480    8.9521
    6.510    9.4681
    6.540    9.9526
    6.570   10.3739
    6.600   10.7741
    6.630   11.1954
    6.660   12.9015
    6.690   13.6072
    6.720   15.7451
    6.750   18.7256
    6.780   19.5682
    6.810   16.9142
    6.840   10.6372
    6.870    8.1411
    6.900    7.9094
    6.930    7.7199
    6.960    8.1095
    6.990    7.4671
    7.020    7.7620
    7.050    7.7409
    7.080    7.8673
    7.110    7.2354
    7.140    7.2354
    7.170    7.7093
    7.200    7.7830
    7.230    7.4671
    7.260    7.8884
    7.290    8.0042
    7.320    8.0674
    7.350    8.1938
    7.380    8.2043
    7.410    8.4255
    7.440    8.6677
    7.470    9.1311
    7.500    9.4365
    7.530    9.6472
    7.560    9.9105
    7.590   10.4055
    7.620   11.8589
    7.650   13.0490
    7.680   13.5756
    7.710   15.4713
    7.740   18.5571
    7.770   22.9489
    7.800   28.6467
    7.830   30.2686
    7.860   24.6972
    7.890   13.4071
    7.920    7.7620
    7.950    7.3934
    7.980    6.7404
    8.010    7.3512
    8.040    7.2459
    8.070    7.2354
    8.100    6.9300
    8.130    6.7825
    8.160    7.1827
    8.190    6.9300
    8.220    6.7930
    8.250    6.6772
    8.280    6.9932
    8.310    6.7299
    8.340    7.1406
    8.370    7.2880
    8.400    6.8141
    8.430    6.9616
    8.460    7.1722
    8.490    7.6672
    8.520    7.3407
    8.550    7.6356
    8.580    7.5935
    8.610    7.0563
    8.640    7.9305
    8.670    7.8568
    8.700    8.5940
    8.730    9.3207
    8.760    9.6893
    8.790    9.0047
    8.820    7.8041
    8.850    6.5824
    8.880    7.3407
    8.910    6.7825
    8.940    7.0248
    8.970    7.2354
    9.000    7.2249
    9.030    7.1827
    9.060    7.2775
    9.090    7.8673
    9.120    7.0985
    9.150    8.2780
    9.180    8.5835
    9.210    8.1622
    9.240    9.1101
    9.270    9.6261
    9.300   10.5108
    9.330   11.5640
    9.360   12.3749
    9.390   13.9231
    9.420   15.4081
    9.450   18.3044
    9.480   21.9063
    9.510   26.9300
    9.540   36.7983
    9.570   48.7836
    9.600   49.7736
    9.630   34.2707
    9.660   16.0716
    9.690    8.3412
    9.720    7.3407
    9.750    6.9089
    9.780    7.1090
    9.810    6.8457
    9.840    7.0248
    9.870    6.5719
    9.900    7.0879
    9.930    7.0037
    9.960    7.2880
    9.990    7.2775
   10.020    6.7088
   10.050    6.9826
   10.080    7.3618
   10.110    7.5303
   10.140    8.0358
   10.170    8.1833
   10.200    8.5729
   10.230    9.9421
   10.260   10.9110
   10.290   11.7430
   10.320   14.5972
   10.350   16.8299
   10.380   16.1032
   10.410   11.3323
   10.440    7.5724
   10.470    6.8562
   10.500    6.8457
   10.530    6.4455
   10.560    5.9505
   10.590    6.9194
   10.620    6.7193
   10.650    6.6456
   10.680    7.2880
   10.710    6.5719
   10.740    6.8668
   10.770    7.3512
   10.800    7.3828
   10.830    7.9516
   10.860    8.0569
   10.890    8.4781
   10.920    9.5103
   10.950   10.3949
   10.980   11.3639
   11.010   13.1543
   11.040   16.9774
   11.070   19.6525
   11.100   17.9463
   11.130   13.4071
   11.160    7.9200
   11.190    6.7404
   11.220    6.4560
   11.250    6.7404
   11.280    6.8668
   11.310    6.3823
   11.340    6.3718
   11.370    6.6245
   11.400    6.5192
   11.430    6.8036
   11.460    6.9300
   11.490    7.2670
   11.520    7.2354
   11.550    7.5408
   11.580    8.1095
   11.610    8.9310
   11.640    9.9315
   11.670   11.0690
   11.700   12.9331
   11.730   16.9879
   11.760   17.0616
   11.790   13.4071
   11.820    9.4365
   11.850    6.8668
   11.880    6.0769
   11.910    6.1295
   11.940    6.3086
   11.970    6.3718
   12.000    6.4876
   12.030    6.4350
   12.060    6.3086
   12.090    6.2875
   12.120    6.2559
   12.150    6.2349
   12.180    5.8136
   12.210    6.5719
   12.240    6.2138
   12.270    6.5403
   12.300    6.6983
   12.330    7.0669
   12.360    7.3618
   12.390    8.0779
   12.420    7.4460
   12.450    6.6561
   12.480    6.1295
   12.510    6.2981
   12.540    6.4876
   12.570    6.1611
   12.600    6.4771
   12.630    6.3191
   12.660    6.6351
   12.690    6.7509
   12.720    6.5929
   12.750    6.3928
   12.780    7.2775
   12.810    7.1090
   12.840    7.5197
   12.870    7.2038
   12.900    8.5835
   12.930    9.6051
   12.960   10.9005
   12.990   12.1959
   13.020   11.4376
   13.050    9.2575
   13.080    6.9721
   13.110    6.5298
   13.140    6.1190
   13.170    6.1927
   13.200    5.9400
   13.230    6.0874
   13.260    5.7083
   13.290    6.2243
   13.320    6.3928
   13.350    6.4139
   13.380    6.6035
   13.410    7.0563
   13.440    7.0037
   13.470    7.2565
   13.500    7.6672
   13.530    8.5203
   13.560    9.2364
   13.590    9.4787
   13.620    8.4887
   13.650    6.9616
   13.680    6.4350
   13.710    6.1295
   13.740    6.3823
   13.770    6.3086
   13.800    5.9505
   13.830    6.6667
   13.860    6.1085
   13.890    6.9826
   13.920    6.4455
   13.950    7.0142
   13.980    7.0353
   14.010    7.9094
   14.040    8.5097
   14.070    9.8999
   14.100   11.5219
   14.130   12.5856
   14.160   11.5219
   14.190    9.5735
   14.220    7.2038
   14.250    6.2454
   14.280    6.0979
   14.310    6.1822
   14.340    6.1822
   14.370    6.2243
   14.400    6.6456
   14.430    6.1401
   14.460    5.7188
   14.490    6.3191
   14.520    6.2559
   14.550    5.9716
   14.580    5.8662
   14.610    6.0874
   14.640    5.9400
   14.670    5.8241
   14.700    6.0558
   14.730    5.8136
   14.760    5.8768
   14.790    6.1401
   14.820    5.8347
   14.850    6.4876
   14.880    5.8873
   14.910    5.9610
   14.940    5.9716
   14.970    6.3507
   15.000    6.0348
   15.030    6.6035
   15.060    6.3402
   15.090    6.3296
   15.120    6.8668
   15.150    7.4039
   15.180    7.1722
   15.210    7.3512
   15.240    7.4144
   15.270    6.2559
   15.300    6.1085
   15.330    5.9610
   15.360    6.0664
   15.390    6.0769
   15.420    5.9400
   15.450    5.8136
   15.480    6.1085
   15.510    5.8662
   15.540    6.0453
   15.570    6.1295
   15.600    6.1506
   15.630    5.9294
   15.660    6.4455
   15.690    6.2981
   15.720    6.3507
   15.750    6.0664
   15.780    6.0242
   15.810    6.2033
   15.840    6.1085
   15.870    6.1611
   15.900    5.8241
   15.930    6.2665
   15.960    6.1085
   15.990    6.3823
   16.020    5.9400
   16.050    6.3507
   16.080    6.7930
   16.110    7.4776
   16.140    8.0147
   16.170    7.8778
   16.200    7.9305
   16.230    7.3512
   16.260    6.7404
   16.290    6.3507
   16.320    5.9716
   16.350    6.1085
   16.380    6.5929
   16.410    6.2454
   16.440    6.0769
   16.470    6.5192
   16.500    5.9716
   16.530    6.2770
   16.560    6.5298
   16.590    7.1827
   16.620    7.1827
   16.650    7.3091
   16.680    7.1301
   16.710    6.9616
   16.740    6.1717
   16.770    6.3296
   16.800    6.0032
   16.830    6.3296
   16.860    6.5719
   16.890    6.6983
   16.920    6.3402
   16.950    7.2775
   16.980    7.8884
   17.010    8.4571
   17.040    9.9210
   17.070   11.4165
   17.100   13.4808
   17.130   12.0695
   17.160   10.1316
   17.190    7.3618
   17.220    6.5719
   17.250    6.2875
   17.280    6.3086
   17.310    6.0979
   17.340    6.0558
   17.370    6.2770
   17.400    6.3507
   17.430    5.9821
   17.460    6.0348
   17.490    6.8457
   17.520    6.8036
   17.550    7.4776
   17.580    7.0669
   17.610    6.8668
   17.640    6.2665
   17.670    5.9821
   17.700    6.1611
   17.730    6.3507
   17.760    6.4139
   17.790    6.2665
   17.820    6.4350
   17.850    6.0348
   17.880    6.1506
   17.910    6.5298
   17.940    7.0353
   17.970    6.7299
   18.000    7.2880
   18.030    6.5613
   18.060    6.3402
   18.090    5.9716
   18.120    5.6135
   18.150    6.0769
   18.180    6.5087
   18.210    6.0558
   18.240    5.8662
   18.270    5.9400
   18.300    6.6667
   18.330    6.5613
   18.360    7.4250
   18.390    7.1301
   18.420    7.5303
   18.450    7.4671
   18.480    7.0563
   18.510    6.2770
   18.540    5.8452
   18.570    6.2454
   18.600    6.2243
   18.630    6.4034
   18.660    6.2665
   18.690    6.3191
   18.720    6.4350
   18.750    6.3402
   18.780    6.4350
   18.810    6.4876
   18.840    7.1511
   18.870    6.2033
   18.900    6.5087
   18.930    6.4666
   18.960    6.2770
   18.990    6.0453
   19.020    6.1717
   19.050    6.5298
   19.080    6.5087
   19.110    6.0242
   19.140    6.4139
   19.170    6.1822
   19.200    6.0453
   19.230    6.1822
   19.260    6.1717
   19.290    6.1927
   19.320    5.9084
   19.350    6.1717
   19.380    5.7399
   19.410    6.2454
   19.440    6.2559
   19.470    6.5192
   19.500    6.2981
   19.530    6.7720
   19.560    7.0879
   19.590    7.4776
   19.620    8.2886
   19.650    7.8884
   19.680    8.2043
   19.710    7.1301
   19.740    6.8141
   19.770    6.2981
   19.800    6.4034
   19.830    6.3296
   19.860    6.6456
   19.890    6.2349
   19.920    6.3191
   19.950    6.3928
   19.980    5.9926
   20.010    6.2454
   20.040    6.6140
   20.070    6.4034
   20.100    6.2665
   20.130    6.2770
   20.160    6.2875
   20.190    6.2349
   20.220    6.5192
   20.250    6.7615
   20.280    6.7615
   20.310    6.7509
   20.340    7.8568
   20.370    8.5519
   20.400    9.8368
   20.430    9.8052
   20.460    9.2364
   20.490    8.7730
   20.520    7.0563
   20.550    6.4771
   20.580    6.0769
   20.610    5.9294
   20.640    5.8347
   20.670    6.1401
   20.700    6.4034
   20.730    6.4455
   20.760    6.3296
   20.790    6.0242
   20.820    6.3507
   20.850    6.1190
   20.880    6.4982
   20.910    6.3507
   20.940    6.4982
   20.970    6.5508
   21.000    6.1927
   21.030    5.4976
   21.060    6.2981
   21.090    6.0242
   21.120    6.1611
   21.150    6.4139
   21.180    6.2033
   21.210    6.3718
   21.240    6.0664
   21.270    6.1506
   21.300    6.3086
   21.330    6.1717
   21.360    6.2875
   21.390    6.1506
   21.420    6.0769
   21.450    6.2770
   21.480    5.9505
   21.510    6.0032
   21.540    6.3507
   21.570    6.4350
   21.600    6.0348
   21.630    6.3402
   21.660    6.2454
   21.690    6.6456
   21.720    6.2770
   21.750    6.6983
   21.780    6.3296
   21.810    6.6667
   21.840    7.2775
   21.870    7.3302
   21.900    8.2991
   21.930    7.4776
   21.960    7.3196
   21.990    6.8984
   22.020    6.2349
   22.050    6.6245
   22.080    6.1822
   22.110    6.9405
   22.140    6.6456
   22.170    6.6351
   22.200    7.4355
   22.230    7.5197
   22.260    7.4566
   22.290    7.2670
   22.320    7.1722
   22.350    6.5929
   22.380    6.8141
   22.410    6.6877
   22.440    6.7930
   22.470    6.9826
   22.500    7.3934
   22.530    9.4050
   22.560   10.1422
   22.590   11.1322
   22.620   11.4692
   22.650   10.6056
   22.680    9.4050
   22.710    7.9621
   22.740    7.0142
   22.770    6.6351
   22.800    7.2670
   22.830    7.3934
   22.860    8.3202
   22.890    9.4365
   22.920   10.2264
   22.950   11.1532
   22.980   11.1638
   23.010    9.6998
   23.040    8.2464
   23.070    6.9194
   23.100    6.5719
   23.130    6.5087
   23.160    6.5613
   23.190    6.6035
   23.220    7.4671
   23.250    7.5408
   23.280    7.2249
   23.310    7.8673
   23.340    7.2880
   23.370    6.9616
   23.400    6.4034
   23.430    6.4244
   23.460    6.4139
   23.490    6.5824
   23.520    6.4666
   23.550    6.4771
   23.580    6.6456
   23.610    6.8036
   23.640    6.8352
   23.670    6.2665
   23.700    6.5087
   23.730    6.3507
   23.760    6.8668
   23.790    6.0979
   23.820    6.5192
   23.850    6.8036
   23.880    7.1301
   23.910    7.6777
   23.940    7.7936
   23.970    7.9200
   24.000    7.9937
   24.030    7.1722
   24.060    6.5298
   24.090    6.4034
   24.120    5.9821
   24.150    6.2981
   24.180    6.2138
   24.210    6.4139
   24.240    6.1927
   24.270    6.8036
   24.300    6.4455
   24.330    6.5298
   24.360    5.9505
   24.390    5.9505
   24.420    6.1611
   24.450    6.1717
   24.480    6.2981
   24.510    6.3612
   24.540    6.2349
   24.570    6.4139
   24.600    6.8457
   24.630    7.0248
   24.660    6.3718
   24.690    6.3612
   24.720    6.2770
   24.750    6.0874
   24.780    6.0453
   24.810    5.9505
   24.840    6.4350
   24.870    6.1085
   24.900    6.6351
   24.930    6.3402
   24.960    6.5613
   24.990    6.7193
   25.020    6.2981
   25.050    6.1506
   25.080    6.2981
   25.110    5.9610
   25.140    6.2665
   25.170    6.2770
   25.200    6.5192
   25.230    6.4982
   25.260    7.1827
   25.290    6.9089
   25.320    6.6351
   25.350    6.0453
   25.380    6.4139
   25.410    6.2138
   25.440    6.1190
   25.470    6.4560
   25.500    6.2033
   25.530    6.6561
   25.560    6.4560
   25.590    6.3823
   25.620    6.4139
   25.650    6.2559
   25.680    6.4034
   25.710    6.8352
   25.740    6.7509
   25.770    7.1090
   25.800    8.4044
   25.830    9.1417
   25.860    9.8473
   25.890    9.6577
   25.920    9.0574
   25.950    7.7936
   25.980    6.4034
   26.010    6.2665
   26.040    5.9294
   26.070    5.9084
   26.100    6.1822
   26.130    6.4455
   26.160    6.2665
   26.190    6.2349
   26.220    6.2138
   26.250    6.3507
   26.280    5.8978
   26.310    6.5824
   26.340    6.3402
   26.370    6.3718
   26.400    6.6561
   26.430    6.8246
   26.460    6.8878
   26.490    6.8773
   26.520    7.2143
   26.550    6.4666
   26.580    6.0979
   26.610    6.1822
   26.640    5.6029
   26.670    5.8662
   26.700    5.9821
   26.730    6.2454
   26.760    6.0769
   26.790    6.0242
   26.820    6.1611
   26.850    5.8031
   26.880    6.1822
   26.910    5.8031
   26.940    6.3191
   26.970    6.4666
   27.000    6.8562
   27.030    7.6145
   27.060    7.6356
   27.090    7.3723
   27.120    6.9194
   27.150    6.4876
   27.180    6.0453
   27.210    5.9821
   27.240    5.8347
   27.270    5.8662
   27.300    5.9821
   27.330    5.6451
   27.360    5.7609
   27.390    5.8768
   27.420    5.6767
   27.450    5.7293
   27.480    5.7293
   27.510    6.1822
   27.540    6.0664
   27.570    6.2559
   27.600    6.6351
   27.630    6.7509
   27.660    6.8352
   27.690    6.7720
   27.720    6.7299
   27.750    6.0032
   27.780    5.8241
   27.810    6.1401
   27.840    6.0979
   27.870    6.0664
   27.900    6.3718
   27.930    6.4876
   27.960    6.3296
   27.990    6.2665
   28.020    6.0453
   28.050    6.0874
   28.080    6.2875
   28.110    6.1927
   28.140    6.8036
   28.170    6.9510
   28.200    7.3723
   28.230    7.0669
   28.260    7.0985
   28.290    6.8246
   28.320    6.0453
   28.350    5.5082
   28.380    5.7188
   28.410    6.4876
   28.440    6.8562
   28.470    6.6983
   28.500    7.2459
   28.530    6.8562
   28.560    6.7930
   28.590    6.1717
   28.620    5.7293
   28.650    5.8557
   28.680    5.4871
   28.710    5.9294
   28.740    5.9821
   28.770    5.7715
   28.800    5.8241
   28.830    5.8031
   28.860    6.1295
   28.890    6.0348
   28.920    6.1717
   28.950    5.6977
   28.980    6.0348
   29.010    5.7083
   29.040    5.5608
   29.070    6.0137
   29.100    5.9084
   29.130    5.7609
   29.160    5.8768
   29.190    5.8136
   29.220    6.1822
   29.250    6.4982
   29.280    6.7299
   29.310    6.4982
   29.340    6.8036
   29.370    6.9405
   29.400    6.0348
   29.430    6.1085
   29.460    5.8452
   29.490    5.8241
   29.520    5.5398
   29.550    5.2870
   29.580    5.6556
   29.610    5.8452
   29.640    5.5924
   29.670    5.6135
   29.700    5.5292
   29.730    5.4555
   29.760    5.5608
   29.790    5.4766
   29.820    6.1190
   29.850    6.3086
   29.880    6.0242
   29.910    6.1190
   29.940    5.6661
   29.970    5.9294
   30.000    5.4660
   30.030    5.4976
   30.060    5.7293
   30.090    5.9716
   30.120    5.7925
   30.150    5.9189
   30.180    5.6029
   30.210    5.5924
   30.240    5.4134
   30.270    5.5292
   30.300    6.0348
   30.330    5.7504
   30.360    5.6977
   30.390    5.7609
   30.420    5.6661
   30.450    5.8662
   30.480    5.9189
   30.510    5.7083
   30.540    5.8557
   30.570    5.9084
   30.600    5.8768
   30.630    6.2243
   30.660    5.9084
   30.690    5.9926
   30.720    5.8347
   30.750    5.8768
   30.780    5.7820
   30.810    5.4134
   30.840    5.8347
   30.870    5.3607
   30.900    5.9926
   30.930    5.8031
   30.960    5.3923
   30.990    5.7609
   31.020    5.6767
   31.050    5.3712
   31.080    5.7715
   31.110    5.3186
   31.140    5.3923
   31.170    5.5819
   31.200    5.4871
   31.230    5.7820
   31.260    5.2659
   31.290    5.6556
   31.320    5.5292
   31.350    5.7293
   31.380    6.2665
   31.410    6.3612
   31.440    6.2138
   31.470    5.8978
   31.500    5.9926
   31.530    5.7609
   31.560    5.1711
   31.590    5.2765
   31.620    5.5924
   31.650    5.7083
   31.680    6.0137
   31.710    5.5714
   31.740    5.8978
   31.770    5.5082
   31.800    5.5819
   31.830    5.5187
   31.860    5.3186
   31.890    5.6451
   31.920    5.6029
   31.950    5.4344
   31.980    5.5082
   32.010    5.2870
   32.040    5.4555
   32.070    5.5819
   32.100    5.6872
   32.130    5.6240
   32.160    5.7715
   32.190    5.6872
   32.220    5.4450
   32.250    5.4344
   32.280    5.6872
   32.310    5.3712
   32.340    5.4555
   32.370    5.1290
   32.400    5.8768
   32.430    5.0553
   32.460    4.9921
   32.490    5.2659
   32.520    5.0658
   32.550    5.0764
   32.580    5.3291
   32.610    5.3291
   32.640    5.3291
   32.670    5.3923
   32.700    5.1817
   32.730    5.0342
   32.760    5.1606
   32.790    5.3291
   32.820    5.2449
   32.850    5.5292
   32.880    5.5503
   32.910    5.2975
   32.940    5.3186
   32.970    5.7188
   33.000    5.4871
   33.030    5.4660
   33.060    5.0026
   33.090    5.0764
   33.120    5.2027
   33.150    5.0342
   33.180    5.1395
   33.210    5.1395
   33.240    5.1185
   33.270    4.9816
   33.300    5.3397
   33.330    5.6135
   33.360    4.9500
   33.390    4.9605
   33.420    5.1606
   33.450    4.9605
   33.480    4.7077
   33.510    5.1290
   33.540    4.7288
   33.570    5.0764
   33.600    5.2238
   33.630    5.1606
   33.660    5.2449
   33.690    5.1290
   33.720    5.2343
   33.750    5.7715
   33.780    5.2870
   33.810    5.2659
   33.840    5.5819
   33.870    5.5819
   33.900    5.7293
   33.930    6.0032
   33.960    5.7715
   33.990    5.5714
   34.020    5.1922
   34.050    5.4976
   34.080    5.0658
   34.110    5.1606
   34.140    4.9394
   34.170    5.1711
   34.200    5.1185
   34.230    5.0132
   34.260    5.0237
   34.290    5.0553
   34.320    4.9289
   34.350    4.8447
   34.380    5.0974
   34.410    5.0237
   34.440    5.0869
   34.470    5.0658
   34.500    4.9394
   34.530    5.0553
   34.560    5.1606
   34.590    5.1185
   34.620    4.8868
   34.650    5.0764
   34.680    4.8447
   34.710    4.9394
   34.740    4.8868
   34.770    5.2449
   34.800    5.2975
   34.830    5.3502
   34.860    5.3818
   34.890    5.3081
   34.920    5.3081
   34.950    5.2343
   34.980    4.9816
   35.010    4.6024
   35.040    5.1817
   35.070    4.8131
   35.100    4.6235
   35.130    4.6340
   35.160    4.6445
   35.190    5.0553
   35.220    4.6340
   35.250    5.1922
   35.280    4.6761
   35.310    5.0237
   35.340    5.0658
   35.370    4.8236
   35.400    5.0658
   35.430    5.1185
   35.460    4.4760
   35.490    4.7077
   35.520    4.8131
   35.550    4.8447
   35.580    4.5919
   35.610    5.4555
   35.640    4.5498
   35.670    4.6235
   35.700    4.9078
   35.730    5.1080
   35.760    4.9289
   35.790    5.0026
   35.820    4.8552
   35.850    4.8657
   35.880    4.8341
   35.910    5.1711
   35.940    5.4134
   35.970    5.0237
   36.000    4.7709
   36.030    4.6445
   36.060    5.0974
   36.090    4.9921
   36.120    5.0237
   36.150    4.8973
   36.180    5.1080
   36.210    4.8025
   36.240    4.9289
   36.270    5.2343
   36.300    4.7077
   36.330    4.7604
   36.360    5.0869
   36.390    5.0132
   36.420    4.7920
   36.450    4.6130
   36.480    4.5814
   36.510    4.6761
   36.540    4.7077
   36.570    4.5076
   36.600    5.0342
   36.630    4.7393
   36.660    5.1606
   36.690    4.7499
   36.720    5.4028
   36.750    4.7077
   36.780    4.7077
   36.810    4.7077
   36.840    4.5498
   36.870    4.5076
   36.900    4.6551
   36.930    4.5919
   36.960    4.5076
   36.990    4.6551
   37.020    5.0132
   37.050    4.6972
   37.080    5.0026
   37.110    4.9816
   37.140    4.9921
   37.170    5.2765
   37.200    5.2554
   37.230    4.8973
   37.260    4.8236
   37.290    4.6024
   37.320    4.8973
   37.350    4.7183
   37.380    4.6340
   37.410    4.4971
   37.440    4.4866
   37.470    4.5708
   37.500    4.5287
   37.530    4.5708
   37.560    5.0658
   37.590    5.0237
   37.620    4.4971
   37.650    4.4234
   37.680    4.6761
   37.710    4.6445
   37.740    4.8341
   37.770    4.6235
   37.800    4.6656
   37.830    4.6656
   37.860    4.5392
   37.890    4.7393
   37.920    4.9078
   37.950    4.9816
   37.980    4.5919
   38.010    4.6235
   38.040    4.8025
   38.070    4.7709
   38.100    4.7920
   38.130    4.4760
   38.160    5.1290
   38.190    4.4444
   38.220    4.8131
   38.250    4.7393
   38.280    4.8131
   38.310    4.4655
   38.340    4.3181
   38.370    4.7815
   38.400    5.0026
   38.430    4.8341
   38.460    4.8763
   38.490    4.7183
   38.520    4.2865
   38.550    4.6656
   38.580    4.6340
   38.610    4.6867
   38.640    4.1811
   38.670    4.1496
   38.700    4.4550
   38.730    4.1811
   38.760    4.4444
   38.790    4.5287
   38.820    4.6761
   38.850    4.6656
   38.880    4.3075
   38.910    4.2022
   38.940    4.3918
   38.970    4.3602
   39.000    4.4971
   39.030    4.6340
   39.060    4.4234
   39.090    4.2127
   39.120    4.6130
   39.150    4.6656
   39.180    4.5287
   39.210    4.4339
   39.240    4.5919
   39.270    4.8131
   39.300    4.4655
   39.330    5.1080
   39.360    4.5287
   39.390    4.8236
   39.420    4.6340
   39.450    4.7183
   39.480    4.5076
   39.510    4.3075
   39.540    4.7183
   39.570    4.3813
   39.600    4.7604
   39.630    4.2970
   39.660    4.7709
   39.690    4.4128
   39.720    4.7499
   39.750    4.7393
   39.780    4.5603
   39.810    4.4550
   39.840    4.7604
   39.870    4.3602
   39.900    4.5392
   39.930    4.4444
   39.960    4.5287
   39.990    4.4866