File: data/MOCOF-1/PXRD/PXRD_KE-263_Co-Ka1_capillary-1mm_3s-deg.xyd
    1.500    6.5097
    1.530    6.4741
    1.560    5.9747
    1.590    5.6001
    1.620    5.2434
    1.650    4.9046
    1.680    4.5657
    1.710    4.7262
    1.740    4.2090
    1.770    4.1555
    1.800    3.9415
    1.830    3.7810
    1.860    3.7096
    1.890    3.3530
    1.920    3.5670
    1.950    3.2103
    1.980    2.5504
    2.010    2.7466
    2.040    2.6217
    2.070    2.3542
    2.100    2.4969
    2.130    2.3899
    2.160    2.1937
    2.190    2.3720
    2.220    2.0153
    2.250    1.7121
    2.280    1.9083
    2.310    1.6051
    2.340    1.9262
    2.370    1.7300
    2.400    1.6765
    2.430    1.7657
    2.460    1.7478
    2.490    1.3733
    2.520    1.3376
    2.550    1.5338
    2.580    1.4981
    2.610    1.3733
    2.640    1.3376
    2.670    1.2484
    2.700    1.3198
    2.730    1.1593
    2.760    1.1593
    2.790    1.1771
    2.820    1.1058
    2.850    1.0523
    2.880    1.1058
    2.910    0.8382
    2.940    0.9274
    2.970    0.8917
    3.000    1.0344
    3.030    1.0523
    3.060    0.8917
    3.090    0.9274
    3.120    0.8026
    3.150    0.9809
    3.180    0.8026
    3.210    0.9452
    3.240    0.8026
    3.270    0.9809
    3.300    0.8204
    3.330    0.7491
    3.360    0.7491
    3.390    0.6242
    3.420    0.6956
    3.450    0.6421
    3.480    0.5707
    3.510    0.6064
    3.540    0.5707
    3.570    0.8204
    3.600    0.8739
    3.630    0.6064
    3.660    0.5886
    3.690    0.6956
    3.720    0.5886
    3.750    0.8026
    3.780    0.5886
    3.810    0.6777
    3.840    0.7847
    3.870    0.7491
    3.900    0.5350
    3.930    0.6242
    3.960    0.6599
    3.990    0.5886
    4.020    0.5172
    4.050    0.4637
    4.080    0.5350
    4.110    0.6064
    4.140    0.4459
    4.170    0.6242
    4.200    0.7312
    4.230    0.6421
    4.260    0.6242
    4.290    0.7312
    4.320    0.7312
    4.350    0.8204
    4.380    0.7847
    4.410    0.9809
    4.440    0.8739
    4.470    0.7491
    4.500    0.8204
    4.530    0.7491
    4.560    0.5886
    4.590    0.7847
    4.620    0.5350
    4.650    0.6064
    4.680    0.5886
    4.710    0.5707
    4.740    0.6064
    4.770    0.5886
    4.800    0.4994
    4.830    0.5886
    4.860    0.5529
    4.890    0.6242
    4.920    0.6599
    4.950    0.7491
    4.980    0.5707
    5.010    0.5529
    5.040    0.5886
    5.070    0.5350
    5.100    0.4994
    5.130    0.5707
    5.160    0.4637
    5.190    0.6599
    5.220    0.6956
    5.250    0.5529
    5.280    0.4280
    5.310    0.4637
    5.340    0.3924
    5.370    0.4637
    5.400    0.5172
    5.430    0.6777
    5.460    0.4815
    5.490    0.6064
    5.520    0.6242
    5.550    0.5350
    5.580    0.5886
    5.610    0.5172
    5.640    0.5707
    5.670    0.4280
    5.700    0.4994
    5.730    0.5707
    5.760    0.4637
    5.790    0.4102
    5.820    0.4459
    5.850    0.4994
    5.880    0.6064
    5.910    0.3567
    5.940    0.5350
    5.970    0.5350
    6.000    0.6064
    6.030    0.5350
    6.060    0.4994
    6.090    0.4994
    6.120    0.5529
    6.150    0.4459
    6.180    0.6242
    6.210    0.4102
    6.240    0.4815
    6.270    0.4994
    6.300    0.4815
    6.330    0.5350
    6.360    0.5886
    6.390    0.4994
    6.420    0.6242
    6.450    0.4280
    6.480    0.4994
    6.510    0.4637
    6.540    0.6421
    6.570    0.5172
    6.600    0.4815
    6.630    0.5529
    6.660    0.5350
    6.690    0.5172
    6.720    0.4459
    6.750    0.4102
    6.780    0.5172
    6.810    0.3032
    6.840    0.4637
    6.870    0.3745
    6.900    0.6242
    6.930    0.4637
    6.960    0.5350
    6.990    0.4637
    7.020    0.3567
    7.050    0.3745
    7.080    0.6242
    7.110    0.4815
    7.140    0.3567
    7.170    0.4459
    7.200    0.3745
    7.230    0.4637
    7.260    0.3924
    7.290    0.3389
    7.320    0.6064
    7.350    0.3745
    7.380    0.4994
    7.410    0.4459
    7.440    0.5350
    7.470    0.5529
    7.500    0.6064
    7.530    0.3924
    7.560    0.4280
    7.590    0.3924
    7.620    0.3924
    7.650    0.5886
    7.680    0.5707
    7.710    0.3389
    7.740    0.5529
    7.770    0.5529
    7.800    0.4815
    7.830    0.4280
    7.860    0.4994
    7.890    0.4994
    7.920    0.4280
    7.950    0.5886
    7.980    0.4102
    8.010    0.5707
    8.040    0.4459
    8.070    0.4459
    8.100    0.4102
    8.130    0.5529
    8.160    0.5707
    8.190    0.3745
    8.220    0.4102
    8.250    0.4994
    8.280    0.4994
    8.310    0.4280
    8.340    0.4280
    8.370    0.3924
    8.400    0.3389
    8.430    0.3924
    8.460    0.6064
    8.490    0.6599
    8.520    0.5350
    8.550    0.3389
    8.580    0.4994
    8.610    0.5529
    8.640    0.4102
    8.670    0.3745
    8.700    0.5350
    8.730    0.4459
    8.760    0.4102
    8.790    0.4102
    8.820    0.3745
    8.850    0.3210
    8.880    0.5350
    8.910    0.6599
    8.940    0.5350
    8.970    0.4815
    9.000    0.5707
    9.030    0.4459
    9.060    0.4459
    9.090    0.4637
    9.120    0.4815
    9.150    0.6956
    9.180    0.4815
    9.210    0.5886
    9.240    0.5172
    9.270    0.5350
    9.300    0.4994
    9.330    0.4815
    9.360    0.6777
    9.390    0.3745
    9.420    0.5707
    9.450    0.4280
    9.480    0.4280
    9.510    0.4994
    9.540    0.4815
    9.570    0.5350
    9.600    0.5886
    9.630    0.4994
    9.660    0.5529
    9.690    0.5707
    9.720    0.4637
    9.750    0.6242
    9.780    0.5886
    9.810    0.5172
    9.840    0.4815
    9.870    0.4994
    9.900    0.4280
    9.930    0.4637
    9.960    0.4280
    9.990    0.5886
   10.020    0.5350
   10.050    0.6242
   10.080    0.5886
   10.110    0.6777
   10.140    0.6777
   10.170    0.6777
   10.200    0.5886
   10.230    0.5350
   10.260    0.5529
   10.290    0.5350
   10.320    0.5172
   10.350    0.5350
   10.380    0.5350
   10.410    0.7134
   10.440    0.5172
   10.470    0.5529
   10.500    0.5529
   10.530    0.6599
   10.560    0.4994
   10.590    0.4637
   10.620    0.7134
   10.650    0.6956
   10.680    0.6956
   10.710    0.7134
   10.740    0.5350
   10.770    0.7134
   10.800    0.4459
   10.830    0.5529
   10.860    0.5886
   10.890    0.5172
   10.920    0.4994
   10.950    0.6777
   10.980    0.4815
   11.010    0.5886
   11.040    0.7491
   11.070    0.5350
   11.100    0.6599
   11.130    0.6421
   11.160    0.9631
   11.190    0.6956
   11.220    0.6064
   11.250    0.6064
   11.280    0.4815
   11.310    0.5707
   11.340    0.6777
   11.370    0.5886
   11.400    0.6421
   11.430    0.6242
   11.460    0.6421
   11.490    0.5172
   11.520    0.6599
   11.550    0.7669
   11.580    0.6421
   11.610    0.6242
   11.640    0.6599
   11.670    0.7134
   11.700    0.7847
   11.730    0.7312
   11.760    0.7134
   11.790    0.6421
   11.820    0.6777
   11.850    0.4637
   11.880    0.6599
   11.910    0.3745
   11.940    0.5529
   11.970    0.6777
   12.000    0.7312
   12.030    0.5350
   12.060    0.6064
   12.090    0.5886
   12.120    0.4637
   12.150    0.6064
   12.180    0.6242
   12.210    0.5707
   12.240    0.6956
   12.270    0.6421
   12.300    0.7312
   12.330    0.7134
   12.360    0.7669
   12.390    0.8561
   12.420    0.7134
   12.450    0.5886
   12.480    0.4994
   12.510    0.5529
   12.540    0.5529
   12.570    0.5529
   12.600    0.3924
   12.630    0.7669
   12.660    0.5707
   12.690    0.6956
   12.720    0.6421
   12.750    0.4280
   12.780    0.4815
   12.810    0.5529
   12.840    0.4815
   12.870    0.6599
   12.900    0.4994
   12.930    0.7134
   12.960    0.5886
   12.990    0.4459
   13.020    0.4459
   13.050    0.6421
   13.080    0.4994
   13.110    0.7134
   13.140    0.5529
   13.170    0.6421
   13.200    0.6599
   13.230    0.6777
   13.260    0.7134
   13.290    0.6421
   13.320    0.5886
   13.350    0.5172
   13.380    0.5172
   13.410    0.5707
   13.440    0.6421
   13.470    0.5886
   13.500    0.4280
   13.530    0.5350
   13.560    0.5350
   13.590    0.5529
   13.620    0.4280
   13.650    0.8561
   13.680    1.1771
   13.710    1.2128
   13.740    0.6777
   13.770    0.6956
   13.800    0.5350
   13.830    0.4994
   13.860    0.5350
   13.890    0.4815
   13.920    0.6064
   13.950    0.4815
   13.980    0.4102
   14.010    0.4459
   14.040    0.3389
   14.070    0.5707
   14.100    0.5886
   14.130    0.5886
   14.160    0.4815
   14.190    0.5172
   14.220    0.4994
   14.250    0.5350
   14.280    0.4459
   14.310    0.4459
   14.340    0.3210
   14.370    0.4459
   14.400    0.4994
   14.430    0.5886
   14.460    0.3745
   14.490    0.3924
   14.520    0.4637
   14.550    0.4637
   14.580    0.4637
   14.610    0.4994
   14.640    0.4637
   14.670    0.3389
   14.700    0.4459
   14.730    0.4459
   14.760    0.4459
   14.790    0.6599
   14.820    0.3924
   14.850    0.3745
   14.880    0.5172
   14.910    0.6064
   14.940    0.4994
   14.970    0.4280
   15.000    0.6064
   15.030    0.6242
   15.060    0.5350
   15.090    0.3210
   15.120    0.3210
   15.150    0.5350
   15.180    0.3567
   15.210    0.4637
   15.240    0.3032
   15.270    0.4102
   15.300    0.4994
   15.330    0.4815
   15.360    0.5529
   15.390    0.4102
   15.420    0.3567
   15.450    0.4280
   15.480    0.4102
   15.510    0.4637
   15.540    0.3924
   15.570    0.3567
   15.600    0.4637
   15.630    0.4280
   15.660    0.3924
   15.690    0.3389
   15.720    0.3567
   15.750    0.4459
   15.780    0.4815
   15.810    0.4280
   15.840    0.3032
   15.870    0.4637
   15.900    0.4459
   15.930    0.4280
   15.960    0.4102
   15.990    0.4102
   16.020    0.4815
   16.050    0.4994
   16.080    0.3210
   16.110    0.3924
   16.140    0.4459
   16.170    0.3924
   16.200    0.4102
   16.230    0.4280
   16.260    0.4102
   16.290    0.3745
   16.320    0.4815
   16.350    0.5350
   16.380    0.4102
   16.410    0.4994
   16.440    0.5886
   16.470    0.3745
   16.500    0.4815
   16.530    0.4459
   16.560    0.3924
   16.590    0.4280
   16.620    0.5350
   16.650    0.4459
   16.680    0.4815
   16.710    0.4994
   16.740    0.3032
   16.770    0.4459
   16.800    0.2854
   16.830    0.4815
   16.860    0.4280
   16.890    0.3924
   16.920    0.5350
   16.950    0.4102
   16.980    0.3389
   17.010    0.3567
   17.040    0.3924
   17.070    0.4102
   17.100    0.5172
   17.130    0.4280
   17.160    0.3210
   17.190    0.3745
   17.220    0.3745
   17.250    0.3210
   17.280    0.4994
   17.310    0.5529
   17.340    0.4637
   17.370    0.3924
   17.400    0.4637
   17.430    0.4459
   17.460    0.5707
   17.490    0.4280
   17.520    0.4280
   17.550    0.5172
   17.580    0.4280
   17.610    0.4459
   17.640    0.6064
   17.670    0.5172
   17.700    0.4994
   17.730    0.4459
   17.760    0.4280
   17.790    0.4815
   17.820    0.3567
   17.850    0.5707
   17.880    0.4102
   17.910    0.5529
   17.940    0.4280
   17.970    0.3389
   18.000    0.5886
   18.030    0.5172
   18.060    0.3389
   18.090    0.3567
   18.120    0.3567
   18.150    0.2675
   18.180    0.4637
   18.210    0.4102
   18.240    0.4102
   18.270    0.4637
   18.300    0.4459
   18.330    0.5172
   18.360    0.3567
   18.390    0.3924
   18.420    0.3032
   18.450    0.4994
   18.480    0.4994
   18.510    0.5172
   18.540    0.3745
   18.570    0.3924
   18.600    0.4637
   18.630    0.7312
   18.660    0.9096
   18.690    0.7491
   18.720    0.3924
   18.750    0.5172
   18.780    0.4815
   18.810    0.4459
   18.840    0.3210
   18.870    0.3745
   18.900    0.3210
   18.930    0.4280
   18.960    0.4280
   18.990    0.3389
   19.020    0.4815
   19.050    0.4994
   19.080    0.3567
   19.110    0.4994
   19.140    0.5529
   19.170    0.4102
   19.200    0.4637
   19.230    0.4459
   19.260    0.4994
   19.290    0.3032
   19.320    0.5707
   19.350    0.3745
   19.380    0.5529
   19.410    0.5172
   19.440    0.1962
   19.470    0.3924
   19.500    0.4280
   19.530    0.4994
   19.560    0.5707
   19.590    0.4459
   19.620    0.4637
   19.650    0.5172
   19.680    0.4815
   19.710    0.4459
   19.740    0.4815
   19.770    0.3924
   19.800    0.4459
   19.830    0.4459
   19.860    0.3567
   19.890    0.3924
   19.920    0.4280
   19.950    0.2497
   19.980    0.3745
   20.010    0.4637
   20.040    0.3924
   20.070    0.4459
   20.100    0.4280
   20.130    0.4637
   20.160    0.3924
   20.190    0.4280
   20.220    0.3924
   20.250    0.4815
   20.280    0.5350
   20.310    0.4102
   20.340    0.3389
   20.370    0.4815
   20.400    0.3924
   20.430    0.4102
   20.460    0.2319
   20.490    0.3032
   20.520    0.3745
   20.550    0.4102
   20.580    0.5172
   20.610    0.3389
   20.640    0.3210
   20.670    0.4280
   20.700    0.5350
   20.730    0.4459
   20.760    0.5350
   20.790    0.3567
   20.820    0.3924
   20.850    0.4815
   20.880    0.3210
   20.910    0.3567
   20.940    0.3210
   20.970    0.5172
   21.000    0.5707
   21.030    0.4280
   21.060    0.3389
   21.090    0.3567
   21.120    0.4459
   21.150    0.6777
   21.180    0.4459
   21.210    0.3032
   21.240    0.4280
   21.270    0.4459
   21.300    0.3210
   21.330    0.3924
   21.360    0.4102
   21.390    0.3567
   21.420    0.4994
   21.450    0.3032
   21.480    0.6421
   21.510    0.4459
   21.540    0.6599
   21.570    0.7134
   21.600    0.6064
   21.630    0.6064
   21.660    0.5529
   21.690    0.4637
   21.720    0.3567
   21.750    0.4102
   21.780    0.4637
   21.810    0.4637
   21.840    0.4637
   21.870    0.4637
   21.900    0.4102
   21.930    0.3924
   21.960    0.3210
   21.990    0.3924
   22.020    0.5172
   22.050    0.6242
   22.080    0.5172
   22.110    0.4815
   22.140    0.4815
   22.170    0.5707
   22.200    0.4637
   22.230    0.4459
   22.260    0.4102
   22.290    0.5172
   22.320    0.6242
   22.350    0.3745
   22.380    0.5529
   22.410    0.5350
   22.440    0.5172
   22.470    0.5886
   22.500    0.5350
   22.530    0.3745
   22.560    0.4637
   22.590    0.5172
   22.620    0.4637
   22.650    0.5172
   22.680    0.4994
   22.710    0.3032
   22.740    0.4459
   22.770    0.4994
   22.800    0.6421
   22.830    0.4815
   22.860    0.4815
   22.890    0.4459
   22.920    0.4637
   22.950    0.4280
   22.980    0.6599
   23.010    0.4637
   23.040    0.4815
   23.070    0.5350
   23.100    0.4815
   23.130    0.6064
   23.160    0.4815
   23.190    0.4280
   23.220    0.4815
   23.250    0.4637
   23.280    0.4637
   23.310    0.4459
   23.340    0.4280
   23.370    0.4994
   23.400    0.5707
   23.430    0.3389
   23.460    0.4102
   23.490    0.3745
   23.520    0.5707
   23.550    0.6064
   23.580    0.5707
   23.610    0.3210
   23.640    0.4102
   23.670    0.6956
   23.700    0.5350
   23.730    0.4459
   23.760    0.5707
   23.790    0.4280
   23.820    0.4280
   23.850    0.4459
   23.880    0.4815
   23.910    0.5529
   23.940    0.4102
   23.970    0.5172
   24.000    0.5529
   24.030    0.4459
   24.060    0.3389
   24.090    0.4102
   24.120    0.4994
   24.150    0.4459
   24.180    0.4280
   24.210    0.5172
   24.240    0.4280
   24.270    0.4637
   24.300    0.4637
   24.330    0.5350
   24.360    0.5529
   24.390    0.5529
   24.420    0.4637
   24.450    0.4815
   24.480    0.5707
   24.510    0.5529
   24.540    0.4459
   24.570    0.4459
   24.600    0.3924
   24.630    0.4280
   24.660    0.3924
   24.690    0.4815
   24.720    0.4102
   24.750    0.4280
   24.780    0.4459
   24.810    0.3567
   24.840    0.6777
   24.870    0.8026
   24.900    0.6956
   24.930    0.9096
   24.960    0.7669
   24.990    0.4994
   25.020    0.6242
   25.050    0.4815
   25.080    0.6064
   25.110    0.4459
   25.140    0.5886
   25.170    0.5707
   25.200    0.3032
   25.230    0.3745
   25.260    0.6064
   25.290    0.4280
   25.320    0.4637
   25.350    0.5350
   25.380    0.5350
   25.410    0.4459
   25.440    0.3567
   25.470    0.4459
   25.500    0.5350
   25.530    0.5707
   25.560    0.5529
   25.590    0.4459
   25.620    0.5529
   25.650    0.4815
   25.680    0.5172
   25.710    0.5350
   25.740    0.4637
   25.770    0.5707
   25.800    0.5172
   25.830    0.5529
   25.860    0.5529
   25.890    0.4815
   25.920    0.5350
   25.950    0.4637
   25.980    0.5350
   26.010    0.4815
   26.040    0.4994
   26.070    0.4815
   26.100    0.3567
   26.130    0.4815
   26.160    0.4280
   26.190    0.4815
   26.220    0.8561
   26.250    0.4815
   26.280    0.6599
   26.310    0.5172
   26.340    0.4280
   26.370    0.3924
   26.400    0.4280
   26.430    0.4280
   26.460    0.3389
   26.490    0.7134
   26.520    0.6242
   26.550    0.5350
   26.580    0.4815
   26.610    0.4994
   26.640    0.4459
   26.670    0.4280
   26.700    0.4459
   26.730    0.4815
   26.760    0.3032
   26.790    0.6064
   26.820    0.4280
   26.850    0.4994
   26.880    0.3567
   26.910    0.5172
   26.940    0.5529
   26.970    0.4459
   27.000    0.7134
   27.030    0.4994
   27.060    0.6956
   27.090    0.6421
   27.120    0.4815
   27.150    0.5529
   27.180    0.4637
   27.210    0.4459
   27.240    0.4815
   27.270    0.4280
   27.300    0.3924
   27.330    0.5707
   27.360    0.3567
   27.390    0.5529
   27.420    0.4459
   27.450    0.5529
   27.480    0.5172
   27.510    0.5350
   27.540    0.5172
   27.570    0.4994
   27.600    0.6064
   27.630    0.7134
   27.660    0.5172
   27.690    0.6421
   27.720    0.4815
   27.750    0.4994
   27.780    0.4637
   27.810    0.4994
   27.840    0.4994
   27.870    0.5529
   27.900    0.5172
   27.930    0.4994
   27.960    0.5350
   27.990    0.4280
   28.020    0.5350
   28.050    0.6242
   28.080    0.4637
   28.110    0.5707
   28.140    0.5707
   28.170    0.5172
   28.200    0.6421
   28.230    0.7491
   28.260    0.8382
   28.290    1.2663
   28.320    1.1771
   28.350    1.0344
   28.380    1.1949
   28.410    0.8739
   28.440    0.6421
   28.470    0.7312
   28.500    0.4994
   28.530    0.5172
   28.560    0.5172
   28.590    0.4994
   28.620    0.5707
   28.650    0.4815
   28.680    0.5529
   28.710    0.6421
   28.740    0.4102
   28.770    0.3567
   28.800    0.5529
   28.830    0.3567
   28.860    0.4280
   28.890    0.4280
   28.920    0.6599
   28.950    0.4459
   28.980    0.5172
   29.010    0.4459
   29.040    0.3567
   29.070    0.3745
   29.100    0.4994
   29.130    0.2675
   29.160    0.4994
   29.190    0.4637
   29.220    0.4637
   29.250    0.5529
   29.280    0.3389
   29.310    0.5707
   29.340    0.4994
   29.370    0.4815
   29.400    0.5529
   29.430    0.6599
   29.460    0.8382
   29.490    0.7669
   29.520    0.9274
   29.550    0.9274
   29.580    0.8026
   29.610    0.7847
   29.640    0.6421
   29.670    0.5886
   29.700    0.4459
   29.730    0.6064
   29.760    0.4994
   29.790    0.4994
   29.820    0.4459
   29.850    0.5529
   29.880    0.4102
   29.910    0.5350
   29.940    0.3924
   29.970    0.4459
   30.000    0.6777
   30.030    0.5172
   30.060    0.5886
   30.090    0.9809
   30.120    1.3554
   30.150    1.0523
   30.180    0.8739
   30.210    0.8739
   30.240    0.7134
   30.270    0.6777
   30.300    0.4637
   30.330    0.3745
   30.360    0.6777
   30.390    0.4994
   30.420    0.6421
   30.450    0.4102
   30.480    0.4637
   30.510    0.4994
   30.540    0.4280
   30.570    0.5172
   30.600    0.3924
   30.630    0.3567
   30.660    0.4637
   30.690    0.4637
   30.720    0.5707
   30.750    0.3210
   30.780    0.5350
   30.810    0.5886
   30.840    0.4102
   30.870    0.5350
   30.900    0.5529
   30.930    0.4815
   30.960    0.3567
   30.990    0.4102
   31.020    0.3210
   31.050    0.4994
   31.080    0.3210
   31.110    0.5350
   31.140    0.4102
   31.170    0.5350
   31.200    0.5886
   31.230    0.6242
   31.260    1.0344
   31.290    1.2663
   31.320    1.8370
   31.350    1.8370
   31.380    1.5873
   31.410    1.1593
   31.440    0.8917
   31.470    0.6956
   31.500    0.5707
   31.530    0.4102
   31.560    0.4637
   31.590    0.5350
   31.620    0.5172
   31.650    0.4459
   31.680    0.4102
   31.710    0.4637
   31.740    0.5886
   31.770    0.6599
   31.800    0.9096
   31.830    1.0701
   31.860    1.4625
   31.890    1.5516
   31.920    1.5873
   31.950    1.3198
   31.980    1.0166
   32.010    0.6064
   32.040    0.4815
   32.070    0.4459
   32.100    0.4280
   32.130    0.5529
   32.160    0.3924
   32.190    0.3924
   32.220    0.4459
   32.250    0.4994
   32.280    0.4102
   32.310    0.4102
   32.340    0.2854
   32.370    0.4459
   32.400    0.3745
   32.430    0.4459
   32.460    0.3210
   32.490    0.5350
   32.520    0.3924
   32.550    0.2675
   32.580    0.4815
   32.610    0.3210
   32.640    0.3389
   32.670    0.3389
   32.700    0.3032
   32.730    0.4815
   32.760    0.4637
   32.790    0.3210
   32.820    0.3924
   32.850    0.3924
   32.880    0.3745
   32.910    0.4102
   32.940    0.5886
   32.970    0.3745
   33.000    0.3210
   33.030    0.3389
   33.060    0.4102
   33.090    0.4102
   33.120    0.3210
   33.150    0.3389
   33.180    0.4459
   33.210    0.4280
   33.240    0.3210
   33.270    0.5529
   33.300    0.2497
   33.330    0.4102
   33.360    0.4459
   33.390    0.2854
   33.420    0.3032
   33.450    0.3745
   33.480    0.3032
   33.510    0.4459
   33.540    0.6421
   33.570    0.6064
   33.600    0.4637
   33.630    0.4815
   33.660    0.4459
   33.690    0.4815
   33.720    0.3389
   33.750    0.3924
   33.780    0.3032
   33.810    0.4815
   33.840    0.4280
   33.870    0.4637
   33.900    0.3567
   33.930    0.3210
   33.960    0.3745
   33.990    0.3032
   34.020    0.3745
   34.050    0.4280
   34.080    0.4459
   34.110    0.3745
   34.140    0.2854
   34.170    0.3745
   34.200    0.3924
   34.230    0.4102
   34.260    0.2854
   34.290    0.4459
   34.320    0.4994
   34.350    0.4280
   34.380    0.3389
   34.410    0.3032
   34.440    0.4637
   34.470    0.4102
   34.500    0.4459
   34.530    0.4102
   34.560    0.4815
   34.590    0.4815
   34.620    0.3745
   34.650    0.3032
   34.680    0.3567
   34.710    0.5172
   34.740    0.2854
   34.770    0.4637
   34.800    0.4459
   34.830    0.2319
   34.860    0.5172
   34.890    0.3032
   34.920    0.3032
   34.950    0.4280
   34.980    0.3389
   35.010    0.3567
   35.040    0.3389
   35.070    0.3389
   35.100    0.4815
   35.130    0.3567
   35.160    0.4459
   35.190    0.3924
   35.220    0.3389
   35.250    0.3567
   35.280    0.4815
   35.310    0.3745
   35.340    0.5886
   35.370    0.4102
   35.400    0.4637
   35.430    0.5529
   35.460    0.3745
   35.490    0.3032
   35.520    0.3924
   35.550    0.2675
   35.580    0.3924
   35.610    0.3567
   35.640    0.3567
   35.670    0.2497
   35.700    0.3389
   35.730    0.3567
   35.760    0.2854
   35.790    0.4102
   35.820    0.3210
   35.850    0.2854
   35.880    0.2854
   35.910    0.2854
   35.940    0.3210
   35.970    0.2497
   36.000    0.3567
   36.030    0.2854
   36.060    0.1962
   36.090    0.3210
   36.120    0.4280
   36.150    0.3567
   36.180    0.3924
   36.210    0.3567
   36.240    0.4459
   36.270    0.3924
   36.300    0.3389
   36.330    0.3567
   36.360    0.1962
   36.390    0.4102
   36.420    0.3032
   36.450    0.3567
   36.480    0.1783
   36.510    0.3745
   36.540    0.2319
   36.570    0.3745
   36.600    0.2497
   36.630    0.3032
   36.660    0.2319
   36.690    0.3210
   36.720    0.2319
   36.750    0.4102
   36.780    0.2319
   36.810    0.3567
   36.840    0.3032
   36.870    0.4102
   36.900    0.3924
   36.930    0.3032
   36.960    0.2675
   36.990    0.3567
   37.020    0.2854
   37.050    0.4102
   37.080    0.3389
   37.110    0.4102
   37.140    0.4459
   37.170    0.3745
   37.200    0.3924
   37.230    0.3032
   37.260    0.3210
   37.290    0.3210
   37.320    0.3032
   37.350    0.3567
   37.380    0.2497
   37.410    0.3389
   37.440    0.3745
   37.470    0.3210
   37.500    0.2675
   37.530    0.3032
   37.560    0.2140
   37.590    0.2140
   37.620    0.2497
   37.650    0.2675
   37.680    0.2854
   37.710    0.3389
   37.740    0.3389
   37.770    0.1962
   37.800    0.3210
   37.830    0.2854
   37.860    0.3924
   37.890    0.3745
   37.920    0.2319
   37.950    0.2140
   37.980    0.3032
   38.010    0.4102
   38.040    0.2854
   38.070    0.4102
   38.100    0.3567
   38.130    0.3389
   38.160    0.3745
   38.190    0.3567
   38.220    0.3210
   38.250    0.3210
   38.280    0.3210
   38.310    0.2319
   38.340    0.3032
   38.370    0.2854
   38.400    0.3210
   38.430    0.2854
   38.460    0.1783
   38.490    0.1962
   38.520    0.2319
   38.550    0.2675
   38.580    0.2319
   38.610    0.2675
   38.640    0.1248
   38.670    0.1605
   38.700    0.3210
   38.730    0.2497
   38.760    0.3210
   38.790    0.3210
   38.820    0.1783
   38.850    0.2854
   38.880    0.2319
   38.910    0.2140
   38.940    0.1783
   38.970    0.2854
   39.000    0.2497
   39.030    0.3924
   39.060    0.3210
   39.090    0.2319
   39.120    0.2675
   39.150    0.3210
   39.180    0.2140
   39.210    0.3210
   39.240    0.3032
   39.270    0.2319
   39.300    0.3567
   39.330    0.1605
   39.360    0.2319
   39.390    0.1605
   39.420    0.2497
   39.450    0.3389
   39.480    0.2497
   39.510    0.3567
   39.540    0.2497
   39.570    0.2497
   39.600    0.2675
   39.630    0.2497
   39.660    0.2854
   39.690    0.2675
   39.720    0.1962
   39.750    0.2319
   39.780    0.3567
   39.810    0.3032
   39.840    0.2497
   39.870    0.3210
   39.900    0.3567
   39.930    0.1783
   39.960    0.3032
   39.990    0.2319