File: data/MOCOF-1/PXRD/PXRD_KE-089_Cu-Ka1_capillary-1mm_5s-deg.xyd
    1.500   24.4550
    1.530   23.8968
    1.560   24.0548
    1.590   23.6546
    1.620   22.3065
    1.650   22.4539
    1.680   21.4113
    1.710   21.6851
    1.740   21.0216
    1.770   20.7478
    1.800   19.8947
    1.830   19.8526
    1.860   18.8204
    1.890   18.5571
    1.920   18.9152
    1.950   18.4729
    1.980   18.0727
    2.010   17.4408
    2.040   17.6725
    2.070   17.6935
    2.100   16.9774
    2.130   17.0511
    2.160   16.6087
    2.190   16.9563
    2.220   16.4824
    2.250   15.9663
    2.280   16.0084
    2.310   16.1243
    2.340   16.2928
    2.370   16.2191
    2.400   15.5134
    2.430   15.5240
    2.460   15.4502
    2.490   14.8183
    2.520   15.1659
    2.550   15.0500
    2.580   15.5977
    2.610   15.3870
    2.640   15.8820
    2.670   16.2507
    2.700   15.3344
    2.730   15.9031
    2.760   15.5872
    2.790   15.8610
    2.820   15.9242
    2.850   15.4186
    2.880   16.5140
    2.910   16.9036
    2.940   16.1769
    2.970   16.9984
    3.000   17.0827
    3.030   17.6198
    3.060   18.0621
    3.090   18.1464
    3.120   18.6519
    3.150   18.0621
    3.180   19.3576
    3.210   20.5055
    3.240   21.4639
    3.270   22.5803
    3.300   23.7809
    3.330   24.5287
    3.360   25.4344
    3.390   27.6777
    3.420   28.7520
    3.450   29.5840
    3.480   28.7625
    3.510   27.5619
    3.540   24.6972
    3.570   22.1485
    3.600   20.4107
    3.630   20.7688
    3.660   19.9263
    3.690   20.6108
    3.720   21.3691
    3.750   22.7593
    3.780   23.0964
    3.810   24.3181
    3.840   26.2981
    3.870   27.5408
    3.900   25.6767
    3.930   22.4961
    3.960   18.2728
    3.990   16.8931
    4.020   15.7346
    4.050   14.8394
    4.080   14.7762
    4.110   14.4602
    4.140   13.5124
    4.170   12.6488
    4.200   11.5850
    4.230   11.8167
    4.260   11.5113
    4.290   10.4265
    4.320   10.5951
    4.350   10.1527
    4.380    9.9315
    4.410    9.8052
    4.440   10.1948
    4.470    9.3944
    4.500    8.5413
    4.530    9.2259
    4.560    9.2259
    4.590    8.6467
    4.620    8.7204
    4.650    8.7836
    4.680    8.8889
    4.710    8.3623
    4.740    8.6993
    4.770    8.1517
    4.800    8.7836
    4.830    8.1727
    4.860    8.7204
    4.890    8.3202
    4.920    8.2149
    4.950    8.5624
    4.980    8.0569
    5.010    8.2780
    5.040    8.2780
    5.070    8.5413
    5.100    8.0779
    5.130    8.1201
    5.160    8.4360
    5.190    8.1622
    5.220    8.4150
    5.250    8.5835
    5.280    8.9837
    5.310    8.4887
    5.340    9.0258
    5.370    8.9310
    5.400    9.2680
    5.430    9.4260
    5.460    9.6788
    5.490   10.2370
    5.520   10.1106
    5.550    8.5729
    5.580    8.3202
    5.610    8.0147
    5.640    7.4250
    5.670    7.3723
    5.700    7.6461
    5.730    7.3407
    5.760    7.7093
    5.790    7.2775
    5.820    7.6777
    5.850    7.2565
    5.880    7.6461
    5.910    7.2775
    5.940    7.2775
    5.970    7.3828
    6.000    7.0353
    6.030    7.3934
    6.060    7.6672
    6.090    7.0353
    6.120    6.9616
    6.150    7.7093
    6.180    7.3828
    6.210    7.1617
    6.240    7.3091
    6.270    7.3302
    6.300    7.2459
    6.330    7.2986
    6.360    7.2880
    6.390    7.3407
    6.420    7.6145
    6.450    7.6883
    6.480    7.8673
    6.510    7.8568
    6.540    7.5408
    6.570    7.8041
    6.600    7.4671
    6.630    7.5513
    6.660    7.9410
    6.690    8.1938
    6.720    8.4571
    6.750    8.5203
    6.780    8.2570
    6.810    8.4992
    6.840    8.2570
    6.870    8.2675
    6.900    8.8046
    6.930    8.6993
    6.960    8.7098
    6.990    8.5729
    7.020    8.3096
    7.050    7.9410
    7.080    7.9937
    7.110    7.7830
    7.140    8.1517
    7.170    7.7199
    7.200    7.7830
    7.230    7.6567
    7.260    7.5619
    7.290    7.2986
    7.320    7.5513
    7.350    7.8252
    7.380    7.5092
    7.410    7.6356
    7.440    7.6883
    7.470    7.9516
    7.500    7.5724
    7.530    7.5619
    7.560    7.8357
    7.590    8.0358
    7.620    8.1938
    7.650    7.8989
    7.680    8.2991
    7.710    8.3518
    7.740    8.0990
    7.770    8.1727
    7.800    8.2570
    7.830    8.3623
    7.860    8.2464
    7.890    8.4781
    7.920    7.9937
    7.950    7.9094
    7.980    8.0674
    8.010    7.9516
    8.040    8.4466
    8.070    8.0042
    8.100    8.0253
    8.130    8.0569
    8.160    8.1411
    8.190    8.3202
    8.220    7.8252
    8.250    7.8146
    8.280    7.6883
    8.310    7.8989
    8.340    7.8884
    8.370    7.6883
    8.400    7.8252
    8.430    7.8357
    8.460    7.6356
    8.490    7.5513
    8.520    8.0358
    8.550    7.7620
    8.580    7.4566
    8.610    7.5724
    8.640    7.5619
    8.670    7.6356
    8.700    7.8357
    8.730    7.9410
    8.760    7.0985
    8.790    7.6145
    8.820    7.9516
    8.850    7.3828
    8.880    7.7093
    8.910    7.6145
    8.940    7.5092
    8.970    7.8252
    9.000    7.5092
    9.030    8.0147
    9.060    7.0774
    9.090    7.6356
    9.120    7.3302
    9.150    7.4355
    9.180    6.9616
    9.210    7.3091
    9.240    7.2986
    9.270    7.3196
    9.300    7.3091
    9.330    7.6988
    9.360    7.5092
    9.390    7.9094
    9.420    7.6777
    9.450    7.3828
    9.480    8.2675
    9.510    8.6572
    9.540    8.1517
    9.570    8.3202
    9.600    7.7093
    9.630    7.7830
    9.660    7.5092
    9.690    7.1933
    9.720    6.9405
    9.750    7.1617
    9.780    7.3512
    9.810    6.9616
    9.840    7.2143
    9.870    7.3196
    9.900    6.5929
    9.930    6.9405
    9.960    7.2670
    9.990    7.1090
   10.020    7.3934
   10.050    7.6883
   10.080    7.1195
   10.110    7.0248
   10.140    7.5408
   10.170    7.1406
   10.200    7.4987
   10.230    7.2354
   10.260    7.5092
   10.290    7.2565
   10.320    7.4776
   10.350    7.3723
   10.380    7.0879
   10.410    7.2880
   10.440    7.2986
   10.470    6.9194
   10.500    7.0248
   10.530    6.8457
   10.560    7.1406
   10.590    7.2670
   10.620    7.0353
   10.650    7.0142
   10.680    6.8036
   10.710    7.4144
   10.740    6.9300
   10.770    7.2143
   10.800    7.2143
   10.830    6.9510
   10.860    6.6983
   10.890    7.3091
   10.920    7.2459
   10.950    6.9194
   10.980    7.0353
   11.010    7.6461
   11.040    6.8457
   11.070    6.9405
   11.100    6.9089
   11.130    6.9405
   11.160    6.4876
   11.190    7.0458
   11.220    7.0458
   11.250    6.6983
   11.280    6.9932
   11.310    6.9194
   11.340    7.0669
   11.370    7.0458
   11.400    6.3507
   11.430    6.8668
   11.460    6.9089
   11.490    6.9932
   11.520    6.9932
   11.550    6.7825
   11.580    6.8773
   11.610    6.5613
   11.640    7.3512
   11.670    7.0353
   11.700    6.9089
   11.730    7.4460
   11.760    7.1301
   11.790    6.9300
   11.820    6.7404
   11.850    6.5298
   11.880    6.5087
   11.910    6.8246
   11.940    6.7193
   11.970    6.6561
   12.000    6.4982
   12.030    6.7615
   12.060    6.8036
   12.090    7.0563
   12.120    6.7615
   12.150    6.5087
   12.180    6.7509
   12.210    6.6772
   12.240    6.6561
   12.270    6.7404
   12.300    6.6983
   12.330    6.7615
   12.360    6.7509
   12.390    6.7615
   12.420    6.8668
   12.450    6.5929
   12.480    6.8457
   12.510    6.4876
   12.540    6.1822
   12.570    6.5192
   12.600    6.4982
   12.630    6.6561
   12.660    6.4244
   12.690    6.8984
   12.720    6.6667
   12.750    6.3402
   12.780    6.6667
   12.810    6.5613
   12.840    6.4876
   12.870    6.4139
   12.900    6.6456
   12.930    6.7509
   12.960    6.2770
   12.990    6.5192
   13.020    6.4876
   13.050    6.6983
   13.080    6.2770
   13.110    6.7299
   13.140    6.6667
   13.170    6.4876
   13.200    6.5192
   13.230    6.4771
   13.260    6.2138
   13.290    6.6983
   13.320    6.2138
   13.350    6.1611
   13.380    6.5613
   13.410    6.5929
   13.440    6.2243
   13.470    6.1085
   13.500    6.8457
   13.530    6.4244
   13.560    6.4771
   13.590    6.4034
   13.620    6.5403
   13.650    6.1085
   13.680    6.3507
   13.710    6.1822
   13.740    6.1611
   13.770    6.2033
   13.800    6.5508
   13.830    6.4666
   13.860    6.1717
   13.890    6.6245
   13.920    6.3296
   13.950    6.2559
   13.980    6.4876
   14.010    6.5613
   14.040    6.6877
   14.070    6.6983
   14.100    6.3507
   14.130    6.5613
   14.160    6.3718
   14.190    6.3402
   14.220    6.3296
   14.250    6.4666
   14.280    6.5508
   14.310    6.1085
   14.340    6.2138
   14.370    6.1717
   14.400    6.3718
   14.430    6.1401
   14.460    6.5719
   14.490    6.1611
   14.520    6.3402
   14.550    6.4876
   14.580    6.7720
   14.610    6.4244
   14.640    6.0453
   14.670    6.5824
   14.700    6.2349
   14.730    6.2349
   14.760    6.2665
   14.790    6.3507
   14.820    6.4666
   14.850    6.2349
   14.880    6.5403
   14.910    6.4244
   14.940    6.2770
   14.970    6.1927
   15.000    6.4560
   15.030    6.4139
   15.060    6.5613
   15.090    6.4982
   15.120    6.4244
   15.150    6.8878
   15.180    6.9510
   15.210    6.4139
   15.240    6.4034
   15.270    6.3402
   15.300    6.3507
   15.330    6.4771
   15.360    6.3823
   15.390    6.3086
   15.420    6.5719
   15.450    6.4771
   15.480    5.9716
   15.510    6.5298
   15.540    6.6035
   15.570    6.4876
   15.600    6.7088
   15.630    6.2349
   15.660    6.6456
   15.690    6.3823
   15.720    6.5824
   15.750    6.5192
   15.780    6.6772
   15.810    6.1190
   15.840    6.3823
   15.870    6.2454
   15.900    6.4034
   15.930    6.3296
   15.960    6.5087
   15.990    6.4771
   16.020    6.2454
   16.050    6.3402
   16.080    6.4034
   16.110    6.6456
   16.140    6.1927
   16.170    6.6035
   16.200    6.2559
   16.230    6.2559
   16.260    6.7088
   16.290    6.6456
   16.320    6.3296
   16.350    6.6456
   16.380    6.8562
   16.410    6.7088
   16.440    6.6140
   16.470    6.3718
   16.500    6.2981
   16.530    6.3718
   16.560    6.6456
   16.590    6.5087
   16.620    6.4666
   16.650    6.7825
   16.680    6.7088
   16.710    6.4560
   16.740    6.2559
   16.770    6.4244
   16.800    6.7193
   16.830    6.6561
   16.860    6.6561
   16.890    6.7615
   16.920    6.3718
   16.950    6.2665
   16.980    6.2454
   17.010    6.6983
   17.040    6.5403
   17.070    6.4350
   17.100    6.6456
   17.130    6.3612
   17.160    6.6245
   17.190    6.9089
   17.220    6.4560
   17.250    6.5087
   17.280    6.5508
   17.310    6.3928
   17.340    6.1927
   17.370    6.3823
   17.400    6.1611
   17.430    6.8562
   17.460    6.3191
   17.490    6.7825
   17.520    6.5298
   17.550    6.2349
   17.580    6.8352
   17.610    6.1717
   17.640    7.0142
   17.670    6.7299
   17.700    6.2770
   17.730    6.8352
   17.760    6.5929
   17.790    6.8878
   17.820    6.3718
   17.850    6.7930
   17.880    6.3928
   17.910    6.4139
   17.940    6.7720
   17.970    6.5087
   18.000    6.5719
   18.030    6.9721
   18.060    6.3718
   18.090    6.8878
   18.120    6.8562
   18.150    6.3718
   18.180    6.6351
   18.210    6.6667
   18.240    6.5929
   18.270    6.5824
   18.300    6.5508
   18.330    6.8141
   18.360    6.7509
   18.390    6.6772
   18.420    6.5613
   18.450    6.8773
   18.480    6.8457
   18.510    6.8773
   18.540    6.5824
   18.570    6.4560
   18.600    6.5824
   18.630    6.8352
   18.660    6.6561
   18.690    6.6772
   18.720    6.6983
   18.750    6.4560
   18.780    6.8668
   18.810    6.3612
   18.840    6.4244
   18.870    6.3612
   18.900    7.0458
   18.930    7.1301
   18.960    7.1827
   18.990    7.2249
   19.020    7.0458
   19.050    7.1511
   19.080    7.0248
   19.110    6.5298
   19.140    6.6140
   19.170    6.6351
   19.200    6.3296
   19.230    6.6667
   19.260    6.0874
   19.290    6.1822
   19.320    6.5613
   19.350    7.0142
   19.380    6.4666
   19.410    6.8562
   19.440    6.4771
   19.470    6.7088
   19.500    7.2880
   19.530    6.7088
   19.560    6.9826
   19.590    6.6772
   19.620    7.0458
   19.650    6.7299
   19.680    6.2454
   19.710    6.5929
   19.740    6.8036
   19.770    6.8246
   19.800    6.7825
   19.830    6.8457
   19.860    6.8878
   19.890    6.4244
   19.920    6.7193
   19.950    6.7193
   19.980    6.8246
   20.010    6.4455
   20.040    6.3402
   20.070    6.5298
   20.100    6.5824
   20.130    6.8141
   20.160    6.6035
   20.190    7.1090
   20.220    6.3402
   20.250    6.8457
   20.280    7.0669
   20.310    6.7720
   20.340    6.7825
   20.370    7.4566
   20.400    6.9510
   20.430    6.8562
   20.460    6.6772
   20.490    7.1827
   20.520    7.0248
   20.550    6.8668
   20.580    6.8878
   20.610    6.7720
   20.640    6.9089
   20.670    6.9826
   20.700    6.6561
   20.730    6.7615
   20.760    6.9510
   20.790    7.1406
   20.820    6.6351
   20.850    7.0037
   20.880    6.7404
   20.910    7.0458
   20.940    6.6667
   20.970    7.1301
   21.000    6.5613
   21.030    6.6351
   21.060    7.0774
   21.090    6.9089
   21.120    7.1933
   21.150    6.6667
   21.180    6.6983
   21.210    6.8668
   21.240    7.2249
   21.270    7.1195
   21.300    6.8984
   21.330    7.1933
   21.360    7.0879
   21.390    6.8246
   21.420    6.9300
   21.450    6.6983
   21.480    6.9932
   21.510    6.6035
   21.540    6.7930
   21.570    6.9616
   21.600    7.2670
   21.630    6.9826
   21.660    6.7720
   21.690    6.7404
   21.720    7.3618
   21.750    6.9510
   21.780    6.8352
   21.810    7.2565
   21.840    6.6245
   21.870    6.9616
   21.900    6.6877
   21.930    6.8457
   21.960    6.9616
   21.990    6.8036
   22.020    6.6667
   22.050    6.8984
   22.080    7.0353
   22.110    6.8457
   22.140    6.8141
   22.170    6.5298
   22.200    6.7615
   22.230    6.9194
   22.260    7.0142
   22.290    6.9405
   22.320    6.7930
   22.350    6.9194
   22.380    6.6983
   22.410    6.9932
   22.440    7.1301
   22.470    6.7509
   22.500    6.7615
   22.530    7.2775
   22.560    7.4144
   22.590    7.2565
   22.620    7.2249
   22.650    6.6983
   22.680    6.8984
   22.710    7.0669
   22.740    6.7509
   22.770    6.8246
   22.800    6.7193
   22.830    6.9510
   22.860    6.9300
   22.890    6.9194
   22.920    7.1827
   22.950    6.8141
   22.980    6.4560
   23.010    7.0142
   23.040    7.2565
   23.070    6.5929
   23.100    6.8984
   23.130    6.3507
   23.160    6.9405
   23.190    7.5197
   23.220    6.6983
   23.250    6.5929
   23.280    6.4982
   23.310    6.7299
   23.340    6.8457
   23.370    6.3823
   23.400    6.6667
   23.430    6.7825
   23.460    6.3718
   23.490    7.1406
   23.520    6.7299
   23.550    6.9300
   23.580    6.8036
   23.610    7.0879
   23.640    6.8141
   23.670    6.7509
   23.700    6.3296
   23.730    6.7825
   23.760    6.7299
   23.790    6.7720
   23.820    6.7088
   23.850    7.1406
   23.880    6.7615
   23.910    6.6456
   23.940    6.8352
   23.970    6.4982
   24.000    6.5087
   24.030    6.4666
   24.060    6.5192
   24.090    6.9089
   24.120    6.5929
   24.150    6.5613
   24.180    6.8036
   24.210    6.3823
   24.240    6.9510
   24.270    6.6351
   24.300    6.2875
   24.330    6.3718
   24.360    6.5929
   24.390    6.4244
   24.420    7.0037
   24.450    6.8457
   24.480    6.3612
   24.510    6.4666
   24.540    6.9721
   24.570    6.4876
   24.600    6.7930
   24.630    6.2875
   24.660    6.7088
   24.690    6.9510
   24.720    6.3507
   24.750    6.3086
   24.780    6.3718
   24.810    6.4560
   24.840    6.6351
   24.870    6.5719
   24.900    6.7404
   24.930    6.4666
   24.960    6.3507
   24.990    6.2033
   25.020    6.1506
   25.050    6.1295
   25.080    6.5298
   25.110    6.4455
   25.140    6.5508
   25.170    6.4455
   25.200    6.4244
   25.230    6.1611
   25.260    6.5613
   25.290    6.6772
   25.320    5.9400
   25.350    6.4560
   25.380    6.3718
   25.410    6.6983
   25.440    6.5824
   25.470    6.6245
   25.500    6.6245
   25.530    6.2665
   25.560    6.4771
   25.590    6.6245
   25.620    6.4350
   25.650    6.4350
   25.680    6.1401
   25.710    6.9616
   25.740    6.6456
   25.770    6.8141
   25.800    6.4455
   25.830    6.6245
   25.860    6.4771
   25.890    6.4771
   25.920    6.4350
   25.950    6.4982
   25.980    6.1401
   26.010    6.3086
   26.040    6.4982
   26.070    6.7720
   26.100    6.5929
   26.130    6.1085
   26.160    6.4034
   26.190    6.5087
   26.220    6.4139
   26.250    6.2559
   26.280    6.3191
   26.310    5.8241
   26.340    6.3086
   26.370    6.4244
   26.400    6.0032
   26.430    6.3507
   26.460    6.1822
   26.490    6.0453
   26.520    6.3612
   26.550    6.2559
   26.580    6.6245
   26.610    6.0348
   26.640    6.2875
   26.670    6.1190
   26.700    6.3296
   26.730    6.1190
   26.760    6.2243
   26.790    6.2349
   26.820    6.0348
   26.850    6.0242
   26.880    6.0664
   26.910    6.1085
   26.940    6.1085
   26.970    6.0979
   27.000    6.2875
   27.030    6.7088
   27.060    6.4034
   27.090    6.1190
   27.120    6.3296
   27.150    5.9294
   27.180    6.2559
   27.210    5.9084
   27.240    6.0032
   27.270    6.4455
   27.300    6.1295
   27.330    6.0769
   27.360    6.0769
   27.390    6.3296
   27.420    6.1506
   27.450    6.0558
   27.480    6.0874
   27.510    6.0979
   27.540    5.9610
   27.570    6.0453
   27.600    6.0874
   27.630    5.9505
   27.660    6.1611
   27.690    5.8768
   27.720    5.9084
   27.750    6.0137
   27.780    6.1927
   27.810    6.0348
   27.840    6.1506
   27.870    6.0664
   27.900    6.3823
   27.930    6.0032
   27.960    6.1401
   27.990    5.9821
   28.020    6.3718
   28.050    6.1717
   28.080    6.3823
   28.110    5.7083
   28.140    6.1822
   28.170    6.0874
   28.200    5.8031
   28.230    5.6977
   28.260    5.8557
   28.290    5.9294
   28.320    5.8557
   28.350    5.3818
   28.380    5.9610
   28.410    5.8768
   28.440    5.7715
   28.470    6.0664
   28.500    5.8978
   28.530    6.1822
   28.560    5.8347
   28.590    5.7504
   28.620    5.9505
   28.650    6.0664
   28.680    5.5714
   28.710    5.8347
   28.740    5.3291
   28.770    5.6872
   28.800    5.6345
   28.830    5.6135
   28.860    5.9189
   28.890    6.0979
   28.920    5.9505
   28.950    5.8768
   28.980    5.8873
   29.010    5.9400
   29.040    6.0558
   29.070    5.9084
   29.100    5.6556
   29.130    5.7715
   29.160    5.9400
   29.190    5.9400
   29.220    5.7399
   29.250    5.8136
   29.280    5.5924
   29.310    5.8452
   29.340    6.0348
   29.370    5.9716
   29.400    5.6872
   29.430    5.6345
   29.460    6.0242
   29.490    5.8452
   29.520    6.0453
   29.550    5.9400
   29.580    5.5187
   29.610    5.5714
   29.640    5.4134
   29.670    5.6767
   29.700    5.7609
   29.730    5.4555
   29.760    5.6135
   29.790    6.0032
   29.820    5.7504
   29.850    5.6872
   29.880    5.4766
   29.910    5.7083
   29.940    5.3291
   29.970    5.5819
   30.000    5.7715
   30.030    5.7188
   30.060    5.5608
   30.090    5.5924
   30.120    5.4344
   30.150    5.3712
   30.180    5.5714
   30.210    5.3923
   30.240    5.5082
   30.270    5.9189
   30.300    5.6135
   30.330    5.5503
   30.360    5.8557
   30.390    5.3712
   30.420    5.7188
   30.450    5.5714
   30.480    5.4134
   30.510    5.5503
   30.540    5.3818
   30.570    5.4871
   30.600    5.7504
   30.630    5.6661
   30.660    5.5819
   30.690    5.4555
   30.720    5.5187
   30.750    5.5714
   30.780    5.7609
   30.810    5.5187
   30.840    5.6977
   30.870    5.9189
   30.900    5.4028
   30.930    5.9189
   30.960    5.6345
   30.990    5.5292
   31.020    5.2027
   31.050    5.6451
   31.080    5.2133
   31.110    5.3502
   31.140    5.8031
   31.170    5.2870
   31.200    5.2659
   31.230    5.4555
   31.260    5.5503
   31.290    5.1290
   31.320    5.6977
   31.350    5.4239
   31.380    5.3186
   31.410    5.5187
   31.440    5.6977
   31.470    5.6029
   31.500    5.4134
   31.530    5.4450
   31.560    5.2238
   31.590    5.3923
   31.620    5.8662
   31.650    5.2765
   31.680    5.5082
   31.710    5.3923
   31.740    5.5082
   31.770    5.5082
   31.800    5.5819
   31.830    5.6240
   31.860    5.4871
   31.890    5.5714
   31.920    4.9605
   31.950    5.4239
   31.980    5.7083
   32.010    6.0032
   32.040    5.8347
   32.070    5.9610
   32.100    6.0242
   32.130    5.5714
   32.160    5.2659
   32.190    5.4660
   32.220    5.3186
   32.250    5.1711
   32.280    5.3081
   32.310    5.0448
   32.340    5.1290
   32.370    5.0237
   32.400    5.2343
   32.430    5.1606
   32.460    5.2343
   32.490    5.0869
   32.520    5.3081
   32.550    5.2449
   32.580    5.4028
   32.610    5.2659
   32.640    5.2238
   32.670    4.9710
   32.700    5.4134
   32.730    5.2765
   32.760    5.5398
   32.790    5.1922
   32.820    5.2659
   32.850    5.3291
   32.880    5.2449
   32.910    5.1606
   32.940    5.1080
   32.970    4.6867
   33.000    5.0553
   33.030    5.0764
   33.060    5.2765
   33.090    5.3712
   33.120    5.0974
   33.150    5.1501
   33.180    5.2027
   33.210    5.0132
   33.240    5.0448
   33.270    5.0026
   33.300    5.2133
   33.330    5.0132
   33.360    5.5714
   33.390    5.0448
   33.420    5.1922
   33.450    4.9500
   33.480    5.4134
   33.510    4.9710
   33.540    5.1290
   33.570    4.9289
   33.600    4.9605
   33.630    5.2343
   33.660    5.0869
   33.690    4.8131
   33.720    5.2027
   33.750    5.0974
   33.780    5.4766
   33.810    5.2027
   33.840    5.3923
   33.870    5.7504
   33.900    5.2027
   33.930    5.2975
   33.960    5.3818
   33.990    5.4766
   34.020    5.3818
   34.050    5.1185
   34.080    4.8657
   34.110    4.8131
   34.140    5.1922
   34.170    4.9710
   34.200    5.1185
   34.230    5.2659
   34.260    4.8973
   34.290    5.0764
   34.320    5.2449
   34.350    5.0132
   34.380    4.7815
   34.410    5.0764
   34.440    4.8657
   34.470    4.9605
   34.500    5.1080
   34.530    5.2343
   34.560    4.6130
   34.590    4.7920
   34.620    5.2027
   34.650    5.0026
   34.680    4.9394
   34.710    4.8552
   34.740    4.6340
   34.770    4.7183
   34.800    4.8131
   34.830    4.8236
   34.860    4.7499
   34.890    4.7393
   34.920    5.1711
   34.950    4.7499
   34.980    4.8236
   35.010    4.8973
   35.040    4.8868
   35.070    5.0026
   35.100    5.1080
   35.130    4.9078
   35.160    4.4128
   35.190    4.8341
   35.220    4.7920
   35.250    4.8236
   35.280    4.8025
   35.310    5.1080
   35.340    4.9289
   35.370    4.8552
   35.400    4.6551
   35.430    4.7709
   35.460    4.6867
   35.490    5.0553
   35.520    4.9710
   35.550    4.9816
   35.580    4.8447
   35.610    4.7393
   35.640    4.7815
   35.670    5.0132
   35.700    4.5076
   35.730    4.6656
   35.760    4.7709
   35.790    4.7499
   35.820    4.8131
   35.850    4.8973
   35.880    4.7920
   35.910    4.6656
   35.940    4.7077
   35.970    4.9394
   36.000    4.7288
   36.030    4.7288
   36.060    4.9816
   36.090    4.8341
   36.120    5.1185
   36.150    4.8341
   36.180    4.7288
   36.210    4.7183
   36.240    4.7077
   36.270    5.2554
   36.300    5.0658
   36.330    4.9605
   36.360    4.4550
   36.390    4.4444
   36.420    4.4971
   36.450    4.7077
   36.480    4.8973
   36.510    5.0132
   36.540    4.4866
   36.570    4.6340
   36.600    4.8236
   36.630    4.6024
   36.660    4.5814
   36.690    4.9289
   36.720    4.7393
   36.750    4.9394
   36.780    4.5814
   36.810    4.8236
   36.840    4.8657
   36.870    4.3391
   36.900    4.3813
   36.930    4.4550
   36.960    4.9184
   36.990    4.6445
   37.020    4.9921
   37.050    4.5182
   37.080    4.5708
   37.110    4.3181
   37.140    4.6340
   37.170    4.7920
   37.200    4.4128
   37.230    4.5498
   37.260    4.8763
   37.290    4.7288
   37.320    4.8552
   37.350    4.6130
   37.380    4.4550
   37.410    4.7393
   37.440    4.6656
   37.470    4.6972
   37.500    4.7077
   37.530    4.4234
   37.560    4.8552
   37.590    4.9078
   37.620    4.4023
   37.650    4.4655
   37.680    4.3707
   37.710    4.5287
   37.740    4.6972
   37.770    4.7288
   37.800    4.6972
   37.830    4.7077
   37.860    4.7183
   37.890    4.9394
   37.920    4.6867
   37.950    4.6551
   37.980    4.7183
   38.010    4.6761
   38.040    4.8025
   38.070    4.6656
   38.100    4.6235
   38.130    4.7288
   38.160    4.4760
   38.190    4.4866
   38.220    4.7709
   38.250    4.5182
   38.280    4.6340
   38.310    4.3391
   38.340    4.5814
   38.370    4.9394
   38.400    4.3918
   38.430    4.4444
   38.460    4.4234
   38.490    4.6445
   38.520    4.5708
   38.550    4.9921
   38.580    4.5814
   38.610    4.8341
   38.640    4.7288
   38.670    4.8447
   38.700    4.4655
   38.730    4.5603
   38.760    4.6972
   38.790    4.5814
   38.820    4.5498
   38.850    4.4655
   38.880    4.5708
   38.910    4.3918
   38.940    4.5603
   38.970    4.9184
   39.000    4.6340
   39.030    4.7393
   39.060    4.8763
   39.090    4.7288
   39.120    4.5708
   39.150    4.7183
   39.180    4.5287
   39.210    4.2443
   39.240    4.4128
   39.270    4.7709
   39.300    4.4234
   39.330    3.9389
   39.360    4.3707
   39.390    4.6130
   39.420    4.7393
   39.450    4.4971
   39.480    4.5708
   39.510    4.5182
   39.540    4.6130
   39.570    4.6761
   39.600    4.2970
   39.630    4.5076
   39.660    4.3497
   39.690    4.6761
   39.720    4.6656
   39.750    4.7709
   39.780    4.7604
   39.810    4.5392
   39.840    4.3918
   39.870    4.8657
   39.900    4.7077
   39.930    4.6340
   39.960    4.5814
   39.990    4.1390