File: data/MOCOF-1/PXRD/PXRD_KE-285B_Cu-Ka1_film-3mm_3s-deg.xyd
    1.500   18.0972
    1.530   18.3781
    1.560   16.7281
    1.590   17.1318
    1.620   15.7276
    1.650   15.5872
    1.680   14.9903
    1.710   15.0255
    1.740   13.8318
    1.770   14.5515
    1.800   13.2350
    1.830   13.2350
    1.860   12.8489
    1.890   12.9366
    1.920   12.7435
    1.950   12.8313
    1.980   12.1116
    2.010   11.8132
    2.040   11.4095
    2.070   11.8308
    2.100   12.1116
    2.130   11.4797
    2.160   10.8478
    2.190   10.7952
    2.220   10.7249
    2.250   10.2861
    2.280   10.0579
    2.310   10.4265
    2.340   10.0579
    2.370    9.7771
    2.400   10.0755
    2.430    9.6542
    2.460    9.7771
    2.490   10.7074
    2.520    9.7069
    2.550    9.5138
    2.580    9.2856
    2.610    9.3558
    2.640    9.3734
    2.670    8.7941
    2.700    8.8117
    2.730    9.2329
    2.760    8.3553
    2.790    9.1978
    2.820    9.5664
    2.850    8.5133
    2.880    8.6361
    2.910    8.4079
    2.940    8.9872
    2.970    8.8643
    3.000    8.7765
    3.030    8.4957
    3.060    8.7590
    3.090    8.3026
    3.120    8.6010
    3.150    8.5659
    3.180    8.7239
    3.210    9.0574
    3.240    9.1101
    3.270    8.1446
    3.300    8.6537
    3.330    8.5659
    3.360    8.7590
    3.390    8.4781
    3.420    8.3728
    3.450    9.4787
    3.480    9.7244
    3.510    8.7063
    3.540   10.2861
    3.570    9.4611
    3.600   10.4968
    3.630   10.1632
    3.660   10.8478
    3.690   11.3920
    3.720   11.5324
    3.750   12.8664
    3.780   14.4989
    3.810   15.3063
    3.840   17.9568
    3.870   19.3260
    3.900   15.0781
    3.930   11.3744
    3.960    8.8468
    3.990    8.3904
    4.020    8.8994
    4.050    7.7585
    4.080    8.6888
    4.110    8.6361
    4.140    8.3377
    4.170    8.0218
    4.200    8.4957
    4.230    7.9691
    4.260    7.8287
    4.290    8.0920
    4.320    8.1797
    4.350    8.0744
    4.380    8.0744
    4.410    7.9164
    4.440    8.0393
    4.470    8.2149
    4.500    8.3728
    4.530    7.6005
    4.560    8.0042
    4.590    7.9867
    4.620    8.1095
    4.650    7.8287
    4.680    8.2149
    4.710    8.6010
    4.740    8.4079
    4.770    8.1095
    4.800    8.0042
    4.830    8.1271
    4.860    8.1446
    4.890    8.1797
    4.920    8.4079
    4.950    8.7765
    4.980    8.4781
    5.010    8.3553
    5.040    8.9345
    5.070    9.4436
    5.100    9.2680
    5.130    9.7069
    5.160    9.8122
    5.190    9.3558
    5.220   10.5319
    5.250   10.1808
    5.280   10.0579
    5.310   11.5148
    5.340   11.3393
    5.370   12.0414
    5.400   12.3749
    5.430   12.9542
    5.460   13.0595
    5.490   14.3233
    5.520   12.2872
    5.550   11.3393
    5.580   10.7249
    5.610   11.0058
    5.640   11.0585
    5.670   10.4616
    5.700   10.2686
    5.730   10.1457
    5.760    9.7420
    5.790    9.8648
    5.820    8.7239
    5.850    9.2154
    5.880    9.3734
    5.910    8.7414
    5.940    8.9872
    5.970    8.5484
    6.000    8.3728
    6.030    8.4606
    6.060    8.8643
    6.090    8.3377
    6.120    8.5308
    6.150    8.2500
    6.180    8.0042
    6.210    8.3728
    6.240    7.4776
    6.270    7.9516
    6.300    7.6356
    6.330    7.5478
    6.360    7.9164
    6.390    7.9164
    6.420    7.7936
    6.450    7.2143
    6.480    7.5127
    6.510    7.3899
    6.540    7.7936
    6.570    7.7234
    6.600    7.3196
    6.630    7.6707
    6.660    6.8457
    6.690    7.6883
    6.720    8.5835
    6.750    7.9340
    6.780    7.3547
    6.810    7.0739
    6.840    7.2319
    6.870    6.7755
    6.900    6.8984
    6.930    6.8984
    6.960    6.7579
    6.990    6.6351
    7.020    7.1617
    7.050    6.8457
    7.080    6.5298
    7.110    6.6702
    7.140    6.6526
    7.170    6.9159
    7.200    6.0207
    7.230    6.4771
    7.260    6.0909
    7.290    5.9856
    7.320    6.0207
    7.350    6.2138
    7.380    6.1085
    7.410    5.8276
    7.440    5.6345
    7.470    6.0909
    7.500    5.9505
    7.530    5.8627
    7.560    5.9505
    7.590    5.8627
    7.620    5.9681
    7.650    5.7750
    7.680    6.0383
    7.710    6.0558
    7.740    6.1611
    7.770    6.5122
    7.800    6.3893
    7.830    6.0383
    7.860    6.1436
    7.890    6.3367
    7.920    5.4941
    7.950    5.7750
    7.980    5.3888
    8.010    5.1782
    8.040    4.9675
    8.070    5.2133
    8.100    5.1606
    8.130    5.2133
    8.160    5.6872
    8.190    5.6170
    8.220    5.4766
    8.250    5.5468
    8.280    5.5292
    8.310    5.5643
    8.340    5.2835
    8.370    5.5643
    8.400    5.8276
    8.430    5.1255
    8.460    5.1782
    8.490    5.2659
    8.520    5.3010
    8.550    5.7574
    8.580    5.3186
    8.610    4.8447
    8.640    5.0553
    8.670    4.8973
    8.700    5.5643
    8.730    5.6170
    8.760    5.3712
    8.790    4.9851
    8.820    5.2835
    8.850    5.4064
    8.880    5.1080
    8.910    5.1431
    8.940    5.5292
    8.970    5.2308
    9.000    4.9149
    9.030    5.4941
    9.060    4.9500
    9.090    5.1606
    9.120    4.7218
    9.150    4.4760
    9.180    5.0904
    9.210    5.2133
    9.240    5.3888
    9.270    4.7920
    9.300    5.3361
    9.330    5.1957
    9.360    5.4766
    9.390    5.1606
    9.420    5.1606
    9.450    5.2484
    9.480    5.4766
    9.510    5.7750
    9.540    5.7048
    9.570    5.5994
    9.600    5.1080
    9.630    5.7399
    9.660    5.1431
    9.690    4.7744
    9.720    5.3010
    9.750    4.9324
    9.780    4.9149
    9.810    5.0377
    9.840    5.1431
    9.870    4.5814
    9.900    5.0026
    9.930    5.1431
    9.960    4.7393
    9.990    5.1255
   10.020    5.1255
   10.050    5.1782
   10.080    5.3361
   10.110    5.2133
   10.140    5.3361
   10.170    5.0202
   10.200    5.1431
   10.230    4.8973
   10.260    5.3537
   10.290    5.3537
   10.320    5.3888
   10.350    6.0558
   10.380    5.1255
   10.410    5.5468
   10.440    4.8095
   10.470    5.2133
   10.500    5.0377
   10.530    5.0377
   10.560    5.1606
   10.590    5.1957
   10.620    5.5994
   10.650    4.7920
   10.680    5.0904
   10.710    5.1957
   10.740    5.0553
   10.770    5.7399
   10.800    5.1606
   10.830    5.2133
   10.860    5.1255
   10.890    5.2484
   10.920    5.5117
   10.950    5.4239
   10.980    5.2835
   11.010    5.7048
   11.040    5.9681
   11.070    5.6345
   11.100    5.4590
   11.130    5.4415
   11.160    5.0377
   11.190    5.3712
   11.220    5.5117
   11.250    4.9851
   11.280    4.8622
   11.310    5.1606
   11.340    5.0202
   11.370    5.4239
   11.400    5.5819
   11.430    4.7569
   11.460    5.3888
   11.490    5.5292
   11.520    5.3010
   11.550    5.1606
   11.580    5.0904
   11.610    5.4064
   11.640    5.1255
   11.670    5.4590
   11.700    4.8271
   11.730    5.3537
   11.760    5.2659
   11.790    5.1080
   11.820    5.1606
   11.850    4.9500
   11.880    5.2484
   11.910    4.7042
   11.940    5.2133
   11.970    4.7744
   12.000    4.7744
   12.030    4.9851
   12.060    5.1606
   12.090    4.6867
   12.120    4.6165
   12.150    4.9149
   12.180    5.2484
   12.210    4.6165
   12.240    4.8271
   12.270    5.0202
   12.300    5.0026
   12.330    5.0904
   12.360    4.7744
   12.390    5.0728
   12.420    4.7218
   12.450    5.3361
   12.480    5.0202
   12.510    5.1606
   12.540    5.0377
   12.570    4.8271
   12.600    4.8271
   12.630    5.1782
   12.660    4.7744
   12.690    4.8973
   12.720    4.8973
   12.750    4.3707
   12.780    4.5989
   12.810    5.1431
   12.840    4.8271
   12.870    5.1431
   12.900    4.7920
   12.930    5.2133
   12.960    4.8447
   12.990    5.0026
   13.020    4.7920
   13.050    5.0728
   13.080    5.4064
   13.110    4.7393
   13.140    4.6516
   13.170    4.6516
   13.200    4.8271
   13.230    4.5463
   13.260    4.6516
   13.290    4.8973
   13.320    4.5989
   13.350    4.5463
   13.380    5.2133
   13.410    4.8271
   13.440    4.7218
   13.470    4.7393
   13.500    4.8447
   13.530    4.9149
   13.560    4.8622
   13.590    4.7920
   13.620    4.7744
   13.650    4.8622
   13.680    4.5463
   13.710    4.6867
   13.740    4.8271
   13.770    4.5638
   13.800    4.6867
   13.830    5.0553
   13.860    4.8447
   13.890    5.3712
   13.920    5.2308
   13.950    4.8447
   13.980    5.4239
   14.010    5.0553
   14.040    4.9149
   14.070    5.0026
   14.100    5.1255
   14.130    4.8798
   14.160    5.4590
   14.190    5.4766
   14.220    5.3712
   14.250    5.1431
   14.280    5.3010
   14.310    5.2484
   14.340    5.2835
   14.370    5.2308
   14.400    5.1957
   14.430    5.1606
   14.460    5.2484
   14.490    4.8095
   14.520    5.0377
   14.550    5.3537
   14.580    5.4766
   14.610    5.3888
   14.640    5.5117
   14.670    5.4766
   14.700    5.2484
   14.730    5.3186
   14.760    4.7920
   14.790    5.0728
   14.820    4.7744
   14.850    4.9500
   14.880    4.8271
   14.910    4.6340
   14.940    4.7569
   14.970    4.4585
   15.000    4.8973
   15.030    4.7042
   15.060    4.5814
   15.090    4.7393
   15.120    4.7569
   15.150    4.6867
   15.180    4.4936
   15.210    4.8447
   15.240    5.0904
   15.270    4.7218
   15.300    4.4409
   15.330    4.0899
   15.360    4.4585
   15.390    4.4936
   15.420    5.0377
   15.450    4.7569
   15.480    4.5814
   15.510    4.6516
   15.540    4.7920
   15.570    4.8973
   15.600    4.0723
   15.630    4.6165
   15.660    4.7042
   15.690    4.7569
   15.720    4.9851
   15.750    4.7218
   15.780    4.9149
   15.810    4.3356
   15.840    4.8798
   15.870    4.0021
   15.900    4.7744
   15.930    4.4936
   15.960    4.7393
   15.990    4.7744
   16.020    4.9149
   16.050    4.5287
   16.080    4.7218
   16.110    4.7920
   16.140    4.7744
   16.170    4.9149
   16.200    4.7569
   16.230    4.8095
   16.260    4.8973
   16.290    4.4234
   16.320    4.5111
   16.350    4.9149
   16.380    4.7569
   16.410    5.1782
   16.440    4.6516
   16.470    5.0377
   16.500    4.6867
   16.530    4.8271
   16.560    4.7744
   16.590    4.5814
   16.620    4.6691
   16.650    4.9851
   16.680    5.0377
   16.710    4.4234
   16.740    4.6165
   16.770    4.1776
   16.800    4.4234
   16.830    4.8447
   16.860    5.1431
   16.890    4.7218
   16.920    4.7218
   16.950    4.5111
   16.980    4.2478
   17.010    4.7744
   17.040    4.8622
   17.070    4.7218
   17.100    5.0553
   17.130    4.5111
   17.160    4.7218
   17.190    4.7393
   17.220    4.6516
   17.250    4.5287
   17.280    4.8973
   17.310    4.3532
   17.340    4.6340
   17.370    4.4760
   17.400    4.1776
   17.430    5.1431
   17.460    4.3005
   17.490    4.4585
   17.520    4.9851
   17.550    4.5287
   17.580    4.5111
   17.610    4.8798
   17.640    4.6867
   17.670    4.6691
   17.700    4.7218
   17.730    4.5287
   17.760    4.8271
   17.790    4.7393
   17.820    5.0728
   17.850    4.8622
   17.880    5.0202
   17.910    4.4936
   17.940    4.2654
   17.970    4.1601
   18.000    4.7920
   18.030    4.3883
   18.060    5.0728
   18.090    4.4234
   18.120    4.1952
   18.150    4.3005
   18.180    4.7042
   18.210    4.9149
   18.240    4.6340
   18.270    4.4234
   18.300    4.1776
   18.330    4.3883
   18.360    4.2303
   18.390    4.4234
   18.420    4.5638
   18.450    4.9675
   18.480    4.7744
   18.510    4.4234
   18.540    4.6691
   18.570    4.6867
   18.600    4.6340
   18.630    4.3181
   18.660    4.8271
   18.690    4.8622
   18.720    4.6165
   18.750    4.2654
   18.780    4.6516
   18.810    4.6165
   18.840    4.9324
   18.870    3.9670
   18.900    4.7042
   18.930    4.7920
   18.960    4.4760
   18.990    4.5638
   19.020    4.3883
   19.050    4.7744
   19.080    5.2484
   19.110    4.3005
   19.140    4.2303
   19.170    4.0723
   19.200    4.2478
   19.230    4.2478
   19.260    5.1606
   19.290    4.5463
   19.320    4.3707
   19.350    4.9851
   19.380    4.7218
   19.410    4.4585
   19.440    4.7042
   19.470    4.7393
   19.500    4.1776
   19.530    4.3532
   19.560    4.7744
   19.590    4.6340
   19.620    4.5989
   19.650    4.1074
   19.680    4.3356
   19.710    4.4760
   19.740    4.4234
   19.770    4.0372
   19.800    4.5989
   19.830    4.0723
   19.860    4.2654
   19.890    4.1952
   19.920    4.1776
   19.950    4.1952
   19.980    4.3356
   20.010    4.6516
   20.040    4.3707
   20.070    4.0372
   20.100    4.0372
   20.130    4.2303
   20.160    4.1074
   20.190    3.8968
   20.220    4.2303
   20.250    4.0372
   20.280    4.3532
   20.310    4.1425
   20.340    4.2127
   20.370    4.2654
   20.400    4.0372
   20.430    4.6165
   20.460    3.5984
   20.490    4.0021
   20.520    4.7744
   20.550    3.8617
   20.580    4.3356
   20.610    4.3883
   20.640    4.2127
   20.670    4.2127
   20.700    4.2830
   20.730    4.2303
   20.760    4.5111
   20.790    3.7388
   20.820    3.9319
   20.850    3.9494
   20.880    4.3532
   20.910    4.0899
   20.940    3.9494
   20.970    4.0548
   21.000    4.3707
   21.030    4.1776
   21.060    3.7564
   21.090    3.8441
   21.120    3.8617
   21.150    4.2127
   21.180    4.2830
   21.210    4.3707
   21.240    4.4760
   21.270    3.8090
   21.300    4.1074
   21.330    3.9670
   21.360    4.3883
   21.390    4.3005
   21.420    3.9670
   21.450    4.1425
   21.480    4.4409
   21.510    4.2830
   21.540    4.0548
   21.570    3.7564
   21.600    3.9670
   21.630    3.9143
   21.660    4.1074
   21.690    4.3356
   21.720    4.2303
   21.750    3.7739
   21.780    3.9670
   21.810    3.8792
   21.840    4.1601
   21.870    4.1776
   21.900    4.5463
   21.930    4.1425
   21.960    3.8441
   21.990    4.1425
   22.020    4.1601
   22.050    4.4058
   22.080    4.1250
   22.110    3.6159
   22.140    3.7388
   22.170    3.9846
   22.200    4.0548
   22.230    3.8792
   22.260    3.5106
   22.290    3.9670
   22.320    3.7388
   22.350    4.1952
   22.380    4.3005
   22.410    3.8266
   22.440    3.2473
   22.470    3.8090
   22.500    3.9494
   22.530    3.7915
   22.560    3.9670
   22.590    4.1074
   22.620    3.7739
   22.650    3.9670
   22.680    4.3883
   22.710    4.0021
   22.740    4.0723
   22.770    3.9846
   22.800    4.0372
   22.830    4.1776
   22.860    3.6510
   22.890    3.8266
   22.920    4.0021
   22.950    4.4234
   22.980    4.0372
   23.010    3.2824
   23.040    3.7564
   23.070    3.8090
   23.100    3.7739
   23.130    3.9319
   23.160    3.7915
   23.190    3.7213
   23.220    3.7739
   23.250    3.6510
   23.280    3.5984
   23.310    3.9319
   23.340    3.5457
   23.370    3.8792
   23.400    3.3877
   23.430    3.6862
   23.460    3.4580
   23.490    3.3526
   23.520    3.3877
   23.550    3.5282
   23.580    3.6862
   23.610    3.4053
   23.640    3.6335
   23.670    3.9494
   23.700    3.7213
   23.730    3.6159
   23.760    3.7213
   23.790    3.4404
   23.820    3.4404
   23.850    3.1771
   23.880    3.6335
   23.910    3.4053
   23.940    3.8090
   23.970    3.4755
   24.000    3.3702
   24.030    3.4053
   24.060    3.4931
   24.090    3.6510
   24.120    3.6159
   24.150    3.6510
   24.180    3.0718
   24.210    3.5282
   24.240    3.6510
   24.270    3.3702
   24.300    3.8090
   24.330    3.7915
   24.360    3.5808
   24.390    3.6686
   24.420    3.5633
   24.450    3.3351
   24.480    3.5106
   24.510    3.3175
   24.540    3.6686
   24.570    3.6510
   24.600    3.6510
   24.630    3.6862
   24.660    3.1947
   24.690    3.8792
   24.720    3.1596
   24.750    3.1245
   24.780    3.5457
   24.810    3.4755
   24.840    3.5808
   24.870    3.3000
   24.900    3.2122
   24.930    3.9319
   24.960    3.4404
   24.990    3.6159
   25.020    3.6510
   25.050    3.7564
   25.080    3.2824
   25.110    3.2824
   25.140    3.3175
   25.170    3.9143
   25.200    3.1771
   25.230    3.4580
   25.260    3.2122
   25.290    3.6159
   25.320    3.2824
   25.350    3.6510
   25.380    3.2473
   25.410    3.3877
   25.440    3.5282
   25.470    3.3351
   25.500    3.3526
   25.530    3.3877
   25.560    3.2122
   25.590    3.3526
   25.620    3.3351
   25.650    3.3000
   25.680    3.3526
   25.710    3.1069
   25.740    3.5106
   25.770    3.2298
   25.800    3.5984
   25.830    3.3351
   25.860    3.4053
   25.890    3.1245
   25.920    3.2473
   25.950    3.0718
   25.980    3.2298
   26.010    3.2298
   26.040    3.1245
   26.070    2.9665
   26.100    3.2649
   26.130    3.2473
   26.160    3.3000
   26.190    3.3175
   26.220    3.3351
   26.250    3.3877
   26.280    3.4229
   26.310    3.3877
   26.340    3.0718
   26.370    3.2473
   26.400    3.2122
   26.430    3.3351
   26.460    3.3526
   26.490    2.9665
   26.520    2.9314
   26.550    3.1420
   26.580    3.1420
   26.610    2.8085
   26.640    3.0542
   26.670    2.9489
   26.700    3.3351
   26.730    3.2824
   26.760    3.1596
   26.790    3.2649
   26.820    3.3175
   26.850    3.0893
   26.880    3.0191
   26.910    3.4053
   26.940    3.2122
   26.970    3.0893
   27.000    3.2298
   27.030    3.4755
   27.060    3.1245
   27.090    3.1771
   27.120    2.7734
   27.150    2.8612
   27.180    3.1420
   27.210    2.9665
   27.240    3.3351
   27.270    3.1596
   27.300    3.0542
   27.330    2.9840
   27.360    3.3877
   27.390    2.6330
   27.420    3.1069
   27.450    2.9138
   27.480    2.7909
   27.510    3.0016
   27.540    3.4053
   27.570    3.1771
   27.600    2.8436
   27.630    3.0367
   27.660    2.8085
   27.690    2.8085
   27.720    2.9314
   27.750    3.0191
   27.780    2.7207
   27.810    3.1947
   27.840    2.8436
   27.870    3.3175
   27.900    3.0191
   27.930    2.8612
   27.960    3.4229
   27.990    2.9840
   28.020    2.7207
   28.050    3.3000
   28.080    3.0718
   28.110    2.9665
   28.140    3.0191
   28.170    2.6154
   28.200    3.0016
   28.230    3.0191
   28.260    2.7734
   28.290    2.7734
   28.320    3.1420
   28.350    2.7383
   28.380    2.6330
   28.410    2.7207
   28.440    2.8085
   28.470    2.4925
   28.500    3.0016
   28.530    2.8612
   28.560    2.9138
   28.590    2.8085
   28.620    3.0191
   28.650    3.0367
   28.680    2.9665
   28.710    2.7207
   28.740    2.8963
   28.770    3.1947
   28.800    3.0016
   28.830    2.8787
   28.860    2.8085
   28.890    2.8260
   28.920    2.9138
   28.950    3.0893
   28.980    3.2122
   29.010    2.6681
   29.040    2.6856
   29.070    2.9138
   29.100    2.6856
   29.130    2.8436
   29.160    2.8612
   29.190    2.6330
   29.220    2.6856
   29.250    2.7383
   29.280    2.9665
   29.310    3.1420
   29.340    2.6505
   29.370    2.7909
   29.400    2.7909
   29.430    2.8612
   29.460    3.0542
   29.490    2.5101
   29.520    2.7909
   29.550    2.8085
   29.580    2.7383
   29.610    2.7558
   29.640    2.8787
   29.670    2.3872
   29.700    2.3872
   29.730    2.0537
   29.760    2.3872
   29.790    2.5628
   29.820    2.6330
   29.850    2.6505
   29.880    2.3872
   29.910    2.4750
   29.940    2.3521
   29.970    2.1766
   30.000    2.4223
   30.030    2.5628
   30.060    2.3346
   30.090    2.5979
   30.120    2.1590
   30.150    2.6154
   30.180    2.1941
   30.210    2.3697
   30.240    2.3872
   30.270    2.3521
   30.300    2.5101
   30.330    2.4925
   30.360    2.5803
   30.390    2.3170
   30.420    2.5452
   30.450    2.4750
   30.480    2.2292
   30.510    2.5101
   30.540    2.4925
   30.570    2.4750
   30.600    2.4223
   30.630    2.5628
   30.660    2.5803
   30.690    2.5803
   30.720    2.3521
   30.750    2.2468
   30.780    2.4574
   30.810    2.5276
   30.840    2.2117
   30.870    2.4223
   30.900    2.3872
   30.930    2.4750
   30.960    2.4223
   30.990    2.5803
   31.020    2.3170
   31.050    2.4750
   31.080    2.1415
   31.110    2.4048
   31.140    2.2468
   31.170    2.3872
   31.200    2.4223
   31.230    2.4925
   31.260    2.4399
   31.290    2.2819
   31.320    2.4223
   31.350    2.1415
   31.380    2.2819
   31.410    2.1766
   31.440    2.1064
   31.470    2.1239
   31.500    2.2117
   31.530    2.3521
   31.560    2.5803
   31.590    2.2995
   31.620    2.3346
   31.650    2.1239
   31.680    2.2995
   31.710    2.1415
   31.740    2.3346
   31.770    2.2468
   31.800    2.2819
   31.830    2.3872
   31.860    2.2117
   31.890    2.1415
   31.920    2.1941
   31.950    2.2819
   31.980    2.3697
   32.010    2.1766
   32.040    2.1766
   32.070    2.3697
   32.100    2.1766
   32.130    2.2468
   32.160    2.1239
   32.190    2.3170
   32.220    2.2117
   32.250    2.4750
   32.280    2.1415
   32.310    1.9835
   32.340    2.1064
   32.370    2.4399
   32.400    2.1415
   32.430    1.9659
   32.460    2.3521
   32.490    2.1415
   32.520    2.0186
   32.550    2.1415
   32.580    2.0537
   32.610    1.9484
   32.640    1.8957
   32.670    1.7553
   32.700    2.1766
   32.730    2.0537
   32.760    2.2117
   32.790    2.4574
   32.820    2.0888
   32.850    2.0537
   32.880    1.8957
   32.910    2.0362
   32.940    2.2468
   32.970    1.9308
   33.000    2.1239
   33.030    1.9133
   33.060    1.9308
   33.090    2.0011
   33.120    1.9659
   33.150    2.1766
   33.180    1.7202
   33.210    2.0362
   33.240    2.0186
   33.270    2.0537
   33.300    1.9835
   33.330    1.8957
   33.360    1.9133
   33.390    1.9835
   33.420    1.9133
   33.450    2.0888
   33.480    1.9308
   33.510    1.9133
   33.540    2.0713
   33.570    2.2292
   33.600    1.8431
   33.630    2.0713
   33.660    1.9308
   33.690    2.1941
   33.720    1.9835
   33.750    2.1064
   33.780    1.8957
   33.810    1.8782
   33.840    2.1590
   33.870    2.0186
   33.900    1.9835
   33.930    1.8782
   33.960    1.8431
   33.990    1.9659
   34.020    1.9659
   34.050    1.8080
   34.080    1.9835
   34.110    2.0011
   34.140    2.1941
   34.170    2.0537
   34.200    2.0713
   34.230    2.0362
   34.260    1.9484
   34.290    2.2117
   34.320    2.0362
   34.350    1.7904
   34.380    2.1064
   34.410    2.1415
   34.440    2.0011
   34.470    2.2468
   34.500    2.0713
   34.530    2.0362
   34.560    1.6675
   34.590    2.2468
   34.620    2.2117
   34.650    1.8255
   34.680    1.9659
   34.710    2.0537
   34.740    1.8255
   34.770    2.0011
   34.800    1.9484
   34.830    1.7729
   34.860    1.7904
   34.890    1.8957
   34.920    2.1239
   34.950    1.8606
   34.980    1.7027
   35.010    1.9835
   35.040    1.8606
   35.070    1.8606
   35.100    1.8782
   35.130    1.7904
   35.160    1.7553
   35.190    2.0713
   35.220    1.9133
   35.250    1.8606
   35.280    1.8606
   35.310    1.8782
   35.340    1.9835
   35.370    2.1239
   35.400    1.9308
   35.430    1.9133
   35.460    2.0537
   35.490    1.9308
   35.520    1.8957
   35.550    2.0186
   35.580    1.8431
   35.610    1.8431
   35.640    1.7904
   35.670    1.7729
   35.700    1.8782
   35.730    1.8080
   35.760    2.0011
   35.790    1.7027
   35.820    1.9133
   35.850    2.0713
   35.880    1.9133
   35.910    1.9659
   35.940    1.9133
   35.970    1.8957
   36.000    2.0888
   36.030    1.9133
   36.060    1.8255
   36.090    2.0362
   36.120    2.0537
   36.150    2.0713
   36.180    1.9484
   36.210    1.9484
   36.240    1.8080
   36.270    1.9659
   36.300    1.7378
   36.330    1.8957
   36.360    1.8255
   36.390    1.7202
   36.420    1.5973
   36.450    1.7729
   36.480    1.8782
   36.510    1.8606
   36.540    1.9133
   36.570    1.9659
   36.600    1.8782
   36.630    1.7553
   36.660    1.8782
   36.690    1.7553
   36.720    1.9133
   36.750    2.1415
   36.780    1.9133
   36.810    2.0537
   36.840    2.0362
   36.870    2.1941
   36.900    1.8782
   36.930    2.0888
   36.960    2.2117
   36.990    1.7202
   37.020    1.8957
   37.050    1.7729
   37.080    1.9659
   37.110    1.7729
   37.140    2.0362
   37.170    2.0888
   37.200    1.7202
   37.230    2.2117
   37.260    1.6149
   37.290    1.8957
   37.320    1.5271
   37.350    1.7904
   37.380    1.9308
   37.410    1.8255
   37.440    1.5973
   37.470    1.8957
   37.500    1.6675
   37.530    1.8080
   37.560    1.8957
   37.590    1.7553
   37.620    1.8080
   37.650    1.8957
   37.680    2.0537
   37.710    1.8957
   37.740    1.6500
   37.770    1.8957
   37.800    1.9835
   37.830    1.9308
   37.860    1.3867
   37.890    1.7378
   37.920    1.8957
   37.950    1.8080
   37.980    1.8431
   38.010    1.7553
   38.040    1.8606
   38.070    1.7378
   38.100    1.9308
   38.130    1.6675
   38.160    1.8782
   38.190    2.0713
   38.220    1.7027
   38.250    1.9484
   38.280    1.6851
   38.310    1.7202
   38.340    2.0011
   38.370    1.5798
   38.400    2.1590
   38.430    1.6324
   38.460    1.7553
   38.490    1.6500
   38.520    1.8957
   38.550    1.5447
   38.580    1.8080
   38.610    1.7729
   38.640    1.6149
   38.670    2.0011
   38.700    1.8957
   38.730    1.7729
   38.760    1.7904
   38.790    1.6851
   38.820    1.6851
   38.850    1.8080
   38.880    1.8606
   38.910    1.5271
   38.940    1.8782
   38.970    1.7904
   39.000    1.8606
   39.030    1.7553
   39.060    1.9308
   39.090    1.7729
   39.120    1.6149
   39.150    1.6500
   39.180    1.6149
   39.210    1.9659
   39.240    1.9835
   39.270    1.6675
   39.300    1.7553
   39.330    1.7729
   39.360    1.7378
   39.390    1.5798
   39.420    1.6851
   39.450    1.7378
   39.480    1.9133
   39.510    1.9133
   39.540    1.4218
   39.570    1.6675
   39.600    1.7378
   39.630    1.8957
   39.660    1.5798
   39.690    1.8255
   39.720    1.4745
   39.750    1.9659
   39.780    1.6324
   39.810    1.6851
   39.840    1.5622
   39.870    1.8606
   39.900    1.4042
   39.930    1.8431
   39.960    1.6324
   39.990    1.5622