File: data/MOCOF-1/PXRD/PXRD_KE-128_Cu-Ka1_film-3mm_5s-deg.xyd
    1.500   10.4265
    1.530   10.4371
    1.560   10.3739
    1.590    9.6893
    1.620    9.6367
    1.650    9.8157
    1.680    9.5524
    1.710    9.4260
    1.740    9.0574
    1.770    9.2891
    1.800    9.0153
    1.830    8.3939
    1.860    8.2886
    1.890    8.3623
    1.920    8.1306
    1.950    8.2886
    1.980    8.0885
    2.010    7.7514
    2.040    7.5619
    2.070    7.4987
    2.100    7.8146
    2.130    7.8357
    2.160    7.5619
    2.190    7.0142
    2.220    7.5513
    2.250    7.5935
    2.280    7.0774
    2.310    7.1301
    2.340    7.1827
    2.370    7.0669
    2.400    7.6461
    2.430    7.6251
    2.460    7.5829
    2.490    7.0142
    2.520    7.0142
    2.550    6.6877
    2.580    7.1090
    2.610    7.0985
    2.640    6.8352
    2.670    6.7088
    2.700    6.9405
    2.730    7.3723
    2.760    7.4355
    2.790    7.3723
    2.820    7.3302
    2.850    7.6777
    2.880    7.5303
    2.910    7.8357
    2.940    7.6356
    2.970    7.9831
    3.000    8.2675
    3.030    8.8784
    3.060    9.3102
    3.090    9.4681
    3.120    9.9421
    3.150   11.3428
    3.180   11.0058
    3.210   11.7114
    3.240   12.3328
    3.270   13.1754
    3.300   15.1448
    3.330   16.5561
    3.360   18.1675
    3.390   19.2733
    3.420   21.4007
    3.450   22.2644
    3.480   22.1696
    3.510   20.4845
    3.540   17.6198
    3.570   15.3028
    3.600   13.5650
    3.630   12.3328
    3.660   11.2270
    3.690   10.5740
    3.720   10.0369
    3.750   10.8057
    3.780   10.5845
    3.810   10.7214
    3.840   11.0058
    3.870   11.3217
    3.900   12.1432
    3.930   11.7746
    3.960   11.6377
    3.990   11.7852
    4.020   11.6588
    4.050   12.3328
    4.080   11.9115
    4.110   12.1116
    4.140   11.6904
    4.170   11.7220
    4.200   11.1006
    4.230   10.7320
    4.260   10.0474
    4.290    9.0153
    4.320    9.2470
    4.350    9.0679
    4.380    8.5413
    4.410    7.9516
    4.440    8.0779
    4.470    7.2143
    4.500    7.1722
    4.530    7.0142
    4.560    7.0879
    4.590    6.6561
    4.620    6.0558
    4.650    6.5298
    4.680    6.8246
    4.710    6.1717
    4.740    6.5403
    4.770    6.7509
    4.800    6.3718
    4.830    6.8141
    4.860    6.5929
    4.890    6.6667
    4.920    6.4771
    4.950    6.4560
    4.980    6.5192
    5.010    6.5192
    5.040    6.6561
    5.070    6.6561
    5.100    6.6877
    5.130    6.7720
    5.160    7.1406
    5.190    7.0669
    5.220    7.4250
    5.250    6.9826
    5.280    7.2459
    5.310    6.9405
    5.340    7.8884
    5.370    7.8989
    5.400    7.4460
    5.430    7.7304
    5.460    7.9094
    5.490    8.0569
    5.520    7.6567
    5.550    7.7936
    5.580    7.9410
    5.610    7.0879
    5.640    7.7199
    5.670    7.2459
    5.700    7.4671
    5.730    7.6356
    5.760    7.0142
    5.790    6.6983
    5.820    7.1722
    5.850    6.5719
    5.880    6.6772
    5.910    6.5613
    5.940    6.2243
    5.970    6.1822
    6.000    6.6245
    6.030    6.3402
    6.060    5.8557
    6.090    6.0032
    6.120    6.0137
    6.150    6.0979
    6.180    6.1085
    6.210    6.0558
    6.240    5.8031
    6.270    5.7504
    6.300    5.9189
    6.330    5.8452
    6.360    5.9400
    6.390    5.7293
    6.420    5.5082
    6.450    5.6029
    6.480    5.7083
    6.510    5.6767
    6.540    5.8241
    6.570    5.4976
    6.600    5.7399
    6.630    5.4450
    6.660    5.7820
    6.690    5.5292
    6.720    5.6029
    6.750    5.8557
    6.780    5.5924
    6.810    6.2770
    6.840    5.9821
    6.870    5.9084
    6.900    6.2875
    6.930    6.5298
    6.960    6.5929
    6.990    6.8878
    7.020    6.4560
    7.050    5.9926
    7.080    5.6977
    7.110    5.9926
    7.140    5.6767
    7.170    5.4134
    7.200    5.1185
    7.230    5.2765
    7.260    5.2027
    7.290    4.6340
    7.320    5.1817
    7.350    5.0658
    7.380    5.4766
    7.410    4.8341
    7.440    4.9605
    7.470    4.6130
    7.500    5.1606
    7.530    4.7709
    7.560    4.9078
    7.590    5.0869
    7.620    4.8552
    7.650    5.1185
    7.680    4.9816
    7.710    4.7499
    7.740    4.8025
    7.770    4.4866
    7.800    4.9078
    7.830    4.6130
    7.860    4.9078
    7.890    4.7604
    7.920    4.2970
    7.950    5.0869
    7.980    4.6656
    8.010    4.7604
    8.040    4.6761
    8.070    5.1395
    8.100    4.7815
    8.130    4.9605
    8.160    4.7815
    8.190    4.8025
    8.220    4.8447
    8.250    4.6551
    8.280    5.1606
    8.310    4.5076
    8.340    4.4971
    8.370    4.4866
    8.400    5.0026
    8.430    4.5287
    8.460    4.6551
    8.490    4.8341
    8.520    4.6972
    8.550    4.6551
    8.580    4.4760
    8.610    4.5708
    8.640    4.7077
    8.670    4.3918
    8.700    4.1496
    8.730    4.3181
    8.760    4.5287
    8.790    3.9705
    8.820    4.5708
    8.850    4.3602
    8.880    4.2970
    8.910    3.8757
    8.940    3.9810
    8.970    4.2759
    9.000    4.1811
    9.030    4.0021
    9.060    4.1811
    9.090    4.1496
    9.120    4.1074
    9.150    4.1917
    9.180    4.0021
    9.210    4.0126
    9.240    3.9916
    9.270    4.0337
    9.300    4.0021
    9.330    4.2759
    9.360    4.0442
    9.390    4.1496
    9.420    3.9073
    9.450    4.0021
    9.480    4.1180
    9.510    4.2233
    9.540    3.9389
    9.570    4.0864
    9.600    3.7388
    9.630    4.1180
    9.660    4.2338
    9.690    4.0021
    9.720    3.7388
    9.750    4.0337
    9.780    4.5498
    9.810    3.9916
    9.840    4.0126
    9.870    3.8231
    9.900    3.9494
    9.930    4.0337
    9.960    3.9179
    9.990    4.0758
   10.020    3.9179
   10.050    4.1811
   10.080    3.9494
   10.110    3.8757
   10.140    3.8757
   10.170    3.8863
   10.200    3.8968
   10.230    4.1811
   10.260    3.7599
   10.290    4.0021
   10.320    4.0337
   10.350    4.2338
   10.380    4.0548
   10.410    4.0758
   10.440    3.9916
   10.470    4.3918
   10.500    4.2022
   10.530    4.4339
   10.560    4.0653
   10.590    4.2549
   10.620    4.0232
   10.650    4.1706
   10.680    4.2022
   10.710    4.1811
   10.740    4.3286
   10.770    4.3497
   10.800    4.2233
   10.830    4.1706
   10.860    4.2865
   10.890    4.0548
   10.920    4.1180
   10.950    4.1811
   10.980    4.3181
   11.010    4.5076
   11.040    4.2865
   11.070    3.9810
   11.100    4.1811
   11.130    4.4023
   11.160    4.3497
   11.190    4.3075
   11.220    3.9179
   11.250    4.5182
   11.280    4.0548
   11.310    4.1074
   11.340    4.0337
   11.370    3.9284
   11.400    4.2759
   11.430    4.2127
   11.460    4.4128
   11.490    3.9073
   11.520    4.0548
   11.550    4.0758
   11.580    4.2338
   11.610    4.4866
   11.640    3.8125
   11.670    3.9916
   11.700    4.0969
   11.730    4.4023
   11.760    4.1390
   11.790    4.4866
   11.820    4.3707
   11.850    4.2970
   11.880    3.8968
   11.910    4.1496
   11.940    4.2127
   11.970    3.9073
   12.000    4.1496
   12.030    4.2022
   12.060    4.1496
   12.090    4.2443
   12.120    4.2549
   12.150    4.0653
   12.180    3.9284
   12.210    3.8336
   12.240    4.4128
   12.270    3.9389
   12.300    3.9179
   12.330    4.4234
   12.360    3.7493
   12.390    3.7072
   12.420    4.0232
   12.450    4.0969
   12.480    4.2127
   12.510    4.1074
   12.540    3.8231
   12.570    4.2022
   12.600    4.0653
   12.630    3.8968
   12.660    3.8863
   12.690    3.9494
   12.720    3.6546
   12.750    3.9705
   12.780    3.6335
   12.810    3.7177
   12.840    3.9810
   12.870    4.0969
   12.900    4.1390
   12.930    3.9284
   12.960    3.8652
   12.990    4.0126
   13.020    4.0021
   13.050    3.8863
   13.080    4.1390
   13.110    4.0548
   13.140    3.7599
   13.170    4.0021
   13.200    4.0758
   13.230    3.8968
   13.260    4.0021
   13.290    3.8125
   13.320    3.8863
   13.350    4.0548
   13.380    4.1811
   13.410    3.9600
   13.440    3.9284
   13.470    3.6651
   13.500    4.0548
   13.530    3.9389
   13.560    4.2233
   13.590    3.7177
   13.620    3.9073
   13.650    3.8547
   13.680    3.9389
   13.710    4.3286
   13.740    3.8125
   13.770    3.7493
   13.800    4.3181
   13.830    4.1180
   13.860    4.0864
   13.890    3.9916
   13.920    4.1074
   13.950    3.9494
   13.980    4.0337
   14.010    4.2233
   14.040    4.0758
   14.070    4.1180
   14.100    4.4339
   14.130    4.1496
   14.160    4.5919
   14.190    4.2549
   14.220    4.2970
   14.250    4.2127
   14.280    4.3181
   14.310    4.2443
   14.340    4.7709
   14.370    4.4128
   14.400    4.0337
   14.430    4.2127
   14.460    4.6024
   14.490    4.2443
   14.520    4.2549
   14.550    4.1496
   14.580    4.3602
   14.610    4.4023
   14.640    4.1811
   14.670    4.0337
   14.700    4.1811
   14.730    4.2759
   14.760    4.3286
   14.790    4.0758
   14.820    4.4866
   14.850    4.5392
   14.880    3.6546
   14.910    4.2970
   14.940    4.1496
   14.970    3.8968
   15.000    4.0548
   15.030    4.0653
   15.060    3.8547
   15.090    4.0021
   15.120    4.0337
   15.150    3.9494
   15.180    3.8968
   15.210    3.7493
   15.240    3.8336
   15.270    3.8020
   15.300    3.9389
   15.330    4.0337
   15.360    4.0969
   15.390    3.8336
   15.420    3.7177
   15.450    3.7072
   15.480    3.9389
   15.510    3.5598
   15.540    3.9389
   15.570    3.6230
   15.600    3.9389
   15.630    4.0442
   15.660    3.6967
   15.690    3.7177
   15.720    3.8547
   15.750    3.9284
   15.780    3.8757
   15.810    4.0758
   15.840    4.0442
   15.870    3.9916
   15.900    3.9073
   15.930    3.9179
   15.960    3.6546
   15.990    3.8441
   16.020    3.7177
   16.050    4.0442
   16.080    4.0126
   16.110    4.0758
   16.140    4.3391
   16.170    4.0758
   16.200    4.0653
   16.230    4.3602
   16.260    3.9179
   16.290    4.0442
   16.320    3.9284
   16.350    3.9810
   16.380    3.9389
   16.410    3.8863
   16.440    4.1917
   16.470    3.8020
   16.500    3.9600
   16.530    3.8547
   16.560    3.7915
   16.590    4.0232
   16.620    3.8547
   16.650    4.0232
   16.680    4.0653
   16.710    3.9389
   16.740    4.0653
   16.770    4.0653
   16.800    4.0653
   16.830    3.8652
   16.860    3.7283
   16.890    3.8125
   16.920    3.8757
   16.950    3.8863
   16.980    4.2654
   17.010    3.9389
   17.040    3.8547
   17.070    3.8125
   17.100    4.1285
   17.130    3.7809
   17.160    3.8231
   17.190    3.8547
   17.220    3.5492
   17.250    3.7599
   17.280    3.8125
   17.310    3.9073
   17.340    3.6756
   17.370    3.9073
   17.400    3.8441
   17.430    4.0021
   17.460    4.0126
   17.490    3.7072
   17.520    3.9073
   17.550    4.0021
   17.580    3.7599
   17.610    4.0442
   17.640    3.9179
   17.670    3.8968
   17.700    4.0442
   17.730    3.8231
   17.760    3.8652
   17.790    3.6651
   17.820    3.9705
   17.850    3.7915
   17.880    3.8968
   17.910    4.1811
   17.940    3.8652
   17.970    4.0232
   18.000    4.0021
   18.030    3.8757
   18.060    4.0653
   18.090    3.7177
   18.120    3.8231
   18.150    3.7599
   18.180    3.7388
   18.210    4.0232
   18.240    3.6651
   18.270    3.7599
   18.300    3.9389
   18.330    3.6124
   18.360    3.6967
   18.390    4.0548
   18.420    3.9810
   18.450    3.8020
   18.480    3.8968
   18.510    3.7599
   18.540    3.9284
   18.570    3.8863
   18.600    3.6546
   18.630    3.6651
   18.660    3.8125
   18.690    3.6756
   18.720    3.9916
   18.750    4.2338
   18.780    3.6651
   18.810    3.6546
   18.840    3.9494
   18.870    3.7915
   18.900    3.9179
   18.930    3.6651
   18.960    3.8336
   18.990    3.5282
   19.020    3.6335
   19.050    3.8336
   19.080    3.7809
   19.110    3.6862
   19.140    3.7388
   19.170    3.9284
   19.200    3.8757
   19.230    3.5808
   19.260    3.8863
   19.290    3.5071
   19.320    3.9600
   19.350    3.6967
   19.380    3.5914
   19.410    3.8863
   19.440    3.9179
   19.470    3.7599
   19.500    3.7388
   19.530    3.5598
   19.560    3.4229
   19.590    4.0232
   19.620    3.9389
   19.650    4.0653
   19.680    3.6651
   19.710    3.9073
   19.740    3.7704
   19.770    3.8336
   19.800    3.7072
   19.830    3.6546
   19.860    3.8020
   19.890    3.6967
   19.920    3.4650
   19.950    3.7388
   19.980    3.8336
   20.010    3.7177
   20.040    3.6862
   20.070    3.9494
   20.100    3.6546
   20.130    3.6440
   20.160    3.8441
   20.190    3.6230
   20.220    3.6546
   20.250    3.8231
   20.280    3.7915
   20.310    3.7177
   20.340    3.6651
   20.370    3.5492
   20.400    3.9916
   20.430    3.7599
   20.460    3.4544
   20.490    3.6862
   20.520    3.5808
   20.550    3.6862
   20.580    3.6019
   20.610    3.2965
   20.640    3.5808
   20.670    3.8547
   20.700    3.7388
   20.730    3.4544
   20.760    3.4755
   20.790    3.7704
   20.820    3.6546
   20.850    3.6651
   20.880    3.8863
   20.910    3.7809
   20.940    3.7072
   20.970    3.6756
   21.000    3.5703
   21.030    3.3913
   21.060    3.7177
   21.090    3.9810
   21.120    3.5176
   21.150    3.7599
   21.180    3.2859
   21.210    3.9284
   21.240    3.4334
   21.270    3.7072
   21.300    3.5914
   21.330    3.4334
   21.360    3.3807
   21.390    3.5387
   21.420    3.8757
   21.450    3.7177
   21.480    3.7388
   21.510    3.4860
   21.540    3.8020
   21.570    3.3386
   21.600    3.5387
   21.630    3.7072
   21.660    3.6756
   21.690    3.3491
   21.720    3.4860
   21.750    3.6967
   21.780    3.7599
   21.810    3.5914
   21.840    3.5282
   21.870    3.6230
   21.900    3.3491
   21.930    3.8968
   21.960    3.3913
   21.990    3.6335
   22.020    3.6651
   22.050    3.3491
   22.080    3.6335
   22.110    3.2859
   22.140    3.3281
   22.170    3.1174
   22.200    3.3913
   22.230    3.2438
   22.260    3.7388
   22.290    3.3070
   22.320    3.6440
   22.350    3.5598
   22.380    3.3175
   22.410    3.5282
   22.440    3.7072
   22.470    3.0858
   22.500    3.6230
   22.530    3.2333
   22.560    3.3597
   22.590    3.5071
   22.620    3.1806
   22.650    3.5914
   22.680    3.4229
   22.710    3.6651
   22.740    3.6440
   22.770    3.4860
   22.800    3.4439
   22.830    3.3807
   22.860    3.6019
   22.890    3.4123
   22.920    3.3702
   22.950    3.4439
   22.980    3.3175
   23.010    3.2543
   23.040    3.3913
   23.070    3.4966
   23.100    3.0753
   23.130    3.2017
   23.160    3.2965
   23.190    3.3281
   23.220    3.2543
   23.250    3.2333
   23.280    3.3070
   23.310    3.6230
   23.340    3.2965
   23.370    3.2017
   23.400    3.2543
   23.430    3.5492
   23.460    3.3597
   23.490    3.6756
   23.520    3.2543
   23.550    3.1280
   23.580    3.4334
   23.610    3.2017
   23.640    3.2227
   23.670    3.3597
   23.700    3.1174
   23.730    3.2859
   23.760    3.2543
   23.790    3.1806
   23.820    3.1280
   23.850    3.2965
   23.880    3.1174
   23.910    3.0858
   23.940    3.3175
   23.970    3.0542
   24.000    3.4334
   24.030    3.1701
   24.060    2.9910
   24.090    3.1912
   24.120    3.4544
   24.150    3.1174
   24.180    2.9595
   24.210    2.9279
   24.240    3.2333
   24.270    3.0964
   24.300    2.9489
   24.330    3.0858
   24.360    3.1701
   24.390    3.1912
   24.420    3.1174
   24.450    2.9700
   24.480    3.2649
   24.510    3.1490
   24.540    3.1806
   24.570    3.1174
   24.600    3.1490
   24.630    3.2543
   24.660    3.0121
   24.690    3.0753
   24.720    3.3597
   24.750    3.1174
   24.780    3.0437
   24.810    3.0648
   24.840    3.3807
   24.870    3.1174
   24.900    3.0226
   24.930    3.0016
   24.960    3.2965
   24.990    3.3175
   25.020    2.8857
   25.050    3.0226
   25.080    3.2438
   25.110    3.2859
   25.140    2.9173
   25.170    3.1701
   25.200    2.8857
   25.230    2.7278
   25.260    3.0226
   25.290    3.2543
   25.320    3.1280
   25.350    2.8963
   25.380    3.0121
   25.410    2.8015
   25.440    3.0753
   25.470    3.0964
   25.500    3.2649
   25.530    2.9595
   25.560    3.2754
   25.590    2.8963
   25.620    2.9384
   25.650    3.0121
   25.680    2.8225
   25.710    3.0332
   25.740    3.0121
   25.770    3.0121
   25.800    2.8015
   25.830    2.7278
   25.860    3.3702
   25.890    3.3913
   25.920    2.9384
   25.950    3.2122
   25.980    2.9279
   26.010    3.0753
   26.040    2.8752
   26.070    2.8857
   26.100    3.0016
   26.130    3.0332
   26.160    2.8752
   26.190    3.1701
   26.220    2.9595
   26.250    3.0648
   26.280    2.8436
   26.310    3.0542
   26.340    3.1912
   26.370    2.8963
   26.400    2.8752
   26.430    2.9279
   26.460    2.7488
   26.490    3.0121
   26.520    2.8857
   26.550    3.0542
   26.580    2.8225
   26.610    3.0332
   26.640    3.0016
   26.670    3.1912
   26.700    3.0964
   26.730    2.7278
   26.760    3.2438
   26.790    2.9700
   26.820    2.8541
   26.850    2.7067
   26.880    2.7699
   26.910    2.5908
   26.940    2.6014
   26.970    2.8963
   27.000    2.7067
   27.030    2.6330
   27.060    2.7383
   27.090    2.6330
   27.120    2.8752
   27.150    3.1069
   27.180    3.0016
   27.210    3.1280
   27.240    3.0332
   27.270    2.6330
   27.300    2.8015
   27.330    2.7593
   27.360    2.6962
   27.390    2.9173
   27.420    2.9068
   27.450    2.7909
   27.480    2.6435
   27.510    2.8541
   27.540    2.9173
   27.570    2.7909
   27.600    2.6014
   27.630    2.6435
   27.660    2.8120
   27.690    2.8120
   27.720    2.7804
   27.750    2.5276
   27.780    2.6014
   27.810    2.7699
   27.840    2.6435
   27.870    2.3802
   27.900    2.7699
   27.930    2.6646
   27.960    2.8015
   27.990    2.8120
   28.020    2.8752
   28.050    2.7383
   28.080    2.8015
   28.110    2.5908
   28.140    2.6224
   28.170    2.6014
   28.200    2.7172
   28.230    2.7593
   28.260    2.5066
   28.290    2.4855
   28.320    2.8857
   28.350    2.6330
   28.380    2.6224
   28.410    2.7172
   28.440    2.4750
   28.470    2.5908
   28.500    2.7278
   28.530    2.6014
   28.560    2.6224
   28.590    2.6435
   28.620    2.8857
   28.650    2.6224
   28.680    2.6540
   28.710    2.4118
   28.740    2.6751
   28.770    2.7172
   28.800    2.9384
   28.830    2.8331
   28.860    2.7172
   28.890    2.7172
   28.920    2.4118
   28.950    2.9489
   28.980    2.7278
   29.010    2.5171
   29.040    2.9068
   29.070    2.5592
   29.100    2.5487
   29.130    2.4961
   29.160    2.6119
   29.190    2.4645
   29.220    2.6646
   29.250    2.7909
   29.280    2.6856
   29.310    2.3802
   29.340    2.7278
   29.370    2.4434
   29.400    2.7909
   29.430    2.5908
   29.460    2.3486
   29.490    2.3907
   29.520    2.4013
   29.550    2.5487
   29.580    2.6435
   29.610    2.6751
   29.640    2.3275
   29.670    2.5592
   29.700    2.3486
   29.730    2.4855
   29.760    2.4750
   29.790    2.4329
   29.820    2.3486
   29.850    2.2117
   29.880    2.5908
   29.910    2.4118
   29.940    2.4961
   29.970    2.5803
   30.000    2.4539
   30.030    2.3907
   30.060    2.5592
   30.090    2.4645
   30.120    2.3381
   30.150    2.3591
   30.180    2.4855
   30.210    2.5276
   30.240    2.4645
   30.270    2.1906
   30.300    2.4539
   30.330    2.5171
   30.360    2.3907
   30.390    2.3275
   30.420    2.3802
   30.450    2.5698
   30.480    2.4855
   30.510    2.5066
   30.540    2.2959
   30.570    2.3486
   30.600    2.2538
   30.630    2.2538
   30.660    2.3065
   30.690    2.2538
   30.720    2.5382
   30.750    2.5698
   30.780    2.2117
   30.810    2.3275
   30.840    2.2328
   30.870    2.3170
   30.900    2.5066
   30.930    2.3170
   30.960    2.3591
   30.990    2.3802
   31.020    2.4750
   31.050    2.5908
   31.080    2.2012
   31.110    2.3802
   31.140    2.1485
   31.170    2.4539
   31.200    2.2222
   31.230    2.0116
   31.260    2.3486
   31.290    2.2012
   31.320    2.4750
   31.350    2.2328
   31.380    2.1485
   31.410    2.2117
   31.440    2.3697
   31.470    2.1169
   31.500    2.4434
   31.530    2.1801
   31.560    2.1380
   31.590    2.1274
   31.620    2.3802
   31.650    2.3802
   31.680    2.1906
   31.710    2.2012
   31.740    2.4961
   31.770    2.0748
   31.800    2.3275
   31.830    2.3170
   31.860    2.1485
   31.890    2.2222
   31.920    2.2643
   31.950    2.3697
   31.980    2.3275
   32.010    2.3170
   32.040    2.2643
   32.070    2.4118
   32.100    2.5698
   32.130    2.1696
   32.160    2.3907
   32.190    2.1906
   32.220    2.2117
   32.250    2.0958
   32.280    2.2012
   32.310    2.2328
   32.340    1.9063
   32.370    2.1801
   32.400    2.2749
   32.430    2.0221
   32.460    2.2538
   32.490    2.2222
   32.520    2.0537
   32.550    1.9905
   32.580    2.0326
   32.610    2.0116
   32.640    2.2012
   32.670    2.0221
   32.700    2.1169
   32.730    1.9063
   32.760    2.1485
   32.790    2.2854
   32.820    2.1064
   32.850    1.8747
   32.880    2.2643
   32.910    1.9379
   32.940    2.2433
   32.970    2.1696
   33.000    1.9379
   33.030    1.9484
   33.060    2.2222
   33.090    2.1064
   33.120    1.9905
   33.150    2.0537
   33.180    1.9800
   33.210    2.2117
   33.240    2.0116
   33.270    2.0748
   33.300    1.9063
   33.330    2.1801
   33.360    1.9063
   33.390    2.2117
   33.420    2.0432
   33.450    1.9379
   33.480    2.1064
   33.510    1.8325
   33.540    2.0116
   33.570    2.1590
   33.600    1.9168
   33.630    2.0326
   33.660    1.9905
   33.690    2.0011
   33.720    1.9484
   33.750    2.0432
   33.780    2.2328
   33.810    2.1696
   33.840    1.9484
   33.870    2.1906
   33.900    2.0221
   33.930    2.0642
   33.960    2.2222
   33.990    1.9695
   34.020    1.9168
   34.050    2.0221
   34.080    2.0853
   34.110    1.9063
   34.140    2.1064
   34.170    2.0221
   34.200    1.9695
   34.230    2.0116
   34.260    1.8957
   34.290    2.1380
   34.320    1.9589
   34.350    2.0432
   34.380    2.0432
   34.410    1.8852
   34.440    1.9379
   34.470    2.0116
   34.500    1.9905
   34.530    2.0958
   34.560    1.9800
   34.590    2.0748
   34.620    1.9379
   34.650    1.8431
   34.680    1.8747
   34.710    1.9800
   34.740    1.9905
   34.770    1.9905
   34.800    1.9484
   34.830    2.1906
   34.860    2.0011
   34.890    2.0326
   34.920    1.9484
   34.950    2.0011
   34.980    2.1064
   35.010    1.7904
   35.040    1.9589
   35.070    2.0221
   35.100    2.0748
   35.130    1.8431
   35.160    2.0853
   35.190    2.0011
   35.220    1.9905
   35.250    1.8747
   35.280    2.1906
   35.310    2.0537
   35.340    1.9695
   35.370    1.8641
   35.400    1.8115
   35.430    2.0116
   35.460    1.9379
   35.490    2.0958
   35.520    1.9800
   35.550    2.1696
   35.580    1.9379
   35.610    1.9905
   35.640    2.1274
   35.670    1.9168
   35.700    2.2012
   35.730    2.1169
   35.760    2.1064
   35.790    1.7167
   35.820    1.9484
   35.850    2.0537
   35.880    1.9589
   35.910    2.2328
   35.940    1.8957
   35.970    2.2643
   36.000    1.9273
   36.030    1.9379
   36.060    2.1064
   36.090    2.0326
   36.120    1.9063
   36.150    2.1485
   36.180    1.9379
   36.210    2.1064
   36.240    1.9905
   36.270    1.9695
   36.300    2.0748
   36.330    1.9273
   36.360    2.2222
   36.390    2.0011
   36.420    1.8325
   36.450    1.8957
   36.480    1.9589
   36.510    1.9695
   36.540    1.9905
   36.570    1.9379
   36.600    2.0853
   36.630    2.1380
   36.660    1.9484
   36.690    1.9273
   36.720    1.9379
   36.750    1.7799
   36.780    1.7272
   36.810    2.0537
   36.840    2.0116
   36.870    1.9063
   36.900    1.9695
   36.930    2.0011
   36.960    2.1169
   36.990    1.8641
   37.020    1.8641
   37.050    2.0011
   37.080    1.9695
   37.110    2.0221
   37.140    2.1064
   37.170    2.0221
   37.200    1.8431
   37.230    1.9484
   37.260    1.9273
   37.290    2.1064
   37.320    2.0011
   37.350    1.9168
   37.380    2.0537
   37.410    1.9484
   37.440    1.9905
   37.470    1.9484
   37.500    1.7799
   37.530    1.8747
   37.560    2.1169
   37.590    1.8852
   37.620    1.9905
   37.650    1.8115
   37.680    1.9273
   37.710    1.8431
   37.740    2.1169
   37.770    2.0011
   37.800    1.8325
   37.830    2.0748
   37.860    1.8009
   37.890    2.0748
   37.920    1.8220
   37.950    2.0853
   37.980    2.0011
   38.010    1.8220
   38.040    1.8009
   38.070    1.8115
   38.100    1.8431
   38.130    2.0011
   38.160    1.7799
   38.190    2.0432
   38.220    1.9168
   38.250    2.0116
   38.280    2.0748
   38.310    2.1696
   38.340    1.7799
   38.370    2.1801
   38.400    1.9905
   38.430    2.0642
   38.460    2.0326
   38.490    1.8325
   38.520    2.1064
   38.550    1.9589
   38.580    1.8852
   38.610    1.9905
   38.640    1.6851
   38.670    1.9695
   38.700    1.9589
   38.730    1.8641
   38.760    2.0537
   38.790    1.8115
   38.820    2.0011
   38.850    1.9273
   38.880    1.9273
   38.910    2.1274
   38.940    1.8536
   38.970    1.9905
   39.000    1.9063
   39.030    1.8852
   39.060    1.8747
   39.090    2.0011
   39.120    2.0326
   39.150    2.0432
   39.180    1.8325
   39.210    2.1485
   39.240    1.8009
   39.270    1.9695
   39.300    1.8957
   39.330    1.8957
   39.360    1.9273
   39.390    2.1274
   39.420    1.8747
   39.450    2.1064
   39.480    1.8536
   39.510    1.8536
   39.540    1.7904
   39.570    1.8009
   39.600    1.8747
   39.630    1.9168
   39.660    1.8641
   39.690    1.9379
   39.720    1.8009
   39.750    2.0853
   39.780    1.8009
   39.810    1.8747
   39.840    1.8115
   39.870    1.8115
   39.900    1.9484
   39.930    1.8957
   39.960    1.8115
   39.990    1.8747