File: data/MOCOF-1/PXRD/PXRD_KE-036_Cu-Ka1_capillary-1mm_5s-deg.xyd
    1.500   16.3033
    1.530   15.9979
    1.560   16.3770
    1.590   15.2185
    1.620   15.0922
    1.650   15.1237
    1.680   14.9974
    1.710   14.6393
    1.740   14.1443
    1.770   13.9863
    1.800   13.9547
    1.830   14.1654
    1.860   12.8699
    1.890   12.3433
    1.920   13.0595
    1.950   12.3539
    1.980   12.7541
    2.010   12.3433
    2.040   11.7009
    2.070   11.7009
    2.100   12.4697
    2.130   12.0590
    2.160   11.3428
    2.190   11.4060
    2.220   11.5745
    2.250   10.8478
    2.280   11.3744
    2.310   10.3844
    2.340   10.9847
    2.370   10.3212
    2.400   10.3212
    2.430   10.5213
    2.460   10.0790
    2.490    9.7736
    2.520   10.2896
    2.550    9.9737
    2.580    9.9105
    2.610    9.9737
    2.640    9.6367
    2.670   10.1738
    2.700    9.7525
    2.730    9.7209
    2.760    9.7209
    2.790    9.7104
    2.820    8.6467
    2.850    9.2154
    2.880    8.8678
    2.910    9.2364
    2.940    9.2575
    2.970    8.8362
    3.000    8.9837
    3.030    9.1206
    3.060    9.1943
    3.090    9.0890
    3.120    8.8468
    3.150    9.0785
    3.180    9.0785
    3.210    8.6677
    3.240    8.9415
    3.270    8.4044
    3.300    8.4150
    3.330    8.5519
    3.360    8.2780
    3.390    8.2886
    3.420    8.2570
    3.450    8.3412
    3.480    8.5203
    3.510    8.3623
    3.540    8.3412
    3.570    8.3307
    3.600    7.8568
    3.630    8.1306
    3.660    8.2570
    3.690    8.0885
    3.720    8.1095
    3.750    8.1306
    3.780    8.2359
    3.810    7.8884
    3.840    8.1306
    3.870    7.8462
    3.900    7.5408
    3.930    7.8989
    3.960    7.7830
    3.990    7.7725
    4.020    8.0569
    4.050    7.7936
    4.080    7.7514
    4.110    7.6145
    4.140    7.9094
    4.170    7.5197
    4.200    7.5724
    4.230    7.6777
    4.260    7.6461
    4.290    7.2143
    4.320    7.7093
    4.350    7.8673
    4.380    7.6040
    4.410    7.5513
    4.440    7.6040
    4.470    7.5408
    4.500    7.5513
    4.530    7.5619
    4.560    7.1722
    4.590    7.7725
    4.620    7.3091
    4.650    7.5408
    4.680    7.6777
    4.710    7.6777
    4.740    7.0458
    4.770    7.3618
    4.800    7.3723
    4.830    7.1301
    4.860    7.3934
    4.890    6.9721
    4.920    7.1617
    4.950    7.0563
    4.980    7.1722
    5.010    6.7825
    5.040    7.2143
    5.070    7.4355
    5.100    7.3196
    5.130    7.3196
    5.160    7.6672
    5.190    7.3196
    5.220    7.2354
    5.250    6.8246
    5.280    6.7193
    5.310    7.1090
    5.340    6.9405
    5.370    7.0142
    5.400    7.0669
    5.430    7.2354
    5.460    7.1090
    5.490    6.9826
    5.520    7.3934
    5.550    7.1195
    5.580    6.7404
    5.610    6.9616
    5.640    6.8984
    5.670    6.7509
    5.700    6.7088
    5.730    6.8668
    5.760    6.9510
    5.790    6.5298
    5.820    6.6456
    5.850    7.1090
    5.880    6.9405
    5.910    7.0669
    5.940    7.1301
    5.970    7.2670
    6.000    6.8984
    6.030    6.6667
    6.060    7.4776
    6.090    7.1301
    6.120    6.8773
    6.150    7.2143
    6.180    7.4250
    6.210    6.9405
    6.240    6.5929
    6.270    6.8773
    6.300    7.1195
    6.330    6.8878
    6.360    6.6772
    6.390    7.0142
    6.420    7.1511
    6.450    6.9300
    6.480    7.2143
    6.510    7.1827
    6.540    7.0142
    6.570    7.1827
    6.600    7.1722
    6.630    6.9089
    6.660    6.9089
    6.690    6.9616
    6.720    7.1090
    6.750    7.2354
    6.780    7.3618
    6.810    7.0353
    6.840    6.9405
    6.870    7.1827
    6.900    6.9932
    6.930    7.5303
    6.960    7.1195
    6.990    7.4355
    7.020    6.9405
    7.050    7.1827
    7.080    6.7299
    7.110    6.9300
    7.140    7.5197
    7.170    7.1301
    7.200    7.2775
    7.230    7.3302
    7.260    7.0879
    7.290    7.0248
    7.320    7.4144
    7.350    7.2565
    7.380    7.1301
    7.410    7.1406
    7.440    7.3512
    7.470    7.4039
    7.500    7.5513
    7.530    7.7725
    7.560    7.0669
    7.590    7.6672
    7.620    7.8146
    7.650    7.2143
    7.680    7.7725
    7.710    7.2249
    7.740    7.5408
    7.770    7.2986
    7.800    7.8568
    7.830    7.4671
    7.860    7.7620
    7.890    7.2775
    7.920    7.6461
    7.950    7.4355
    7.980    7.1195
    8.010    7.4144
    8.040    6.9194
    8.070    7.2143
    8.100    7.6777
    8.130    7.8041
    8.160    7.4250
    8.190    7.5408
    8.220    7.2880
    8.250    7.3934
    8.280    7.4250
    8.310    7.5619
    8.340    7.4776
    8.370    7.2775
    8.400    7.5303
    8.430    7.6672
    8.460    7.4460
    8.490    7.4250
    8.520    7.6777
    8.550    7.5619
    8.580    7.6777
    8.610    8.0569
    8.640    7.3196
    8.670    7.4566
    8.700    7.2775
    8.730    7.5408
    8.760    7.3196
    8.790    7.8252
    8.820    7.8146
    8.850    7.7199
    8.880    7.6356
    8.910    7.4776
    8.940    7.4250
    8.970    7.8252
    9.000    7.5935
    9.030    7.5197
    9.060    7.0774
    9.090    7.6145
    9.120    7.5829
    9.150    7.8357
    9.180    7.5619
    9.210    7.4987
    9.240    7.3512
    9.270    7.7304
    9.300    7.4671
    9.330    7.3196
    9.360    7.1827
    9.390    7.6672
    9.420    7.2986
    9.450    7.3196
    9.480    7.4039
    9.510    7.4671
    9.540    7.1090
    9.570    7.3407
    9.600    7.6040
    9.630    7.1933
    9.660    7.7725
    9.690    7.1933
    9.720    7.4460
    9.750    8.0463
    9.780    7.1301
    9.810    7.4039
    9.840    7.8462
    9.870    7.3934
    9.900    7.4566
    9.930    7.6883
    9.960    7.6777
    9.990    7.8673
   10.020    7.4039
   10.050    7.5619
   10.080    7.4776
   10.110    7.4882
   10.140    7.3618
   10.170    7.5197
   10.200    7.7409
   10.230    7.6461
   10.260    7.3934
   10.290    7.2459
   10.320    7.0037
   10.350    7.3091
   10.380    7.0879
   10.410    7.2249
   10.440    7.1827
   10.470    7.2880
   10.500    7.2354
   10.530    7.4460
   10.560    7.3934
   10.590    7.2354
   10.620    7.0563
   10.650    7.5829
   10.680    7.5303
   10.710    7.5724
   10.740    7.2775
   10.770    7.3723
   10.800    7.1406
   10.830    7.3302
   10.860    7.3407
   10.890    7.2249
   10.920    7.6356
   10.950    7.4776
   10.980    6.8562
   11.010    7.1617
   11.040    7.1827
   11.070    7.1722
   11.100    6.8352
   11.130    7.1933
   11.160    6.8878
   11.190    6.7088
   11.220    7.0142
   11.250    7.1090
   11.280    7.0353
   11.310    6.8457
   11.340    7.0774
   11.370    7.3091
   11.400    6.7930
   11.430    6.9300
   11.460    6.8562
   11.490    7.0142
   11.520    7.0142
   11.550    7.0985
   11.580    6.8141
   11.610    6.9616
   11.640    7.1722
   11.670    7.1195
   11.700    7.1301
   11.730    7.5092
   11.760    7.2670
   11.790    6.8668
   11.820    6.8773
   11.850    7.1406
   11.880    6.7825
   11.910    7.0037
   11.940    6.7299
   11.970    6.7720
   12.000    7.1406
   12.030    6.9194
   12.060    6.6456
   12.090    6.9194
   12.120    6.5192
   12.150    6.8352
   12.180    7.0248
   12.210    6.8246
   12.240    7.2880
   12.270    6.7930
   12.300    6.7299
   12.330    6.6035
   12.360    7.1301
   12.390    6.7825
   12.420    6.6772
   12.450    6.5719
   12.480    6.8141
   12.510    6.7930
   12.540    6.7825
   12.570    6.8773
   12.600    6.4771
   12.630    6.8036
   12.660    6.4666
   12.690    6.3612
   12.720    6.7825
   12.750    6.7615
   12.780    6.3823
   12.810    6.3718
   12.840    6.6245
   12.870    6.2559
   12.900    6.3296
   12.930    6.7615
   12.960    6.6772
   12.990    6.1506
   13.020    6.8878
   13.050    6.8036
   13.080    6.6140
   13.110    6.4876
   13.140    6.5087
   13.170    6.5613
   13.200    6.6245
   13.230    6.5087
   13.260    6.3296
   13.290    6.5719
   13.320    6.6456
   13.350    6.2243
   13.380    6.9721
   13.410    6.2770
   13.440    6.3612
   13.470    6.5298
   13.500    6.8668
   13.530    6.7299
   13.560    6.3086
   13.590    6.5508
   13.620    6.7404
   13.650    6.3086
   13.680    6.4034
   13.710    6.5298
   13.740    6.7088
   13.770    6.3191
   13.800    6.6561
   13.830    6.4244
   13.860    6.7720
   13.890    6.4982
   13.920    6.5192
   13.950    6.4034
   13.980    6.4771
   14.010    6.6245
   14.040    6.2349
   14.070    6.5824
   14.100    6.2770
   14.130    6.3507
   14.160    6.4560
   14.190    6.4771
   14.220    6.4455
   14.250    6.4139
   14.280    6.6561
   14.310    6.5508
   14.340    6.1190
   14.370    6.8773
   14.400    6.5508
   14.430    6.2349
   14.460    6.4455
   14.490    6.3402
   14.520    6.7088
   14.550    6.2875
   14.580    6.3718
   14.610    6.3928
   14.640    6.3507
   14.670    6.2033
   14.700    6.3507
   14.730    6.6667
   14.760    6.3928
   14.790    6.0558
   14.820    6.5613
   14.850    6.2875
   14.880    6.1295
   14.910    6.2559
   14.940    6.7404
   14.970    6.7088
   15.000    6.8141
   15.030    6.6245
   15.060    6.4244
   15.090    6.7509
   15.120    6.4771
   15.150    6.9405
   15.180    6.1611
   15.210    6.2243
   15.240    6.2138
   15.270    6.3086
   15.300    6.2243
   15.330    6.4876
   15.360    6.4455
   15.390    6.7825
   15.420    6.2875
   15.450    6.2349
   15.480    6.6667
   15.510    6.7193
   15.540    6.3507
   15.570    6.4560
   15.600    6.5192
   15.630    6.3507
   15.660    6.4139
   15.690    6.1190
   15.720    6.2981
   15.750    5.9505
   15.780    6.4244
   15.810    6.7720
   15.840    6.7615
   15.870    6.6772
   15.900    6.0664
   15.930    6.1717
   15.960    6.1295
   15.990    6.6667
   16.020    6.6877
   16.050    6.4560
   16.080    6.0979
   16.110    6.7299
   16.140    7.2565
   16.170    6.5719
   16.200    6.3507
   16.230    6.3507
   16.260    6.2770
   16.290    6.4876
   16.320    6.7088
   16.350    6.6456
   16.380    6.4560
   16.410    6.7404
   16.440    6.7825
   16.470    6.6140
   16.500    6.4034
   16.530    6.4244
   16.560    6.4139
   16.590    6.7825
   16.620    6.6983
   16.650    6.1190
   16.680    6.6245
   16.710    6.0979
   16.740    6.6351
   16.770    6.4982
   16.800    6.4350
   16.830    6.4876
   16.860    6.0664
   16.890    6.5824
   16.920    6.2349
   16.950    6.9405
   16.980    6.3718
   17.010    6.2559
   17.040    6.0664
   17.070    6.3507
   17.100    6.6667
   17.130    6.5824
   17.160    6.1717
   17.190    6.6351
   17.220    6.5613
   17.250    6.9405
   17.280    6.6456
   17.310    6.4666
   17.340    6.2875
   17.370    6.4876
   17.400    6.4139
   17.430    6.4982
   17.460    6.0874
   17.490    6.3823
   17.520    6.2349
   17.550    6.8562
   17.580    6.2349
   17.610    6.3612
   17.640    6.0558
   17.670    6.6245
   17.700    6.8352
   17.730    6.3612
   17.760    6.8141
   17.790    6.2454
   17.820    6.0874
   17.850    6.5087
   17.880    6.3086
   17.910    6.8984
   17.940    6.2033
   17.970    6.3191
   18.000    6.4455
   18.030    6.4244
   18.060    6.3823
   18.090    6.3086
   18.120    6.5298
   18.150    6.6561
   18.180    6.5192
   18.210    6.4139
   18.240    6.5403
   18.270    6.6456
   18.300    6.3612
   18.330    6.6772
   18.360    6.5403
   18.390    6.6035
   18.420    6.6983
   18.450    7.0037
   18.480    6.6561
   18.510    6.5298
   18.540    6.3507
   18.570    6.5719
   18.600    6.3296
   18.630    6.8773
   18.660    6.9510
   18.690    6.1927
   18.720    6.6351
   18.750    6.2033
   18.780    6.2981
   18.810    6.6140
   18.840    6.2770
   18.870    6.4350
   18.900    6.4771
   18.930    7.1195
   18.960    6.8562
   18.990    6.2349
   19.020    6.2770
   19.050    6.7615
   19.080    6.5508
   19.110    6.8141
   19.140    6.6456
   19.170    6.5298
   19.200    6.3296
   19.230    6.4666
   19.260    6.6772
   19.290    6.4455
   19.320    6.7299
   19.350    6.3402
   19.380    6.3296
   19.410    6.5824
   19.440    6.5192
   19.470    6.6456
   19.500    6.4034
   19.530    6.9616
   19.560    6.5508
   19.590    6.4244
   19.620    6.7088
   19.650    6.8668
   19.680    6.5929
   19.710    6.7299
   19.740    6.3718
   19.770    6.6035
   19.800    6.8141
   19.830    6.7404
   19.860    6.8036
   19.890    6.5087
   19.920    6.7299
   19.950    6.3402
   19.980    6.7720
   20.010    6.6667
   20.040    6.6877
   20.070    6.4455
   20.100    6.9300
   20.130    6.6245
   20.160    6.7509
   20.190    6.5508
   20.220    6.7404
   20.250    6.4244
   20.280    6.7825
   20.310    6.5929
   20.340    6.4771
   20.370    6.8141
   20.400    6.5613
   20.430    6.8352
   20.460    6.3928
   20.490    6.6561
   20.520    6.8457
   20.550    6.5824
   20.580    6.7615
   20.610    6.7509
   20.640    6.4139
   20.670    6.9405
   20.700    6.6456
   20.730    6.7825
   20.760    6.3823
   20.790    6.9721
   20.820    6.8246
   20.850    7.5197
   20.880    6.9194
   20.910    6.6456
   20.940    6.7299
   20.970    6.5403
   21.000    6.6035
   21.030    6.4455
   21.060    6.7088
   21.090    6.4771
   21.120    6.6983
   21.150    6.8668
   21.180    7.0037
   21.210    6.5719
   21.240    6.9826
   21.270    6.3823
   21.300    6.8562
   21.330    6.3086
   21.360    6.6877
   21.390    7.0248
   21.420    6.5613
   21.450    6.9510
   21.480    6.5403
   21.510    6.7299
   21.540    6.8352
   21.570    6.3823
   21.600    6.6772
   21.630    6.4139
   21.660    7.0879
   21.690    6.8141
   21.720    6.4982
   21.750    6.9089
   21.780    6.3928
   21.810    7.0353
   21.840    6.5087
   21.870    7.0669
   21.900    6.9616
   21.930    6.8668
   21.960    6.9089
   21.990    6.8562
   22.020    7.1511
   22.050    6.7404
   22.080    7.0985
   22.110    6.8352
   22.140    7.1406
   22.170    6.8984
   22.200    6.7404
   22.230    6.8141
   22.260    6.5929
   22.290    6.6140
   22.320    7.0774
   22.350    6.7720
   22.380    7.0669
   22.410    6.6245
   22.440    7.0985
   22.470    6.4771
   22.500    6.9932
   22.530    7.4144
   22.560    6.5508
   22.590    6.7088
   22.620    6.5298
   22.650    7.0669
   22.680    6.4876
   22.710    6.8878
   22.740    6.6983
   22.770    7.0248
   22.800    6.6877
   22.830    6.9089
   22.860    6.6245
   22.890    6.8562
   22.920    6.6667
   22.950    6.5719
   22.980    6.7930
   23.010    6.5613
   23.040    7.1195
   23.070    6.7720
   23.100    6.6351
   23.130    6.6983
   23.160    6.2349
   23.190    6.4876
   23.220    6.5824
   23.250    6.7509
   23.280    6.8352
   23.310    6.6245
   23.340    7.0774
   23.370    6.8457
   23.400    6.8352
   23.430    6.7825
   23.460    6.7404
   23.490    6.5508
   23.520    6.3612
   23.550    6.1717
   23.580    6.6772
   23.610    6.4876
   23.640    6.5298
   23.670    6.5087
   23.700    6.7720
   23.730    6.7615
   23.760    6.4139
   23.790    6.5824
   23.820    6.8141
   23.850    6.2349
   23.880    6.3928
   23.910    6.3928
   23.940    6.4982
   23.970    6.7299
   24.000    6.2559
   24.030    6.5613
   24.060    6.6035
   24.090    6.6140
   24.120    6.5087
   24.150    6.4560
   24.180    6.2559
   24.210    6.4982
   24.240    6.7930
   24.270    6.6877
   24.300    6.5719
   24.330    6.7615
   24.360    6.1295
   24.390    6.3191
   24.420    6.6456
   24.450    6.1822
   24.480    6.8562
   24.510    6.4771
   24.540    6.5192
   24.570    6.2875
   24.600    6.1611
   24.630    6.4771
   24.660    6.2454
   24.690    6.3402
   24.720    6.2875
   24.750    6.5192
   24.780    6.4982
   24.810    5.8452
   24.840    6.4350
   24.870    5.9505
   24.900    6.3191
   24.930    6.4139
   24.960    6.3928
   24.990    6.9826
   25.020    6.2033
   25.050    6.2981
   25.080    6.3191
   25.110    6.3718
   25.140    6.1190
   25.170    6.3296
   25.200    6.2770
   25.230    6.4455
   25.260    5.8768
   25.290    6.3718
   25.320    6.2033
   25.350    6.4771
   25.380    6.4139
   25.410    6.3928
   25.440    6.0979
   25.470    6.4982
   25.500    6.4139
   25.530    6.3402
   25.560    6.0874
   25.590    6.4139
   25.620    6.0453
   25.650    6.6035
   25.680    6.2138
   25.710    6.3928
   25.740    6.1295
   25.770    5.9610
   25.800    6.3086
   25.830    6.4771
   25.860    6.1506
   25.890    6.2138
   25.920    5.8031
   25.950    6.0137
   25.980    6.3718
   26.010    5.9716
   26.040    6.4034
   26.070    6.0558
   26.100    6.3612
   26.130    6.0664
   26.160    5.8136
   26.190    6.4244
   26.220    6.0664
   26.250    6.1611
   26.280    6.2454
   26.310    6.0242
   26.340    5.8241
   26.370    6.0032
   26.400    5.8768
   26.430    6.2981
   26.460    6.1506
   26.490    5.7293
   26.520    5.8768
   26.550    6.0558
   26.580    6.2349
   26.610    6.1401
   26.640    6.2349
   26.670    6.2454
   26.700    6.0558
   26.730    6.0242
   26.760    6.0874
   26.790    5.7399
   26.820    5.8768
   26.850    5.6661
   26.880    5.7715
   26.910    6.0664
   26.940    6.4982
   26.970    5.8241
   27.000    6.1085
   27.030    5.6661
   27.060    6.0453
   27.090    6.1611
   27.120    6.0558
   27.150    6.1190
   27.180    5.8978
   27.210    6.1927
   27.240    6.0453
   27.270    6.2981
   27.300    5.9926
   27.330    5.7609
   27.360    5.9189
   27.390    5.8452
   27.420    6.2349
   27.450    5.8557
   27.480    5.7188
   27.510    5.6977
   27.540    5.6240
   27.570    5.9189
   27.600    5.6977
   27.630    5.7925
   27.660    5.5398
   27.690    5.6345
   27.720    5.7188
   27.750    5.3397
   27.780    6.0348
   27.810    5.5187
   27.840    5.9294
   27.870    5.8662
   27.900    5.6029
   27.930    6.2138
   27.960    6.1717
   27.990    5.7399
   28.020    5.8136
   28.050    5.8452
   28.080    5.4239
   28.110    5.7609
   28.140    5.9084
   28.170    6.0348
   28.200    5.9189
   28.230    5.6451
   28.260    5.6872
   28.290    5.6451
   28.320    6.0558
   28.350    6.0558
   28.380    5.6872
   28.410    5.6767
   28.440    5.5924
   28.470    5.6345
   28.500    5.7083
   28.530    5.5608
   28.560    5.7820
   28.590    5.6029
   28.620    5.5503
   28.650    5.5187
   28.680    5.2975
   28.710    5.6029
   28.740    5.7504
   28.770    5.5292
   28.800    6.0874
   28.830    5.5187
   28.860    5.4976
   28.890    5.8978
   28.920    5.7188
   28.950    5.9084
   28.980    5.6451
   29.010    5.7083
   29.040    5.4450
   29.070    5.6029
   29.100    5.8136
   29.130    5.4976
   29.160    5.4450
   29.190    5.7715
   29.220    5.4450
   29.250    5.5187
   29.280    5.7293
   29.310    5.7925
   29.340    5.3607
   29.370    5.6556
   29.400    5.6135
   29.430    5.5187
   29.460    5.0974
   29.490    5.5714
   29.520    5.5292
   29.550    5.6240
   29.580    5.4344
   29.610    5.3818
   29.640    4.9921
   29.670    5.5924
   29.700    5.0658
   29.730    5.4239
   29.760    5.5398
   29.790    5.4134
   29.820    5.2975
   29.850    5.1290
   29.880    5.3291
   29.910    5.4239
   29.940    5.3502
   29.970    5.4660
   30.000    5.1606
   30.030    5.5398
   30.060    5.5608
   30.090    5.3712
   30.120    5.2659
   30.150    5.7083
   30.180    5.3502
   30.210    5.3818
   30.240    5.5819
   30.270    5.3081
   30.300    5.3397
   30.330    5.2133
   30.360    5.2133
   30.390    5.3397
   30.420    5.5187
   30.450    5.4871
   30.480    5.4660
   30.510    5.2027
   30.540    5.7609
   30.570    5.0342
   30.600    5.3818
   30.630    5.4239
   30.660    5.3502
   30.690    4.9394
   30.720    5.4555
   30.750    4.9710
   30.780    5.4976
   30.810    5.3186
   30.840    5.5819
   30.870    5.2133
   30.900    5.1817
   30.930    4.8552
   30.960    5.1606
   30.990    5.1711
   31.020    4.9500
   31.050    5.1606
   31.080    5.4450
   31.110    5.4450
   31.140    5.2975
   31.170    5.3397
   31.200    5.5082
   31.230    5.2765
   31.260    5.2975
   31.290    5.2449
   31.320    4.9921
   31.350    5.0869
   31.380    5.4344
   31.410    5.1501
   31.440    5.2133
   31.470    5.0342
   31.500    5.0026
   31.530    5.2975
   31.560    5.2343
   31.590    5.2027
   31.620    4.8657
   31.650    5.4028
   31.680    5.5082
   31.710    5.2133
   31.740    5.5187
   31.770    5.0237
   31.800    4.8236
   31.830    5.0764
   31.860    4.9078
   31.890    4.8973
   31.920    5.2027
   31.950    5.3081
   31.980    5.0553
   32.010    4.6235
   32.040    5.1606
   32.070    4.8236
   32.100    4.8552
   32.130    5.4344
   32.160    5.0764
   32.190    4.8025
   32.220    5.3502
   32.250    4.9605
   32.280    4.8552
   32.310    5.2027
   32.340    5.0132
   32.370    5.0132
   32.400    5.0342
   32.430    4.8552
   32.460    5.0553
   32.490    4.8025
   32.520    5.0132
   32.550    4.9078
   32.580    4.9289
   32.610    5.0448
   32.640    5.0237
   32.670    4.9710
   32.700    4.8447
   32.730    5.2975
   32.760    4.7288
   32.790    5.0869
   32.820    5.2554
   32.850    5.1922
   32.880    4.8973
   32.910    4.8341
   32.940    4.8341
   32.970    4.6551
   33.000    4.9394
   33.030    5.0237
   33.060    4.7604
   33.090    4.8763
   33.120    4.7709
   33.150    5.0132
   33.180    5.0869
   33.210    4.8236
   33.240    4.8236
   33.270    4.9500
   33.300    4.9500
   33.330    5.0553
   33.360    5.1185
   33.390    4.6761
   33.420    4.7604
   33.450    4.8973
   33.480    5.1290
   33.510    4.8025
   33.540    4.6024
   33.570    5.1185
   33.600    4.9184
   33.630    4.7709
   33.660    5.1606
   33.690    4.8763
   33.720    4.4760
   33.750    4.5392
   33.780    4.4866
   33.810    4.6024
   33.840    4.8552
   33.870    4.9184
   33.900    4.8025
   33.930    4.6235
   33.960    4.8973
   33.990    4.9289
   34.020    4.7288
   34.050    4.5498
   34.080    4.4550
   34.110    4.4023
   34.140    4.6761
   34.170    4.8973
   34.200    4.4866
   34.230    4.8025
   34.260    4.9184
   34.290    4.9078
   34.320    4.3813
   34.350    4.5603
   34.380    4.4339
   34.410    4.6130
   34.440    4.6024
   34.470    4.8131
   34.500    4.6551
   34.530    4.7183
   34.560    4.8341
   34.590    4.5076
   34.620    4.8131
   34.650    4.4866
   34.680    4.8447
   34.710    4.5392
   34.740    4.6761
   34.770    4.6551
   34.800    4.5814
   34.830    4.7288
   34.860    4.3497
   34.890    4.7288
   34.920    4.8868
   34.950    4.2759
   34.980    4.6972
   35.010    4.4866
   35.040    4.6340
   35.070    4.5182
   35.100    4.5919
   35.130    4.5708
   35.160    4.4444
   35.190    4.7709
   35.220    4.8131
   35.250    4.6867
   35.280    4.3391
   35.310    4.6551
   35.340    4.6445
   35.370    4.7815
   35.400    4.6235
   35.430    4.6340
   35.460    4.2443
   35.490    4.1180
   35.520    4.4234
   35.550    4.6445
   35.580    4.0969
   35.610    4.5287
   35.640    4.3813
   35.670    4.4023
   35.700    4.4023
   35.730    4.8131
   35.760    4.5919
   35.790    4.4128
   35.820    4.7288
   35.850    4.2549
   35.880    4.5392
   35.910    4.3602
   35.940    4.4655
   35.970    4.2759
   36.000    4.7077
   36.030    4.6235
   36.060    4.4128
   36.090    4.2127
   36.120    4.4550
   36.150    4.2022
   36.180    4.7393
   36.210    4.4971
   36.240    4.5708
   36.270    4.5498
   36.300    4.6235
   36.330    4.7815
   36.360    4.1706
   36.390    4.3181
   36.420    4.3707
   36.450    4.4971
   36.480    4.6340
   36.510    4.3391
   36.540    4.6445
   36.570    4.5392
   36.600    4.3391
   36.630    4.3286
   36.660    4.6551
   36.690    4.3497
   36.720    4.6024
   36.750    4.3181
   36.780    4.4866
   36.810    4.0126
   36.840    4.4550
   36.870    4.6235
   36.900    4.2654
   36.930    4.2970
   36.960    4.2127
   36.990    4.7393
   37.020    4.3391
   37.050    4.7709
   37.080    4.3707
   37.110    4.3391
   37.140    4.4444
   37.170    4.5919
   37.200    4.4023
   37.230    4.2233
   37.260    4.3602
   37.290    4.3075
   37.320    4.8657
   37.350    4.1601
   37.380    4.4866
   37.410    4.1285
   37.440    4.5919
   37.470    4.5603
   37.500    4.2127
   37.530    4.2865
   37.560    4.2865
   37.590    4.2233
   37.620    4.6130
   37.650    4.4234
   37.680    4.4444
   37.710    4.1390
   37.740    4.2022
   37.770    4.5182
   37.800    4.3707
   37.830    4.1811
   37.860    4.0126
   37.890    4.3918
   37.920    4.2022
   37.950    4.4128
   37.980    4.0232
   38.010    4.6972
   38.040    4.2970
   38.070    4.1074
   38.100    4.3918
   38.130    4.5392
   38.160    4.2549
   38.190    4.2865
   38.220    4.0969
   38.250    4.1496
   38.280    4.3707
   38.310    4.1390
   38.340    4.2443
   38.370    4.5708
   38.400    4.6340
   38.430    4.2970
   38.460    4.2443
   38.490    4.4444
   38.520    4.7183
   38.550    4.4760
   38.580    4.2233
   38.610    4.3181
   38.640    4.4866
   38.670    4.3497
   38.700    4.1074
   38.730    4.1496
   38.760    4.2338
   38.790    4.5392
   38.820    4.4339
   38.850    4.3181
   38.880    4.5182
   38.910    4.0337
   38.940    4.2443
   38.970    4.4339
   39.000    4.2654
   39.030    4.2759
   39.060    4.5603
   39.090    4.5076
   39.120    4.4234
   39.150    4.1180
   39.180    4.5708
   39.210    4.4234
   39.240    4.3602
   39.270    4.3286
   39.300    3.9705
   39.330    4.3497
   39.360    4.4444
   39.390    4.2970
   39.420    4.4550
   39.450    4.3181
   39.480    4.1601
   39.510    4.1074
   39.540    4.2970
   39.570    4.2654
   39.600    4.3497
   39.630    4.3497
   39.660    4.4760
   39.690    4.4550
   39.720    4.4339
   39.750    4.3813
   39.780    4.5708
   39.810    4.5603
   39.840    4.3181
   39.870    4.4128
   39.900    4.3813
   39.930    4.0548
   39.960    4.2970
   39.990    4.1285