File: data/MOCOF-1/PXRD/PXRD_KE-076_Cu-Ka1_capillary-1mm_5s-deg.xyd
    1.500   14.2391
    1.530   14.4497
    1.560   14.3444
    1.590   14.1548
    1.620   14.6182
    1.650   14.1654
    1.680   14.0916
    1.710   14.5024
    1.740   13.6388
    1.770   14.0600
    1.800   14.4708
    1.830   14.7341
    1.860   14.4918
    1.890   14.2285
    1.920   14.3444
    1.950   14.6288
    1.980   14.7657
    2.010   14.9974
    2.040   15.3028
    2.070   15.7557
    2.100   16.5771
    2.130   15.7767
    2.160   15.9979
    2.190   16.8088
    2.220   17.4618
    2.250   16.9247
    2.280   18.4308
    2.310   18.1148
    2.340   18.9573
    2.370   19.7788
    2.400   19.7262
    2.430   20.5161
    2.460   21.1796
    2.490   21.4745
    2.520   22.6751
    2.550   23.8336
    2.580   23.9494
    2.610   25.0342
    2.640   26.3086
    2.670   27.5092
    2.700   28.3728
    2.730   29.5313
    2.760   30.8794
    2.790   32.1432
    2.820   34.3971
    2.850   34.5866
    2.880   37.0300
    2.910   38.8310
    2.940   41.4534
    2.970   44.7604
    3.000   45.8873
    3.030   48.8573
    3.060   53.7335
    3.090   55.9031
    3.120   60.6846
    3.150   65.5187
    3.180   69.9210
    3.210   77.6830
    3.240   83.5703
    3.270   91.8589
    3.300  101.7167
    3.330  113.1648
    3.360  127.2881
    3.390  142.4013
    3.420  157.6514
    3.450  160.8847
    3.480  145.7820
    3.510  117.1248
    3.540   93.2385
    3.570   78.1885
    3.600   68.6677
    3.630   67.7831
    3.660   67.8146
    3.690   71.3533
    3.720   75.8294
    3.750   82.0642
    3.780   89.7525
    3.810   96.2717
    3.840   99.6419
    3.870   98.4939
    3.900   92.4697
    3.930   79.1996
    3.960   65.2975
    3.990   51.2586
    4.020   40.0843
    4.050   30.8899
    4.080   24.8973
    4.110   21.0427
    4.140   17.5566
    4.170   15.0500
    4.200   13.6493
    4.230   11.8589
    4.260   11.0479
    4.290   10.5845
    4.320    9.1101
    4.350    9.4892
    4.380    8.8889
    4.410    8.2780
    4.440    8.1517
    4.470    7.5935
    4.500    7.2143
    4.530    7.2880
    4.560    7.4039
    4.590    7.3091
    4.620    6.6456
    4.650    6.8036
    4.680    6.6351
    4.710    6.9826
    4.740    6.3086
    4.770    6.4034
    4.800    6.6877
    4.830    6.3191
    4.860    6.5824
    4.890    6.4560
    4.920    6.1717
    4.950    6.1717
    4.980    6.7088
    5.010    6.3402
    5.040    6.2243
    5.070    6.3928
    5.100    6.3928
    5.130    6.6983
    5.160    6.3823
    5.190    6.5613
    5.220    6.4560
    5.250    6.3612
    5.280    6.3928
    5.310    6.2454
    5.340    6.1506
    5.370    6.0242
    5.400    6.3086
    5.430    5.8241
    5.460    5.7293
    5.490    5.8873
    5.520    5.7820
    5.550    5.6135
    5.580    5.9716
    5.610    5.6872
    5.640    5.8978
    5.670    5.3818
    5.700    5.7715
    5.730    5.6029
    5.760    5.7504
    5.790    5.6872
    5.820    5.9716
    5.850    5.5292
    5.880    5.4871
    5.910    5.4450
    5.940    6.0979
    5.970    5.7188
    6.000    5.5714
    6.030    5.2554
    6.060    5.8031
    6.090    5.8452
    6.120    5.6661
    6.150    5.4344
    6.180    6.0453
    6.210    5.9084
    6.240    5.9716
    6.270    6.6772
    6.300    6.7825
    6.330    6.6983
    6.360    6.7825
    6.390    7.2249
    6.420    7.1827
    6.450    7.2880
    6.480    7.8357
    6.510    7.9937
    6.540    8.3623
    6.570    9.1943
    6.600    9.2575
    6.630   10.5424
    6.660   10.9426
    6.690   12.0274
    6.720   12.9647
    6.750   14.2496
    6.780   15.8926
    6.810   18.4413
    6.840   20.1896
    6.870   23.4650
    6.900   26.3402
    6.930   27.4460
    6.960   26.2454
    6.990   22.1485
    7.020   17.9358
    7.050   13.7125
    7.080   11.4481
    7.110    9.5945
    7.140    8.3518
    7.170    8.4781
    7.200    8.0674
    7.230    7.8673
    7.260    7.7304
    7.290    7.6567
    7.320    8.1517
    7.350    8.4781
    7.380    8.5624
    7.410    9.0047
    7.440    9.0153
    7.470   10.2054
    7.500   10.3002
    7.530   11.0163
    7.560   12.3539
    7.590   13.0806
    7.620   15.0500
    7.650   15.8294
    7.680   17.1143
    7.710   19.0732
    7.740   20.6319
    7.770   21.3586
    7.800   21.0848
    7.830   19.6735
    7.860   18.6730
    7.890   17.7146
    7.920   16.0927
    7.950   13.6493
    7.980   12.1116
    8.010   10.5951
    8.040    9.4997
    8.070    8.4676
    8.100    8.2886
    8.130    7.7304
    8.160    7.3618
    8.190    6.6772
    8.220    6.5613
    8.250    6.2033
    8.280    6.2033
    8.310    6.0032
    8.340    5.9400
    8.370    5.4976
    8.400    5.7399
    8.430    5.0342
    8.460    5.8557
    8.490    5.3081
    8.520    5.1606
    8.550    5.5503
    8.580    5.4344
    8.610    5.3397
    8.640    4.9394
    8.670    5.2449
    8.700    5.2975
    8.730    5.2343
    8.760    5.0658
    8.790    5.0026
    8.820    5.1185
    8.850    5.0448
    8.880    5.2343
    8.910    5.1395
    8.940    4.7815
    8.970    4.8341
    9.000    5.0237
    9.030    5.1395
    9.060    4.8552
    9.090    5.2659
    9.120    4.7183
    9.150    5.0658
    9.180    5.0553
    9.210    5.0132
    9.240    4.9921
    9.270    4.4128
    9.300    4.7815
    9.330    4.8131
    9.360    4.9078
    9.390    4.8447
    9.420    4.8552
    9.450    4.6972
    9.480    5.0553
    9.510    4.9394
    9.540    4.9078
    9.570    4.8131
    9.600    5.0553
    9.630    4.7183
    9.660    5.0553
    9.690    4.9816
    9.720    4.8763
    9.750    4.8657
    9.780    4.8025
    9.810    5.0026
    9.840    4.8868
    9.870    4.9184
    9.900    4.8447
    9.930    4.7815
    9.960    5.1290
    9.990    4.5392
   10.020    4.6551
   10.050    4.9078
   10.080    5.0237
   10.110    4.9078
   10.140    4.8552
   10.170    4.7499
   10.200    4.9921
   10.230    5.0132
   10.260    5.0869
   10.290    4.7709
   10.320    5.0553
   10.350    5.3607
   10.380    5.3186
   10.410    5.4660
   10.440    5.1395
   10.470    5.0553
   10.500    5.5292
   10.530    5.0869
   10.560    4.7604
   10.590    5.0342
   10.620    5.2027
   10.650    5.0026
   10.680    4.8236
   10.710    4.8447
   10.740    5.2765
   10.770    5.0342
   10.800    4.7709
   10.830    4.8341
   10.860    5.0448
   10.890    4.9184
   10.920    4.8447
   10.950    4.8131
   10.980    5.0237
   11.010    5.0026
   11.040    5.0026
   11.070    5.1922
   11.100    4.8973
   11.130    5.0448
   11.160    5.1185
   11.190    4.7499
   11.220    5.3923
   11.250    5.1185
   11.280    5.0658
   11.310    5.4344
   11.340    5.3712
   11.370    5.5292
   11.400    5.3186
   11.430    5.6135
   11.460    5.3291
   11.490    5.3607
   11.520    5.9084
   11.550    6.1085
   11.580    5.8978
   11.610    6.1506
   11.640    6.4560
   11.670    6.6245
   11.700    6.2454
   11.730    6.6456
   11.760    6.6351
   11.790    6.6456
   11.820    6.2665
   11.850    6.0032
   11.880    6.3928
   11.910    5.8662
   11.940    6.0032
   11.970    5.3923
   12.000    5.6872
   12.030    5.1395
   12.060    5.4660
   12.090    5.0974
   12.120    5.2659
   12.150    5.2765
   12.180    5.2343
   12.210    5.3186
   12.240    5.4239
   12.270    5.0764
   12.300    5.3186
   12.330    4.7709
   12.360    5.1711
   12.390    5.3712
   12.420    5.6135
   12.450    4.9289
   12.480    4.8341
   12.510    5.0342
   12.540    5.6135
   12.570    4.9289
   12.600    5.0869
   12.630    5.3397
   12.660    5.2343
   12.690    5.1922
   12.720    5.3502
   12.750    5.4344
   12.780    5.2133
   12.810    5.1290
   12.840    5.3291
   12.870    4.9078
   12.900    5.0764
   12.930    5.2238
   12.960    5.3818
   12.990    5.1290
   13.020    5.3818
   13.050    5.0026
   13.080    5.0869
   13.110    4.9921
   13.140    5.2343
   13.170    5.2449
   13.200    5.6029
   13.230    5.4976
   13.260    5.1711
   13.290    5.3186
   13.320    5.3607
   13.350    5.3081
   13.380    5.0658
   13.410    5.1606
   13.440    5.1922
   13.470    5.5924
   13.500    5.1606
   13.530    5.4028
   13.560    5.3186
   13.590    4.8973
   13.620    5.1817
   13.650    5.1606
   13.680    5.0237
   13.710    4.8236
   13.740    4.9289
   13.770    4.8973
   13.800    5.0658
   13.830    4.8552
   13.860    4.9816
   13.890    4.9289
   13.920    4.9710
   13.950    4.9921
   13.980    5.0132
   14.010    5.2765
   14.040    4.6024
   14.070    4.8447
   14.100    4.9078
   14.130    5.0658
   14.160    4.9605
   14.190    4.8763
   14.220    4.6972
   14.250    4.6340
   14.280    4.9816
   14.310    4.6024
   14.340    4.8552
   14.370    5.3081
   14.400    4.6130
   14.430    4.9289
   14.460    4.8025
   14.490    4.9184
   14.520    4.8552
   14.550    4.5182
   14.580    4.6130
   14.610    5.3712
   14.640    4.9500
   14.670    4.7499
   14.700    5.0553
   14.730    4.8341
   14.760    4.9394
   14.790    4.8131
   14.820    5.0658
   14.850    4.7604
   14.880    4.9921
   14.910    4.8236
   14.940    5.0869
   14.970    4.8025
   15.000    5.0764
   15.030    5.1817
   15.060    4.9184
   15.090    4.9710
   15.120    4.9394
   15.150    5.0764
   15.180    5.1606
   15.210    5.2870
   15.240    5.3291
   15.270    5.0658
   15.300    5.5187
   15.330    5.0237
   15.360    4.7604
   15.390    5.2343
   15.420    5.3186
   15.450    5.0448
   15.480    5.6872
   15.510    5.4660
   15.540    5.2765
   15.570    5.7083
   15.600    5.3081
   15.630    5.5082
   15.660    5.2027
   15.690    5.5819
   15.720    5.3712
   15.750    5.2027
   15.780    5.0764
   15.810    4.7499
   15.840    5.0658
   15.870    5.2765
   15.900    4.7709
   15.930    4.9500
   15.960    4.8868
   15.990    5.0869
   16.020    4.8552
   16.050    4.6972
   16.080    4.6656
   16.110    4.8236
   16.140    4.6867
   16.170    4.6130
   16.200    4.8657
   16.230    4.8236
   16.260    4.5182
   16.290    4.6551
   16.320    4.8552
   16.350    4.7183
   16.380    4.8131
   16.410    5.1501
   16.440    4.9184
   16.470    4.7815
   16.500    4.8236
   16.530    4.8131
   16.560    4.8236
   16.590    4.8131
   16.620    5.4450
   16.650    4.7815
   16.680    5.0658
   16.710    4.6867
   16.740    4.6551
   16.770    4.6130
   16.800    4.7709
   16.830    4.5919
   16.860    4.9500
   16.890    5.0132
   16.920    4.7920
   16.950    4.9289
   16.980    4.6972
   17.010    4.6656
   17.040    4.8131
   17.070    5.0342
   17.100    4.5392
   17.130    4.7815
   17.160    4.9605
   17.190    4.9816
   17.220    5.2554
   17.250    5.2238
   17.280    4.7815
   17.310    4.9289
   17.340    4.8868
   17.370    5.0553
   17.400    5.0974
   17.430    4.8552
   17.460    5.4976
   17.490    5.2343
   17.520    5.2027
   17.550    5.1185
   17.580    5.1080
   17.610    5.1711
   17.640    5.1501
   17.670    5.0553
   17.700    5.3923
   17.730    4.9078
   17.760    5.3712
   17.790    5.2027
   17.820    5.6977
   17.850    5.2238
   17.880    5.3712
   17.910    5.3397
   17.940    5.3291
   17.970    4.9816
   18.000    5.4239
   18.030    4.9710
   18.060    4.9816
   18.090    5.1185
   18.120    4.8341
   18.150    4.9816
   18.180    5.0448
   18.210    5.2449
   18.240    4.9500
   18.270    5.1501
   18.300    4.9394
   18.330    4.9816
   18.360    4.9500
   18.390    4.7920
   18.420    5.1290
   18.450    5.3186
   18.480    5.2975
   18.510    5.2027
   18.540    5.1185
   18.570    4.9184
   18.600    4.8657
   18.630    5.0974
   18.660    5.2238
   18.690    5.1080
   18.720    4.9184
   18.750    4.8657
   18.780    5.0553
   18.810    5.4450
   18.840    5.5714
   18.870    4.9816
   18.900    4.9921
   18.930    4.7604
   18.960    5.1185
   18.990    4.8025
   19.020    5.2449
   19.050    5.3818
   19.080    5.1395
   19.110    5.1395
   19.140    4.8657
   19.170    4.7499
   19.200    5.1817
   19.230    5.2765
   19.260    5.4344
   19.290    5.0869
   19.320    5.5292
   19.350    5.4660
   19.380    5.2133
   19.410    5.2975
   19.440    4.8236
   19.470    5.3818
   19.500    5.5503
   19.530    5.2765
   19.560    5.3607
   19.590    5.4344
   19.620    5.1606
   19.650    5.6451
   19.680    5.7293
   19.710    5.5398
   19.740    5.0237
   19.770    5.3397
   19.800    5.1395
   19.830    5.3818
   19.860    5.3712
   19.890    5.5608
   19.920    5.7083
   19.950    5.6135
   19.980    5.7609
   20.010    5.9610
   20.040    5.9189
   20.070    5.6240
   20.100    5.5819
   20.130    5.7925
   20.160    5.7188
   20.190    5.7925
   20.220    5.7609
   20.250    5.8873
   20.280    6.2665
   20.310    5.7188
   20.340    5.8557
   20.370    5.6661
   20.400    5.8452
   20.430    5.5924
   20.460    5.7399
   20.490    5.5714
   20.520    5.6661
   20.550    5.7715
   20.580    5.6872
   20.610    5.5187
   20.640    5.8662
   20.670    5.5714
   20.700    5.8557
   20.730    5.7293
   20.760    6.0453
   20.790    5.7504
   20.820    5.7504
   20.850    6.2454
   20.880    6.1190
   20.910    6.2665
   20.940    6.0769
   20.970    6.2033
   21.000    6.1085
   21.030    5.9716
   21.060    6.1085
   21.090    6.4139
   21.120    6.2138
   21.150    5.9821
   21.180    6.3296
   21.210    6.0874
   21.240    5.7504
   21.270    5.9926
   21.300    5.5187
   21.330    6.1506
   21.360    6.1190
   21.390    5.8136
   21.420    5.7820
   21.450    5.7609
   21.480    5.3818
   21.510    5.8031
   21.540    5.6345
   21.570    5.6661
   21.600    5.8557
   21.630    5.8452
   21.660    5.5503
   21.690    5.9821
   21.720    5.8136
   21.750    5.6029
   21.780    5.6977
   21.810    5.8662
   21.840    5.7925
   21.870    5.8031
   21.900    5.5398
   21.930    6.0664
   21.960    5.8768
   21.990    5.6345
   22.020    5.8768
   22.050    5.6767
   22.080    5.9505
   22.110    6.3402
   22.140    5.6029
   22.170    5.5924
   22.200    6.1190
   22.230    6.1927
   22.260    5.7504
   22.290    5.9400
   22.320    5.6872
   22.350    5.8768
   22.380    5.9294
   22.410    6.2349
   22.440    5.7925
   22.470    6.2243
   22.500    6.1085
   22.530    6.4244
   22.560    6.0032
   22.590    5.9821
   22.620    6.2243
   22.650    6.3928
   22.680    6.0664
   22.710    6.1401
   22.740    6.3718
   22.770    6.3507
   22.800    6.1822
   22.830    6.2349
   22.860    6.3402
   22.890    6.3718
   22.920    6.0979
   22.950    6.1190
   22.980    6.3928
   23.010    6.0032
   23.040    5.6135
   23.070    5.9400
   23.100    6.1611
   23.130    5.6029
   23.160    5.7609
   23.190    5.7188
   23.220    5.3502
   23.250    5.8557
   23.280    5.9716
   23.310    5.4660
   23.340    5.6977
   23.370    5.4028
   23.400    5.4028
   23.430    5.1080
   23.460    5.4028
   23.490    5.4976
   23.520    5.3818
   23.550    5.5819
   23.580    5.5819
   23.610    5.5082
   23.640    5.4028
   23.670    5.6135
   23.700    5.4134
   23.730    5.2133
   23.760    5.3818
   23.790    5.2765
   23.820    5.4976
   23.850    5.4976
   23.880    5.3818
   23.910    5.4555
   23.940    5.6767
   23.970    5.8452
   24.000    5.4239
   24.030    5.4660
   24.060    5.5819
   24.090    5.4871
   24.120    5.3923
   24.150    5.6872
   24.180    5.5819
   24.210    5.3712
   24.240    5.1395
   24.270    5.6767
   24.300    5.3081
   24.330    5.5187
   24.360    5.2975
   24.390    5.4344
   24.420    5.8452
   24.450    5.7293
   24.480    5.7293
   24.510    5.6661
   24.540    5.8136
   24.570    5.1395
   24.600    5.6767
   24.630    5.7925
   24.660    5.7715
   24.690    5.4660
   24.720    5.3081
   24.750    5.4976
   24.780    5.4660
   24.810    5.4450
   24.840    5.3712
   24.870    5.6451
   24.900    5.5714
   24.930    5.4134
   24.960    5.5398
   24.990    5.3502
   25.020    5.3818
   25.050    5.0974
   25.080    5.1080
   25.110    4.9816
   25.140    5.2238
   25.170    5.0342
   25.200    5.1922
   25.230    4.7183
   25.260    5.2975
   25.290    5.1395
   25.320    5.1185
   25.350    4.7393
   25.380    5.1185
   25.410    5.3291
   25.440    4.9184
   25.470    4.9921
   25.500    5.0658
   25.530    5.0342
   25.560    4.8973
   25.590    4.8973
   25.620    5.2343
   25.650    4.8447
   25.680    5.0448
   25.710    4.8973
   25.740    4.7815
   25.770    4.8447
   25.800    5.0237
   25.830    4.7288
   25.860    4.8236
   25.890    4.7709
   25.920    4.9605
   25.950    4.7393
   25.980    4.8552
   26.010    4.8552
   26.040    4.9921
   26.070    4.8131
   26.100    5.3397
   26.130    4.7709
   26.160    4.8341
   26.190    5.0237
   26.220    4.9710
   26.250    5.1290
   26.280    4.9710
   26.310    4.8763
   26.340    4.9394
   26.370    5.0448
   26.400    4.8025
   26.430    5.1185
   26.460    5.3607
   26.490    4.8131
   26.520    4.7499
   26.550    4.9078
   26.580    5.1606
   26.610    5.0974
   26.640    4.9605
   26.670    4.9184
   26.700    4.9816
   26.730    5.1606
   26.760    4.5498
   26.790    4.7183
   26.820    4.8657
   26.850    4.8552
   26.880    4.8657
   26.910    5.0448
   26.940    5.1290
   26.970    4.8973
   27.000    4.4760
   27.030    4.8552
   27.060    4.6130
   27.090    4.5708
   27.120    5.0448
   27.150    5.0132
   27.180    5.0869
   27.210    4.7499
   27.240    4.5392
   27.270    4.8973
   27.300    4.7288
   27.330    4.9289
   27.360    5.2133
   27.390    5.0553
   27.420    4.9710
   27.450    4.8657
   27.480    4.9921
   27.510    4.5814
   27.540    4.8973
   27.570    4.8447
   27.600    4.6972
   27.630    5.0764
   27.660    4.8236
   27.690    4.7604
   27.720    4.7288
   27.750    5.0764
   27.780    4.4760
   27.810    4.4550
   27.840    4.4444
   27.870    4.6656
   27.900    4.8447
   27.930    4.7920
   27.960    4.7499
   27.990    4.4128
   28.020    4.8552
   28.050    4.8868
   28.080    4.7604
   28.110    4.6867
   28.140    4.8025
   28.170    5.2238
   28.200    4.9816
   28.230    4.6551
   28.260    4.7920
   28.290    4.7920
   28.320    4.8025
   28.350    4.7604
   28.380    4.9078
   28.410    4.7499
   28.440    4.6340
   28.470    4.6656
   28.500    4.2865
   28.530    4.6445
   28.560    4.3602
   28.590    4.6130
   28.620    4.8973
   28.650    4.6761
   28.680    4.2022
   28.710    4.3918
   28.740    4.6130
   28.770    4.6656
   28.800    4.7077
   28.830    4.5919
   28.860    4.3075
   28.890    4.4550
   28.920    4.3181
   28.950    4.5287
   28.980    4.7920
   29.010    4.5919
   29.040    4.4339
   29.070    4.4971
   29.100    4.6551
   29.130    4.5708
   29.160    4.5392
   29.190    4.6656
   29.220    4.6761
   29.250    4.4444
   29.280    4.8236
   29.310    4.4971
   29.340    4.3391
   29.370    4.2865
   29.400    4.4655
   29.430    4.5919
   29.460    4.8657
   29.490    4.4234
   29.520    4.2233
   29.550    4.6130
   29.580    4.6867
   29.610    4.6656
   29.640    4.3813
   29.670    4.2654
   29.700    4.4234
   29.730    4.4444
   29.760    4.3391
   29.790    4.4128
   29.820    4.4444
   29.850    4.4550
   29.880    4.4655
   29.910    4.2865
   29.940    4.4550
   29.970    4.8973
   30.000    4.3181
   30.030    4.1496
   30.060    4.2127
   30.090    4.1706
   30.120    4.2443
   30.150    4.5603
   30.180    4.3602
   30.210    4.5498
   30.240    4.4655
   30.270    4.3497
   30.300    4.5498
   30.330    4.1706
   30.360    4.3707
   30.390    4.3497
   30.420    4.4550
   30.450    4.1811
   30.480    4.5076
   30.510    4.4971
   30.540    4.4339
   30.570    4.1917
   30.600    4.3497
   30.630    4.7288
   30.660    4.1917
   30.690    4.1917
   30.720    4.2443
   30.750    4.1811
   30.780    4.3286
   30.810    4.7077
   30.840    4.1601
   30.870    4.4023
   30.900    4.6972
   30.930    4.1496
   30.960    3.9705
   30.990    4.3181
   31.020    4.4866
   31.050    4.4234
   31.080    4.2127
   31.110    4.2022
   31.140    4.2654
   31.170    4.7604
   31.200    4.3181
   31.230    4.4023
   31.260    4.6130
   31.290    4.2443
   31.320    4.0337
   31.350    4.1496
   31.380    4.2970
   31.410    4.0969
   31.440    4.2865
   31.470    4.6867
   31.500    4.5498
   31.530    4.1601
   31.560    4.5498
   31.590    4.5182
   31.620    4.6130
   31.650    4.4760
   31.680    4.5392
   31.710    4.1706
   31.740    4.2549
   31.770    4.3707
   31.800    4.3602
   31.830    4.4760
   31.860    4.4023
   31.890    4.0969
   31.920    4.2127
   31.950    4.6340
   31.980    4.0337
   32.010    4.2970
   32.040    4.2759
   32.070    3.9494
   32.100    4.4655
   32.130    4.1390
   32.160    4.2022
   32.190    4.4760
   32.220    4.1601
   32.250    4.3602
   32.280    4.2865
   32.310    4.1706
   32.340    4.0969
   32.370    4.1601
   32.400    4.3918
   32.430    4.7604
   32.460    4.0232
   32.490    4.1496
   32.520    4.0442
   32.550    3.9284
   32.580    4.2443
   32.610    3.8336
   32.640    4.0021
   32.670    3.9916
   32.700    4.0442
   32.730    3.8968
   32.760    4.2549
   32.790    4.2549
   32.820    3.9705
   32.850    3.8231
   32.880    4.0969
   32.910    3.7809
   32.940    3.6756
   32.970    4.4550
   33.000    4.2233
   33.030    4.3391
   33.060    3.6967
   33.090    3.9389
   33.120    4.1180
   33.150    3.8125
   33.180    3.8968
   33.210    3.8441
   33.240    3.9705
   33.270    3.8020
   33.300    4.2233
   33.330    3.9073
   33.360    4.0758
   33.390    4.1180
   33.420    4.3075
   33.450    4.0126
   33.480    3.9600
   33.510    3.9179
   33.540    3.8968
   33.570    3.9600
   33.600    4.1706
   33.630    4.1180
   33.660    4.0548
   33.690    3.9600
   33.720    3.9389
   33.750    3.7388
   33.780    3.8757
   33.810    4.0653
   33.840    3.8441
   33.870    3.8757
   33.900    3.6230
   33.930    3.8125
   33.960    3.9389
   33.990    3.7809
   34.020    3.6335
   34.050    3.8968
   34.080    3.4966
   34.110    3.7809
   34.140    3.5703
   34.170    3.7809
   34.200    3.9916
   34.230    3.8757
   34.260    3.6440
   34.290    3.7283
   34.320    3.8863
   34.350    3.5914
   34.380    3.4018
   34.410    3.8336
   34.440    3.9389
   34.470    3.6756
   34.500    3.5387
   34.530    3.6230
   34.560    3.6651
   34.590    3.6862
   34.620    3.8020
   34.650    3.7388
   34.680    3.7177
   34.710    4.0021
   34.740    3.8020
   34.770    3.7809
   34.800    3.7388
   34.830    3.4544
   34.860    3.8125
   34.890    3.5598
   34.920    3.1806
   34.950    3.5808
   34.980    3.5703
   35.010    3.7177
   35.040    3.4755
   35.070    3.6335
   35.100    3.1912
   35.130    3.7493
   35.160    3.7493
   35.190    3.6019
   35.220    3.7177
   35.250    3.5598
   35.280    3.6230
   35.310    3.8968
   35.340    3.7177
   35.370    3.7599
   35.400    3.6862
   35.430    3.7704
   35.460    3.6230
   35.490    3.5282
   35.520    3.4966
   35.550    4.0337
   35.580    3.5071
   35.610    3.6862
   35.640    3.5914
   35.670    3.4755
   35.700    3.7283
   35.730    3.4650
   35.760    3.7072
   35.790    3.4439
   35.820    3.4650
   35.850    3.5914
   35.880    3.5387
   35.910    3.3597
   35.940    3.8020
   35.970    3.3597
   36.000    3.7809
   36.030    3.7177
   36.060    3.5176
   36.090    3.7072
   36.120    3.5808
   36.150    3.6230
   36.180    3.4018
   36.210    3.5598
   36.240    3.6124
   36.270    3.7915
   36.300    3.9179
   36.330    3.5176
   36.360    3.6124
   36.390    3.8336
   36.420    3.7809
   36.450    3.6546
   36.480    3.4966
   36.510    3.6862
   36.540    3.6756
   36.570    3.6019
   36.600    3.6756
   36.630    3.5808
   36.660    3.6546
   36.690    3.4860
   36.720    3.7072
   36.750    3.4650
   36.780    3.3913
   36.810    3.4439
   36.840    3.4439
   36.870    3.3386
   36.900    3.5598
   36.930    3.2438
   36.960    3.3386
   36.990    3.3702
   37.020    3.5492
   37.050    3.3175
   37.080    3.3597
   37.110    3.4544
   37.140    3.4755
   37.170    3.4755
   37.200    3.7915
   37.230    3.5914
   37.260    3.4544
   37.290    3.6230
   37.320    3.6546
   37.350    3.3702
   37.380    3.4123
   37.410    3.5703
   37.440    3.5598
   37.470    3.5387
   37.500    3.2227
   37.530    3.8125
   37.560    3.4229
   37.590    3.1806
   37.620    3.5176
   37.650    3.3807
   37.680    3.5282
   37.710    3.2859
   37.740    3.4229
   37.770    3.3702
   37.800    3.2017
   37.830    3.1701
   37.860    3.3175
   37.890    3.1280
   37.920    3.3913
   37.950    3.3702
   37.980    3.5282
   38.010    3.2965
   38.040    3.4650
   38.070    3.4860
   38.100    3.2227
   38.130    3.4018
   38.160    3.3386
   38.190    3.6546
   38.220    3.4334
   38.250    3.2965
   38.280    3.3175
   38.310    3.2122
   38.340    3.2754
   38.370    3.1701
   38.400    3.3597
   38.430    3.2543
   38.460    3.5176
   38.490    3.3807
   38.520    3.3175
   38.550    3.3807
   38.580    3.0648
   38.610    3.6019
   38.640    3.4229
   38.670    3.2017
   38.700    3.3702
   38.730    3.2122
   38.760    3.2333
   38.790    3.3597
   38.820    3.2649
   38.850    3.3913
   38.880    3.4123
   38.910    3.4018
   38.940    3.6756
   38.970    3.4334
   39.000    3.2543
   39.030    3.2017
   39.060    3.1385
   39.090    3.3386
   39.120    3.4860
   39.150    3.2965
   39.180    3.2754
   39.210    3.5703
   39.240    3.3597
   39.270    3.0226
   39.300    3.1701
   39.330    3.2754
   39.360    3.3597
   39.390    3.3807
   39.420    3.4755
   39.450    3.4018
   39.480    3.2754
   39.510    3.4018
   39.540    3.4334
   39.570    3.2859
   39.600    3.3175
   39.630    3.3807
   39.660    3.4544
   39.690    3.3807
   39.720    3.4018
   39.750    3.5387
   39.780    3.3702
   39.810    3.3491
   39.840    3.2543
   39.870    3.2122
   39.900    3.5176
   39.930    3.2227
   39.960    3.2754
   39.990    3.2754