File: data/MOCOF-1/PXRD/PXRD_KE-196_Cu-Ka1_capillary-1mm_5s-deg.xyd
    1.500   13.7019
    1.530   13.5650
    1.560   12.0169
    1.590   11.7852
    1.620   11.8589
    1.650   11.3533
    1.680   10.6898
    1.710   10.3739
    1.740   10.5635
    1.770   10.1316
    1.800    9.9105
    1.830    9.4050
    1.860    9.4471
    1.890    8.8678
    1.920    8.9521
    1.950    8.8573
    1.980    8.4044
    2.010    7.9305
    2.040    7.8989
    2.070    7.8673
    2.100    7.5724
    2.130    7.2880
    2.160    7.6040
    2.190    7.2775
    2.220    6.9089
    2.250    6.7404
    2.280    6.6667
    2.310    6.5824
    2.340    6.6035
    2.370    6.2665
    2.400    6.3086
    2.430    6.3507
    2.460    5.8347
    2.490    6.5613
    2.520    5.6135
    2.550    5.8452
    2.580    5.7083
    2.610    5.4239
    2.640    5.3818
    2.670    5.5292
    2.700    5.4976
    2.730    5.1080
    2.760    5.3291
    2.790    5.2449
    2.820    4.8657
    2.850    4.6656
    2.880    4.7499
    2.910    4.8447
    2.940    5.0132
    2.970    4.7815
    3.000    4.7393
    3.030    4.6761
    3.060    4.4760
    3.090    4.2970
    3.120    4.1917
    3.150    4.3602
    3.180    4.2759
    3.210    4.1706
    3.240    4.2127
    3.270    4.2443
    3.300    4.2443
    3.330    4.1601
    3.360    4.1601
    3.390    4.0758
    3.420    4.2970
    3.450    3.9179
    3.480    3.8231
    3.510    3.9600
    3.540    3.6546
    3.570    4.0758
    3.600    3.6440
    3.630    3.8968
    3.660    3.9389
    3.690    3.4966
    3.720    3.5387
    3.750    3.9389
    3.780    3.8020
    3.810    3.6019
    3.840    3.8020
    3.870    3.4544
    3.900    3.7599
    3.930    3.5914
    3.960    3.4334
    3.990    3.6967
    4.020    3.6019
    4.050    3.3175
    4.080    3.4966
    4.110    3.3175
    4.140    3.4755
    4.170    3.5598
    4.200    3.3070
    4.230    3.5282
    4.260    3.3070
    4.290    3.7599
    4.320    3.2543
    4.350    3.4439
    4.380    3.3281
    4.410    3.5071
    4.440    3.0858
    4.470    3.4544
    4.500    3.2754
    4.530    3.1069
    4.560    3.1174
    4.590    3.5071
    4.620    3.2649
    4.650    3.2333
    4.680    3.0226
    4.710    3.2649
    4.740    3.3491
    4.770    2.9595
    4.800    2.9910
    4.830    2.9910
    4.860    3.2754
    4.890    3.2649
    4.920    3.0648
    4.950    3.0964
    4.980    2.8225
    5.010    2.9489
    5.040    2.7804
    5.070    3.0016
    5.100    2.8857
    5.130    3.1490
    5.160    2.9805
    5.190    3.0753
    5.220    3.0332
    5.250    3.1806
    5.280    2.7909
    5.310    2.8857
    5.340    3.0648
    5.370    2.9700
    5.400    2.9910
    5.430    2.8436
    5.460    2.8857
    5.490    2.8752
    5.520    3.1385
    5.550    2.8963
    5.580    2.5698
    5.610    2.6540
    5.640    2.6224
    5.670    2.7383
    5.700    2.6435
    5.730    2.9279
    5.760    2.7909
    5.790    2.7383
    5.820    2.7172
    5.850    2.8647
    5.880    2.6435
    5.910    3.0858
    5.940    2.8436
    5.970    2.8436
    6.000    2.7699
    6.030    2.7488
    6.060    2.8541
    6.090    2.7593
    6.120    2.7593
    6.150    2.9384
    6.180    2.8120
    6.210    2.6856
    6.240    2.7172
    6.270    2.8331
    6.300    2.8857
    6.330    2.8331
    6.360    2.7278
    6.390    2.8436
    6.420    2.6014
    6.450    2.7593
    6.480    2.7488
    6.510    2.9700
    6.540    2.4434
    6.570    2.6435
    6.600    2.7383
    6.630    2.7172
    6.660    2.7593
    6.690    3.0016
    6.720    2.6751
    6.750    2.4434
    6.780    2.8647
    6.810    2.7909
    6.840    2.6540
    6.870    2.5382
    6.900    2.5908
    6.930    2.8331
    6.960    2.6119
    6.990    2.8857
    7.020    2.7699
    7.050    2.7593
    7.080    2.3275
    7.110    2.6014
    7.140    2.4961
    7.170    2.7067
    7.200    2.7278
    7.230    2.7278
    7.260    2.7909
    7.290    2.5803
    7.320    2.7278
    7.350    2.7699
    7.380    2.7067
    7.410    2.7593
    7.440    2.7172
    7.470    2.6330
    7.500    2.6540
    7.530    2.3591
    7.560    2.5276
    7.590    2.7909
    7.620    2.6330
    7.650    2.8120
    7.680    2.6014
    7.710    2.7593
    7.740    2.5592
    7.770    2.6962
    7.800    2.8225
    7.830    2.6646
    7.860    2.6330
    7.890    2.9384
    7.920    2.7383
    7.950    2.7067
    7.980    2.5171
    8.010    2.7383
    8.040    2.6540
    8.070    2.5171
    8.100    2.6435
    8.130    2.5908
    8.160    2.6119
    8.190    2.7278
    8.220    2.8647
    8.250    2.6014
    8.280    2.6119
    8.310    2.5066
    8.340    2.6540
    8.370    2.5382
    8.400    2.4329
    8.430    2.5803
    8.460    2.7067
    8.490    2.3802
    8.520    2.6119
    8.550    2.5908
    8.580    2.7909
    8.610    2.7699
    8.640    2.5276
    8.670    2.5908
    8.700    2.7909
    8.730    2.6119
    8.760    2.5171
    8.790    2.5908
    8.820    2.4223
    8.850    2.5698
    8.880    2.5382
    8.910    2.8120
    8.940    2.6540
    8.970    2.4118
    9.000    2.7278
    9.030    2.8857
    9.060    2.6330
    9.090    2.5803
    9.120    2.4118
    9.150    2.5066
    9.180    2.4013
    9.210    2.5487
    9.240    2.4434
    9.270    2.4539
    9.300    2.3802
    9.330    2.5698
    9.360    2.5382
    9.390    2.3591
    9.420    2.5276
    9.450    2.5276
    9.480    2.6962
    9.510    2.5908
    9.540    2.6330
    9.570    2.4961
    9.600    2.5803
    9.630    2.8331
    9.660    2.6119
    9.690    2.6224
    9.720    2.6224
    9.750    2.5171
    9.780    2.3591
    9.810    2.7488
    9.840    2.6224
    9.870    2.4013
    9.900    2.7278
    9.930    2.5908
    9.960    2.5171
    9.990    2.6435
   10.020    2.5382
   10.050    2.5276
   10.080    2.4855
   10.110    2.3486
   10.140    2.4223
   10.170    2.5171
   10.200    2.6856
   10.230    2.6435
   10.260    2.5698
   10.290    2.4645
   10.320    2.5066
   10.350    2.4855
   10.380    2.3697
   10.410    2.3697
   10.440    2.3907
   10.470    2.3591
   10.500    2.4118
   10.530    2.3697
   10.560    2.3591
   10.590    2.6435
   10.620    2.5908
   10.650    2.5171
   10.680    2.5066
   10.710    2.3591
   10.740    2.2854
   10.770    2.5698
   10.800    2.4329
   10.830    2.4855
   10.860    2.4539
   10.890    2.4750
   10.920    2.4013
   10.950    2.6014
   10.980    2.6540
   11.010    2.5487
   11.040    2.4118
   11.070    2.6330
   11.100    2.1906
   11.130    2.7383
   11.160    2.6014
   11.190    2.2117
   11.220    2.6540
   11.250    2.4961
   11.280    2.6856
   11.310    2.7172
   11.340    2.6119
   11.370    2.6014
   11.400    2.4223
   11.430    2.4434
   11.460    2.4118
   11.490    2.4118
   11.520    2.4961
   11.550    2.5487
   11.580    2.3275
   11.610    2.2749
   11.640    2.4855
   11.670    2.6540
   11.700    2.2643
   11.730    2.6119
   11.760    2.3381
   11.790    2.3381
   11.820    2.2854
   11.850    2.4118
   11.880    2.2433
   11.910    2.5382
   11.940    2.4539
   11.970    2.2538
   12.000    2.4961
   12.030    2.4329
   12.060    2.4329
   12.090    2.3381
   12.120    2.4645
   12.150    2.4434
   12.180    2.5171
   12.210    2.5276
   12.240    2.4434
   12.270    2.4118
   12.300    2.3065
   12.330    2.2433
   12.360    2.3907
   12.390    2.4539
   12.420    2.4118
   12.450    2.1064
   12.480    2.3907
   12.510    2.6014
   12.540    2.4750
   12.570    2.3907
   12.600    2.5382
   12.630    2.2959
   12.660    2.4329
   12.690    2.3907
   12.720    2.5803
   12.750    2.3907
   12.780    2.5066
   12.810    2.1906
   12.840    2.1380
   12.870    2.5066
   12.900    2.4329
   12.930    2.4645
   12.960    2.0326
   12.990    2.4539
   13.020    2.3802
   13.050    2.2117
   13.080    2.2643
   13.110    2.3591
   13.140    2.0748
   13.170    2.6014
   13.200    2.6540
   13.230    2.2749
   13.260    2.2538
   13.290    2.4539
   13.320    2.3591
   13.350    2.3802
   13.380    2.0748
   13.410    2.2959
   13.440    2.1169
   13.470    2.5066
   13.500    2.3381
   13.530    2.4645
   13.560    2.3591
   13.590    2.2538
   13.620    2.1590
   13.650    2.2222
   13.680    2.4329
   13.710    2.5276
   13.740    2.3381
   13.770    2.3591
   13.800    2.4645
   13.830    2.5382
   13.860    2.2012
   13.890    2.4434
   13.920    2.0326
   13.950    2.2012
   13.980    2.2328
   14.010    2.2854
   14.040    2.2012
   14.070    2.3802
   14.100    2.2012
   14.130    2.3802
   14.160    2.5066
   14.190    2.2749
   14.220    2.5066
   14.250    2.3170
   14.280    2.3381
   14.310    2.2643
   14.340    2.2222
   14.370    2.3275
   14.400    2.3381
   14.430    2.3170
   14.460    2.4329
   14.490    2.1274
   14.520    2.2222
   14.550    2.2959
   14.580    1.9063
   14.610    2.3907
   14.640    2.3065
   14.670    2.4434
   14.700    2.2854
   14.730    2.2433
   14.760    2.2854
   14.790    2.3907
   14.820    2.3486
   14.850    2.2117
   14.880    2.5382
   14.910    2.3591
   14.940    2.3907
   14.970    2.2328
   15.000    2.2433
   15.030    2.5066
   15.060    2.3697
   15.090    2.4961
   15.120    2.4855
   15.150    2.2643
   15.180    2.5066
   15.210    2.3381
   15.240    2.3170
   15.270    2.3275
   15.300    2.2117
   15.330    2.3065
   15.360    2.3802
   15.390    2.2854
   15.420    2.5276
   15.450    2.0116
   15.480    2.3697
   15.510    2.3170
   15.540    2.3697
   15.570    2.2854
   15.600    2.4118
   15.630    2.1590
   15.660    2.3170
   15.690    2.2117
   15.720    2.2854
   15.750    2.3170
   15.780    2.1485
   15.810    2.4223
   15.840    2.4329
   15.870    2.3802
   15.900    2.4539
   15.930    2.4118
   15.960    2.2749
   15.990    2.2117
   16.020    2.5276
   16.050    2.3802
   16.080    2.4961
   16.110    2.2643
   16.140    2.3065
   16.170    2.3591
   16.200    2.8647
   16.230    2.5171
   16.260    2.5487
   16.290    2.2012
   16.320    2.3381
   16.350    2.1906
   16.380    2.3802
   16.410    2.1169
   16.440    2.1274
   16.470    2.3065
   16.500    2.2222
   16.530    2.4013
   16.560    2.4223
   16.590    2.2117
   16.620    2.5382
   16.650    2.4118
   16.680    2.6119
   16.710    2.4961
   16.740    2.3697
   16.770    2.1906
   16.800    2.3486
   16.830    2.1696
   16.860    2.3170
   16.890    2.1485
   16.920    2.4539
   16.950    2.2643
   16.980    2.2643
   17.010    2.3591
   17.040    2.2643
   17.070    2.2538
   17.100    2.4750
   17.130    2.2749
   17.160    2.3065
   17.190    2.3170
   17.220    2.3170
   17.250    2.4750
   17.280    2.3907
   17.310    2.4013
   17.340    2.6224
   17.370    2.5487
   17.400    2.5908
   17.430    2.2643
   17.460    2.1696
   17.490    2.3381
   17.520    2.0642
   17.550    2.4539
   17.580    1.9905
   17.610    2.2959
   17.640    2.4645
   17.670    2.4434
   17.700    2.4961
   17.730    2.2328
   17.760    2.4539
   17.790    2.4645
   17.820    2.6224
   17.850    2.3170
   17.880    2.3170
   17.910    2.4013
   17.940    2.3907
   17.970    2.6330
   18.000    2.3697
   18.030    2.2854
   18.060    2.3697
   18.090    2.2643
   18.120    2.1696
   18.150    2.3802
   18.180    2.5276
   18.210    2.2749
   18.240    2.4855
   18.270    2.4645
   18.300    1.9484
   18.330    2.2012
   18.360    2.4645
   18.390    2.3802
   18.420    2.1906
   18.450    2.5382
   18.480    2.4645
   18.510    2.2538
   18.540    2.4855
   18.570    2.5066
   18.600    2.3802
   18.630    2.2749
   18.660    2.3802
   18.690    2.4539
   18.720    2.3381
   18.750    2.3802
   18.780    2.5592
   18.810    2.2012
   18.840    2.3486
   18.870    2.2538
   18.900    2.4961
   18.930    2.4539
   18.960    2.4329
   18.990    2.1801
   19.020    2.3591
   19.050    2.5908
   19.080    2.4434
   19.110    2.3275
   19.140    2.3381
   19.170    2.3275
   19.200    2.4329
   19.230    2.3802
   19.260    2.3275
   19.290    2.6962
   19.320    2.5066
   19.350    2.5066
   19.380    2.4961
   19.410    2.5066
   19.440    2.3170
   19.470    2.4539
   19.500    2.4855
   19.530    2.2959
   19.560    2.3065
   19.590    2.2012
   19.620    2.3907
   19.650    2.5066
   19.680    2.4118
   19.710    2.0537
   19.740    2.5592
   19.770    2.5803
   19.800    2.4645
   19.830    2.4434
   19.860    2.3170
   19.890    2.5066
   19.920    2.2433
   19.950    2.4118
   19.980    2.3170
   20.010    2.1169
   20.040    2.3275
   20.070    2.6014
   20.100    2.6014
   20.130    2.4434
   20.160    2.6119
   20.190    2.4645
   20.220    2.4855
   20.250    2.4539
   20.280    2.4750
   20.310    2.4855
   20.340    2.5276
   20.370    2.4961
   20.400    2.5487
   20.430    2.6435
   20.460    2.6856
   20.490    2.4118
   20.520    2.4961
   20.550    2.6014
   20.580    2.4961
   20.610    2.2433
   20.640    2.3170
   20.670    2.5382
   20.700    2.2854
   20.730    2.3065
   20.760    2.5066
   20.790    2.4013
   20.820    2.5066
   20.850    2.4118
   20.880    2.4539
   20.910    2.4223
   20.940    2.4223
   20.970    2.4645
   21.000    2.3697
   21.030    2.6224
   21.060    2.3170
   21.090    2.3802
   21.120    2.4645
   21.150    2.3486
   21.180    2.2117
   21.210    2.1801
   21.240    2.4539
   21.270    2.6119
   21.300    2.5276
   21.330    2.2328
   21.360    2.6014
   21.390    2.4750
   21.420    2.3170
   21.450    2.4645
   21.480    2.4118
   21.510    2.5592
   21.540    2.4750
   21.570    2.5698
   21.600    2.5382
   21.630    2.1485
   21.660    2.3907
   21.690    2.5592
   21.720    2.7383
   21.750    2.5171
   21.780    2.2959
   21.810    2.4434
   21.840    2.3381
   21.870    2.3591
   21.900    2.4750
   21.930    2.4750
   21.960    2.5276
   21.990    2.2643
   22.020    2.3697
   22.050    2.6119
   22.080    2.4223
   22.110    2.4013
   22.140    2.3802
   22.170    2.4434
   22.200    2.1906
   22.230    2.4434
   22.260    2.3170
   22.290    2.6224
   22.320    2.1906
   22.350    2.3381
   22.380    2.4329
   22.410    2.3802
   22.440    2.5276
   22.470    2.5276
   22.500    2.3170
   22.530    2.5908
   22.560    2.4855
   22.590    2.5803
   22.620    2.3697
   22.650    2.4645
   22.680    2.4645
   22.710    2.5382
   22.740    2.5382
   22.770    2.3907
   22.800    2.6119
   22.830    2.5171
   22.860    2.1906
   22.890    2.4223
   22.920    2.3697
   22.950    2.5276
   22.980    2.4013
   23.010    2.4434
   23.040    2.4750
   23.070    2.3275
   23.100    2.3065
   23.130    2.3170
   23.160    2.3381
   23.190    2.2749
   23.220    2.2854
   23.250    2.5803
   23.280    2.6330
   23.310    2.5066
   23.340    2.2643
   23.370    2.2749
   23.400    2.2222
   23.430    2.4855
   23.460    2.3802
   23.490    2.4539
   23.520    2.3170
   23.550    2.4750
   23.580    2.3486
   23.610    2.5276
   23.640    2.2959
   23.670    2.2222
   23.700    2.4223
   23.730    2.3802
   23.760    2.2222
   23.790    2.5908
   23.820    2.4539
   23.850    2.5803
   23.880    2.1590
   23.910    2.2643
   23.940    2.4013
   23.970    2.4961
   24.000    2.4223
   24.030    2.4855
   24.060    2.2854
   24.090    2.3907
   24.120    2.4750
   24.150    2.3275
   24.180    2.5066
   24.210    2.3065
   24.240    2.3802
   24.270    2.4013
   24.300    2.5487
   24.330    2.2222
   24.360    2.3275
   24.390    2.4118
   24.420    2.2854
   24.450    2.1696
   24.480    2.1590
   24.510    2.3486
   24.540    2.4118
   24.570    2.2959
   24.600    2.2959
   24.630    2.4329
   24.660    2.3486
   24.690    2.5066
   24.720    2.2538
   24.750    2.2012
   24.780    2.2328
   24.810    2.3275
   24.840    2.3907
   24.870    2.4750
   24.900    2.1590
   24.930    2.3697
   24.960    2.0642
   24.990    2.1064
   25.020    2.3697
   25.050    2.2959
   25.080    2.3697
   25.110    2.2117
   25.140    2.3802
   25.170    2.4539
   25.200    2.2538
   25.230    1.9063
   25.260    2.1485
   25.290    2.4223
   25.320    2.1485
   25.350    2.3170
   25.380    2.3275
   25.410    2.2854
   25.440    2.1380
   25.470    2.2117
   25.500    2.4118
   25.530    2.4434
   25.560    2.1801
   25.590    2.2328
   25.620    2.4223
   25.650    2.3591
   25.680    2.4434
   25.710    2.1169
   25.740    2.2854
   25.770    2.2749
   25.800    2.2959
   25.830    2.1906
   25.860    2.2222
   25.890    2.2433
   25.920    2.3275
   25.950    2.3170
   25.980    2.0642
   26.010    2.1696
   26.040    2.3486
   26.070    2.0537
   26.100    2.2328
   26.130    2.3065
   26.160    2.3065
   26.190    2.4855
   26.220    2.2012
   26.250    2.1064
   26.280    2.2538
   26.310    2.2012
   26.340    2.2643
   26.370    2.3275
   26.400    2.3275
   26.430    2.1485
   26.460    2.5698
   26.490    2.2433
   26.520    2.1380
   26.550    2.2117
   26.580    2.2433
   26.610    2.1169
   26.640    2.0326
   26.670    2.1380
   26.700    2.0958
   26.730    2.0748
   26.760    2.0853
   26.790    2.2959
   26.820    2.0748
   26.850    2.3907
   26.880    2.0432
   26.910    2.1906
   26.940    2.0011
   26.970    2.0642
   27.000    2.2643
   27.030    2.3065
   27.060    2.1485
   27.090    2.3591
   27.120    2.1696
   27.150    2.2643
   27.180    2.0221
   27.210    2.1169
   27.240    2.2959
   27.270    2.1380
   27.300    2.0326
   27.330    2.0537
   27.360    2.3170
   27.390    2.2538
   27.420    2.2643
   27.450    1.9695
   27.480    2.3170
   27.510    2.3802
   27.540    2.0958
   27.570    1.8957
   27.600    2.1696
   27.630    1.9273
   27.660    2.1906
   27.690    2.1696
   27.720    2.0642
   27.750    2.0432
   27.780    2.1590
   27.810    2.0642
   27.840    2.2117
   27.870    2.1380
   27.900    2.2328
   27.930    1.9379
   27.960    1.9905
   27.990    2.3275
   28.020    2.0853
   28.050    2.2959
   28.080    2.0116
   28.110    2.1590
   28.140    2.2433
   28.170    2.1274
   28.200    2.2117
   28.230    2.1169
   28.260    1.9484
   28.290    1.8747
   28.320    2.2328
   28.350    1.9379
   28.380    2.0958
   28.410    1.9063
   28.440    2.1906
   28.470    2.0853
   28.500    2.1169
   28.530    2.0326
   28.560    2.1380
   28.590    2.0748
   28.620    1.9695
   28.650    2.2222
   28.680    2.1169
   28.710    2.0221
   28.740    1.8220
   28.770    2.1801
   28.800    2.1906
   28.830    1.9695
   28.860    2.0326
   28.890    2.1064
   28.920    1.9589
   28.950    1.9800
   28.980    2.0011
   29.010    2.0432
   29.040    1.9905
   29.070    2.1485
   29.100    1.8641
   29.130    1.8115
   29.160    1.8641
   29.190    1.8325
   29.220    2.2433
   29.250    1.8641
   29.280    1.9379
   29.310    2.0432
   29.340    2.0326
   29.370    1.9800
   29.400    2.2222
   29.430    2.0326
   29.460    2.0432
   29.490    1.8220
   29.520    2.0221
   29.550    1.8957
   29.580    1.8009
   29.610    1.9905
   29.640    2.0221
   29.670    1.9800
   29.700    2.0011
   29.730    2.1380
   29.760    1.9273
   29.790    1.9168
   29.820    1.7904
   29.850    1.9695
   29.880    1.8115
   29.910    1.8220
   29.940    1.8325
   29.970    2.0221
   30.000    2.0748
   30.030    1.9905
   30.060    1.8536
   30.090    1.9273
   30.120    1.7167
   30.150    2.0116
   30.180    1.9379
   30.210    2.0011
   30.240    2.1590
   30.270    2.0326
   30.300    1.8009
   30.330    2.0011
   30.360    1.7904
   30.390    1.9484
   30.420    2.0537
   30.450    1.7799
   30.480    1.7904
   30.510    1.8220
   30.540    1.9168
   30.570    1.7272
   30.600    1.9063
   30.630    1.8009
   30.660    2.1380
   30.690    1.9273
   30.720    1.8747
   30.750    1.9484
   30.780    1.9168
   30.810    1.8641
   30.840    1.9589
   30.870    1.9168
   30.900    1.7483
   30.930    1.8325
   30.960    1.8747
   30.990    1.6851
   31.020    1.7799
   31.050    1.9800
   31.080    1.7378
   31.110    1.7904
   31.140    1.8957
   31.170    1.8852
   31.200    1.7694
   31.230    1.8641
   31.260    1.9379
   31.290    2.0011
   31.320    1.9379
   31.350    1.8536
   31.380    1.9800
   31.410    1.8009
   31.440    1.8431
   31.470    1.9589
   31.500    2.0116
   31.530    1.9379
   31.560    1.6746
   31.590    1.8536
   31.620    1.7378
   31.650    1.7378
   31.680    1.7483
   31.710    1.8852
   31.740    1.6851
   31.770    1.8536
   31.800    1.9168
   31.830    1.8325
   31.860    2.0116
   31.890    1.8431
   31.920    1.8325
   31.950    1.8536
   31.980    1.7272
   32.010    1.8009
   32.040    1.9695
   32.070    1.7167
   32.100    1.6430
   32.130    1.7799
   32.160    1.6114
   32.190    1.7588
   32.220    1.8957
   32.250    1.9063
   32.280    1.6956
   32.310    1.6640
   32.340    1.6114
   32.370    1.6746
   32.400    1.8852
   32.430    1.6430
   32.460    1.5798
   32.490    1.8115
   32.520    1.7272
   32.550    1.6324
   32.580    1.4955
   32.610    1.8431
   32.640    1.5798
   32.670    1.7272
   32.700    1.6640
   32.730    1.8009
   32.760    1.5903
   32.790    1.6324
   32.820    1.6746
   32.850    1.6640
   32.880    1.6219
   32.910    1.7799
   32.940    1.6114
   32.970    1.6535
   33.000    1.7272
   33.030    1.6535
   33.060    1.6219
   33.090    1.5271
   33.120    1.7062
   33.150    1.6535
   33.180    1.8536
   33.210    1.7272
   33.240    1.4850
   33.270    1.6535
   33.300    1.6535
   33.330    1.7588
   33.360    1.7799
   33.390    1.6640
   33.420    1.6746
   33.450    1.8852
   33.480    1.6008
   33.510    1.5482
   33.540    1.6956
   33.570    1.8009
   33.600    1.7588
   33.630    1.6640
   33.660    1.6008
   33.690    1.7588
   33.720    1.7799
   33.750    1.5692
   33.780    1.5271
   33.810    1.9379
   33.840    1.5692
   33.870    1.7272
   33.900    1.7483
   33.930    1.6008
   33.960    1.7378
   33.990    1.5271
   34.020    1.7588
   34.050    1.6851
   34.080    1.5271
   34.110    1.4007
   34.140    1.6535
   34.170    1.6640
   34.200    1.4850
   34.230    1.6535
   34.260    1.3270
   34.290    1.5166
   34.320    1.5587
   34.350    1.6956
   34.380    1.5692
   34.410    1.4534
   34.440    1.5271
   34.470    1.6430
   34.500    1.5271
   34.530    1.6008
   34.560    1.6219
   34.590    1.5377
   34.620    1.6535
   34.650    1.7378
   34.680    1.5061
   34.710    1.6640
   34.740    1.3797
   34.770    1.7062
   34.800    1.6430
   34.830    1.3165
   34.860    1.5271
   34.890    1.3481
   34.920    1.6008
   34.950    1.6324
   34.980    1.5587
   35.010    1.6324
   35.040    1.4639
   35.070    1.6640
   35.100    1.6114
   35.130    1.5692
   35.160    1.4955
   35.190    1.6219
   35.220    1.5798
   35.250    1.3902
   35.280    1.2428
   35.310    1.4323
   35.340    1.2849
   35.370    1.6008
   35.400    1.5903
   35.430    1.5798
   35.460    1.5903
   35.490    1.3797
   35.520    1.4955
   35.550    1.4955
   35.580    1.5166
   35.610    1.5166
   35.640    1.4850
   35.670    1.5271
   35.700    1.5166
   35.730    1.3902
   35.760    1.5587
   35.790    1.4113
   35.820    1.5798
   35.850    1.5692
   35.880    1.4745
   35.910    1.4639
   35.940    1.5271
   35.970    1.2849
   36.000    1.3481
   36.030    1.4323
   36.060    1.3902
   36.090    1.2849
   36.120    1.3691
   36.150    1.3481
   36.180    1.3691
   36.210    1.5587
   36.240    1.3902
   36.270    1.3691
   36.300    1.5166
   36.330    1.4534
   36.360    1.6324
   36.390    1.4007
   36.420    1.5377
   36.450    1.5482
   36.480    1.4113
   36.510    1.3797
   36.540    1.5377
   36.570    1.3481
   36.600    1.5587
   36.630    1.4218
   36.660    1.6008
   36.690    1.5377
   36.720    1.3270
   36.750    1.4534
   36.780    1.2849
   36.810    1.1901
   36.840    1.3797
   36.870    1.3797
   36.900    1.5692
   36.930    1.5798
   36.960    1.5061
   36.990    1.2638
   37.020    1.3797
   37.050    1.3270
   37.080    1.4850
   37.110    1.3165
   37.140    1.4113
   37.170    1.3902
   37.200    1.3797
   37.230    1.4113
   37.260    1.3902
   37.290    1.4218
   37.320    1.3586
   37.350    1.4850
   37.380    1.2744
   37.410    1.3481
   37.440    1.5271
   37.470    1.4113
   37.500    1.2533
   37.530    1.4955
   37.560    1.4007
   37.590    1.2006
   37.620    1.3586
   37.650    1.3060
   37.680    1.3481
   37.710    1.3586
   37.740    1.4218
   37.770    1.3270
   37.800    1.4850
   37.830    1.4113
   37.860    1.2638
   37.890    1.5377
   37.920    1.2849
   37.950    1.4429
   37.980    1.2428
   38.010    1.2849
   38.040    1.5271
   38.070    1.3691
   38.100    1.2954
   38.130    1.3797
   38.160    1.1480
   38.190    1.4534
   38.220    1.2428
   38.250    1.6114
   38.280    1.1901
   38.310    1.3165
   38.340    1.2638
   38.370    1.3270
   38.400    1.2428
   38.430    1.3902
   38.460    1.3060
   38.490    1.4007
   38.520    1.3586
   38.550    1.3270
   38.580    1.1690
   38.610    1.3375
   38.640    1.3691
   38.670    1.3586
   38.700    1.4955
   38.730    1.3270
   38.760    1.3270
   38.790    1.3691
   38.820    1.3270
   38.850    1.3586
   38.880    1.3797
   38.910    1.4955
   38.940    1.4113
   38.970    1.5692
   39.000    1.2533
   39.030    1.4745
   39.060    1.3797
   39.090    1.4007
   39.120    1.3902
   39.150    1.3691
   39.180    1.3797
   39.210    1.3270
   39.240    1.3060
   39.270    1.2638
   39.300    1.2533
   39.330    1.4218
   39.360    1.5587
   39.390    1.2533
   39.420    1.3691
   39.450    1.2533
   39.480    1.4113
   39.510    1.4429
   39.540    1.3797
   39.570    1.2849
   39.600    1.4007
   39.630    1.5166
   39.660    1.2744
   39.690    1.3586
   39.720    1.4323
   39.750    1.3586
   39.780    1.4323
   39.810    1.2533
   39.840    1.2533
   39.870    1.3481
   39.900    1.2638
   39.930    1.3165
   39.960    1.3481
   39.990    1.2954