File: data/MOCOF-1/PXRD/PXRD_KE-305_Cu-Ka1_film-3mm_3s-deg.xyd
    1.500   12.6207
    1.530   12.2345
    1.560   12.6031
    1.590   12.0941
    1.620   11.1989
    1.650   11.6377
    1.680   10.5494
    1.710   10.6021
    1.740   10.3388
    1.770   10.5143
    1.800   10.1983
    1.830    9.9877
    1.860    9.8999
    1.890   10.4792
    1.920   10.3037
    1.950    9.6893
    1.980    8.9696
    2.010    9.1101
    2.040    8.3553
    2.070    9.2680
    2.100    8.7765
    2.130    9.2154
    2.160    9.0750
    2.190    8.7941
    2.220    8.8819
    2.250    7.8287
    2.280    8.5835
    2.310    8.6537
    2.340    8.4255
    2.370    8.8643
    2.400    8.1797
    2.430    8.2149
    2.460    7.8462
    2.490    7.7409
    2.520    7.9164
    2.550    7.9867
    2.580    7.4074
    2.610    7.5654
    2.640    8.2675
    2.670    7.9340
    2.700    6.8106
    2.730    7.4425
    2.760    7.3723
    2.790    7.0037
    2.820    7.1266
    2.850    7.3372
    2.880    7.6707
    2.910    7.4776
    2.940    7.5127
    2.970    6.8808
    3.000    7.6707
    3.030    7.6532
    3.060    7.6356
    3.090    7.4250
    3.120    8.0920
    3.150    7.8989
    3.180    7.9164
    3.210    7.7760
    3.240    8.0744
    3.270    8.4079
    3.300    8.3202
    3.330    8.1271
    3.360    8.9521
    3.390    9.6015
    3.420    9.9351
    3.450   10.2510
    3.480   10.8303
    3.510   11.0936
    3.540   11.6202
    3.570   12.7787
    3.600   13.2526
    3.630   15.1132
    3.660   15.6398
    3.690   18.3079
    3.720   21.9063
    3.750   24.5568
    3.780   30.5424
    3.810   39.7227
    3.840   51.7992
    3.870   47.2178
    3.900   30.6828
    3.930   15.3414
    3.960    9.1101
    3.990    7.9516
    4.020    7.2845
    4.050    6.7404
    4.080    6.8984
    4.110    6.9510
    4.140    6.7755
    4.170    7.2319
    4.200    7.3196
    4.230    7.3196
    4.260    6.5473
    4.290    7.1441
    4.320    7.0388
    4.350    7.0037
    4.380    6.9510
    4.410    7.3547
    4.440    6.9159
    4.470    6.6526
    4.500    7.2319
    4.530    6.9861
    4.560    6.7579
    4.590    7.2494
    4.620    6.6702
    4.650    6.6702
    4.680    6.9335
    4.710    6.6000
    4.740    7.1266
    4.770    7.0563
    4.800    7.4425
    4.830    7.6005
    4.860    7.4425
    4.890    7.1617
    4.920    7.4074
    4.950    7.5127
    4.980    7.6005
    5.010    7.6356
    5.040    7.3196
    5.070    7.9867
    5.100    7.3196
    5.130    7.8989
    5.160    7.7058
    5.190    8.0393
    5.220    8.9170
    5.250    9.0574
    5.280    9.3909
    5.310   10.9180
    5.340   10.3212
    5.370   11.0233
    5.400   11.8483
    5.430   13.4983
    5.460   14.6744
    5.490   15.1132
    5.520   12.4100
    5.550   10.7952
    5.580    9.8648
    5.610    8.7063
    5.640    8.8994
    5.670    8.6361
    5.700    8.5308
    5.730    9.2856
    5.760    9.0750
    5.790    8.1622
    5.820    8.7239
    5.850    7.5127
    5.880    7.6532
    5.910    7.7760
    5.940    6.9510
    5.970    7.4601
    6.000    7.1617
    6.030    7.1968
    6.060    6.7053
    6.090    6.1611
    6.120    6.8633
    6.150    6.6351
    6.180    6.9159
    6.210    6.6877
    6.240    7.1617
    6.270    6.4420
    6.300    6.9510
    6.330    6.6526
    6.360    6.4420
    6.390    6.2313
    6.420    6.7228
    6.450    6.3016
    6.480    6.0909
    6.510    6.8984
    6.540    6.7404
    6.570    6.7228
    6.600    6.4946
    6.630    6.5473
    6.660    6.5824
    6.690    7.2143
    6.720    6.8282
    6.750    7.1968
    6.780    6.1260
    6.810    5.7925
    6.840    5.9856
    6.870    5.8627
    6.900    6.1787
    6.930    6.0734
    6.960    5.7399
    6.990    5.5994
    7.020    5.9329
    7.050    5.7574
    7.080    5.8978
    7.110    5.7223
    7.140    5.4766
    7.170    5.3010
    7.200    5.6521
    7.230    5.1080
    7.260    5.6170
    7.290    5.4064
    7.320    5.7223
    7.350    5.3712
    7.380    5.4415
    7.410    5.1957
    7.440    5.1957
    7.470    4.7393
    7.500    5.3010
    7.530    5.2659
    7.560    5.3888
    7.590    5.1255
    7.620    5.6170
    7.650    5.2484
    7.680    5.4415
    7.710    5.6697
    7.740    6.4595
    7.770    6.2840
    7.800    6.6526
    7.830    5.4590
    7.860    5.3537
    7.890    5.0377
    7.920    4.8622
    7.950    5.1782
    7.980    5.1255
    8.010    4.7218
    8.040    5.0904
    8.070    4.9675
    8.100    4.7920
    8.130    4.5287
    8.160    4.4409
    8.190    4.6165
    8.220    5.1080
    8.250    4.8622
    8.280    4.7569
    8.310    4.6516
    8.340    4.4585
    8.370    4.8798
    8.400    4.4936
    8.430    4.4234
    8.460    4.4058
    8.490    4.2830
    8.520    4.4234
    8.550    4.4760
    8.580    4.8973
    8.610    4.6516
    8.640    4.5111
    8.670    4.9149
    8.700    4.7744
    8.730    5.1255
    8.760    4.4936
    8.790    4.1601
    8.820    4.1601
    8.850    4.7920
    8.880    4.5287
    8.910    4.4936
    8.940    4.5989
    8.970    4.4234
    9.000    4.1250
    9.030    3.9319
    9.060    4.5111
    9.090    4.7218
    9.120    4.3356
    9.150    4.1250
    9.180    4.2654
    9.210    4.8447
    9.240    4.3356
    9.270    4.1776
    9.300    5.2835
    9.330    4.1776
    9.360    4.6867
    9.390    5.2484
    9.420    5.4766
    9.450    5.6521
    9.480    6.0207
    9.510    7.4952
    9.540    8.2149
    9.570    7.0915
    9.600    6.0734
    9.630    4.9500
    9.660    4.1601
    9.690    4.1952
    9.720    4.2830
    9.750    4.0197
    9.780    4.8973
    9.810    4.3532
    9.840    4.3707
    9.870    4.2303
    9.900    4.4058
    9.930    4.2654
    9.960    4.3356
    9.990    4.2654
   10.020    4.7744
   10.050    4.3181
   10.080    4.5463
   10.110    4.1952
   10.140    4.7042
   10.170    4.6691
   10.200    4.5989
   10.230    5.1782
   10.260    5.4941
   10.290    5.8276
   10.320    5.5643
   10.350    5.2308
   10.380    4.5111
   10.410    4.6691
   10.440    4.8447
   10.470    4.5638
   10.500    4.3181
   10.530    4.3356
   10.560    4.4760
   10.590    4.2478
   10.620    4.4058
   10.650    3.9319
   10.680    4.5463
   10.710    4.3532
   10.740    4.8095
   10.770    4.5287
   10.800    4.6867
   10.830    4.4585
   10.860    4.1776
   10.890    5.0026
   10.920    5.0377
   10.950    4.8798
   10.980    5.3361
   11.010    5.7925
   11.040    5.3537
   11.070    5.2308
   11.100    4.6340
   11.130    4.7569
   11.160    5.0377
   11.190    5.0728
   11.220    4.9149
   11.250    4.6516
   11.280    4.4585
   11.310    4.7042
   11.340    4.3707
   11.370    4.1425
   11.400    4.7042
   11.430    3.9846
   11.460    4.2303
   11.490    4.5638
   11.520    4.3532
   11.550    5.1255
   11.580    4.6516
   11.610    4.8447
   11.640    4.8973
   11.670    5.4415
   11.700    5.2659
   11.730    5.4941
   11.760    4.5287
   11.790    4.7744
   11.820    4.4409
   11.850    4.6340
   11.880    4.4936
   11.910    4.4585
   11.940    4.1250
   11.970    4.0723
   12.000    4.5638
   12.030    4.8973
   12.060    4.3356
   12.090    4.0723
   12.120    4.1776
   12.150    4.4409
   12.180    4.2127
   12.210    4.3181
   12.240    4.5111
   12.270    4.7920
   12.300    4.8798
   12.330    4.5814
   12.360    4.5287
   12.390    4.3883
   12.420    4.1425
   12.450    4.3181
   12.480    4.1776
   12.510    4.1776
   12.540    4.1601
   12.570    3.8617
   12.600    4.3883
   12.630    4.1074
   12.660    4.1952
   12.690    4.0723
   12.720    4.4760
   12.750    4.1601
   12.780    4.2478
   12.810    4.0899
   12.840    4.2127
   12.870    4.2830
   12.900    4.9851
   12.930    5.2835
   12.960    5.0904
   12.990    5.1431
   13.020    4.2303
   13.050    4.2654
   13.080    4.0548
   13.110    4.2127
   13.140    3.8968
   13.170    4.1952
   13.200    3.9143
   13.230    3.8090
   13.260    4.0548
   13.290    4.0372
   13.320    3.8968
   13.350    4.1250
   13.380    4.1074
   13.410    4.1776
   13.440    4.4409
   13.470    4.2127
   13.500    4.5638
   13.530    4.8447
   13.560    4.5638
   13.590    4.0197
   13.620    4.0197
   13.650    4.1425
   13.680    4.1601
   13.710    4.3532
   13.740    4.3005
   13.770    4.0197
   13.800    4.1952
   13.830    4.4760
   13.860    4.3707
   13.890    4.1074
   13.920    4.6516
   13.950    4.3707
   13.980    4.5463
   14.010    4.3883
   14.040    4.4760
   14.070    4.8271
   14.100    5.0553
   14.130    4.9851
   14.160    4.5287
   14.190    4.0372
   14.220    4.4936
   14.250    4.5463
   14.280    4.2478
   14.310    4.4760
   14.340    4.8447
   14.370    4.6867
   14.400    4.7393
   14.430    4.4409
   14.460    4.4409
   14.490    4.7393
   14.520    4.4409
   14.550    4.3356
   14.580    4.7744
   14.610    4.5989
   14.640    4.5111
   14.670    4.3532
   14.700    4.4058
   14.730    4.5989
   14.760    4.1776
   14.790    4.2303
   14.820    4.3005
   14.850    4.2654
   14.880    4.0197
   14.910    4.2478
   14.940    4.0723
   14.970    4.4234
   15.000    4.0899
   15.030    3.8617
   15.060    4.0548
   15.090    4.3532
   15.120    4.3707
   15.150    4.3005
   15.180    4.4936
   15.210    4.2830
   15.240    4.2478
   15.270    4.3005
   15.300    3.9846
   15.330    3.9670
   15.360    4.1776
   15.390    3.7388
   15.420    4.1425
   15.450    4.2303
   15.480    3.8441
   15.510    3.7915
   15.540    3.9143
   15.570    4.5287
   15.600    4.1425
   15.630    4.1601
   15.660    3.7037
   15.690    3.7915
   15.720    4.1425
   15.750    3.8617
   15.780    3.9494
   15.810    4.0723
   15.840    3.9494
   15.870    4.2127
   15.900    3.8090
   15.930    3.8090
   15.960    4.0723
   15.990    4.3707
   16.020    3.9670
   16.050    4.3532
   16.080    4.1952
   16.110    4.7569
   16.140    4.6340
   16.170    4.4936
   16.200    4.1250
   16.230    4.2127
   16.260    4.3005
   16.290    3.9143
   16.320    4.1250
   16.350    4.0372
   16.380    4.3005
   16.410    4.0197
   16.440    3.7564
   16.470    3.7388
   16.500    4.0723
   16.530    4.2303
   16.560    4.5463
   16.590    4.5111
   16.620    4.4409
   16.650    4.0372
   16.680    4.2303
   16.710    3.5984
   16.740    4.2127
   16.770    4.0899
   16.800    3.9494
   16.830    3.7564
   16.860    4.0197
   16.890    4.0372
   16.920    4.1074
   16.950    3.7739
   16.980    4.0372
   17.010    4.3181
   17.040    5.0202
   17.070    4.8271
   17.100    4.5638
   17.130    4.3707
   17.160    3.9143
   17.190    4.3883
   17.220    3.9846
   17.250    4.0372
   17.280    4.0197
   17.310    4.4234
   17.340    3.4404
   17.370    4.0899
   17.400    4.0372
   17.430    4.5989
   17.460    4.3883
   17.490    3.8968
   17.520    4.2478
   17.550    4.0723
   17.580    3.6862
   17.610    3.6335
   17.640    3.8968
   17.670    4.5287
   17.700    3.8090
   17.730    3.8968
   17.760    4.2478
   17.790    4.0548
   17.820    4.0723
   17.850    3.9670
   17.880    4.3356
   17.910    4.1952
   17.940    4.4234
   17.970    3.8441
   18.000    4.2478
   18.030    3.6686
   18.060    3.9494
   18.090    4.0723
   18.120    4.0021
   18.150    3.8617
   18.180    4.0021
   18.210    3.9846
   18.240    3.8617
   18.270    3.9319
   18.300    3.7564
   18.330    4.0548
   18.360    4.2127
   18.390    4.2303
   18.420    4.2127
   18.450    4.0021
   18.480    3.9319
   18.510    4.0197
   18.540    4.1425
   18.570    4.0021
   18.600    4.2830
   18.630    3.9846
   18.660    3.8968
   18.690    4.1250
   18.720    3.4229
   18.750    4.0197
   18.780    3.9319
   18.810    4.4058
   18.840    3.9143
   18.870    4.1776
   18.900    3.4755
   18.930    3.8090
   18.960    3.8968
   18.990    4.2127
   19.020    4.2478
   19.050    4.2830
   19.080    3.6510
   19.110    3.7213
   19.140    4.0021
   19.170    3.8090
   19.200    3.9319
   19.230    4.1776
   19.260    4.1074
   19.290    3.7564
   19.320    3.8090
   19.350    3.8090
   19.380    3.8968
   19.410    3.7037
   19.440    3.8266
   19.470    4.0723
   19.500    3.9319
   19.530    3.8968
   19.560    3.8090
   19.590    3.8968
   19.620    4.5287
   19.650    3.9319
   19.680    3.8792
   19.710    3.5457
   19.740    3.8617
   19.770    3.8792
   19.800    3.8266
   19.830    4.1601
   19.860    3.7388
   19.890    4.0548
   19.920    3.6510
   19.950    3.9494
   19.980    3.9846
   20.010    3.9143
   20.040    3.6159
   20.070    4.0372
   20.100    3.8090
   20.130    3.8617
   20.160    3.7915
   20.190    3.4755
   20.220    3.8968
   20.250    4.1250
   20.280    3.6686
   20.310    3.8617
   20.340    4.1250
   20.370    4.2478
   20.400    4.2830
   20.430    3.8617
   20.460    3.6335
   20.490    3.6510
   20.520    3.4404
   20.550    3.5282
   20.580    3.6510
   20.610    3.7213
   20.640    3.7915
   20.670    3.6862
   20.700    3.6862
   20.730    3.7213
   20.760    3.7739
   20.790    3.6335
   20.820    3.8617
   20.850    3.7037
   20.880    3.6686
   20.910    4.0723
   20.940    3.7213
   20.970    4.0548
   21.000    3.7388
   21.030    3.7037
   21.060    3.8266
   21.090    3.8968
   21.120    3.3702
   21.150    3.6510
   21.180    3.8617
   21.210    3.8266
   21.240    3.4755
   21.270    3.5808
   21.300    3.4580
   21.330    3.4580
   21.360    3.7388
   21.390    3.5808
   21.420    3.4755
   21.450    3.5457
   21.480    3.5457
   21.510    3.7564
   21.540    3.6159
   21.570    3.6686
   21.600    3.3702
   21.630    3.5808
   21.660    3.6862
   21.690    3.7213
   21.720    3.8090
   21.750    3.8266
   21.780    3.8968
   21.810    3.7915
   21.840    3.9846
   21.870    3.9670
   21.900    4.0021
   21.930    3.7915
   21.960    3.2298
   21.990    3.5633
   22.020    3.5457
   22.050    3.3000
   22.080    3.6159
   22.110    3.8266
   22.140    3.3000
   22.170    3.5984
   22.200    3.4931
   22.230    3.8792
   22.260    3.5633
   22.290    3.4580
   22.320    3.7213
   22.350    3.5633
   22.380    3.3351
   22.410    3.2824
   22.440    3.6335
   22.470    4.1601
   22.500    3.8617
   22.530    3.9670
   22.560    4.1601
   22.590    4.2127
   22.620    3.8266
   22.650    3.6510
   22.680    3.2649
   22.710    3.2824
   22.740    3.7388
   22.770    3.8266
   22.800    3.6510
   22.830    3.5984
   22.860    3.3175
   22.890    4.0372
   22.920    3.7915
   22.950    3.5984
   22.980    3.4580
   23.010    3.6686
   23.040    3.3526
   23.070    3.5633
   23.100    3.7037
   23.130    3.3351
   23.160    3.3526
   23.190    3.3175
   23.220    3.4580
   23.250    3.5106
   23.280    3.1420
   23.310    3.5984
   23.340    3.2122
   23.370    3.7213
   23.400    3.1420
   23.430    3.3877
   23.460    3.1245
   23.490    3.3877
   23.520    3.2649
   23.550    3.3877
   23.580    3.4229
   23.610    3.3702
   23.640    3.4755
   23.670    3.3351
   23.700    3.4755
   23.730    3.4404
   23.760    3.1245
   23.790    3.1771
   23.820    3.2649
   23.850    3.1596
   23.880    3.2649
   23.910    3.5457
   23.940    3.5808
   23.970    3.2122
   24.000    3.2122
   24.030    3.2473
   24.060    3.0718
   24.090    3.2298
   24.120    3.5984
   24.150    3.2298
   24.180    3.4404
   24.210    3.0893
   24.240    3.3702
   24.270    2.8963
   24.300    3.1596
   24.330    2.9665
   24.360    3.3351
   24.390    3.2122
   24.420    3.0893
   24.450    2.8436
   24.480    3.1420
   24.510    3.5106
   24.540    2.9665
   24.570    3.2122
   24.600    3.2473
   24.630    3.2824
   24.660    3.2298
   24.690    3.1069
   24.720    3.3351
   24.750    3.1245
   24.780    3.0542
   24.810    2.9840
   24.840    3.0191
   24.870    3.3877
   24.900    2.9840
   24.930    3.3526
   24.960    3.0191
   24.990    3.2122
   25.020    3.1069
   25.050    2.6856
   25.080    2.9138
   25.110    3.1245
   25.140    3.0542
   25.170    3.2298
   25.200    3.1596
   25.230    3.0718
   25.260    3.1245
   25.290    3.2298
   25.320    3.0016
   25.350    3.4053
   25.380    2.5979
   25.410    3.3702
   25.440    3.1947
   25.470    3.2473
   25.500    3.4404
   25.530    3.2824
   25.560    2.9840
   25.590    2.9840
   25.620    3.2298
   25.650    2.9138
   25.680    3.1596
   25.710    3.1245
   25.740    3.0542
   25.770    3.5282
   25.800    3.5106
   25.830    3.5808
   25.860    3.3877
   25.890    3.0718
   25.920    2.9138
   25.950    2.9665
   25.980    3.0367
   26.010    2.9314
   26.040    2.8085
   26.070    2.8612
   26.100    2.6154
   26.130    3.0191
   26.160    3.1947
   26.190    3.0367
   26.220    2.9314
   26.250    3.1069
   26.280    2.6681
   26.310    3.1596
   26.340    2.9489
   26.370    2.8260
   26.400    3.1069
   26.430    3.1069
   26.460    3.1596
   26.490    3.3000
   26.520    2.8085
   26.550    2.9840
   26.580    2.6856
   26.610    2.8963
   26.640    3.0542
   26.670    2.9665
   26.700    2.9665
   26.730    2.8436
   26.760    2.8787
   26.790    2.8260
   26.820    3.3000
   26.850    2.8436
   26.880    3.0893
   26.910    2.8787
   26.940    3.0016
   26.970    2.8085
   27.000    2.9489
   27.030    3.3175
   27.060    3.0718
   27.090    2.9489
   27.120    2.6154
   27.150    2.8260
   27.180    2.7909
   27.210    2.6154
   27.240    2.9840
   27.270    2.4399
   27.300    2.9314
   27.330    2.7207
   27.360    3.0718
   27.390    2.9314
   27.420    2.7207
   27.450    2.6505
   27.480    2.8963
   27.510    2.7032
   27.540    2.8787
   27.570    2.7207
   27.600    2.6154
   27.630    2.5452
   27.660    2.7909
   27.690    2.6505
   27.720    3.0718
   27.750    2.6681
   27.780    2.7558
   27.810    3.0367
   27.840    2.5803
   27.870    2.6154
   27.900    2.7207
   27.930    3.0367
   27.960    2.2995
   27.990    2.4925
   28.020    2.6505
   28.050    2.6856
   28.080    2.4750
   28.110    2.7558
   28.140    2.8787
   28.170    2.7032
   28.200    2.6330
   28.230    2.7032
   28.260    2.6681
   28.290    2.4399
   28.320    2.4574
   28.350    2.3872
   28.380    2.5979
   28.410    2.7558
   28.440    2.8963
   28.470    2.8085
   28.500    2.7558
   28.530    2.5979
   28.560    2.5979
   28.590    2.7032
   28.620    2.8787
   28.650    2.5101
   28.680    2.5628
   28.710    2.7734
   28.740    2.4399
   28.770    2.6505
   28.800    2.5452
   28.830    3.3000
   28.860    3.0718
   28.890    2.7558
   28.920    2.5276
   28.950    2.7032
   28.980    2.7909
   29.010    2.6856
   29.040    2.7383
   29.070    3.0718
   29.100    2.7207
   29.130    2.5803
   29.160    2.2468
   29.190    2.7207
   29.220    2.5979
   29.250    2.5452
   29.280    2.9314
   29.310    2.7032
   29.340    2.6330
   29.370    2.4048
   29.400    2.4750
   29.430    2.5101
   29.460    2.3697
   29.490    2.5276
   29.520    2.3872
   29.550    2.7734
   29.580    2.4048
   29.610    2.4399
   29.640    2.1239
   29.670    2.6330
   29.700    2.4048
   29.730    2.1239
   29.760    2.2643
   29.790    2.3872
   29.820    2.7207
   29.850    2.5101
   29.880    2.2292
   29.910    2.7383
   29.940    2.1941
   29.970    2.4750
   30.000    2.1766
   30.030    2.0537
   30.060    2.5276
   30.090    2.5101
   30.120    2.2292
   30.150    2.1415
   30.180    2.0713
   30.210    2.1064
   30.240    2.0888
   30.270    2.4925
   30.300    2.2995
   30.330    2.4399
   30.360    2.4750
   30.390    2.2292
   30.420    2.5803
   30.450    2.3170
   30.480    2.1590
   30.510    2.3170
   30.540    2.3872
   30.570    2.2819
   30.600    2.2819
   30.630    2.5276
   30.660    2.5452
   30.690    2.3521
   30.720    2.2117
   30.750    2.5452
   30.780    2.2468
   30.810    2.1239
   30.840    2.1064
   30.870    2.3697
   30.900    2.5276
   30.930    2.2292
   30.960    1.9835
   30.990    2.0713
   31.020    2.1941
   31.050    1.9835
   31.080    2.1415
   31.110    2.2819
   31.140    2.2643
   31.170    2.3346
   31.200    2.1415
   31.230    2.2468
   31.260    2.1941
   31.290    1.8957
   31.320    2.1415
   31.350    2.1941
   31.380    2.1766
   31.410    2.1064
   31.440    2.2468
   31.470    2.0537
   31.500    2.4223
   31.530    2.1064
   31.560    2.1941
   31.590    1.8957
   31.620    2.2819
   31.650    2.0537
   31.680    2.2643
   31.710    2.2292
   31.740    2.1766
   31.770    2.3170
   31.800    1.9484
   31.830    2.3697
   31.860    2.4223
   31.890    2.0186
   31.920    2.2995
   31.950    2.1766
   31.980    2.0362
   32.010    1.7904
   32.040    2.1766
   32.070    2.1590
   32.100    1.8957
   32.130    2.2292
   32.160    2.1415
   32.190    1.7729
   32.220    2.0537
   32.250    2.0713
   32.280    2.1415
   32.310    2.0888
   32.340    1.6324
   32.370    2.4223
   32.400    1.9133
   32.430    2.2117
   32.460    2.0011
   32.490    1.8957
   32.520    2.1590
   32.550    2.1239
   32.580    1.9835
   32.610    1.8431
   32.640    1.9659
   32.670    2.0537
   32.700    2.1766
   32.730    1.8782
   32.760    1.9133
   32.790    1.9835
   32.820    1.9133
   32.850    2.0011
   32.880    2.2292
   32.910    2.1064
   32.940    1.9659
   32.970    1.9308
   33.000    2.1941
   33.030    2.0537
   33.060    1.9835
   33.090    2.0186
   33.120    2.0011
   33.150    1.7729
   33.180    2.1766
   33.210    1.7202
   33.240    2.1064
   33.270    1.9835
   33.300    1.9659
   33.330    2.1590
   33.360    1.9308
   33.390    2.0011
   33.420    1.7027
   33.450    1.8782
   33.480    1.7027
   33.510    1.7904
   33.540    2.0011
   33.570    1.8080
   33.600    1.7027
   33.630    1.8782
   33.660    1.9835
   33.690    1.7904
   33.720    1.7553
   33.750    2.0362
   33.780    1.9133
   33.810    2.0888
   33.840    1.6324
   33.870    2.0186
   33.900    1.8957
   33.930    2.0888
   33.960    2.3170
   33.990    1.7378
   34.020    2.3697
   34.050    2.1590
   34.080    2.0713
   34.110    1.8957
   34.140    2.0537
   34.170    2.0362
   34.200    1.7904
   34.230    1.9133
   34.260    1.8431
   34.290    1.7729
   34.320    1.9835
   34.350    2.1064
   34.380    1.7729
   34.410    1.7553
   34.440    1.8255
   34.470    1.8080
   34.500    1.8080
   34.530    1.8431
   34.560    1.7378
   34.590    1.7904
   34.620    1.9133
   34.650    1.8080
   34.680    2.0537
   34.710    1.6324
   34.740    1.8957
   34.770    2.0713
   34.800    2.1064
   34.830    1.9484
   34.860    1.9308
   34.890    2.0713
   34.920    1.7378
   34.950    2.1064
   34.980    1.7904
   35.010    1.6500
   35.040    1.7202
   35.070    1.8080
   35.100    1.5622
   35.130    1.9484
   35.160    1.8080
   35.190    1.8782
   35.220    2.0362
   35.250    1.8782
   35.280    2.2468
   35.310    2.1239
   35.340    2.0537
   35.370    1.7553
   35.400    2.1064
   35.430    1.9308
   35.460    2.0888
   35.490    1.6500
   35.520    1.7378
   35.550    2.1064
   35.580    2.0362
   35.610    1.7378
   35.640    1.8255
   35.670    2.0888
   35.700    1.8606
   35.730    1.7027
   35.760    1.7027
   35.790    1.7729
   35.820    1.6851
   35.850    1.8255
   35.880    1.8431
   35.910    1.8255
   35.940    1.6149
   35.970    2.1766
   36.000    1.7378
   36.030    2.0011
   36.060    1.5096
   36.090    2.2995
   36.120    1.7904
   36.150    2.0186
   36.180    1.9133
   36.210    1.7904
   36.240    1.8782
   36.270    1.6149
   36.300    1.8431
   36.330    2.0888
   36.360    1.4920
   36.390    1.9308
   36.420    2.1766
   36.450    1.8255
   36.480    1.5973
   36.510    1.7378
   36.540    2.0888
   36.570    1.8255
   36.600    2.0362
   36.630    1.6500
   36.660    2.0888
   36.690    2.0888
   36.720    2.1415
   36.750    1.8606
   36.780    1.7553
   36.810    1.6675
   36.840    1.7378
   36.870    1.7202
   36.900    1.7202
   36.930    1.6851
   36.960    1.6851
   36.990    1.4920
   37.020    1.6149
   37.050    1.8431
   37.080    2.0186
   37.110    2.1239
   37.140    1.8431
   37.170    1.8606
   37.200    1.8255
   37.230    1.6851
   37.260    1.7027
   37.290    1.5447
   37.320    1.7729
   37.350    1.7378
   37.380    1.8606
   37.410    1.7729
   37.440    1.4920
   37.470    1.6675
   37.500    1.9133
   37.530    1.7202
   37.560    1.8782
   37.590    1.8080
   37.620    1.6324
   37.650    1.6675
   37.680    1.6324
   37.710    1.9835
   37.740    1.6500
   37.770    1.6851
   37.800    1.8606
   37.830    1.5798
   37.860    1.6149
   37.890    1.7553
   37.920    1.9484
   37.950    1.7553
   37.980    1.4920
   38.010    1.8431
   38.040    1.8431
   38.070    1.6324
   38.100    1.6500
   38.130    1.8080
   38.160    1.6149
   38.190    1.6675
   38.220    1.8782
   38.250    1.5798
   38.280    1.4394
   38.310    1.7729
   38.340    1.6851
   38.370    1.5798
   38.400    1.4569
   38.430    1.7027
   38.460    1.6851
   38.490    1.8606
   38.520    1.4745
   38.550    1.7553
   38.580    1.5447
   38.610    1.6851
   38.640    1.5973
   38.670    1.8080
   38.700    1.6149
   38.730    1.7729
   38.760    1.7202
   38.790    1.8080
   38.820    1.5973
   38.850    1.4745
   38.880    1.6500
   38.910    1.6149
   38.940    1.7729
   38.970    1.5622
   39.000    1.7904
   39.030    1.6149
   39.060    1.5271
   39.090    1.8080
   39.120    1.7729
   39.150    1.5447
   39.180    1.6851
   39.210    1.8782
   39.240    1.6675
   39.270    1.5622
   39.300    1.5622
   39.330    1.9133
   39.360    1.4745
   39.390    1.5798
   39.420    1.6149
   39.450    1.9659
   39.480    1.9308
   39.510    1.7027
   39.540    1.8255
   39.570    1.7027
   39.600    1.7202
   39.630    1.7904
   39.660    1.8606
   39.690    1.8255
   39.720    1.5096
   39.750    1.5447
   39.780    1.7378
   39.810    1.6149
   39.840    1.6675
   39.870    1.6851
   39.900    1.7027
   39.930    1.6500
   39.960    1.5096
   39.990    1.5798