File: data/MOCOF-1/PXRD/PXRD_KE-097_Cu-Ka1_capillary-1mm_5s-deg.xyd
    1.500    3.3491
    1.530    3.3597
    1.560    3.3281
    1.590    3.5387
    1.620    3.3702
    1.650    3.4755
    1.680    3.3807
    1.710    3.3281
    1.740    3.6019
    1.770    3.9284
    1.800    3.6862
    1.830    3.6651
    1.860    3.3597
    1.890    3.6124
    1.920    3.4544
    1.950    3.6546
    1.980    3.4860
    2.010    3.5492
    2.040    3.4966
    2.070    3.5703
    2.100    3.5071
    2.130    3.5492
    2.160    3.7388
    2.190    3.5808
    2.220    3.5492
    2.250    3.5914
    2.280    3.5387
    2.310    3.7915
    2.340    3.5282
    2.370    3.6756
    2.400    3.4229
    2.430    3.6230
    2.460    3.7388
    2.490    3.3175
    2.520    3.7283
    2.550    3.4123
    2.580    3.6019
    2.610    3.7283
    2.640    3.9810
    2.670    3.6230
    2.700    3.4755
    2.730    3.6862
    2.760    3.6862
    2.790    3.7177
    2.820    3.6756
    2.850    3.4544
    2.880    3.6019
    2.910    3.6019
    2.940    3.8441
    2.970    3.8336
    3.000    3.6230
    3.030    3.7915
    3.060    3.6651
    3.090    3.9916
    3.120    3.9916
    3.150    3.8757
    3.180    3.8968
    3.210    4.1917
    3.240    4.2233
    3.270    4.3813
    3.300    4.1601
    3.330    4.4023
    3.360    4.6761
    3.390    4.5498
    3.420    4.7288
    3.450    5.0658
    3.480    4.6445
    3.510    4.5287
    3.540    4.0442
    3.570    4.1390
    3.600    4.0442
    3.630    4.1180
    3.660    3.8441
    3.690    4.2759
    3.720    3.9179
    3.750    3.9600
    3.780    4.1285
    3.810    4.3497
    3.840    3.7388
    3.870    3.9494
    3.900    4.1811
    3.930    4.0864
    3.960    4.3075
    3.990    3.9179
    4.020    3.7704
    4.050    4.0758
    4.080    3.9494
    4.110    3.8652
    4.140    3.7177
    4.170    3.4334
    4.200    3.8231
    4.230    4.0126
    4.260    3.5176
    4.290    3.5808
    4.320    3.7177
    4.350    3.5176
    4.380    3.4439
    4.410    3.7177
    4.440    3.5492
    4.470    3.4650
    4.500    3.2754
    4.530    3.6651
    4.560    3.6651
    4.590    3.8547
    4.620    3.4123
    4.650    3.3597
    4.680    3.2754
    4.710    3.7072
    4.740    3.7072
    4.770    3.8652
    4.800    3.8441
    4.830    3.4966
    4.860    3.3175
    4.890    3.5492
    4.920    3.7072
    4.950    3.5071
    4.980    3.6651
    5.010    3.7177
    5.040    3.7809
    5.070    3.7599
    5.100    3.7599
    5.130    3.4018
    5.160    3.7493
    5.190    3.7915
    5.220    3.7493
    5.250    3.8757
    5.280    3.8020
    5.310    3.9600
    5.340    3.8968
    5.370    3.5598
    5.400    3.5387
    5.430    3.5387
    5.460    3.4229
    5.490    3.8441
    5.520    3.5703
    5.550    3.6124
    5.580    3.6862
    5.610    3.4018
    5.640    3.5703
    5.670    3.6230
    5.700    3.5387
    5.730    3.5808
    5.760    3.5914
    5.790    3.6967
    5.820    3.4860
    5.850    3.3597
    5.880    3.6335
    5.910    3.4123
    5.940    3.3702
    5.970    3.4755
    6.000    3.1912
    6.030    3.5071
    6.060    3.4860
    6.090    3.4439
    6.120    3.3913
    6.150    3.6651
    6.180    3.4650
    6.210    3.7283
    6.240    3.7072
    6.270    3.5176
    6.300    3.6124
    6.330    3.4439
    6.360    3.5176
    6.390    3.6862
    6.420    3.6862
    6.450    3.6124
    6.480    3.5071
    6.510    3.9705
    6.540    3.3807
    6.570    3.5282
    6.600    3.4860
    6.630    3.4544
    6.660    3.7915
    6.690    3.8652
    6.720    3.7704
    6.750    3.7493
    6.780    3.4018
    6.810    3.7493
    6.840    3.7599
    6.870    3.7493
    6.900    3.4650
    6.930    3.6651
    6.960    3.6019
    6.990    3.8125
    7.020    3.5914
    7.050    3.5598
    7.080    3.5492
    7.110    3.2333
    7.140    3.6440
    7.170    3.2649
    7.200    3.8652
    7.230    3.4544
    7.260    3.7177
    7.290    3.5282
    7.320    3.5492
    7.350    3.7493
    7.380    3.8125
    7.410    3.5808
    7.440    3.7809
    7.470    3.8231
    7.500    3.6862
    7.530    3.5176
    7.560    3.6967
    7.590    3.9179
    7.620    3.8231
    7.650    3.5387
    7.680    3.5914
    7.710    3.6440
    7.740    3.6440
    7.770    3.5176
    7.800    3.6440
    7.830    3.9073
    7.860    3.8125
    7.890    3.7915
    7.920    3.8441
    7.950    3.8231
    7.980    3.8757
    8.010    4.0442
    8.040    3.7177
    8.070    3.9494
    8.100    3.7704
    8.130    3.5808
    8.160    3.8125
    8.190    3.6651
    8.220    4.0548
    8.250    3.5492
    8.280    3.8231
    8.310    3.9389
    8.340    4.1496
    8.370    3.9179
    8.400    3.8336
    8.430    4.0653
    8.460    3.9600
    8.490    3.8231
    8.520    4.3286
    8.550    4.2549
    8.580    3.8441
    8.610    4.2549
    8.640    3.7388
    8.670    3.9916
    8.700    3.7704
    8.730    3.9284
    8.760    3.5492
    8.790    3.9600
    8.820    3.6335
    8.850    4.0864
    8.880    4.0126
    8.910    3.8547
    8.940    3.9179
    8.970    4.2022
    9.000    3.7388
    9.030    4.1917
    9.060    3.8968
    9.090    3.7915
    9.120    4.1917
    9.150    4.0758
    9.180    3.9389
    9.210    3.7283
    9.240    4.3813
    9.270    3.9073
    9.300    4.2759
    9.330    4.1601
    9.360    3.9284
    9.390    3.6335
    9.420    4.0021
    9.450    4.1917
    9.480    4.2127
    9.510    3.9389
    9.540    3.9705
    9.570    4.1074
    9.600    3.7599
    9.630    4.4971
    9.660    4.0232
    9.690    3.9600
    9.720    3.7493
    9.750    4.2338
    9.780    4.4339
    9.810    4.1285
    9.840    4.0337
    9.870    4.4234
    9.900    4.4339
    9.930    3.9600
    9.960    4.5287
    9.990    3.8757
   10.020    4.2970
   10.050    4.4444
   10.080    4.4550
   10.110    3.9916
   10.140    4.4128
   10.170    4.2338
   10.200    4.0548
   10.230    4.4444
   10.260    4.4760
   10.290    4.2759
   10.320    3.8652
   10.350    4.1285
   10.380    4.4760
   10.410    4.2338
   10.440    4.4655
   10.470    4.2865
   10.500    4.1496
   10.530    4.5919
   10.560    4.4971
   10.590    4.3075
   10.620    4.4444
   10.650    3.9179
   10.680    4.4866
   10.710    3.9810
   10.740    4.2022
   10.770    4.2338
   10.800    4.7499
   10.830    4.5603
   10.860    4.6656
   10.890    4.6656
   10.920    4.4760
   10.950    4.6235
   10.980    4.4128
   11.010    4.4023
   11.040    4.5919
   11.070    4.6972
   11.100    4.4234
   11.130    4.3602
   11.160    4.4550
   11.190    4.4971
   11.220    4.9184
   11.250    4.4760
   11.280    4.9921
   11.310    4.4971
   11.340    4.5603
   11.370    4.7499
   11.400    4.5287
   11.430    4.4866
   11.460    4.4550
   11.490    5.1080
   11.520    4.8236
   11.550    4.7815
   11.580    4.7288
   11.610    4.6656
   11.640    5.0342
   11.670    4.9500
   11.700    4.6130
   11.730    4.7604
   11.760    4.5708
   11.790    4.8552
   11.820    5.0448
   11.850    4.8131
   11.880    4.8341
   11.910    4.9500
   11.940    4.9500
   11.970    4.8552
   12.000    5.2659
   12.030    4.8341
   12.060    4.8868
   12.090    4.9289
   12.120    4.7499
   12.150    5.3397
   12.180    5.0764
   12.210    4.8763
   12.240    5.1606
   12.270    5.1922
   12.300    5.0869
   12.330    5.2027
   12.360    4.8552
   12.390    5.3081
   12.420    5.5503
   12.450    5.5082
   12.480    5.6135
   12.510    4.9184
   12.540    5.2554
   12.570    5.2659
   12.600    5.0448
   12.630    5.2975
   12.660    5.3818
   12.690    5.4766
   12.720    5.5714
   12.750    5.1817
   12.780    5.3186
   12.810    5.1395
   12.840    5.3923
   12.870    5.5292
   12.900    5.3186
   12.930    5.9294
   12.960    5.3397
   12.990    5.3186
   13.020    5.5924
   13.050    5.6240
   13.080    5.5924
   13.110    5.8978
   13.140    5.4660
   13.170    5.7715
   13.200    5.5924
   13.230    5.9294
   13.260    5.9400
   13.290    5.8031
   13.320    5.9189
   13.350    5.7820
   13.380    5.7399
   13.410    6.1822
   13.440    5.8662
   13.470    6.1085
   13.500    6.5087
   13.530    6.3612
   13.560    6.3402
   13.590    6.2559
   13.620    5.9610
   13.650    6.4139
   13.680    5.9926
   13.710    6.3296
   13.740    6.2981
   13.770    6.1085
   13.800    6.5298
   13.830    6.2981
   13.860    6.6877
   13.890    6.0874
   13.920    6.2349
   13.950    6.5824
   13.980    6.4876
   14.010    6.4034
   14.040    6.8562
   14.070    6.4982
   14.100    6.6772
   14.130    6.7930
   14.160    7.0879
   14.190    6.8246
   14.220    6.8141
   14.250    7.0458
   14.280    6.9721
   14.310    7.1617
   14.340    7.4250
   14.370    7.1722
   14.400    7.3196
   14.430    7.5829
   14.460    7.1722
   14.490    7.8568
   14.520    7.3934
   14.550    7.1090
   14.580    7.8041
   14.610    7.2038
   14.640    8.1938
   14.670    7.4566
   14.700    7.5513
   14.730    7.6883
   14.760    7.7409
   14.790    7.9831
   14.820    7.8989
   14.850    7.7093
   14.880    7.9200
   14.910    8.1727
   14.940    8.0569
   14.970    8.0042
   15.000    8.4466
   15.030    8.2254
   15.060    8.1411
   15.090    7.9410
   15.120    8.6783
   15.150    8.5519
   15.180    8.6361
   15.210    8.6467
   15.240    8.7309
   15.270    8.5835
   15.300    8.9205
   15.330    8.5203
   15.360    8.9837
   15.390    9.5208
   15.420    8.6572
   15.450    9.1943
   15.480    9.4576
   15.510    9.5313
   15.540    9.2575
   15.570    9.3523
   15.600    9.6367
   15.630   10.0579
   15.660    9.5945
   15.690    9.4787
   15.720    9.8473
   15.750    9.9947
   15.780   10.2054
   15.810   10.0474
   15.840   10.2580
   15.870   10.3002
   15.900   10.3212
   15.930   10.9005
   15.960   10.4687
   15.990   10.2264
   16.020   10.4897
   16.050   10.7636
   16.080   10.1316
   16.110   10.8478
   16.140   11.0163
   16.170   11.2270
   16.200   11.3007
   16.230   10.6793
   16.260   11.5324
   16.290   11.5429
   16.320   11.7957
   16.350   11.1848
   16.380   12.2064
   16.410   12.1643
   16.440   12.3117
   16.470   12.1222
   16.500   11.8483
   16.530   12.2801
   16.560   12.2907
   16.590   12.2696
   16.620   12.3855
   16.650   12.3117
   16.680   12.9753
   16.710   12.5645
   16.740   12.4697
   16.770   13.3123
   16.800   12.7541
   16.830   13.1332
   16.860   12.9121
   16.890   13.2070
   16.920   13.3544
   16.950   13.3965
   16.980   13.4597
   17.010   13.5861
   17.040   14.2812
   17.070   14.4286
   17.100   14.4392
   17.130   14.1864
   17.160   14.1864
   17.190   14.7762
   17.220   14.3655
   17.250   14.5024
   17.280   15.3449
   17.310   15.1975
   17.340   14.6919
   17.370   15.1448
   17.400   15.2080
   17.430   15.4924
   17.460   15.2501
   17.490   15.4924
   17.520   15.8189
   17.550   16.3876
   17.580   15.3660
   17.610   16.0400
   17.640   16.3139
   17.670   15.6714
   17.700   16.1453
   17.730   16.7983
   17.760   16.9352
   17.790   16.8720
   17.820   17.2722
   17.850   17.0090
   17.880   17.2722
   17.910   17.1669
   17.940   16.7035
   17.970   17.7146
   18.000   17.5777
   18.030   17.6935
   18.060   17.4618
   18.090   18.2096
   18.120   17.9042
   18.150   17.5355
   18.180   18.4308
   18.210   18.2833
   18.240   17.9147
   18.270   17.7778
   18.300   17.8304
   18.330   18.6835
   18.360   18.1359
   18.390   18.5782
   18.420   18.2833
   18.450   19.1048
   18.480   18.8836
   18.510   18.5571
   18.540   19.2733
   18.570   18.9784
   18.600   18.7994
   18.630   19.1890
   18.660   18.4834
   18.690   19.1680
   18.720   19.2101
   18.750   18.9047
   18.780   19.4523
   18.810   19.8104
   18.840   19.6525
   18.870   19.2838
   18.900   19.8631
   18.930   19.2206
   18.960   19.4523
   18.990   19.3997
   19.020   19.2628
   19.050   19.4207
   19.080   19.1153
   19.110   19.0837
   19.140   19.2628
   19.170   19.6840
   19.200   19.1469
   19.230   19.4945
   19.260   19.3260
   19.290   19.1259
   19.320   19.5366
   19.350   18.7362
   19.380   19.0205
   19.410   19.2733
   19.440   18.8310
   19.470   19.5998
   19.500   19.6419
   19.530   19.1048
   19.560   19.5682
   19.590   19.1153
   19.620   18.0200
   19.650   18.6519
   19.680   18.3149
   19.710   18.8520
   19.740   18.8520
   19.770   18.8310
   19.800   18.6940
   19.830   18.5571
   19.860   18.4729
   19.890   18.3570
   19.920   18.8099
   19.950   18.8310
   19.980   18.5466
   20.010   18.1780
   20.040   17.8831
   20.070   18.6414
   20.100   18.1780
   20.130   18.3044
   20.160   18.2306
   20.190   17.6725
   20.220   17.6725
   20.250   17.6935
   20.280   17.4513
   20.310   16.9352
   20.340   16.5245
   20.370   16.5034
   20.400   17.2617
   20.430   17.4302
   20.460   16.9668
   20.490   17.2617
   20.520   16.4192
   20.550   17.2091
   20.580   16.2928
   20.610   15.9452
   20.640   16.3876
   20.670   16.6614
   20.700   16.3033
   20.730   16.0400
   20.760   15.9242
   20.790   15.4502
   20.820   16.0821
   20.850   15.7873
   20.880   15.3765
   20.910   15.6503
   20.940   15.3870
   20.970   15.3555
   21.000   15.3344
   21.030   14.7762
   21.060   15.2185
   21.090   15.0290
   21.120   15.2396
   21.150   14.7341
   21.180   13.9021
   21.210   14.3128
   21.240   14.6919
   21.270   14.4918
   21.300   14.7657
   21.330   14.5129
   21.360   14.4813
   21.390   14.2285
   21.420   14.1548
   21.450   13.6388
   21.480   13.1543
   21.510   13.6809
   21.540   13.7441
   21.570   13.1754
   21.600   13.4176
   21.630   13.0700
   21.660   12.9647
   21.690   13.2912
   21.720   12.7120
   21.750   12.4065
   21.780   12.4592
   21.810   13.0806
   21.840   12.3012
   21.870   12.4381
   21.900   13.0279
   21.930   11.6904
   21.960   12.6698
   21.990   12.1748
   22.020   11.7641
   22.050   12.1327
   22.080   11.9221
   22.110   11.8062
   22.140   11.8589
   22.170   11.8062
   22.200   11.7114
   22.230   11.6166
   22.260   11.9431
   22.290   11.7009
   22.320   11.3849
   22.350   11.8694
   22.380   11.2691
   22.410   11.3323
   22.440   11.1006
   22.470   10.6161
   22.500   11.1216
   22.530   10.7846
   22.560   10.8162
   22.590   10.4792
   22.620   10.8162
   22.650   11.1954
   22.680   11.0374
   22.710   10.9847
   22.740   10.0053
   22.770   10.8899
   22.800   10.6477
   22.830   10.2580
   22.860   10.3949
   22.890   10.8373
   22.920   10.4687
   22.950    9.7736
   22.980   10.2159
   23.010   10.0579
   23.040   10.0685
   23.070    9.9105
   23.100   10.2791
   23.130   10.0263
   23.160    9.4997
   23.190    9.6788
   23.220    9.5629
   23.250    9.8368
   23.280   10.0263
   23.310    9.5840
   23.340    9.7420
   23.370    8.9942
   23.400    9.6261
   23.430    9.5103
   23.460    9.3839
   23.490    9.4787
   23.520    9.2154
   23.550    8.9415
   23.580    8.7730
   23.610    8.4992
   23.640    9.2575
   23.670    8.8573
   23.700    9.1838
   23.730    9.1627
   23.760    8.8678
   23.790    8.2780
   23.820    8.1201
   23.850    8.5835
   23.880    8.5519
   23.910    8.8468
   23.940    8.4466
   23.970    7.8568
   24.000    8.4676
   24.030    8.8046
   24.060    8.2464
   24.090    7.8989
   24.120    7.9200
   24.150    8.0779
   24.180    7.8252
   24.210    8.7309
   24.240    8.0569
   24.270    8.2254
   24.300    8.2043
   24.330    8.0885
   24.360    8.0990
   24.390    7.5724
   24.420    7.7409
   24.450    7.7725
   24.480    8.0042
   24.510    7.6883
   24.540    7.3723
   24.570    8.0463
   24.600    8.2780
   24.630    7.6461
   24.660    7.7936
   24.690    7.8041
   24.720    8.1411
   24.750    7.4987
   24.780    7.1933
   24.810    7.1617
   24.840    7.6251
   24.870    7.4671
   24.900    7.3934
   24.930    7.6883
   24.960    6.8352
   24.990    7.1301
   25.020    7.4987
   25.050    7.4882
   25.080    7.3302
   25.110    7.2565
   25.140    7.4882
   25.170    7.0142
   25.200    7.1617
   25.230    7.3302
   25.260    7.1195
   25.290    6.9932
   25.320    6.8878
   25.350    6.9194
   25.380    6.5929
   25.410    6.6877
   25.440    7.1195
   25.470    6.2665
   25.500    6.6983
   25.530    6.8668
   25.560    6.8773
   25.590    6.8878
   25.620    6.3296
   25.650    7.3302
   25.680    6.3402
   25.710    6.5719
   25.740    6.9300
   25.770    6.8773
   25.800    6.8246
   25.830    6.6983
   25.860    6.6351
   25.890    6.8036
   25.920    6.7404
   25.950    6.4876
   25.980    6.1190
   26.010    6.3823
   26.040    6.3296
   26.070    6.5403
   26.100    6.7930
   26.130    5.8978
   26.160    6.5403
   26.190    6.8668
   26.220    6.2243
   26.250    6.7720
   26.280    5.8136
   26.310    6.3507
   26.340    6.1506
   26.370    6.2349
   26.400    6.2243
   26.430    6.1190
   26.460    6.1611
   26.490    6.1611
   26.520    6.5824
   26.550    6.0453
   26.580    5.8873
   26.610    6.0979
   26.640    6.2770
   26.670    5.7820
   26.700    6.3296
   26.730    5.7399
   26.760    5.9084
   26.790    6.1085
   26.820    5.8978
   26.850    6.1717
   26.880    6.3402
   26.910    5.9610
   26.940    5.9926
   26.970    5.6977
   27.000    6.1611
   27.030    5.8031
   27.060    5.8347
   27.090    5.7925
   27.120    5.9821
   27.150    6.1927
   27.180    5.7083
   27.210    6.0137
   27.240    5.8241
   27.270    5.7188
   27.300    5.6556
   27.330    5.7083
   27.360    5.2343
   27.390    6.1927
   27.420    5.7609
   27.450    5.9084
   27.480    5.6029
   27.510    6.0032
   27.540    5.3923
   27.570    5.5292
   27.600    5.7293
   27.630    5.9084
   27.660    5.6135
   27.690    5.8136
   27.720    5.7820
   27.750    5.8241
   27.780    5.4239
   27.810    5.2765
   27.840    5.8662
   27.870    5.5503
   27.900    5.7188
   27.930    5.5608
   27.960    5.5714
   27.990    5.6977
   28.020    5.3397
   28.050    5.2765
   28.080    5.3818
   28.110    5.8978
   28.140    5.7715
   28.170    5.5819
   28.200    5.5608
   28.230    5.6661
   28.260    5.7504
   28.290    5.7715
   28.320    5.4766
   28.350    5.4660
   28.380    5.6556
   28.410    5.1185
   28.440    5.2343
   28.470    5.4976
   28.500    5.2133
   28.530    5.5398
   28.560    5.6977
   28.590    5.6977
   28.620    5.8557
   28.650    5.2554
   28.680    4.9921
   28.710    5.0974
   28.740    5.2659
   28.770    5.6556
   28.800    5.3291
   28.830    5.8557
   28.860    5.4555
   28.890    5.1395
   28.920    5.2238
   28.950    5.2554
   28.980    5.0658
   29.010    5.1606
   29.040    5.4660
   29.070    5.3291
   29.100    5.3607
   29.130    5.0869
   29.160    5.5398
   29.190    5.2554
   29.220    5.2449
   29.250    5.3607
   29.280    5.2765
   29.310    5.3081
   29.340    5.3607
   29.370    5.3291
   29.400    5.1711
   29.430    5.0869
   29.460    5.2554
   29.490    5.2027
   29.520    5.0974
   29.550    4.9710
   29.580    5.1501
   29.610    4.8552
   29.640    5.1501
   29.670    5.0132
   29.700    4.9710
   29.730    5.4239
   29.760    5.2765
   29.790    4.9605
   29.820    5.2133
   29.850    5.0342
   29.880    4.9289
   29.910    4.9710
   29.940    5.0974
   29.970    4.9078
   30.000    5.1185
   30.030    4.9289
   30.060    5.1080
   30.090    5.2343
   30.120    5.4134
   30.150    4.7288
   30.180    5.0132
   30.210    5.1395
   30.240    5.1290
   30.270    4.8973
   30.300    4.9500
   30.330    4.9710
   30.360    5.3712
   30.390    4.9289
   30.420    4.9605
   30.450    5.1501
   30.480    4.9289
   30.510    5.5503
   30.540    4.7604
   30.570    5.0974
   30.600    4.8025
   30.630    4.8868
   30.660    4.7499
   30.690    5.2133
   30.720    4.9816
   30.750    4.9078
   30.780    5.0658
   30.810    5.1606
   30.840    4.8341
   30.870    4.6024
   30.900    4.6340
   30.930    4.8657
   30.960    5.0342
   30.990    4.9710
   31.020    4.6551
   31.050    5.2554
   31.080    5.1080
   31.110    4.7077
   31.140    4.9184
   31.170    4.8973
   31.200    4.7183
   31.230    4.6235
   31.260    4.7288
   31.290    4.8447
   31.320    5.0553
   31.350    4.8973
   31.380    4.6445
   31.410    4.9184
   31.440    4.9605
   31.470    4.9500
   31.500    5.1395
   31.530    4.8763
   31.560    4.8552
   31.590    4.6972
   31.620    4.7077
   31.650    4.6340
   31.680    4.8341
   31.710    4.7183
   31.740    4.8025
   31.770    5.0026
   31.800    5.0764
   31.830    5.0974
   31.860    5.1080
   31.890    4.5919
   31.920    5.1185
   31.950    4.5708
   31.980    4.7393
   32.010    4.6867
   32.040    4.6445
   32.070    5.1080
   32.100    4.4866
   32.130    5.1185
   32.160    4.4128
   32.190    4.7604
   32.220    4.6656
   32.250    4.6235
   32.280    4.6867
   32.310    4.6867
   32.340    4.4971
   32.370    4.6761
   32.400    4.9710
   32.430    4.4866
   32.460    4.5708
   32.490    4.7499
   32.520    4.8763
   32.550    4.6235
   32.580    4.8657
   32.610    4.6551
   32.640    4.7288
   32.670    4.7183
   32.700    4.9394
   32.730    5.1290
   32.760    4.6867
   32.790    4.5182
   32.820    4.3391
   32.850    4.7077
   32.880    4.7920
   32.910    4.6130
   32.940    4.4866
   32.970    4.5182
   33.000    4.7288
   33.030    4.7077
   33.060    4.5182
   33.090    4.8447
   33.120    4.5498
   33.150    4.2338
   33.180    4.4866
   33.210    4.6340
   33.240    4.2759
   33.270    4.9184
   33.300    4.3602
   33.330    4.3813
   33.360    4.6972
   33.390    4.6340
   33.420    4.4866
   33.450    4.3813
   33.480    4.4023
   33.510    4.7077
   33.540    4.7499
   33.570    4.7288
   33.600    4.5498
   33.630    4.7077
   33.660    4.4444
   33.690    4.3075
   33.720    4.4760
   33.750    4.4971
   33.780    4.7288
   33.810    4.2549
   33.840    4.4339
   33.870    4.6656
   33.900    4.5392
   33.930    4.6551
   33.960    4.4128
   33.990    4.3497
   34.020    4.5392
   34.050    4.6867
   34.080    4.2970
   34.110    4.6235
   34.140    4.4128
   34.170    4.5182
   34.200    4.4655
   34.230    4.2233
   34.260    4.8131
   34.290    4.2759
   34.320    4.4234
   34.350    4.6130
   34.380    4.3497
   34.410    4.5498
   34.440    4.6445
   34.470    4.5287
   34.500    4.3602
   34.530    4.0758
   34.560    4.7393
   34.590    4.5603
   34.620    4.3918
   34.650    4.6445
   34.680    4.5287
   34.710    4.4339
   34.740    4.7288
   34.770    4.1706
   34.800    4.4760
   34.830    4.6972
   34.860    4.2654
   34.890    4.5076
   34.920    4.2970
   34.950    4.4128
   34.980    4.3181
   35.010    4.4866
   35.040    4.3391
   35.070    4.1496
   35.100    4.4339
   35.130    4.4234
   35.160    4.1285
   35.190    4.1601
   35.220    4.1706
   35.250    4.4128
   35.280    4.3391
   35.310    4.3497
   35.340    4.2654
   35.370    4.0126
   35.400    4.3497
   35.430    3.9600
   35.460    4.4339
   35.490    4.0758
   35.520    4.0548
   35.550    4.5814
   35.580    4.2233
   35.610    4.3286
   35.640    4.2233
   35.670    4.2127
   35.700    4.5708
   35.730    4.1601
   35.760    4.0337
   35.790    4.3286
   35.820    4.2338
   35.850    3.9494
   35.880    4.0337
   35.910    4.2759
   35.940    4.1285
   35.970    4.2338
   36.000    4.0864
   36.030    4.5182
   36.060    4.0021
   36.090    4.1811
   36.120    3.9073
   36.150    3.7493
   36.180    4.0021
   36.210    4.0337
   36.240    4.0653
   36.270    4.3497
   36.300    4.1706
   36.330    3.8547
   36.360    4.3813
   36.390    4.1601
   36.420    3.9916
   36.450    4.3181
   36.480    4.2443
   36.510    4.0864
   36.540    4.2865
   36.570    4.4234
   36.600    3.9284
   36.630    4.2338
   36.660    3.8757
   36.690    3.4860
   36.720    4.0969
   36.750    4.2654
   36.780    4.1390
   36.810    3.7809
   36.840    3.9916
   36.870    4.1390
   36.900    4.0337
   36.930    3.8863
   36.960    4.0232
   36.990    3.9389
   37.020    3.9916
   37.050    4.0969
   37.080    3.6440
   37.110    4.0969
   37.140    4.0021
   37.170    3.8757
   37.200    4.1390
   37.230    4.0232
   37.260    3.9810
   37.290    4.0442
   37.320    3.9705
   37.350    4.2443
   37.380    3.8231
   37.410    3.7704
   37.440    4.1601
   37.470    4.3286
   37.500    3.8231
   37.530    3.9705
   37.560    4.0969
   37.590    4.1180
   37.620    3.9810
   37.650    4.1180
   37.680    3.9916
   37.710    3.9600
   37.740    4.2127
   37.770    4.0864
   37.800    4.2443
   37.830    3.9600
   37.860    3.6862
   37.890    4.1496
   37.920    3.7177
   37.950    3.8652
   37.980    3.8125
   38.010    3.8336
   38.040    3.9916
   38.070    3.8231
   38.100    3.8968
   38.130    4.1706
   38.160    3.8125
   38.190    3.9073
   38.220    3.8652
   38.250    3.7493
   38.280    3.7493
   38.310    3.8547
   38.340    3.9179
   38.370    3.8020
   38.400    4.0126
   38.430    3.9284
   38.460    3.8547
   38.490    3.7283
   38.520    3.8125
   38.550    3.8336
   38.580    3.9073
   38.610    4.0126
   38.640    3.9600
   38.670    4.0232
   38.700    4.1285
   38.730    3.6967
   38.760    3.9600
   38.790    3.7809
   38.820    3.9389
   38.850    3.7915
   38.880    4.0021
   38.910    3.8125
   38.940    3.7704
   38.970    3.7177
   39.000    4.1496
   39.030    3.7388
   39.060    3.8547
   39.090    3.9073
   39.120    3.8231
   39.150    3.6862
   39.180    3.8231
   39.210    3.8652
   39.240    3.8336
   39.270    4.1706
   39.300    3.6019
   39.330    3.5282
   39.360    3.8547
   39.390    3.6546
   39.420    3.6862
   39.450    3.5914
   39.480    3.6546
   39.510    3.8231
   39.540    3.8020
   39.570    3.5387
   39.600    3.9389
   39.630    3.6546
   39.660    3.8863
   39.690    3.7599
   39.720    3.9073
   39.750    3.7599
   39.780    3.6440
   39.810    3.8968
   39.840    3.6756
   39.870    3.6019
   39.900    3.7072
   39.930    3.7493
   39.960    3.6756
   39.990    3.6546