File: data/MOCOF-1/PXRD/PXRD_Blank_Co-Ka1_capillary-1mm_3s-deg.xyd
    1.500    0.4637
    1.545    0.4815
    1.590    0.5707
    1.635    0.4280
    1.680    0.4102
    1.725    0.5529
    1.770    0.5886
    1.815    0.4637
    1.860    0.3924
    1.905    0.4815
    1.950    0.5886
    1.995    0.4994
    2.040    0.4637
    2.085    0.5172
    2.130    0.4994
    2.175    0.5529
    2.220    0.5350
    2.265    0.4637
    2.310    0.4280
    2.355    0.6421
    2.400    0.4994
    2.445    0.5886
    2.490    0.5886
    2.535    0.6064
    2.580    0.4637
    2.625    0.6599
    2.670    0.4815
    2.715    0.7134
    2.760    0.6242
    2.805    0.6421
    2.850    0.5350
    2.895    0.4102
    2.940    0.2854
    2.985    0.4994
    3.030    0.4994
    3.075    0.4815
    3.120    0.4994
    3.165    0.4815
    3.210    0.4459
    3.255    0.4994
    3.300    0.4994
    3.345    0.4459
    3.390    0.4637
    3.435    0.5886
    3.480    0.6599
    3.525    0.5529
    3.570    0.4815
    3.615    0.4994
    3.660    0.3745
    3.705    0.5707
    3.750    0.6064
    3.795    0.6777
    3.840    0.4102
    3.885    0.5350
    3.930    0.5172
    3.975    0.4815
    4.020    0.5886
    4.065    0.5707
    4.110    0.4815
    4.155    0.4815
    4.200    0.5350
    4.245    0.5529
    4.290    0.4459
    4.335    0.5529
    4.380    0.4994
    4.425    0.6242
    4.470    0.6242
    4.515    0.5529
    4.560    0.4459
    4.605    0.4994
    4.650    0.6064
    4.695    0.5886
    4.740    0.6599
    4.785    0.5350
    4.830    0.6064
    4.875    0.4994
    4.920    0.5886
    4.965    0.5172
    5.010    0.4994
    5.055    0.5529
    5.100    0.7491
    5.145    0.5886
    5.190    0.5350
    5.235    0.6242
    5.280    0.6956
    5.325    0.7312
    5.370    0.4280
    5.415    0.6064
    5.460    0.5172
    5.505    0.6599
    5.550    0.5886
    5.595    0.3389
    5.640    0.6777
    5.685    0.3210
    5.730    0.4637
    5.775    0.5350
    5.820    0.5172
    5.865    0.4994
    5.910    0.5172
    5.955    0.4815
    6.000    0.3745
    6.045    0.5172
    6.090    0.5707
    6.135    0.3745
    6.180    0.6421
    6.225    0.4994
    6.270    0.4994
    6.315    0.4459
    6.360    0.5707
    6.405    0.4637
    6.450    0.4815
    6.495    0.6242
    6.540    0.4815
    6.585    0.7134
    6.630    0.5707
    6.675    0.4815
    6.720    0.4102
    6.765    0.6064
    6.810    0.6956
    6.855    0.5886
    6.900    0.5172
    6.945    0.5172
    6.990    0.6064
    7.035    0.6064
    7.080    0.5350
    7.125    0.4459
    7.170    0.4994
    7.215    0.6599
    7.260    0.6421
    7.305    0.5529
    7.350    0.4994
    7.395    0.6777
    7.440    0.4815
    7.485    0.5707
    7.530    0.5886
    7.575    0.6421
    7.620    0.5350
    7.665    0.6421
    7.710    0.5886
    7.755    0.6956
    7.800    0.6064
    7.845    0.4815
    7.890    0.4459
    7.935    0.4637
    7.980    0.4459
    8.025    0.4280
    8.070    0.4815
    8.115    0.4994
    8.160    0.5529
    8.205    0.5886
    8.250    0.5886
    8.295    0.4280
    8.340    0.5350
    8.385    0.5707
    8.430    0.5350
    8.475    0.5529
    8.520    0.6599
    8.565    0.6064
    8.610    0.5172
    8.655    0.6242
    8.700    0.5707
    8.745    0.5886
    8.790    0.8026
    8.835    0.6956
    8.880    0.4459
    8.925    0.4815
    8.970    0.3924
    9.015    0.5886
    9.060    0.3210
    9.105    0.6777
    9.150    0.5172
    9.195    0.6421
    9.240    0.5886
    9.285    0.3745
    9.330    0.4637
    9.375    0.3567
    9.420    0.5172
    9.465    0.6064
    9.510    0.6242
    9.555    0.6777
    9.600    0.5529
    9.645    0.5172
    9.690    0.5172
    9.735    0.5529
    9.780    0.5886
    9.825    0.5529
    9.870    0.5707
    9.915    0.5707
    9.960    0.4994
   10.005    0.4637
   10.050    0.5707
   10.095    0.4459
   10.140    0.4815
   10.185    0.3567
   10.230    0.5172
   10.275    0.4815
   10.320    0.4280
   10.365    0.5350
   10.410    0.5886
   10.455    0.6421
   10.500    0.5350
   10.545    0.4815
   10.590    0.6242
   10.635    0.5707
   10.680    0.4994
   10.725    0.4280
   10.770    0.4459
   10.815    0.4102
   10.860    0.4280
   10.905    0.5350
   10.950    0.6064
   10.995    0.5707
   11.040    0.5529
   11.085    0.4815
   11.130    0.4459
   11.175    0.4280
   11.220    0.3924
   11.265    0.3745
   11.310    0.5350
   11.355    0.4994
   11.400    0.3567
   11.445    0.4459
   11.490    0.4637
   11.535    0.5707
   11.580    0.6599
   11.625    0.4815
   11.670    0.4637
   11.715    0.4102
   11.760    0.5529
   11.805    0.3924
   11.850    0.5350
   11.895    0.5172
   11.940    0.4637
   11.985    0.4280
   12.030    0.5350
   12.075    0.4637
   12.120    0.6421
   12.165    0.5172
   12.210    0.4994
   12.255    0.4637
   12.300    0.3567
   12.345    0.4815
   12.390    0.4459
   12.435    0.5350
   12.480    0.4459
   12.525    0.4637
   12.570    0.6064
   12.615    0.5172
   12.660    0.4994
   12.705    0.5172
   12.750    0.5707
   12.795    0.5350
   12.840    0.4994
   12.885    0.4459
   12.930    0.4994
   12.975    0.4815
   13.020    0.4280
   13.065    0.4994
   13.110    0.5529
   13.155    0.3210
   13.200    0.5350
   13.245    0.4637
   13.290    0.4994
   13.335    0.3924
   13.380    0.5172
   13.425    0.4637
   13.470    0.4994
   13.515    0.5529
   13.560    0.4637
   13.605    0.3745
   13.650    0.6421
   13.695    0.6421
   13.740    0.4815
   13.785    0.4637
   13.830    0.5172
   13.875    0.5886
   13.920    0.5172
   13.965    0.5529
   14.010    0.5707
   14.055    0.3567
   14.100    0.3567
   14.145    0.5350
   14.190    0.4637
   14.235    0.4815
   14.280    0.5172
   14.325    0.5172
   14.370    0.3389
   14.415    0.3924
   14.460    0.4102
   14.505    0.4815
   14.550    0.5350
   14.595    0.5350
   14.640    0.4459
   14.685    0.4102
   14.730    0.6064
   14.775    0.5707
   14.820    0.4994
   14.865    0.4994
   14.910    0.5529
   14.955    0.4459
   15.000    0.3567
   15.045    0.4637
   15.090    0.3745
   15.135    0.6599
   15.180    0.4102
   15.225    0.5529
   15.270    0.5529
   15.315    0.4994
   15.360    0.5529
   15.405    0.5350
   15.450    0.5350
   15.495    0.5350
   15.540    0.6242
   15.585    0.5886
   15.630    0.5707
   15.675    0.3745
   15.720    0.5529
   15.765    0.4280
   15.810    0.4815
   15.855    0.5529
   15.900    0.4637
   15.945    0.5707
   15.990    0.5350
   16.035    0.4102
   16.080    0.4637
   16.125    0.5707
   16.170    0.4994
   16.215    0.4994
   16.260    0.6599
   16.305    0.4994
   16.350    0.4102
   16.395    0.4459
   16.440    0.3567
   16.485    0.6956
   16.530    0.4637
   16.575    0.2854
   16.620    0.4102
   16.665    0.5350
   16.710    0.4637
   16.755    0.4280
   16.800    0.3745
   16.845    0.4815
   16.890    0.4815
   16.935    0.4280
   16.980    0.3032
   17.025    0.4815
   17.070    0.4994
   17.115    0.3745
   17.160    0.4459
   17.205    0.5529
   17.250    0.4459
   17.295    0.3745
   17.340    0.3567
   17.385    0.6064
   17.430    0.5172
   17.475    0.4459
   17.520    0.4815
   17.565    0.4637
   17.610    0.5529
   17.655    0.5172
   17.700    0.4815
   17.745    0.4280
   17.790    0.5172
   17.835    0.4815
   17.880    0.5172
   17.925    0.3567
   17.970    0.5529
   18.015    0.4637
   18.060    0.4994
   18.105    0.5350
   18.150    0.4102
   18.195    0.4280
   18.240    0.4459
   18.285    0.4994
   18.330    0.5172
   18.375    0.4102
   18.420    0.4280
   18.465    0.4280
   18.510    0.3745
   18.555    0.5350
   18.600    0.3924
   18.645    0.5172
   18.690    0.4280
   18.735    0.4994
   18.780    0.5707
   18.825    0.5886
   18.870    0.4459
   18.915    0.5529
   18.960    0.5529
   19.005    0.4994
   19.050    0.3745
   19.095    0.4815
   19.140    0.4280
   19.185    0.4815
   19.230    0.4815
   19.275    0.5350
   19.320    0.4815
   19.365    0.4637
   19.410    0.4637
   19.455    0.4280
   19.500    0.4459
   19.545    0.6064
   19.590    0.6421
   19.635    0.4637
   19.680    0.4280
   19.725    0.4637
   19.770    0.4815
   19.815    0.4102
   19.860    0.6242
   19.905    0.6599
   19.950    0.5350
   19.995    0.4815
   20.040    0.4102
   20.085    0.4280
   20.130    0.3567
   20.175    0.5707
   20.220    0.4102
   20.265    0.5172
   20.310    0.5350
   20.355    0.4815
   20.400    0.3745
   20.445    0.4994
   20.490    0.4994
   20.535    0.5707
   20.580    0.5172
   20.625    0.5350
   20.670    0.4459
   20.715    0.4637
   20.760    0.4815
   20.805    0.5172
   20.850    0.4102
   20.895    0.3924
   20.940    0.5707
   20.985    0.4994
   21.030    0.3924
   21.075    0.3745
   21.120    0.4280
   21.165    0.5350
   21.210    0.5529
   21.255    0.5172
   21.300    0.4280
   21.345    0.4102
   21.390    0.3389
   21.435    0.5886
   21.480    0.3924
   21.525    0.4994
   21.570    0.4815
   21.615    0.4459
   21.660    0.6242
   21.705    0.5172
   21.750    0.5172
   21.795    0.6421
   21.840    0.4637
   21.885    0.6242
   21.930    0.4459
   21.975    0.5707
   22.020    0.4815
   22.065    0.5172
   22.110    0.4815
   22.155    0.3032
   22.200    0.4815
   22.245    0.4280
   22.290    0.5529
   22.335    0.5172
   22.380    0.4459
   22.425    0.4459
   22.470    0.4637
   22.515    0.3924
   22.560    0.4815
   22.605    0.4280
   22.650    0.6064
   22.695    0.4459
   22.740    0.6242
   22.785    0.4994
   22.830    0.5350
   22.875    0.5350
   22.920    0.3210
   22.965    0.3924
   23.010    0.5350
   23.055    0.5350
   23.100    0.4102
   23.145    0.4994
   23.190    0.4815
   23.235    0.5172
   23.280    0.5529
   23.325    0.5350
   23.370    0.4637
   23.415    0.6064
   23.460    0.4459
   23.505    0.5886
   23.550    0.6242
   23.595    0.5886
   23.640    0.4994
   23.685    0.6064
   23.730    0.6599
   23.775    0.5529
   23.820    0.4637
   23.865    0.5886
   23.910    0.4280
   23.955    0.4459
   24.000    0.4637
   24.045    0.4459
   24.090    0.4459
   24.135    0.3567
   24.180    0.4637
   24.225    0.6777
   24.270    0.4637
   24.315    0.4994
   24.360    0.4459
   24.405    0.6242
   24.450    0.5529
   24.495    0.5707
   24.540    0.4459
   24.585    0.4459
   24.630    0.5172
   24.675    0.5172
   24.720    0.3567
   24.765    0.5529
   24.810    0.4280
   24.855    0.4994
   24.900    0.4459
   24.945    0.3567
   24.990    0.4280
   25.035    0.5350
   25.080    0.6956
   25.125    0.4815
   25.170    0.4102
   25.215    0.4459
   25.260    0.5529
   25.305    0.5529
   25.350    0.3567
   25.395    0.6242
   25.440    0.4637
   25.485    0.4459
   25.530    0.4459
   25.575    0.3745
   25.620    0.4637
   25.665    0.6956
   25.710    0.4459
   25.755    0.4637
   25.800    0.6064
   25.845    0.3745
   25.890    0.5172
   25.935    0.3924
   25.980    0.4280
   26.025    0.5529
   26.070    0.6064
   26.115    0.5529
   26.160    0.5529
   26.205    0.5707
   26.250    0.4994
   26.295    0.5529
   26.340    0.5172
   26.385    0.4637
   26.430    0.5886
   26.475    0.5172
   26.520    0.4815
   26.565    0.5350
   26.610    0.4459
   26.655    0.5172
   26.700    0.4815
   26.745    0.6242
   26.790    0.5529
   26.835    0.3745
   26.880    0.3745
   26.925    0.6242
   26.970    0.3210
   27.015    0.5350
   27.060    0.5172
   27.105    0.3567
   27.150    0.6242
   27.195    0.5350
   27.240    0.6599
   27.285    0.5529
   27.330    0.5529
   27.375    0.3210
   27.420    0.4637
   27.465    0.4637
   27.510    0.6242
   27.555    0.5529
   27.600    0.4637
   27.645    0.4637
   27.690    0.4994
   27.735    0.5707
   27.780    0.4994
   27.825    0.5350
   27.870    0.4994
   27.915    0.5172
   27.960    0.4280
   28.005    0.5350
   28.050    0.4815
   28.095    0.6064
   28.140    0.4459
   28.185    0.4102
   28.230    0.4102
   28.275    0.5886
   28.320    0.4994
   28.365    0.4815
   28.410    0.4459
   28.455    0.4815
   28.500    0.5350
   28.545    0.3924
   28.590    0.4815
   28.635    0.4637
   28.680    0.5172
   28.725    0.5707
   28.770    0.4637
   28.815    0.4102
   28.860    0.4102
   28.905    0.3924
   28.950    0.4102
   28.995    0.4994
   29.040    0.4815
   29.085    0.5350
   29.130    0.5529
   29.175    0.3389
   29.220    0.4994
   29.265    0.5172
   29.310    0.4994
   29.355    0.2675
   29.400    0.5529
   29.445    0.5529
   29.490    0.4459
   29.535    0.4815
   29.580    0.4637
   29.625    0.6421
   29.670    0.3389
   29.715    0.6064
   29.760    0.4815
   29.805    0.4637
   29.850    0.3567
   29.895    0.3389
   29.940    0.5172
   29.985    0.3924
   30.030    0.4459
   30.075    0.4280
   30.120    0.4815
   30.165    0.6599
   30.210    0.4637
   30.255    0.4459
   30.300    0.5886
   30.345    0.5172
   30.390    0.4637
   30.435    0.5172
   30.480    0.4280
   30.525    0.4815
   30.570    0.4994
   30.615    0.4280
   30.660    0.4637
   30.705    0.5886
   30.750    0.5172
   30.795    0.4280
   30.840    0.3745
   30.885    0.4815
   30.930    0.4637
   30.975    0.4459
   31.020    0.4280
   31.065    0.4815
   31.110    0.5886
   31.155    0.6064
   31.200    0.4637
   31.245    0.4815
   31.290    0.4280
   31.335    0.6064
   31.380    0.4637
   31.425    0.4459
   31.470    0.3210
   31.515    0.3032
   31.560    0.4637
   31.605    0.3924
   31.650    0.4102
   31.695    0.4280
   31.740    0.4459
   31.785    0.3924
   31.830    0.5350
   31.875    0.4459
   31.920    0.3924
   31.965    0.4637
   32.010    0.3924
   32.055    0.3567
   32.100    0.4459
   32.145    0.4459
   32.190    0.3389
   32.235    0.4280
   32.280    0.5886
   32.325    0.5886
   32.370    0.3567
   32.415    0.4102
   32.460    0.5172
   32.505    0.5707
   32.550    0.4280
   32.595    0.4459
   32.640    0.3924
   32.685    0.3745
   32.730    0.4280
   32.775    0.3745
   32.820    0.2319
   32.865    0.3210
   32.910    0.4994
   32.955    0.2854
   33.000    0.4815
   33.045    0.4815
   33.090    0.5172
   33.135    0.4637
   33.180    0.4815
   33.225    0.4459
   33.270    0.3924
   33.315    0.4280
   33.360    0.4102
   33.405    0.3389
   33.450    0.3745
   33.495    0.3924
   33.540    0.4815
   33.585    0.3389
   33.630    0.4637
   33.675    0.4637
   33.720    0.3389
   33.765    0.3924
   33.810    0.1962
   33.855    0.3567
   33.900    0.5350
   33.945    0.3924
   33.990    0.3389
   34.035    0.4102
   34.080    0.3924
   34.125    0.3567
   34.170    0.3210
   34.215    0.3389
   34.260    0.2854
   34.305    0.3210
   34.350    0.5886
   34.395    0.4102
   34.440    0.3210
   34.485    0.4280
   34.530    0.4815
   34.575    0.4280
   34.620    0.3032
   34.665    0.4815
   34.710    0.3210
   34.755    0.4994
   34.800    0.3389
   34.845    0.4637
   34.890    0.3924
   34.935    0.3745
   34.980    0.4637
   35.025    0.4102
   35.070    0.3745
   35.115    0.4102
   35.160    0.3745
   35.205    0.4102
   35.250    0.5350
   35.295    0.3032
   35.340    0.3210
   35.385    0.5350
   35.430    0.4102
   35.475    0.2497
   35.520    0.3745
   35.565    0.4102
   35.610    0.3745
   35.655    0.3745
   35.700    0.4280
   35.745    0.3745
   35.790    0.3567
   35.835    0.3389
   35.880    0.3745
   35.925    0.3389
   35.970    0.4280
   36.015    0.5172
   36.060    0.3210
   36.105    0.3567
   36.150    0.3210
   36.195    0.3567
   36.240    0.3745
   36.285    0.4815
   36.330    0.4102
   36.375    0.2675
   36.420    0.3389
   36.465    0.4637
   36.510    0.4815
   36.555    0.2854
   36.600    0.4637
   36.645    0.4637
   36.690    0.3745
   36.735    0.4637
   36.780    0.4994
   36.825    0.3032
   36.870    0.3032
   36.915    0.4994
   36.960    0.4815
   37.005    0.3924
   37.050    0.3032
   37.095    0.3389
   37.140    0.4102
   37.185    0.2319
   37.230    0.3567
   37.275    0.3389
   37.320    0.2675
   37.365    0.3032
   37.410    0.4280
   37.455    0.3210
   37.500    0.4102
   37.545    0.2675
   37.590    0.3745
   37.635    0.3745
   37.680    0.3032
   37.725    0.2675
   37.770    0.3567
   37.815    0.3567
   37.860    0.3389
   37.905    0.3032
   37.950    0.2497
   37.995    0.2675
   38.040    0.4637
   38.085    0.3567
   38.130    0.3032
   38.175    0.2319
   38.220    0.3210
   38.265    0.3032
   38.310    0.2854
   38.355    0.3924
   38.400    0.2854
   38.445    0.3389
   38.490    0.3389
   38.535    0.2319
   38.580    0.3032
   38.625    0.3924
   38.670    0.2319
   38.715    0.2675
   38.760    0.3924
   38.805    0.2675
   38.850    0.2854
   38.895    0.2140
   38.940    0.3567
   38.985    0.2319
   39.030    0.2675
   39.075    0.2497
   39.120    0.2854
   39.165    0.1783
   39.210    0.3567
   39.255    0.3567
   39.300    0.3032
   39.345    0.3745
   39.390    0.3210
   39.435    0.2319
   39.480    0.2675
   39.525    0.3745
   39.570    0.2854
   39.615    0.2854
   39.660    0.2497
   39.705    0.3210
   39.750    0.2854
   39.795    0.2319
   39.840    0.2497
   39.885    0.3567
   39.930    0.3032
   39.975    0.2854
   40.020    0.2140
   40.065    0.2854
   40.110    0.3032
   40.155    0.3032
   40.200    0.2675
   40.245    0.2319
   40.290    0.4459
   40.335    0.2497
   40.380    0.2140
   40.425    0.2140
   40.470    0.3032
   40.515    0.2675
   40.560    0.3032
   40.605    0.2140
   40.650    0.2675
   40.695    0.3210
   40.740    0.2319
   40.785    0.2319
   40.830    0.1962
   40.875    0.1783
   40.920    0.1783
   40.965    0.2140
   41.010    0.2319
   41.055    0.1962
   41.100    0.2140
   41.145    0.1427
   41.190    0.2854
   41.235    0.2140
   41.280    0.2319
   41.325    0.2497
   41.370    0.2319
   41.415    0.2497
   41.460    0.2140
   41.505    0.2675
   41.550    0.1962
   41.595    0.2675
   41.640    0.2140
   41.685    0.1962
   41.730    0.1427
   41.775    0.2140
   41.820    0.2497
   41.865    0.2497
   41.910    0.1962
   41.955    0.1962
   42.000    0.2675
   42.045    0.2140
   42.090    0.2319
   42.135    0.1427
   42.180    0.1962
   42.225    0.2497
   42.270    0.1783
   42.315    0.1962
   42.360    0.2319
   42.405    0.1783
   42.450    0.2854
   42.495    0.2675
   42.540    0.2675
   42.585    0.2675
   42.630    0.1248
   42.675    0.1605
   42.720    0.1962
   42.765    0.1783
   42.810    0.1783
   42.855    0.1248
   42.900    0.2140
   42.945    0.1962
   42.990    0.2319
   43.035    0.1427
   43.080    0.1962
   43.125    0.2319
   43.170    0.1962
   43.215    0.0892
   43.260    0.1962
   43.305    0.2854
   43.350    0.2140
   43.395    0.1783
   43.440    0.1962
   43.485    0.2675
   43.530    0.1248
   43.575    0.1962
   43.620    0.2319
   43.665    0.2675
   43.710    0.2854
   43.755    0.1605
   43.800    0.1783
   43.845    0.1427
   43.890    0.2497
   43.935    0.2319
   43.980    0.1783
   44.025    0.2140
   44.070    0.1962
   44.115    0.1783
   44.160    0.1605
   44.205    0.2854
   44.250    0.2319
   44.295    0.2675
   44.340    0.1070
   44.385    0.1962
   44.430    0.3389
   44.475    0.1962
   44.520    0.1605
   44.565    0.1248
   44.610    0.2140
   44.655    0.1605
   44.700    0.1248
   44.745    0.2140
   44.790    0.2854
   44.835    0.1427
   44.880    0.2675
   44.925    0.1783
   44.970    0.1783
   45.015    0.2497
   45.060    0.1962
   45.105    0.2319
   45.150    0.1962
   45.195    0.2140
   45.240    0.2675
   45.285    0.2319
   45.330    0.2140
   45.375    0.1605
   45.420    0.1783
   45.465    0.1427
   45.510    0.1427
   45.555    0.1070
   45.600    0.1248
   45.645    0.1070
   45.690    0.1962
   45.735    0.1605
   45.780    0.0892
   45.825    0.1962
   45.870    0.1962
   45.915    0.2497
   45.960    0.1070
   46.005    0.1962
   46.050    0.0892
   46.095    0.1962
   46.140    0.1783
   46.185    0.2319
   46.230    0.1962
   46.275    0.1248
   46.320    0.1427
   46.365    0.2140
   46.410    0.1427
   46.455    0.1070
   46.500    0.1427
   46.545    0.2140
   46.590    0.1783
   46.635    0.1427
   46.680    0.1605
   46.725    0.2497
   46.770    0.1248
   46.815    0.0892
   46.860    0.1962
   46.905    0.2675
   46.950    0.1783
   46.995    0.1248
   47.040    0.1427
   47.085    0.1605
   47.130    0.1962
   47.175    0.1962
   47.220    0.1605
   47.265    0.1783
   47.310    0.1962
   47.355    0.2140
   47.400    0.2497
   47.445    0.1962
   47.490    0.1962
   47.535    0.3389
   47.580    0.1605
   47.625    0.1605
   47.670    0.2140
   47.715    0.2140
   47.760    0.1962
   47.805    0.1783
   47.850    0.0892
   47.895    0.1783
   47.940    0.0892
   47.985    0.1605
   48.030    0.1783
   48.075    0.1962
   48.120    0.1605
   48.165    0.1783
   48.210    0.2497
   48.255    0.1070
   48.300    0.1783
   48.345    0.1427
   48.390    0.1070
   48.435    0.2140
   48.480    0.0892
   48.525    0.1783
   48.570    0.1783
   48.615    0.1783
   48.660    0.1605
   48.705    0.1070
   48.750    0.0892
   48.795    0.1783
   48.840    0.1605
   48.885    0.1783
   48.930    0.1605
   48.975    0.1962
   49.020    0.1427
   49.065    0.2675
   49.110    0.1605
   49.155    0.1783
   49.200    0.1070
   49.245    0.1070
   49.290    0.2140
   49.335    0.2675
   49.380    0.1605
   49.425    0.1427
   49.470    0.1427
   49.515    0.0892
   49.560    0.1783
   49.605    0.1248
   49.650    0.1248
   49.695    0.2140
   49.740    0.1248
   49.785    0.1248
   49.830    0.1962
   49.875    0.1070
   49.920    0.1248
   49.965    0.2140
   50.010    0.1783
   50.055    0.1070
   50.100    0.1427
   50.145    0.2140
   50.190    0.1783
   50.235    0.1248
   50.280    0.1962
   50.325    0.1605
   50.370    0.1248
   50.415    0.1248
   50.460    0.1962
   50.505    0.1605
   50.550    0.1605
   50.595    0.2140
   50.640    0.1427
   50.685    0.1248
   50.730    0.2854
   50.775    0.1962
   50.820    0.1427
   50.865    0.0892
   50.910    0.1427
   50.955    0.1248
   51.000    0.1248
   51.045    0.1248
   51.090    0.1248
   51.135    0.1427
   51.180    0.1427
   51.225    0.2140
   51.270    0.1962
   51.315    0.1070
   51.360    0.1962
   51.405    0.1427
   51.450    0.0892
   51.495    0.1783
   51.540    0.0892
   51.585    0.1605
   51.630    0.1427
   51.675    0.1783
   51.720    0.1605
   51.765    0.0357
   51.810    0.1783
   51.855    0.0713
   51.900    0.1070
   51.945    0.1070
   51.990    0.1962
   52.035    0.1427
   52.080    0.0892
   52.125    0.1070
   52.170    0.0892
   52.215    0.0713
   52.260    0.0892
   52.305    0.0535
   52.350    0.1070
   52.395    0.1427
   52.440    0.0713
   52.485    0.1427
   52.530    0.1427
   52.575    0.1248
   52.620    0.2319
   52.665    0.1070
   52.710    0.0892
   52.755    0.0892
   52.800    0.1605
   52.845    0.1783
   52.890    0.0713
   52.935    0.1962
   52.980    0.1248
   53.025    0.1605
   53.070    0.0892
   53.115    0.0892
   53.160    0.1248
   53.205    0.1248
   53.250    0.0535
   53.295    0.1248
   53.340    0.0892
   53.385    0.1605
   53.430    0.0535
   53.475    0.1248
   53.520    0.0892
   53.565    0.1605
   53.610    0.1248
   53.655    0.1070
   53.700    0.1783
   53.745    0.1427
   53.790    0.1427
   53.835    0.1783
   53.880    0.0892
   53.925    0.1070
   53.970    0.1427
   54.015    0.0713
   54.060    0.1248
   54.105    0.0178
   54.150    0.1070
   54.195    0.1783
   54.240    0.1605
   54.285    0.1783
   54.330    0.1783
   54.375    0.1605
   54.420    0.2140
   54.465    0.1427
   54.510    0.1783
   54.555    0.1070
   54.600    0.0535
   54.645    0.1605
   54.690    0.1070
   54.735    0.1783
   54.780    0.1248
   54.825    0.1248
   54.870    0.0892
   54.915    0.0892
   54.960    0.1070
   55.005    0.0892
   55.050    0.1962
   55.095    0.0892
   55.140    0.0713
   55.185    0.1248
   55.230    0.1248
   55.275    0.1427
   55.320    0.0713
   55.365    0.1248
   55.410    0.0713
   55.455    0.1605
   55.500    0.0713
   55.545    0.1070
   55.590    0.0892
   55.635    0.1783
   55.680    0.1962
   55.725    0.1248
   55.770    0.0713
   55.815    0.1248
   55.860    0.0357
   55.905    0.1070
   55.950    0.0713
   55.995    0.1070
   56.040    0.0713
   56.085    0.1248
   56.130    0.1070
   56.175    0.1070
   56.220    0.0892
   56.265    0.1070
   56.310    0.1962
   56.355    0.0357
   56.400    0.0892
   56.445    0.1248
   56.490    0.1605
   56.535    0.0892
   56.580    0.0892
   56.625    0.1605
   56.670    0.1427
   56.715    0.1783
   56.760    0.1248
   56.805    0.1248
   56.850    0.1605
   56.895    0.2140
   56.940    0.1070
   56.985    0.1427
   57.030    0.1783
   57.075    0.1248
   57.120    0.0535
   57.165    0.0713
   57.210    0.1248
   57.255    0.1962
   57.300    0.0892
   57.345    0.1605
   57.390    0.1248
   57.435    0.0713
   57.480    0.0713
   57.525    0.1427
   57.570    0.1248
   57.615    0.1427
   57.660    0.0892
   57.705    0.0892
   57.750    0.1248
   57.795    0.1248
   57.840    0.0535
   57.885    0.1248
   57.930    0.1427
   57.975    0.1248
   58.020    0.1070
   58.065    0.1248
   58.110    0.1248
   58.155    0.0713
   58.200    0.1605
   58.245    0.0713
   58.290    0.2140
   58.335    0.0713
   58.380    0.0713
   58.425    0.1427
   58.470    0.1427
   58.515    0.1248
   58.560    0.1427
   58.605    0.0713
   58.650    0.1605
   58.695    0.0892
   58.740    0.0535
   58.785    0.1427
   58.830    0.1605
   58.875    0.1427
   58.920    0.1070
   58.965    0.1427
   59.010    0.1427
   59.055    0.1248
   59.100    0.1783
   59.145    0.0892
   59.190    0.0892
   59.235    0.0892
   59.280    0.1427
   59.325    0.0535
   59.370    0.0892
   59.415    0.1962
   59.460    0.1962
   59.505    0.0713
   59.550    0.1248
   59.595    0.0713
   59.640    0.1070
   59.685    0.0713
   59.730    0.1070
   59.775    0.1248
   59.820    0.1248
   59.865    0.0892
   59.910    0.0713
   59.955    0.1248
   59.985    0.1248