File: data/MOCOF-1/PXRD/PXRD_KE-178-2_Co-Ka1_capillary-1mm_5s-deg.xyd
    1.500   15.7517
    1.530   15.2595
    1.560   14.2322
    1.590   13.5474
    1.620   13.1086
    1.650   11.8352
    1.680   11.2146
    1.710   11.3323
    1.740   10.1017
    1.770    9.7913
    1.800    9.4275
    1.830    8.6998
    1.860    8.3574
    1.890    7.9294
    1.920    7.1910
    1.950    7.3194
    1.980    6.8379
    2.010    6.7523
    2.040    6.3670
    2.070    6.0995
    2.100    5.7999
    2.130    5.6929
    2.160    5.3291
    2.190    5.2327
    2.220    4.8047
    2.250    4.6549
    2.280    4.4088
    2.310    4.5051
    2.340    4.1306
    2.370    3.9379
    2.400    4.2055
    2.430    4.0342
    2.460    3.4564
    2.490    3.3922
    2.520    3.6062
    2.550    3.4671
    2.580    3.1140
    2.610    3.1033
    2.640    3.1675
    2.670    3.1354
    2.700    2.7929
    2.730    2.8036
    2.760    2.7608
    2.790    2.6645
    2.820    2.7715
    2.850    2.5040
    2.880    2.6966
    2.910    2.5040
    2.940    2.0653
    2.970    2.0011
    3.000    2.4719
    3.030    2.2579
    3.060    2.3649
    3.090    1.9476
    3.120    2.1295
    3.150    2.1402
    3.180    2.1188
    3.210    2.1402
    3.240    1.8941
    3.270    1.9262
    3.300    1.7014
    3.330    1.8192
    3.360    1.7549
    3.390    1.8513
    3.420    1.8941
    3.450    1.9262
    3.480    1.6693
    3.510    1.7978
    3.540    1.7228
    3.570    1.8085
    3.600    1.6693
    3.630    1.6693
    3.660    1.5195
    3.690    1.5623
    3.720    1.7121
    3.750    1.6800
    3.780    1.7121
    3.810    1.7014
    3.840    1.5837
    3.870    1.7335
    3.900    1.7978
    3.930    1.7121
    3.960    1.6051
    3.990    1.4981
    4.020    1.8727
    4.050    1.7014
    4.080    1.8620
    4.110    1.5730
    4.140    1.8192
    4.170    2.0760
    4.200    2.2579
    4.230    2.2151
    4.260    2.2151
    4.290    2.2258
    4.320    2.6324
    4.350    2.6538
    4.380    2.7929
    4.410    2.9535
    4.440    4.1520
    4.470    4.0449
    4.500    4.4302
    4.530    4.7512
    4.560    3.3173
    4.590    2.3863
    4.620    1.6051
    4.650    1.9690
    4.680    1.6265
    4.710    1.5195
    4.740    1.6372
    4.770    1.3483
    4.800    1.5837
    4.830    1.4446
    4.860    1.3804
    4.890    1.4232
    4.920    1.4018
    4.950    1.4553
    4.980    1.4767
    5.010    1.4446
    5.040    1.3804
    5.070    1.2734
    5.100    1.3483
    5.130    1.1771
    5.160    1.2948
    5.190    1.3697
    5.220    1.2948
    5.250    1.3162
    5.280    1.2092
    5.310    1.1129
    5.340    1.3590
    5.370    1.3055
    5.400    1.3697
    5.430    1.2306
    5.460    1.1557
    5.490    1.1771
    5.520    1.3697
    5.550    1.1022
    5.580    1.1236
    5.610    1.1557
    5.640    1.1022
    5.670    1.2520
    5.700    1.1771
    5.730    1.2092
    5.760    1.1450
    5.790    1.1878
    5.820    1.0701
    5.850    1.2306
    5.880    1.1771
    5.910    1.2092
    5.940    1.0273
    5.970    1.1129
    6.000    1.1236
    6.030    1.1878
    6.060    1.2520
    6.090    1.0808
    6.120    1.1771
    6.150    1.3483
    6.180    1.2520
    6.210    1.2306
    6.240    1.3376
    6.270    1.3911
    6.300    1.3376
    6.330    1.3911
    6.360    1.3911
    6.390    1.6586
    6.420    1.4874
    6.450    1.1985
    6.480    1.2306
    6.510    1.1022
    6.540    1.2734
    6.570    1.1129
    6.600    1.0059
    6.630    1.2306
    6.660    1.0380
    6.690    1.1236
    6.720    1.1985
    6.750    1.0273
    6.780    1.0380
    6.810    0.9738
    6.840    1.1236
    6.870    1.0380
    6.900    1.1878
    6.930    1.1022
    6.960    1.0059
    6.990    1.1557
    7.020    1.1450
    7.050    0.9845
    7.080    1.1878
    7.110    1.1129
    7.140    0.9524
    7.170    1.2413
    7.200    1.2520
    7.230    1.0380
    7.260    1.1129
    7.290    1.0915
    7.320    1.1557
    7.350    0.9631
    7.380    0.9952
    7.410    1.0701
    7.440    1.0701
    7.470    0.9524
    7.500    1.2306
    7.530    1.0487
    7.560    1.1450
    7.590    1.1771
    7.620    1.0808
    7.650    1.1129
    7.680    1.1985
    7.710    1.1878
    7.740    1.2199
    7.770    1.2092
    7.800    1.2841
    7.830    1.0487
    7.860    1.2306
    7.890    1.1450
    7.920    0.9845
    7.950    1.1129
    7.980    1.0166
    8.010    1.0166
    8.040    1.0166
    8.070    1.1557
    8.100    1.1878
    8.130    1.2306
    8.160    1.2306
    8.190    1.1450
    8.220    1.2199
    8.250    0.9738
    8.280    0.9952
    8.310    1.1343
    8.340    1.2948
    8.370    1.2627
    8.400    1.1236
    8.430    1.2627
    8.460    1.1343
    8.490    1.3162
    8.520    1.1022
    8.550    1.1450
    8.580    1.2306
    8.610    1.4125
    8.640    1.1343
    8.670    1.1771
    8.700    1.1771
    8.730    1.2413
    8.760    1.3162
    8.790    1.1557
    8.820    1.2199
    8.850    1.4339
    8.880    1.3162
    8.910    1.1557
    8.940    1.4446
    8.970    1.4446
    9.000    1.2948
    9.030    1.4553
    9.060    1.4660
    9.090    1.3055
    9.120    1.4446
    9.150    1.3269
    9.180    1.1878
    9.210    1.2199
    9.240    1.4232
    9.270    1.2092
    9.300    1.2306
    9.330    1.3055
    9.360    1.2520
    9.390    1.2092
    9.420    1.2520
    9.450    1.2627
    9.480    1.3376
    9.510    1.1343
    9.540    1.2199
    9.570    1.3162
    9.600    1.2841
    9.630    1.1236
    9.660    1.3055
    9.690    1.4767
    9.720    1.3055
    9.750    1.3483
    9.780    1.2413
    9.810    1.3804
    9.840    1.2948
    9.870    1.3483
    9.900    1.5409
    9.930    1.2948
    9.960    1.3055
    9.990    1.4981
   10.020    1.2520
   10.050    1.4660
   10.080    1.4232
   10.110    1.3162
   10.140    1.3804
   10.170    1.4018
   10.200    1.3697
   10.230    1.5516
   10.260    1.4446
   10.290    1.4339
   10.320    1.3162
   10.350    1.3590
   10.380    1.5837
   10.410    1.4874
   10.440    1.5088
   10.470    1.4874
   10.500    1.2520
   10.530    1.4981
   10.560    1.3804
   10.590    1.6479
   10.620    1.5302
   10.650    1.4553
   10.680    1.4660
   10.710    1.5195
   10.740    1.3697
   10.770    1.6265
   10.800    1.3697
   10.830    1.4339
   10.860    1.7549
   10.890    1.4767
   10.920    1.6586
   10.950    1.5088
   10.980    1.4767
   11.010    1.4874
   11.040    1.7549
   11.070    1.5837
   11.100    1.7442
   11.130    1.9262
   11.160    1.5195
   11.190    1.6907
   11.220    1.5730
   11.250    1.5837
   11.280    1.7442
   11.310    1.7871
   11.340    1.5409
   11.370    1.5088
   11.400    1.6158
   11.430    1.7121
   11.460    1.4339
   11.490    1.5088
   11.520    1.5088
   11.550    1.5195
   11.580    1.4125
   11.610    1.5516
   11.640    1.6479
   11.670    1.5730
   11.700    1.5730
   11.730    1.5944
   11.760    1.6907
   11.790    1.5302
   11.820    1.5730
   11.850    1.7549
   11.880    1.3376
   11.910    1.9583
   11.940    1.8085
   11.970    1.5195
   12.000    1.6372
   12.030    1.4660
   12.060    1.5088
   12.090    1.6158
   12.120    1.5302
   12.150    1.3590
   12.180    1.4767
   12.210    1.4446
   12.240    1.5837
   12.270    1.4874
   12.300    1.4874
   12.330    1.4446
   12.360    1.3804
   12.390    1.6158
   12.420    1.5623
   12.450    1.5195
   12.480    1.5195
   12.510    1.4339
   12.540    1.4981
   12.570    1.4660
   12.600    1.4767
   12.630    1.4232
   12.660    1.4446
   12.690    1.5088
   12.720    1.5302
   12.750    1.4232
   12.780    1.4874
   12.810    1.4232
   12.840    1.5302
   12.870    1.6693
   12.900    1.3376
   12.930    1.3911
   12.960    1.3804
   12.990    1.4018
   13.020    1.4981
   13.050    1.4446
   13.080    1.4446
   13.110    1.5302
   13.140    1.3055
   13.170    1.2948
   13.200    1.3483
   13.230    1.3697
   13.260    1.1557
   13.290    1.3055
   13.320    1.3376
   13.350    1.1878
   13.380    1.3697
   13.410    1.1343
   13.440    1.4767
   13.470    1.2948
   13.500    1.2306
   13.530    1.2520
   13.560    1.2413
   13.590    1.2734
   13.620    1.3269
   13.650    1.2306
   13.680    1.1343
   13.710    1.3055
   13.740    1.2306
   13.770    1.2306
   13.800    1.3162
   13.830    1.2841
   13.860    1.2306
   13.890    1.0915
   13.920    1.3055
   13.950    0.9738
   13.980    1.0166
   14.010    1.1664
   14.040    1.1022
   14.070    1.0380
   14.100    1.1557
   14.130    1.0594
   14.160    1.3269
   14.190    1.1878
   14.220    1.0701
   14.250    1.0915
   14.280    0.9524
   14.310    1.2092
   14.340    1.0273
   14.370    1.1236
   14.400    1.1129
   14.430    1.0915
   14.460    1.1343
   14.490    1.0808
   14.520    1.0915
   14.550    1.0701
   14.580    0.8668
   14.610    1.1450
   14.640    0.9631
   14.670    0.9952
   14.700    1.1236
   14.730    1.1664
   14.760    1.1450
   14.790    1.0487
   14.820    1.1343
   14.850    1.0059
   14.880    0.9417
   14.910    1.0915
   14.940    1.0808
   14.970    1.0701
   15.000    1.3055
   15.030    1.0594
   15.060    1.1129
   15.090    1.2092
   15.120    1.2520
   15.150    1.0273
   15.180    0.9203
   15.210    1.1878
   15.240    1.0166
   15.270    0.9952
   15.300    1.1022
   15.330    1.0273
   15.360    0.9631
   15.390    1.1343
   15.420    0.9203
   15.450    1.0166
   15.480    1.0059
   15.510    1.0273
   15.540    1.0487
   15.570    0.9631
   15.600    0.9417
   15.630    1.0487
   15.660    1.0487
   15.690    1.0273
   15.720    1.1129
   15.750    0.9845
   15.780    1.0273
   15.810    0.9631
   15.840    1.0808
   15.870    1.0808
   15.900    1.0594
   15.930    0.9203
   15.960    1.0059
   15.990    1.1129
   16.020    0.9952
   16.050    1.0059
   16.080    1.1022
   16.110    1.0166
   16.140    0.9631
   16.170    1.0059
   16.200    0.9952
   16.230    1.1129
   16.260    0.9524
   16.290    1.0059
   16.320    1.0380
   16.350    1.3055
   16.380    1.0380
   16.410    1.0380
   16.440    0.9952
   16.470    1.0701
   16.500    0.9952
   16.530    0.9096
   16.560    0.9845
   16.590    0.9952
   16.620    1.0487
   16.650    0.9096
   16.680    0.8133
   16.710    1.0273
   16.740    1.1557
   16.770    0.8989
   16.800    1.0701
   16.830    0.9738
   16.860    1.0487
   16.890    0.9096
   16.920    0.9952
   16.950    0.9524
   16.980    1.0701
   17.010    1.1236
   17.040    1.1236
   17.070    1.0380
   17.100    0.9952
   17.130    0.9524
   17.160    0.9631
   17.190    1.0487
   17.220    1.0915
   17.250    0.9738
   17.280    0.9738
   17.310    1.0487
   17.340    1.0166
   17.370    1.0059
   17.400    0.9952
   17.430    1.1343
   17.460    0.9631
   17.490    0.9952
   17.520    1.0059
   17.550    0.9417
   17.580    0.8775
   17.610    1.1129
   17.640    0.8989
   17.670    1.0594
   17.700    0.8026
   17.730    1.0487
   17.760    0.9524
   17.790    1.1985
   17.820    0.8133
   17.850    0.9631
   17.880    0.8668
   17.910    0.8454
   17.940    0.9738
   17.970    1.0487
   18.000    1.0380
   18.030    1.0915
   18.060    1.0701
   18.090    0.9952
   18.120    0.9845
   18.150    0.9524
   18.180    0.8668
   18.210    1.0166
   18.240    0.9631
   18.270    1.1129
   18.300    0.9845
   18.330    1.0915
   18.360    1.0166
   18.390    0.8882
   18.420    0.9203
   18.450    1.0273
   18.480    1.0808
   18.510    0.9310
   18.540    1.1236
   18.570    1.1022
   18.600    0.9524
   18.630    0.9524
   18.660    0.9845
   18.690    1.0380
   18.720    0.9203
   18.750    1.1022
   18.780    1.0808
   18.810    1.2092
   18.840    1.1771
   18.870    0.9738
   18.900    0.9310
   18.930    0.8240
   18.960    0.9738
   18.990    0.9631
   19.020    0.9738
   19.050    0.8026
   19.080    1.1557
   19.110    0.9738
   19.140    0.9524
   19.170    0.8882
   19.200    0.8882
   19.230    1.0487
   19.260    0.9845
   19.290    1.0273
   19.320    1.1557
   19.350    0.9417
   19.380    1.0594
   19.410    0.9845
   19.440    1.0808
   19.470    1.0808
   19.500    0.8882
   19.530    1.0059
   19.560    1.0166
   19.590    1.0166
   19.620    0.8561
   19.650    1.1022
   19.680    0.9417
   19.710    0.8882
   19.740    0.9952
   19.770    1.0594
   19.800    1.0808
   19.830    1.0059
   19.860    1.1129
   19.890    1.1343
   19.920    1.0594
   19.950    1.0166
   19.980    1.1878
   20.010    0.9417
   20.040    1.1771
   20.070    0.9738
   20.100    0.9952
   20.130    0.9524
   20.160    0.9845
   20.190    1.1771
   20.220    0.9417
   20.250    1.0701
   20.280    1.1236
   20.310    1.0380
   20.340    1.1450
   20.370    1.1343
   20.400    1.0380
   20.430    1.0273
   20.460    0.8668
   20.490    0.9310
   20.520    1.1129
   20.550    0.9738
   20.580    0.9631
   20.610    0.9203
   20.640    1.0059
   20.670    1.1450
   20.700    0.9417
   20.730    0.9952
   20.760    0.9631
   20.790    1.0701
   20.820    1.1343
   20.850    0.9524
   20.880    1.1557
   20.910    0.9203
   20.940    0.9203
   20.970    1.0380
   21.000    0.9310
   21.030    0.9952
   21.060    1.2092
   21.090    1.0594
   21.120    1.1450
   21.150    0.9738
   21.180    0.9845
   21.210    0.9738
   21.240    1.0594
   21.270    1.0594
   21.300    0.9738
   21.330    1.0166
   21.360    1.0487
   21.390    1.0166
   21.420    0.9952
   21.450    1.0594
   21.480    0.9524
   21.510    1.0701
   21.540    1.0808
   21.570    1.0701
   21.600    1.0915
   21.630    1.0166
   21.660    1.0166
   21.690    1.1450
   21.720    1.0380
   21.750    1.1450
   21.780    0.9417
   21.810    1.0380
   21.840    0.9203
   21.870    1.2306
   21.900    1.0701
   21.930    0.9845
   21.960    1.0808
   21.990    1.0915
   22.020    0.9952
   22.050    1.2520
   22.080    0.9096
   22.110    1.0915
   22.140    1.0594
   22.170    1.0701
   22.200    1.0487
   22.230    1.0701
   22.260    0.7919
   22.290    1.1129
   22.320    1.1022
   22.350    0.9738
   22.380    1.0380
   22.410    1.1664
   22.440    1.2520
   22.470    0.9845
   22.500    0.9096
   22.530    0.9845
   22.560    0.9738
   22.590    1.0059
   22.620    1.1557
   22.650    0.8989
   22.680    1.0594
   22.710    1.2306
   22.740    1.0487
   22.770    1.0273
   22.800    1.1450
   22.830    1.1236
   22.860    1.0915
   22.890    1.0915
   22.920    1.1450
   22.950    0.9952
   22.980    1.0915
   23.010    1.1236
   23.040    1.0059
   23.070    1.0915
   23.100    1.0701
   23.130    0.8882
   23.160    1.0273
   23.190    0.9845
   23.220    1.1664
   23.250    1.2520
   23.280    0.9096
   23.310    1.0594
   23.340    1.0701
   23.370    1.1129
   23.400    1.0915
   23.430    1.1771
   23.460    1.1022
   23.490    1.2841
   23.520    1.1450
   23.550    0.9845
   23.580    0.9631
   23.610    0.9631
   23.640    0.9417
   23.670    1.0915
   23.700    1.1450
   23.730    1.1771
   23.760    1.1343
   23.790    1.1664
   23.820    1.2092
   23.850    1.0380
   23.880    1.2092
   23.910    1.0594
   23.940    1.0380
   23.970    1.0915
   24.000    1.1343
   24.030    1.0059
   24.060    1.0808
   24.090    1.1450
   24.120    1.0701
   24.150    1.1985
   24.180    0.9631
   24.210    1.1129
   24.240    1.1129
   24.270    0.9310
   24.300    1.2413
   24.330    1.0166
   24.360    1.2092
   24.390    1.1664
   24.420    1.2306
   24.450    1.1450
   24.480    1.1557
   24.510    1.1022
   24.540    1.0701
   24.570    1.0594
   24.600    1.0487
   24.630    1.2199
   24.660    1.0701
   24.690    1.0701
   24.720    1.1343
   24.750    1.0380
   24.780    1.2520
   24.810    1.2306
   24.840    1.1664
   24.870    1.0594
   24.900    1.0808
   24.930    1.1878
   24.960    1.0594
   24.990    1.0808
   25.020    1.2520
   25.050    1.2734
   25.080    1.1022
   25.110    1.0915
   25.140    1.3483
   25.170    1.1985
   25.200    1.0915
   25.230    1.0701
   25.260    1.1557
   25.290    1.1450
   25.320    1.1022
   25.350    1.1343
   25.380    1.0594
   25.410    1.2413
   25.440    1.1450
   25.470    1.1771
   25.500    1.1771
   25.530    1.2306
   25.560    0.9310
   25.590    1.1022
   25.620    1.0915
   25.650    1.1343
   25.680    1.0808
   25.710    1.0273
   25.740    1.3269
   25.770    1.3162
   25.800    1.1771
   25.830    1.2413
   25.860    0.9952
   25.890    1.2734
   25.920    1.0808
   25.950    1.0273
   25.980    1.3590
   26.010    1.3269
   26.040    1.3055
   26.070    1.3162
   26.100    1.2520
   26.130    1.3055
   26.160    1.1236
   26.190    1.2199
   26.220    1.2199
   26.250    1.1878
   26.280    1.1771
   26.310    1.3055
   26.340    1.3269
   26.370    1.0166
   26.400    1.2306
   26.430    1.0808
   26.460    1.1771
   26.490    1.1664
   26.520    1.2199
   26.550    1.1771
   26.580    1.1985
   26.610    1.0594
   26.640    1.1022
   26.670    1.2948
   26.700    1.2199
   26.730    1.3055
   26.760    1.2520
   26.790    1.1450
   26.820    1.1450
   26.850    1.1878
   26.880    1.0166
   26.910    1.1343
   26.940    1.1557
   26.970    1.0273
   27.000    1.2627
   27.030    1.1771
   27.060    1.0273
   27.090    1.1129
   27.120    1.0915
   27.150    1.1022
   27.180    1.1129
   27.210    1.0701
   27.240    1.0166
   27.270    1.3269
   27.300    1.1557
   27.330    1.0701
   27.360    1.1450
   27.390    1.1985
   27.420    1.2306
   27.450    1.1343
   27.480    1.0701
   27.510    1.0166
   27.540    1.0166
   27.570    1.1664
   27.600    1.1343
   27.630    1.1664
   27.660    0.9845
   27.690    1.0701
   27.720    1.0915
   27.750    1.1664
   27.780    1.0487
   27.810    1.0915
   27.840    0.8775
   27.870    1.2306
   27.900    1.1129
   27.930    1.1236
   27.960    1.1878
   27.990    1.0701
   28.020    1.0166
   28.050    1.1450
   28.080    1.1236
   28.110    1.1022
   28.140    1.1557
   28.170    1.0808
   28.200    1.0059
   28.230    0.9845
   28.260    1.1771
   28.290    1.1343
   28.320    1.1343
   28.350    1.0380
   28.380    0.9845
   28.410    1.0273
   28.440    1.0915
   28.470    1.2520
   28.500    0.9952
   28.530    1.1878
   28.560    0.9845
   28.590    1.0487
   28.620    0.9845
   28.650    1.0701
   28.680    1.0166
   28.710    1.0808
   28.740    1.1878
   28.770    0.9524
   28.800    1.0594
   28.830    1.0166
   28.860    1.0487
   28.890    1.0594
   28.920    1.0808
   28.950    1.0273
   28.980    1.0059
   29.010    1.0594
   29.040    1.1450
   29.070    1.0487
   29.100    1.0701
   29.130    1.1450
   29.160    1.1450
   29.190    1.1129
   29.220    0.9738
   29.250    1.0594
   29.280    1.0166
   29.310    1.1450
   29.340    1.0701
   29.370    0.8882
   29.400    1.1343
   29.430    0.9952
   29.460    0.9631
   29.490    0.9096
   29.520    1.0166
   29.550    1.0808
   29.580    1.1236
   29.610    0.9417
   29.640    0.9738
   29.670    0.8561
   29.700    0.8454
   29.730    0.9417
   29.760    0.9845
   29.790    0.8882
   29.820    1.0273
   29.850    1.1129
   29.880    1.1236
   29.910    0.9631
   29.940    1.1343
   29.970    1.0166
   30.000    1.1343
   30.030    1.0059
   30.060    0.8882
   30.090    0.8989
   30.120    0.8775
   30.150    0.7491
   30.180    0.8561
   30.210    0.9631
   30.240    0.9952
   30.270    1.0166
   30.300    0.9310
   30.330    1.0380
   30.360    1.0701
   30.390    1.0915
   30.420    0.9203
   30.450    0.9952
   30.480    0.9310
   30.510    0.9417
   30.540    0.9845
   30.570    0.8989
   30.600    1.1022
   30.630    0.9096
   30.660    0.8347
   30.690    0.9845
   30.720    1.1022
   30.750    1.0059
   30.780    0.8347
   30.810    0.6956
   30.840    0.9096
   30.870    0.9524
   30.900    0.8454
   30.930    0.8561
   30.960    0.8454
   30.990    0.8561
   31.020    1.0380
   31.050    0.9203
   31.080    0.9417
   31.110    0.9952
   31.140    0.8561
   31.170    0.9310
   31.200    0.8668
   31.230    0.8668
   31.260    0.8775
   31.290    1.1557
   31.320    0.8347
   31.350    0.8775
   31.380    0.7598
   31.410    0.9096
   31.440    0.8989
   31.470    0.8989
   31.500    0.9096
   31.530    0.9631
   31.560    0.8775
   31.590    0.9524
   31.620    0.9310
   31.650    0.8775
   31.680    0.8347
   31.710    0.8240
   31.740    0.9203
   31.770    0.9203
   31.800    0.7919
   31.830    0.7812
   31.860    0.9631
   31.890    0.9631
   31.920    0.9096
   31.950    0.7170
   31.980    0.8775
   32.010    0.8989
   32.040    0.9417
   32.070    0.6742
   32.100    0.8882
   32.130    0.7063
   32.160    0.8775
   32.190    0.8347
   32.220    0.7705
   32.250    0.7384
   32.280    0.8668
   32.310    0.8026
   32.340    1.0594
   32.370    0.8026
   32.400    0.8240
   32.430    0.8561
   32.460    0.7491
   32.490    0.8882
   32.520    0.8347
   32.550    0.7384
   32.580    0.8133
   32.610    0.7705
   32.640    0.8454
   32.670    0.8775
   32.700    0.8561
   32.730    0.7598
   32.760    0.9524
   32.790    1.0594
   32.820    0.8454
   32.850    0.9203
   32.880    0.7705
   32.910    0.7491
   32.940    0.7598
   32.970    0.8240
   33.000    0.8347
   33.030    0.8240
   33.060    0.8347
   33.090    0.7491
   33.120    0.6956
   33.150    0.9524
   33.180    0.8026
   33.210    0.8668
   33.240    0.7063
   33.270    0.8240
   33.300    0.7598
   33.330    0.6528
   33.360    0.8882
   33.390    0.8882
   33.420    0.7705
   33.450    0.7705
   33.480    0.6956
   33.510    0.7919
   33.540    0.6635
   33.570    0.8240
   33.600    0.6742
   33.630    0.9417
   33.660    0.7170
   33.690    0.7812
   33.720    0.8240
   33.750    0.7277
   33.780    0.6635
   33.810    0.7277
   33.840    0.7491
   33.870    0.7277
   33.900    0.6421
   33.930    0.8133
   33.960    0.6421
   33.990    0.7170
   34.020    0.8668
   34.050    0.6956
   34.080    0.5457
   34.110    0.7384
   34.140    0.7170
   34.170    0.7598
   34.200    0.7919
   34.230    0.7812
   34.260    0.7170
   34.290    0.7812
   34.320    0.6635
   34.350    0.8240
   34.380    0.7491
   34.410    0.7598
   34.440    0.7598
   34.470    0.6207
   34.500    0.6849
   34.530    0.6314
   34.560    0.7063
   34.590    0.7384
   34.620    0.7170
   34.650    0.6528
   34.680    0.6849
   34.710    0.5029
   34.740    0.5886
   34.770    0.7063
   34.800    0.7384
   34.830    0.8240
   34.860    0.7063
   34.890    0.6528
   34.920    0.6742
   34.950    0.6849
   34.980    0.5564
   35.010    0.7277
   35.040    0.7919
   35.070    0.6100
   35.100    0.6528
   35.130    0.7170
   35.160    0.6635
   35.190    0.6207
   35.220    0.7170
   35.250    0.7919
   35.280    0.7277
   35.310    0.6421
   35.340    0.6742
   35.370    0.7705
   35.400    0.6742
   35.430    0.6314
   35.460    0.6421
   35.490    0.7384
   35.520    0.5778
   35.550    0.6421
   35.580    0.6956
   35.610    0.6207
   35.640    0.7384
   35.670    0.6956
   35.700    0.5886
   35.730    0.6314
   35.760    0.6421
   35.790    0.7170
   35.820    0.5886
   35.850    0.5778
   35.880    0.5993
   35.910    0.6849
   35.940    0.4922
   35.970    0.7170
   36.000    0.6528
   36.030    0.6635
   36.060    0.6528
   36.090    0.6528
   36.120    0.7170
   36.150    0.5671
   36.180    0.6314
   36.210    0.6956
   36.240    0.5564
   36.270    0.6314
   36.300    0.6849
   36.330    0.5136
   36.360    0.6528
   36.390    0.6314
   36.420    0.6635
   36.450    0.6314
   36.480    0.6100
   36.510    0.6100
   36.540    0.5350
   36.570    0.5993
   36.600    0.5671
   36.630    0.6421
   36.660    0.6421
   36.690    0.6100
   36.720    0.7170
   36.750    0.7277
   36.780    0.5136
   36.810    0.5993
   36.840    0.5993
   36.870    0.6314
   36.900    0.6100
   36.930    0.5136
   36.960    0.5993
   36.990    0.5993
   37.020    0.5564
   37.050    0.5993
   37.080    0.5993
   37.110    0.6635
   37.140    0.5993
   37.170    0.5778
   37.200    0.5136
   37.230    0.6635
   37.260    0.5886
   37.290    0.5564
   37.320    0.6314
   37.350    0.4922
   37.380    0.5564
   37.410    0.5778
   37.440    0.6421
   37.470    0.5029
   37.500    0.6314
   37.530    0.6207
   37.560    0.5350
   37.590    0.5243
   37.620    0.4708
   37.650    0.5457
   37.680    0.5564
   37.710    0.4708
   37.740    0.5671
   37.770    0.5671
   37.800    0.5029
   37.830    0.4815
   37.860    0.5243
   37.890    0.4815
   37.920    0.5671
   37.950    0.6314
   37.980    0.5457
   38.010    0.4173
   38.040    0.4708
   38.070    0.4708
   38.100    0.6207
   38.130    0.4815
   38.160    0.5778
   38.190    0.6100
   38.220    0.5778
   38.250    0.5993
   38.280    0.4494
   38.310    0.5457
   38.340    0.5564
   38.370    0.6100
   38.400    0.4922
   38.430    0.5350
   38.460    0.4922
   38.490    0.5993
   38.520    0.4922
   38.550    0.6956
   38.580    0.5029
   38.610    0.4387
   38.640    0.4173
   38.670    0.5350
   38.700    0.5029
   38.730    0.4922
   38.760    0.5350
   38.790    0.5564
   38.820    0.5671
   38.850    0.4387
   38.880    0.5243
   38.910    0.5029
   38.940    0.4494
   38.970    0.6100
   39.000    0.5671
   39.030    0.5029
   39.060    0.5457
   39.090    0.5029
   39.120    0.5136
   39.150    0.4066
   39.180    0.5350
   39.210    0.3638
   39.240    0.4708
   39.270    0.4708
   39.300    0.4494
   39.330    0.4387
   39.360    0.5136
   39.390    0.5993
   39.420    0.5029
   39.450    0.6207
   39.480    0.5457
   39.510    0.4815
   39.540    0.5457
   39.570    0.5136
   39.600    0.4601
   39.630    0.5243
   39.660    0.4922
   39.690    0.5243
   39.720    0.4173
   39.750    0.4601
   39.780    0.4280
   39.810    0.5671
   39.840    0.4922
   39.870    0.3745
   39.900    0.4815
   39.930    0.5029
   39.960    0.4494
   39.990    0.4922