File: data/MOCOF-1/PXRD/PXRD_KE-313_Cu-Ka1_film-3mm_3s-deg.xyd
    1.500    6.5824
    1.530    6.3718
    1.560    6.1611
    1.590    6.7930
    1.620    6.4946
    1.650    6.7579
    1.680    6.1787
    1.710    6.2665
    1.740    5.2835
    1.770    6.4771
    1.800    6.3718
    1.830    5.7925
    1.860    5.6521
    1.890    5.2835
    1.920    5.9856
    1.950    5.6170
    1.980    5.4941
    2.010    5.4766
    2.040    5.0377
    2.070    4.9675
    2.100    5.1431
    2.130    5.1431
    2.160    4.9500
    2.190    5.3361
    2.220    5.2308
    2.250    4.7569
    2.280    5.0904
    2.310    5.2484
    2.340    5.0202
    2.370    5.0728
    2.400    4.9324
    2.430    4.5463
    2.460    5.0202
    2.490    4.8973
    2.520    4.8973
    2.550    4.8622
    2.580    5.0728
    2.610    4.9324
    2.640    4.8622
    2.670    4.7218
    2.700    4.9675
    2.730    5.0377
    2.760    4.6867
    2.790    4.9500
    2.820    4.9324
    2.850    5.0553
    2.880    4.7744
    2.910    5.4239
    2.940    5.4941
    2.970    5.4064
    3.000    5.4766
    3.030    5.4766
    3.060    5.7399
    3.090    5.7048
    3.120    6.1085
    3.150    5.8978
    3.180    6.6351
    3.210    6.5473
    3.240    7.3196
    3.270    7.5654
    3.300    8.1622
    3.330    8.7941
    3.360    9.7420
    3.390   10.2861
    3.420   11.1989
    3.450   10.3037
    3.480   10.2159
    3.510    8.6186
    3.540    7.0388
    3.570    6.7404
    3.600    6.2138
    3.630    6.1085
    3.660    5.8978
    3.690    5.6521
    3.720    6.0383
    3.750    5.8803
    3.780    6.1962
    3.810    6.3893
    3.840    6.4244
    3.870    6.1962
    3.900    6.2138
    3.930    6.4069
    3.960    6.4069
    3.990    6.5122
    4.020    6.6877
    4.050    6.7053
    4.080    6.5473
    4.110    6.4595
    4.140    6.1787
    4.170    6.2313
    4.200    5.8276
    4.230    5.4590
    4.260    6.0909
    4.290    5.7925
    4.320    5.3537
    4.350    4.8973
    4.380    4.9149
    4.410    4.6340
    4.440    4.9851
    4.470    5.0202
    4.500    4.2478
    4.530    4.8973
    4.560    4.3356
    4.590    4.5463
    4.620    4.6165
    4.650    4.9324
    4.680    4.1952
    4.710    4.5638
    4.740    4.7920
    4.770    4.7042
    4.800    5.1255
    4.830    4.1425
    4.860    4.1952
    4.890    4.9149
    4.920    4.5111
    4.950    4.4936
    4.980    4.8622
    5.010    4.5638
    5.040    4.8095
    5.070    5.0202
    5.100    4.9149
    5.130    4.7569
    5.160    5.0553
    5.190    5.7574
    5.220    5.4239
    5.250    5.8627
    5.280    5.6521
    5.310    5.6872
    5.340    5.7925
    5.370    5.5819
    5.400    5.9329
    5.430    6.1260
    5.460    6.3893
    5.490    6.1436
    5.520    5.6521
    5.550    5.8101
    5.580    5.8627
    5.610    6.2665
    5.640    6.3191
    5.670    5.7574
    5.700    5.7750
    5.730    5.3361
    5.760    5.1255
    5.790    5.2659
    5.820    5.1782
    5.850    5.1080
    5.880    5.1957
    5.910    4.8447
    5.940    4.7393
    5.970    4.1601
    6.000    4.5814
    6.030    4.7920
    6.060    4.8447
    6.090    4.2830
    6.120    4.2478
    6.150    4.5638
    6.180    4.4936
    6.210    4.4760
    6.240    4.0899
    6.270    4.0021
    6.300    4.0021
    6.330    3.9494
    6.360    4.1074
    6.390    3.6510
    6.420    3.9319
    6.450    4.1425
    6.480    3.7915
    6.510    3.9670
    6.540    3.5106
    6.570    4.2127
    6.600    4.0723
    6.630    4.2127
    6.660    3.9494
    6.690    3.7388
    6.720    3.8617
    6.750    4.0197
    6.780    3.8792
    6.810    4.0197
    6.840    4.2654
    6.870    3.8968
    6.900    3.9319
    6.930    4.0021
    6.960    4.2127
    6.990    3.8968
    7.020    3.7739
    7.050    3.5457
    7.080    3.4931
    7.110    3.6686
    7.140    3.5106
    7.170    3.5282
    7.200    3.3000
    7.230    3.7388
    7.260    3.2122
    7.290    3.4404
    7.320    3.3526
    7.350    3.5457
    7.380    3.7388
    7.410    3.3000
    7.440    3.2122
    7.470    3.0893
    7.500    3.3175
    7.530    2.9138
    7.560    2.8085
    7.590    2.7383
    7.620    2.8612
    7.650    3.4931
    7.680    3.0191
    7.710    3.3000
    7.740    3.0191
    7.770    3.0893
    7.800    3.1596
    7.830    2.8085
    7.860    2.7734
    7.890    3.0893
    7.920    3.1245
    7.950    3.0893
    7.980    2.9138
    8.010    2.7909
    8.040    2.9665
    8.070    3.1245
    8.100    3.2824
    8.130    2.9840
    8.160    3.0191
    8.190    2.9138
    8.220    3.0718
    8.250    2.8787
    8.280    3.2122
    8.310    2.6681
    8.340    2.8436
    8.370    2.7734
    8.400    2.9840
    8.430    2.6681
    8.460    2.7734
    8.490    2.7383
    8.520    2.7383
    8.550    2.8787
    8.580    2.7734
    8.610    2.5628
    8.640    2.8612
    8.670    2.7734
    8.700    2.7032
    8.730    2.4048
    8.760    3.0016
    8.790    2.8963
    8.820    2.3170
    8.850    2.6856
    8.880    2.3346
    8.910    2.4048
    8.940    2.5628
    8.970    2.2643
    9.000    2.3170
    9.030    2.9489
    9.060    2.5979
    9.090    2.5803
    9.120    2.7383
    9.150    2.6681
    9.180    2.5276
    9.210    2.6330
    9.240    2.3697
    9.270    2.5979
    9.300    2.7032
    9.330    2.7558
    9.360    2.6681
    9.390    2.3872
    9.420    2.7032
    9.450    2.2995
    9.480    1.9133
    9.510    2.5276
    9.540    2.3697
    9.570    2.7207
    9.600    2.3521
    9.630    2.6505
    9.660    2.4223
    9.690    2.2292
    9.720    2.8260
    9.750    2.5803
    9.780    2.5979
    9.810    2.3170
    9.840    2.5101
    9.870    2.5452
    9.900    2.2468
    9.930    2.5628
    9.960    2.1590
    9.990    2.4223
   10.020    2.6681
   10.050    2.4399
   10.080    2.7032
   10.110    2.5803
   10.140    2.3872
   10.170    2.3521
   10.200    2.9665
   10.230    2.4223
   10.260    2.7383
   10.290    2.4048
   10.320    2.8085
   10.350    2.8085
   10.380    2.7558
   10.410    2.7032
   10.440    2.8963
   10.470    2.5276
   10.500    2.3346
   10.530    2.7383
   10.560    2.4223
   10.590    2.7909
   10.620    2.5452
   10.650    2.4574
   10.680    2.5628
   10.710    2.7032
   10.740    2.6330
   10.770    2.6154
   10.800    3.0542
   10.830    2.7032
   10.860    2.6856
   10.890    2.7383
   10.920    2.4925
   10.950    2.7207
   10.980    2.9840
   11.010    2.4399
   11.040    2.7032
   11.070    2.5979
   11.100    2.8963
   11.130    2.9138
   11.160    2.5452
   11.190    2.8085
   11.220    2.7909
   11.250    3.0367
   11.280    2.5979
   11.310    2.6681
   11.340    2.8612
   11.370    2.9314
   11.400    2.3170
   11.430    2.7032
   11.460    2.2995
   11.490    2.6681
   11.520    2.7383
   11.550    2.5803
   11.580    2.4750
   11.610    2.7383
   11.640    2.3346
   11.670    2.8085
   11.700    2.4750
   11.730    2.6505
   11.760    2.4399
   11.790    2.9138
   11.820    2.4574
   11.850    2.5803
   11.880    2.3872
   11.910    2.3346
   11.940    2.4750
   11.970    2.6681
   12.000    2.4574
   12.030    2.5101
   12.060    2.6681
   12.090    2.5452
   12.120    2.5452
   12.150    2.5628
   12.180    2.4574
   12.210    2.4574
   12.240    2.5628
   12.270    2.7207
   12.300    2.6505
   12.330    2.6681
   12.360    2.4223
   12.390    2.3521
   12.420    2.6330
   12.450    2.4574
   12.480    2.5979
   12.510    2.5628
   12.540    2.6330
   12.570    2.7383
   12.600    2.7383
   12.630    2.4399
   12.660    2.7734
   12.690    2.5628
   12.720    2.1415
   12.750    2.3697
   12.780    2.5276
   12.810    2.5979
   12.840    2.5452
   12.870    2.3872
   12.900    2.7207
   12.930    2.5979
   12.960    2.5803
   12.990    2.5628
   13.020    2.2468
   13.050    2.4574
   13.080    2.4223
   13.110    2.7032
   13.140    2.2292
   13.170    2.5276
   13.200    2.6154
   13.230    2.3521
   13.260    2.4574
   13.290    2.5979
   13.320    2.5628
   13.350    2.5101
   13.380    2.5979
   13.410    2.2292
   13.440    2.5101
   13.470    2.4399
   13.500    2.8085
   13.530    2.8787
   13.560    2.3170
   13.590    2.2292
   13.620    2.4925
   13.650    2.3872
   13.680    2.9138
   13.710    2.7207
   13.740    2.4399
   13.770    2.3521
   13.800    2.5628
   13.830    2.4574
   13.860    2.4750
   13.890    2.4750
   13.920    2.5628
   13.950    2.7383
   13.980    2.4399
   14.010    2.7207
   14.040    2.5452
   14.070    2.4574
   14.100    2.6681
   14.130    2.6681
   14.160    2.7032
   14.190    2.6856
   14.220    2.6856
   14.250    3.0893
   14.280    2.5452
   14.310    2.4574
   14.340    2.8436
   14.370    2.7909
   14.400    2.7734
   14.430    2.8260
   14.460    2.7032
   14.490    3.1245
   14.520    2.8085
   14.550    2.7558
   14.580    2.9489
   14.610    2.7558
   14.640    2.9314
   14.670    2.6330
   14.700    2.7558
   14.730    2.6681
   14.760    2.8085
   14.790    2.7383
   14.820    2.6505
   14.850    2.6154
   14.880    2.8085
   14.910    2.4750
   14.940    2.5101
   14.970    2.4399
   15.000    2.7558
   15.030    2.4750
   15.060    2.3346
   15.090    2.8085
   15.120    2.4399
   15.150    2.5276
   15.180    2.2292
   15.210    2.6681
   15.240    2.3521
   15.270    2.4925
   15.300    2.5979
   15.330    2.3872
   15.360    2.4048
   15.390    2.4223
   15.420    2.2819
   15.450    2.4048
   15.480    2.4574
   15.510    2.4925
   15.540    2.5452
   15.570    2.3346
   15.600    2.3521
   15.630    2.4048
   15.660    2.5452
   15.690    2.3170
   15.720    2.4750
   15.750    2.5803
   15.780    2.5452
   15.810    2.8436
   15.840    2.2643
   15.870    2.5979
   15.900    2.4574
   15.930    2.6681
   15.960    2.3521
   15.990    2.5803
   16.020    2.6505
   16.050    2.1766
   16.080    2.5628
   16.110    2.3872
   16.140    2.3872
   16.170    2.6681
   16.200    2.5452
   16.230    2.6505
   16.260    2.5452
   16.290    2.5628
   16.320    2.2468
   16.350    2.1590
   16.380    2.4399
   16.410    2.3697
   16.440    2.5276
   16.470    2.3872
   16.500    2.4574
   16.530    2.3346
   16.560    2.3697
   16.590    2.5101
   16.620    2.4750
   16.650    2.3170
   16.680    2.2468
   16.710    2.4399
   16.740    2.3872
   16.770    2.1941
   16.800    2.4048
   16.830    2.5979
   16.860    2.4399
   16.890    2.2292
   16.920    2.1766
   16.950    2.6154
   16.980    2.4399
   17.010    2.4925
   17.040    2.2819
   17.070    2.5979
   17.100    2.5276
   17.130    2.5628
   17.160    2.4399
   17.190    2.3872
   17.220    2.4223
   17.250    2.5452
   17.280    2.1766
   17.310    2.4048
   17.340    2.3521
   17.370    2.3170
   17.400    2.0186
   17.430    2.2117
   17.460    2.1941
   17.490    2.2468
   17.520    2.4223
   17.550    2.4223
   17.580    2.5452
   17.610    2.3521
   17.640    2.5101
   17.670    2.2292
   17.700    2.3346
   17.730    2.3872
   17.760    2.1766
   17.790    2.3170
   17.820    2.4399
   17.850    1.9835
   17.880    2.0011
   17.910    2.3872
   17.940    2.5452
   17.970    2.4399
   18.000    2.6505
   18.030    2.3346
   18.060    2.3697
   18.090    2.5101
   18.120    2.3346
   18.150    2.4223
   18.180    2.1064
   18.210    2.4399
   18.240    2.3170
   18.270    2.4925
   18.300    2.3346
   18.330    2.3872
   18.360    2.3872
   18.390    2.2819
   18.420    2.2995
   18.450    2.0362
   18.480    2.1415
   18.510    2.7207
   18.540    2.5276
   18.570    2.1415
   18.600    2.1239
   18.630    2.1064
   18.660    2.3697
   18.690    2.2292
   18.720    2.5803
   18.750    2.2643
   18.780    2.3521
   18.810    2.1941
   18.840    2.5628
   18.870    2.3521
   18.900    2.2117
   18.930    2.2819
   18.960    2.2643
   18.990    2.4750
   19.020    2.3872
   19.050    2.3170
   19.080    2.4399
   19.110    2.1941
   19.140    2.2995
   19.170    2.2643
   19.200    2.3872
   19.230    2.2117
   19.260    2.4750
   19.290    2.1941
   19.320    2.1239
   19.350    2.2643
   19.380    2.3346
   19.410    2.0011
   19.440    2.2292
   19.470    2.3697
   19.500    2.2468
   19.530    2.0888
   19.560    2.2819
   19.590    2.3697
   19.620    2.2292
   19.650    2.0713
   19.680    2.2117
   19.710    2.1239
   19.740    2.4048
   19.770    2.2643
   19.800    2.4925
   19.830    2.1415
   19.860    2.1239
   19.890    2.1590
   19.920    2.0888
   19.950    1.9308
   19.980    2.3170
   20.010    2.1415
   20.040    2.4925
   20.070    2.2643
   20.100    2.3697
   20.130    2.0537
   20.160    2.2292
   20.190    2.2292
   20.220    2.0362
   20.250    2.1415
   20.280    2.2292
   20.310    1.9308
   20.340    2.2292
   20.370    2.0713
   20.400    2.2995
   20.430    2.2643
   20.460    2.3170
   20.490    2.0888
   20.520    2.4399
   20.550    2.3346
   20.580    2.0888
   20.610    2.1941
   20.640    2.1766
   20.670    2.3697
   20.700    2.1064
   20.730    2.1064
   20.760    2.0713
   20.790    2.0011
   20.820    2.0713
   20.850    1.8080
   20.880    1.8606
   20.910    2.0362
   20.940    2.0362
   20.970    2.4048
   21.000    2.0362
   21.030    2.1941
   21.060    2.3697
   21.090    2.1064
   21.120    2.0186
   21.150    2.0888
   21.180    2.2292
   21.210    2.1941
   21.240    2.0186
   21.270    2.0537
   21.300    1.9308
   21.330    2.0713
   21.360    1.9484
   21.390    1.9308
   21.420    2.2292
   21.450    2.0888
   21.480    2.3170
   21.510    1.9659
   21.540    2.2292
   21.570    2.0888
   21.600    2.1590
   21.630    2.2643
   21.660    2.2292
   21.690    2.1064
   21.720    2.1415
   21.750    2.1590
   21.780    1.8957
   21.810    2.1239
   21.840    2.1239
   21.870    2.1064
   21.900    1.8431
   21.930    2.1239
   21.960    2.1590
   21.990    2.1415
   22.020    2.0537
   22.050    1.9484
   22.080    1.8080
   22.110    2.0713
   22.140    2.0362
   22.170    1.9308
   22.200    2.1941
   22.230    2.0186
   22.260    1.8431
   22.290    2.0713
   22.320    2.0713
   22.350    1.9133
   22.380    2.1590
   22.410    2.0537
   22.440    1.9484
   22.470    1.7729
   22.500    1.8782
   22.530    2.1766
   22.560    1.9659
   22.590    2.0011
   22.620    1.9308
   22.650    1.9484
   22.680    1.9835
   22.710    1.9835
   22.740    1.8431
   22.770    1.9133
   22.800    1.8606
   22.830    2.0537
   22.860    1.8782
   22.890    2.1239
   22.920    1.9484
   22.950    2.1064
   22.980    1.9835
   23.010    1.8782
   23.040    2.1064
   23.070    1.9484
   23.100    1.9308
   23.130    1.9133
   23.160    2.0011
   23.190    1.7729
   23.220    1.8606
   23.250    1.6851
   23.280    2.2117
   23.310    1.8255
   23.340    1.8782
   23.370    2.0011
   23.400    2.0011
   23.430    1.7729
   23.460    1.9659
   23.490    1.5973
   23.520    1.8606
   23.550    1.8606
   23.580    1.9133
   23.610    1.7904
   23.640    1.5798
   23.670    1.5973
   23.700    1.5622
   23.730    1.7729
   23.760    1.5096
   23.790    1.6675
   23.820    2.0186
   23.850    1.8080
   23.880    1.8957
   23.910    1.9659
   23.940    1.7202
   23.970    1.8782
   24.000    2.1590
   24.030    1.8431
   24.060    1.7904
   24.090    1.6324
   24.120    1.8080
   24.150    1.5622
   24.180    1.8782
   24.210    1.7553
   24.240    1.7378
   24.270    1.6500
   24.300    2.0537
   24.330    1.5622
   24.360    2.0011
   24.390    1.5447
   24.420    1.6324
   24.450    1.6851
   24.480    1.6500
   24.510    1.7904
   24.540    1.7378
   24.570    1.6851
   24.600    1.6851
   24.630    1.9484
   24.660    1.7378
   24.690    1.7904
   24.720    1.9308
   24.750    1.8957
   24.780    1.8255
   24.810    1.6324
   24.840    1.7027
   24.870    1.6851
   24.900    1.6500
   24.930    1.9659
   24.960    1.9835
   24.990    1.5271
   25.020    1.8255
   25.050    1.7027
   25.080    1.7202
   25.110    2.1239
   25.140    1.8957
   25.170    1.6851
   25.200    1.5973
   25.230    1.5973
   25.260    1.6675
   25.290    1.6324
   25.320    1.7904
   25.350    1.6675
   25.380    1.6851
   25.410    1.4569
   25.440    1.5447
   25.470    1.6324
   25.500    1.8782
   25.530    1.9133
   25.560    1.6851
   25.590    1.5798
   25.620    1.5447
   25.650    1.8431
   25.680    1.5622
   25.710    1.5622
   25.740    1.6149
   25.770    1.4394
   25.800    1.6675
   25.830    1.5447
   25.860    1.6324
   25.890    1.4920
   25.920    1.4569
   25.950    1.3516
   25.980    1.5622
   26.010    1.7027
   26.040    1.6149
   26.070    1.6675
   26.100    1.6324
   26.130    1.6500
   26.160    1.4394
   26.190    1.4218
   26.220    1.3165
   26.250    1.3516
   26.280    1.6500
   26.310    1.4218
   26.340    1.6149
   26.370    1.5973
   26.400    1.4394
   26.430    1.6851
   26.460    1.7553
   26.490    1.5622
   26.520    1.5798
   26.550    1.5096
   26.580    1.4745
   26.610    1.4218
   26.640    1.5973
   26.670    1.4218
   26.700    1.4569
   26.730    1.5798
   26.760    1.3867
   26.790    1.4394
   26.820    1.5096
   26.850    1.7378
   26.880    1.4745
   26.910    1.5096
   26.940    1.3165
   26.970    1.5096
   27.000    1.3867
   27.030    1.6324
   27.060    1.7378
   27.090    1.4394
   27.120    1.5096
   27.150    1.4569
   27.180    1.4042
   27.210    1.4920
   27.240    1.4394
   27.270    1.2638
   27.300    1.3691
   27.330    1.5447
   27.360    1.6675
   27.390    1.4218
   27.420    1.4218
   27.450    1.3340
   27.480    1.3867
   27.510    1.5447
   27.540    1.6675
   27.570    1.4745
   27.600    1.4920
   27.630    1.4920
   27.660    1.4042
   27.690    1.6149
   27.720    1.2638
   27.750    1.5096
   27.780    1.6324
   27.810    1.3165
   27.840    1.4042
   27.870    1.4218
   27.900    1.2989
   27.930    1.3165
   27.960    1.4745
   27.990    1.4218
   28.020    1.3867
   28.050    1.3516
   28.080    1.5096
   28.110    1.4394
   28.140    1.5447
   28.170    1.5622
   28.200    1.4920
   28.230    1.5622
   28.260    1.6324
   28.290    1.5622
   28.320    1.4218
   28.350    1.4218
   28.380    1.4569
   28.410    1.2112
   28.440    1.3340
   28.470    1.3165
   28.500    1.3691
   28.530    1.3340
   28.560    1.5622
   28.590    1.4218
   28.620    1.3516
   28.650    1.5096
   28.680    1.2638
   28.710    1.5798
   28.740    1.1761
   28.770    1.4218
   28.800    1.5622
   28.830    1.2989
   28.860    1.3691
   28.890    1.2638
   28.920    1.4218
   28.950    1.4042
   28.980    1.4042
   29.010    1.3691
   29.040    1.5271
   29.070    1.3516
   29.100    1.2989
   29.130    1.3516
   29.160    1.7202
   29.190    1.2814
   29.220    1.0883
   29.250    1.2814
   29.280    1.5447
   29.310    1.2989
   29.340    1.3516
   29.370    1.4569
   29.400    1.3691
   29.430    1.1936
   29.460    1.1234
   29.490    1.2287
   29.520    1.1585
   29.550    1.4042
   29.580    1.3516
   29.610    1.0883
   29.640    1.2463
   29.670    1.2112
   29.700    1.1058
   29.730    1.2287
   29.760    1.2989
   29.790    1.3691
   29.820    1.1234
   29.850    1.2463
   29.880    1.2112
   29.910    1.2989
   29.940    1.1234
   29.970    1.2463
   30.000    1.1936
   30.030    1.2287
   30.060    1.0883
   30.090    1.0883
   30.120    1.0883
   30.150    1.2112
   30.180    1.1058
   30.210    1.0356
   30.240    1.2112
   30.270    1.1585
   30.300    0.9479
   30.330    1.1058
   30.360    1.3165
   30.390    1.2463
   30.420    1.2638
   30.450    1.1410
   30.480    1.1585
   30.510    1.0883
   30.540    1.4745
   30.570    1.0356
   30.600    1.2287
   30.630    1.2814
   30.660    1.0005
   30.690    1.0707
   30.720    0.9479
   30.750    0.9303
   30.780    1.3691
   30.810    1.0532
   30.840    1.5271
   30.870    1.0005
   30.900    1.0181
   30.930    1.1936
   30.960    1.1234
   30.990    1.1936
   31.020    1.2989
   31.050    1.0532
   31.080    1.1936
   31.110    1.0356
   31.140    1.0005
   31.170    1.2463
   31.200    1.0005
   31.230    0.9479
   31.260    1.1410
   31.290    1.1058
   31.320    1.0356
   31.350    1.0181
   31.380    1.0532
   31.410    1.0707
   31.440    1.1410
   31.470    0.8601
   31.500    1.0181
   31.530    1.1410
   31.560    0.9303
   31.590    1.1234
   31.620    1.0707
   31.650    1.2463
   31.680    0.9303
   31.710    1.0356
   31.740    0.9479
   31.770    1.1234
   31.800    0.9303
   31.830    1.0707
   31.860    1.0181
   31.890    1.1058
   31.920    1.0707
   31.950    0.9654
   31.980    1.1410
   32.010    0.9303
   32.040    0.9479
   32.070    0.9303
   32.100    1.1410
   32.130    0.8074
   32.160    0.8601
   32.190    0.8425
   32.220    1.0707
   32.250    0.9128
   32.280    0.9303
   32.310    1.1410
   32.340    0.8250
   32.370    0.8952
   32.400    1.0883
   32.430    0.9654
   32.460    0.9303
   32.490    1.1410
   32.520    1.1585
   32.550    1.0356
   32.580    0.9128
   32.610    0.9654
   32.640    1.1410
   32.670    0.7899
   32.700    1.0883
   32.730    0.9479
   32.760    1.0532
   32.790    0.9479
   32.820    0.9479
   32.850    1.0356
   32.880    1.0883
   32.910    1.0356
   32.940    1.1585
   32.970    0.9128
   33.000    0.8074
   33.030    0.8425
   33.060    0.8952
   33.090    0.8777
   33.120    0.8777
   33.150    0.8952
   33.180    1.0532
   33.210    0.7899
   33.240    0.8952
   33.270    0.9830
   33.300    0.7548
   33.330    1.1410
   33.360    0.9128
   33.390    0.8250
   33.420    1.0005
   33.450    0.7372
   33.480    0.9128
   33.510    0.8074
   33.540    0.9128
   33.570    0.9830
   33.600    0.9303
   33.630    0.8250
   33.660    0.8425
   33.690    0.8952
   33.720    0.9128
   33.750    1.1410
   33.780    0.8952
   33.810    0.9303
   33.840    1.1234
   33.870    1.1058
   33.900    1.0005
   33.930    0.7372
   33.960    0.8250
   33.990    0.9128
   34.020    0.8425
   34.050    0.8601
   34.080    0.6670
   34.110    1.0532
   34.140    0.9479
   34.170    0.9654
   34.200    0.9830
   34.230    0.8952
   34.260    0.9303
   34.290    0.8952
   34.320    0.8425
   34.350    0.9654
   34.380    0.8074
   34.410    1.0181
   34.440    0.7021
   34.470    0.9479
   34.500    0.7372
   34.530    1.0532
   34.560    0.8250
   34.590    0.8777
   34.620    0.8074
   34.650    1.0181
   34.680    0.8425
   34.710    0.8425
   34.740    0.7548
   34.770    0.7548
   34.800    0.6319
   34.830    0.8601
   34.860    0.8952
   34.890    0.7723
   34.920    0.8425
   34.950    0.9303
   34.980    0.9303
   35.010    0.8250
   35.040    0.8425
   35.070    0.6495
   35.100    0.7372
   35.130    0.9303
   35.160    0.8250
   35.190    0.8601
   35.220    0.9830
   35.250    0.7899
   35.280    0.8952
   35.310    0.8425
   35.340    0.7723
   35.370    0.9128
   35.400    0.9128
   35.430    1.0356
   35.460    0.8425
   35.490    0.8952
   35.520    0.8074
   35.550    0.8250
   35.580    0.7723
   35.610    0.9654
   35.640    0.6846
   35.670    0.8425
   35.700    0.7548
   35.730    0.8425
   35.760    0.9479
   35.790    0.7899
   35.820    0.7372
   35.850    0.7899
   35.880    0.6670
   35.910    0.9479
   35.940    0.9654
   35.970    1.0532
   36.000    0.8601
   36.030    0.8250
   36.060    0.8250
   36.090    0.7548
   36.120    0.8777
   36.150    0.8777
   36.180    0.9654
   36.210    0.7372
   36.240    0.9303
   36.270    0.7899
   36.300    0.8601
   36.330    0.8250
   36.360    0.7372
   36.390    0.8074
   36.420    0.6846
   36.450    0.7723
   36.480    0.7899
   36.510    0.6846
   36.540    0.8777
   36.570    0.7372
   36.600    0.8777
   36.630    0.7197
   36.660    0.7197
   36.690    0.6670
   36.720    0.8425
   36.750    0.8425
   36.780    0.9830
   36.810    0.8074
   36.840    0.7899
   36.870    0.8601
   36.900    0.7899
   36.930    0.7197
   36.960    1.0532
   36.990    0.6495
   37.020    1.0005
   37.050    0.7723
   37.080    0.7372
   37.110    0.8777
   37.140    0.7899
   37.170    0.7548
   37.200    0.6846
   37.230    0.7021
   37.260    0.7372
   37.290    0.8250
   37.320    0.7021
   37.350    0.5793
   37.380    0.8250
   37.410    0.8250
   37.440    0.9303
   37.470    0.8425
   37.500    0.8074
   37.530    0.9128
   37.560    0.9479
   37.590    0.7723
   37.620    0.7899
   37.650    0.8601
   37.680    0.6846
   37.710    0.8601
   37.740    0.8074
   37.770    0.8074
   37.800    0.7723
   37.830    0.7372
   37.860    0.8777
   37.890    0.8952
   37.920    0.5793
   37.950    0.7197
   37.980    0.9654
   38.010    0.7899
   38.040    0.7021
   38.070    0.6846
   38.100    0.9303
   38.130    0.7372
   38.160    0.8250
   38.190    1.0532
   38.220    0.8425
   38.250    0.7372
   38.280    0.6670
   38.310    0.7372
   38.340    0.7197
   38.370    0.7372
   38.400    0.7197
   38.430    0.7197
   38.460    0.7548
   38.490    0.7197
   38.520    0.6144
   38.550    0.8425
   38.580    0.6670
   38.610    0.7197
   38.640    1.0356
   38.670    0.9128
   38.700    0.7197
   38.730    0.6144
   38.760    0.8425
   38.790    0.6670
   38.820    0.9479
   38.850    0.7021
   38.880    0.7899
   38.910    0.7723
   38.940    0.9479
   38.970    0.7548
   39.000    0.7548
   39.030    0.8074
   39.060    0.7723
   39.090    0.8074
   39.120    0.8425
   39.150    0.7197
   39.180    0.7723
   39.210    0.6670
   39.240    0.7197
   39.270    0.8601
   39.300    0.9479
   39.330    0.6495
   39.360    0.7021
   39.390    0.8952
   39.420    0.7548
   39.450    0.6670
   39.480    0.7548
   39.510    0.7197
   39.540    0.7899
   39.570    0.7723
   39.600    0.6495
   39.630    0.7372
   39.660    0.6495
   39.690    0.7021
   39.720    0.5968
   39.750    0.7197
   39.780    0.5968
   39.810    0.8425
   39.840    0.8777
   39.870    0.7723
   39.900    0.6670
   39.930    0.6670
   39.960    0.7899
   39.990    0.8425