File: data/MOCOF-1/PXRD/PXRD_KE-292_Cu-Ka1_film-3mm_3s-deg.xyd
    1.500   13.3052
    1.530   12.9893
    1.560   12.6031
    1.590   11.7781
    1.620   12.3398
    1.650   11.9186
    1.680   11.0760
    1.710   11.3042
    1.740   11.0233
    1.770   10.5845
    1.800   10.4968
    1.830   10.4616
    1.860   10.3739
    1.890    9.9526
    1.920    9.5313
    1.950    9.5840
    1.980    9.3909
    2.010    9.9175
    2.040    9.3031
    2.070    9.5489
    2.100    9.1452
    2.130   10.0579
    2.160    9.5313
    2.190    9.1452
    2.220    9.3382
    2.250    9.4436
    2.280    8.6712
    2.310    8.5659
    2.340    9.2154
    2.370    8.6888
    2.400    9.1803
    2.430    8.7239
    2.460    8.8643
    2.490    8.6537
    2.520    9.4260
    2.550    8.2851
    2.580    8.7239
    2.610    8.7590
    2.640    8.2851
    2.670    8.6537
    2.700    9.3558
    2.730    8.9872
    2.760    9.3909
    2.790    9.0047
    2.820    9.1276
    2.850    9.4962
    2.880    9.0047
    2.910    9.6893
    2.940   10.7952
    2.970   10.9005
    3.000   10.9707
    3.030   11.4797
    3.060   13.1122
    3.090   13.7441
    3.120   14.4989
    3.150   15.5169
    3.180   15.7451
    3.210   13.5334
    3.240   12.1116
    3.270   11.1638
    3.300    9.8297
    3.330    9.9351
    3.360    9.9877
    3.390   10.7776
    3.420   10.4265
    3.450   10.4090
    3.480   10.5494
    3.510   11.5324
    3.540   11.7781
    3.570   13.3579
    3.600   13.0946
    3.630   15.2712
    3.660   16.2893
    3.690   17.6584
    3.720   20.7829
    3.750   24.7499
    3.780   27.9270
    3.810   23.4158
    3.840   14.4111
    3.870   10.6372
    3.900    9.4260
    3.930    9.0925
    3.960    9.1276
    3.990    8.6537
    4.020    8.4430
    4.050    8.2324
    4.080    7.6005
    4.110    7.7936
    4.140    7.5127
    4.170    7.6005
    4.200    7.5303
    4.230    7.2845
    4.260    7.5478
    4.290    7.7936
    4.320    7.8287
    4.350    7.2143
    4.380    7.3372
    4.410    7.5829
    4.440    7.5654
    4.470    7.3372
    4.500    7.9867
    4.530    7.4074
    4.560    7.6356
    4.590    7.3547
    4.620    7.1968
    4.650    7.1441
    4.680    7.7585
    4.710    7.7058
    4.740    7.7936
    4.770    7.8111
    4.800    7.3021
    4.830    7.6005
    4.860    7.9516
    4.890    7.8638
    4.920    8.1622
    4.950    7.9516
    4.980    8.2500
    5.010    8.4957
    5.040    8.8994
    5.070    8.8468
    5.100    8.3728
    5.130    9.3207
    5.160    9.1627
    5.190    9.8473
    5.220    9.8648
    5.250   10.0579
    5.280   11.3569
    5.310   12.3223
    5.340   13.2877
    5.370   13.6212
    5.400   12.0941
    5.430   10.9005
    5.460    9.8648
    5.490   10.0404
    5.520    9.7420
    5.550    9.8473
    5.580    9.7244
    5.610    9.7771
    5.640    9.5489
    5.670    9.4436
    5.700    9.8122
    5.730    9.1803
    5.760    9.4085
    5.790    8.5133
    5.820    8.7414
    5.850    8.5659
    5.880    8.8643
    5.910    8.2851
    5.940    8.1797
    5.970    8.5308
    6.000    7.8287
    6.030    7.9164
    6.060    7.8111
    6.090    7.5654
    6.120    7.8111
    6.150    7.5478
    6.180    7.4776
    6.210    7.7760
    6.240    7.3372
    6.270    8.2851
    6.300    7.7409
    6.330    7.8638
    6.360    8.4255
    6.390    8.3553
    6.420    7.4601
    6.450    7.8287
    6.480    8.0920
    6.510    7.8989
    6.540    8.1797
    6.570    8.2851
    6.600    8.2324
    6.630    7.8287
    6.660    7.0212
    6.690    6.2840
    6.720    6.4069
    6.750    6.3016
    6.780    6.4946
    6.810    6.0207
    6.840    6.0734
    6.870    6.6000
    6.900    6.6175
    6.930    6.8633
    6.960    5.9505
    6.990    6.7228
    7.020    6.6175
    7.050    5.9329
    7.080    6.2313
    7.110    6.0383
    7.140    5.8452
    7.170    6.2138
    7.200    6.0558
    7.230    6.3367
    7.260    5.7223
    7.290    5.6170
    7.320    5.3010
    7.350    6.0734
    7.380    6.1260
    7.410    6.4420
    7.440    6.0383
    7.470    5.9329
    7.500    5.8803
    7.530    5.6170
    7.560    5.9154
    7.590    6.4420
    7.620    6.2840
    7.650    5.7925
    7.680    6.3016
    7.710    6.0032
    7.740    5.3712
    7.770    5.6345
    7.800    5.6872
    7.830    5.3712
    7.860    5.3712
    7.890    5.5117
    7.920    5.1606
    7.950    5.3361
    7.980    5.3888
    8.010    4.8271
    8.040    4.9149
    8.070    4.8095
    8.100    5.0377
    8.130    5.0202
    8.160    4.8447
    8.190    4.6867
    8.220    5.0377
    8.250    4.8973
    8.280    4.9851
    8.310    4.8798
    8.340    4.7920
    8.370    5.1606
    8.400    5.1957
    8.430    4.7920
    8.460    4.7744
    8.490    5.4590
    8.520    5.7048
    8.550    5.0026
    8.580    4.6516
    8.610    4.6691
    8.640    4.6340
    8.670    4.3356
    8.700    4.4409
    8.730    4.8622
    8.760    4.7042
    8.790    4.6516
    8.820    4.2127
    8.850    4.9149
    8.880    4.8095
    8.910    4.6691
    8.940    4.5638
    8.970    4.6867
    9.000    4.5989
    9.030    4.6867
    9.060    4.5111
    9.090    4.8622
    9.120    4.5814
    9.150    4.5638
    9.180    4.6867
    9.210    4.5287
    9.240    4.5989
    9.270    4.7920
    9.300    5.0026
    9.330    5.8978
    9.360    5.1080
    9.390    5.5117
    9.420    4.4234
    9.450    4.1425
    9.480    4.2830
    9.510    4.2303
    9.540    4.8798
    9.570    4.2830
    9.600    4.9851
    9.630    4.0899
    9.660    4.5463
    9.690    3.9670
    9.720    4.4234
    9.750    4.2478
    9.780    4.0548
    9.810    4.2127
    9.840    4.6340
    9.870    4.2830
    9.900    4.4058
    9.930    4.5638
    9.960    4.9149
    9.990    4.9675
   10.020    5.2484
   10.050    5.1080
   10.080    6.4244
   10.110    6.0558
   10.140    5.5117
   10.170    5.4239
   10.200    4.6867
   10.230    4.6340
   10.260    4.7218
   10.290    4.4058
   10.320    4.5287
   10.350    4.3356
   10.380    4.3532
   10.410    4.7042
   10.440    4.6516
   10.470    4.5111
   10.500    4.6691
   10.530    4.8271
   10.560    4.8973
   10.590    4.8622
   10.620    4.8798
   10.650    4.7920
   10.680    4.9675
   10.710    4.5287
   10.740    4.7569
   10.770    4.9675
   10.800    5.4766
   10.830    4.9675
   10.860    4.5287
   10.890    4.5638
   10.920    4.7920
   10.950    5.1606
   10.980    5.0728
   11.010    4.9324
   11.040    4.6867
   11.070    4.5638
   11.100    5.0377
   11.130    5.2484
   11.160    5.4766
   11.190    4.7042
   11.220    4.7569
   11.250    4.8095
   11.280    4.8447
   11.310    4.7569
   11.340    4.6340
   11.370    4.9851
   11.400    4.9500
   11.430    4.5638
   11.460    5.7223
   11.490    5.0553
   11.520    5.2484
   11.550    4.8622
   11.580    4.8973
   11.610    4.4234
   11.640    5.1431
   11.670    4.6516
   11.700    4.4234
   11.730    4.3532
   11.760    4.7744
   11.790    4.8973
   11.820    4.4936
   11.850    4.3005
   11.880    4.4585
   11.910    4.6516
   11.940    5.0553
   11.970    4.2303
   12.000    4.3005
   12.030    4.7744
   12.060    4.4585
   12.090    4.7569
   12.120    4.7042
   12.150    4.4409
   12.180    4.1952
   12.210    4.7393
   12.240    4.4936
   12.270    4.5638
   12.300    4.3707
   12.330    4.5463
   12.360    4.4936
   12.390    4.5814
   12.420    4.2654
   12.450    4.4058
   12.480    4.5111
   12.510    4.5989
   12.540    4.6867
   12.570    4.1074
   12.600    4.5989
   12.630    4.7393
   12.660    5.0904
   12.690    5.1080
   12.720    4.8622
   12.750    4.5463
   12.780    4.5463
   12.810    4.3356
   12.840    4.5111
   12.870    4.3532
   12.900    4.2830
   12.930    4.3883
   12.960    4.2478
   12.990    4.1952
   13.020    4.1425
   13.050    4.5463
   13.080    4.0548
   13.110    4.3883
   13.140    4.8095
   13.170    4.6165
   13.200    4.3005
   13.230    5.0553
   13.260    4.5463
   13.290    4.3181
   13.320    4.2478
   13.350    4.7569
   13.380    4.3181
   13.410    4.3883
   13.440    4.6867
   13.470    4.3532
   13.500    3.9670
   13.530    4.3707
   13.560    4.4409
   13.590    4.1074
   13.620    4.4234
   13.650    4.3356
   13.680    4.6867
   13.710    4.6516
   13.740    4.5463
   13.770    4.7920
   13.800    5.0728
   13.830    4.8095
   13.860    4.8622
   13.890    4.4760
   13.920    4.7744
   13.950    4.6340
   13.980    4.6165
   14.010    4.5463
   14.040    4.4058
   14.070    4.4936
   14.100    4.7920
   14.130    4.7569
   14.160    4.5814
   14.190    4.3532
   14.220    4.5287
   14.250    4.6516
   14.280    4.7042
   14.310    4.8973
   14.340    4.6691
   14.370    4.8622
   14.400    4.5463
   14.430    4.5814
   14.460    4.7744
   14.490    5.1255
   14.520    5.0377
   14.550    4.8622
   14.580    4.4760
   14.610    4.7920
   14.640    4.4234
   14.670    4.8095
   14.700    4.9675
   14.730    4.7042
   14.760    4.4409
   14.790    4.5989
   14.820    4.6340
   14.850    4.3883
   14.880    4.3356
   14.910    5.0202
   14.940    4.6691
   14.970    4.5989
   15.000    4.6867
   15.030    4.5989
   15.060    4.5463
   15.090    4.7393
   15.120    4.4234
   15.150    4.1601
   15.180    4.5638
   15.210    4.4936
   15.240    4.2478
   15.270    4.7042
   15.300    4.1250
   15.330    4.3707
   15.360    4.3005
   15.390    4.4234
   15.420    4.3707
   15.450    4.8622
   15.480    4.3707
   15.510    4.4409
   15.540    4.2478
   15.570    4.4760
   15.600    4.1074
   15.630    4.3005
   15.660    4.6340
   15.690    4.1952
   15.720    4.3005
   15.750    4.4760
   15.780    4.5463
   15.810    4.4409
   15.840    4.3356
   15.870    4.5989
   15.900    4.7920
   15.930    4.5287
   15.960    4.6867
   15.990    4.3005
   16.020    4.0723
   16.050    4.1425
   16.080    4.2830
   16.110    4.3707
   16.140    4.0021
   16.170    4.3181
   16.200    4.5463
   16.230    4.5814
   16.260    4.8271
   16.290    3.8617
   16.320    4.2478
   16.350    4.8447
   16.380    3.8617
   16.410    4.3532
   16.440    4.1425
   16.470    4.6867
   16.500    3.8792
   16.530    4.1425
   16.560    4.3532
   16.590    4.0372
   16.620    4.2303
   16.650    4.4760
   16.680    4.2303
   16.710    4.2127
   16.740    4.3707
   16.770    4.3883
   16.800    4.0197
   16.830    4.0021
   16.860    4.2830
   16.890    4.0899
   16.920    4.0899
   16.950    4.1425
   16.980    4.3883
   17.010    4.5111
   17.040    3.8441
   17.070    4.1601
   17.100    4.0021
   17.130    4.0723
   17.160    4.7744
   17.190    4.8271
   17.220    4.2303
   17.250    4.0197
   17.280    4.2478
   17.310    4.2654
   17.340    4.3883
   17.370    4.2127
   17.400    4.0548
   17.430    4.4058
   17.460    4.4234
   17.490    4.1601
   17.520    4.1776
   17.550    4.3883
   17.580    4.1952
   17.610    4.2830
   17.640    4.1425
   17.670    4.3005
   17.700    4.1601
   17.730    3.9494
   17.760    4.1250
   17.790    4.1074
   17.820    4.3532
   17.850    4.0899
   17.880    4.0723
   17.910    4.3005
   17.940    4.4585
   17.970    4.1250
   18.000    4.1952
   18.030    4.1776
   18.060    4.4058
   18.090    4.0548
   18.120    4.2303
   18.150    4.2830
   18.180    4.1425
   18.210    4.3532
   18.240    3.9494
   18.270    3.9846
   18.300    4.4409
   18.330    4.3181
   18.360    4.1074
   18.390    4.4585
   18.420    4.1776
   18.450    4.2127
   18.480    4.1425
   18.510    4.0197
   18.540    3.9143
   18.570    4.0021
   18.600    4.1952
   18.630    3.8266
   18.660    4.4760
   18.690    4.6340
   18.720    3.5984
   18.750    4.1250
   18.780    3.8792
   18.810    4.1425
   18.840    3.9143
   18.870    4.0899
   18.900    4.1425
   18.930    4.6340
   18.960    4.9851
   18.990    4.4936
   19.020    4.6691
   19.050    4.6165
   19.080    4.1776
   19.110    3.8266
   19.140    3.9319
   19.170    4.0548
   19.200    4.3005
   19.230    3.7739
   19.260    4.0197
   19.290    4.5287
   19.320    4.1074
   19.350    4.0372
   19.380    4.0197
   19.410    4.0723
   19.440    3.7739
   19.470    4.0197
   19.500    4.0899
   19.530    4.0899
   19.560    3.8792
   19.590    3.9846
   19.620    4.1601
   19.650    3.7213
   19.680    3.8617
   19.710    4.0197
   19.740    4.0021
   19.770    4.0548
   19.800    3.7213
   19.830    3.7739
   19.860    3.5808
   19.890    3.7213
   19.920    3.8617
   19.950    3.9846
   19.980    4.0021
   20.010    4.1425
   20.040    3.8968
   20.070    4.1250
   20.100    3.9319
   20.130    3.8441
   20.160    3.8617
   20.190    4.1952
   20.220    3.8617
   20.250    4.2478
   20.280    3.9319
   20.310    3.7213
   20.340    3.9494
   20.370    3.7564
   20.400    3.9670
   20.430    3.7037
   20.460    3.2298
   20.490    3.8792
   20.520    3.6335
   20.550    3.9319
   20.580    3.8090
   20.610    3.8792
   20.640    3.5808
   20.670    3.7213
   20.700    3.5282
   20.730    3.6862
   20.760    4.0723
   20.790    3.8968
   20.820    3.6686
   20.850    3.7915
   20.880    3.9846
   20.910    3.4755
   20.940    3.8792
   20.970    4.0372
   21.000    3.8090
   21.030    3.8968
   21.060    3.9143
   21.090    3.8792
   21.120    3.8792
   21.150    3.4404
   21.180    4.1601
   21.210    3.7564
   21.240    3.6862
   21.270    3.7037
   21.300    3.8090
   21.330    3.9143
   21.360    3.6686
   21.390    4.0197
   21.420    4.0372
   21.450    3.9319
   21.480    3.7037
   21.510    3.6686
   21.540    3.8266
   21.570    3.8266
   21.600    3.4404
   21.630    3.7915
   21.660    3.6686
   21.690    4.0723
   21.720    3.6862
   21.750    3.7388
   21.780    3.4755
   21.810    3.7213
   21.840    3.6862
   21.870    3.9319
   21.900    3.8441
   21.930    3.3702
   21.960    3.8441
   21.990    3.3526
   22.020    3.9143
   22.050    3.5457
   22.080    3.9494
   22.110    3.7037
   22.140    3.7564
   22.170    3.7388
   22.200    3.6510
   22.230    3.5808
   22.260    3.0718
   22.290    3.4053
   22.320    3.4755
   22.350    3.7564
   22.380    3.8090
   22.410    3.7213
   22.440    3.4755
   22.470    3.7213
   22.500    3.6335
   22.530    3.5633
   22.560    3.7739
   22.590    3.6159
   22.620    3.4580
   22.650    3.6335
   22.680    3.5808
   22.710    3.7213
   22.740    3.2122
   22.770    2.9489
   22.800    3.5106
   22.830    3.4931
   22.860    3.8266
   22.890    3.3175
   22.920    3.3351
   22.950    3.6686
   22.980    3.4229
   23.010    3.6510
   23.040    3.6862
   23.070    3.4931
   23.100    3.5106
   23.130    3.6335
   23.160    3.6159
   23.190    3.2473
   23.220    3.2649
   23.250    3.6335
   23.280    3.2473
   23.310    3.7915
   23.340    3.5808
   23.370    3.8792
   23.400    3.2298
   23.430    3.4755
   23.460    2.9665
   23.490    3.8090
   23.520    3.4404
   23.550    3.3175
   23.580    3.3526
   23.610    3.5808
   23.640    3.4053
   23.670    2.9489
   23.700    3.1947
   23.730    3.3877
   23.760    3.1947
   23.790    3.3877
   23.820    3.3175
   23.850    3.4229
   23.880    3.2122
   23.910    3.7213
   23.940    3.1420
   23.970    3.0367
   24.000    3.0893
   24.030    3.3526
   24.060    3.3351
   24.090    3.0893
   24.120    3.1420
   24.150    3.4755
   24.180    3.2473
   24.210    3.0016
   24.240    3.2649
   24.270    3.6335
   24.300    3.4053
   24.330    3.3526
   24.360    3.1420
   24.390    2.9840
   24.420    3.3351
   24.450    3.3877
   24.480    3.1420
   24.510    2.9665
   24.540    3.2298
   24.570    3.0191
   24.600    3.1771
   24.630    3.1245
   24.660    2.7558
   24.690    2.8963
   24.720    3.3702
   24.750    3.2649
   24.780    3.1947
   24.810    3.0367
   24.840    2.9665
   24.870    3.0718
   24.900    3.0191
   24.930    3.1245
   24.960    3.0542
   24.990    3.0542
   25.020    3.1245
   25.050    3.2824
   25.080    3.2122
   25.110    2.9840
   25.140    2.7734
   25.170    3.3175
   25.200    3.1947
   25.230    3.3702
   25.260    3.1947
   25.290    3.7739
   25.320    3.2122
   25.350    3.4053
   25.380    3.2824
   25.410    3.0191
   25.440    3.0893
   25.470    3.0367
   25.500    2.9840
   25.530    3.3702
   25.560    2.8612
   25.590    2.9138
   25.620    2.8787
   25.650    2.9314
   25.680    3.0016
   25.710    3.1245
   25.740    3.0542
   25.770    3.0367
   25.800    2.9489
   25.830    3.1947
   25.860    3.2122
   25.890    2.9840
   25.920    3.2473
   25.950    3.0893
   25.980    2.7909
   26.010    2.7909
   26.040    2.9840
   26.070    2.9489
   26.100    2.5101
   26.130    3.1420
   26.160    2.9665
   26.190    3.3000
   26.220    2.7032
   26.250    3.1596
   26.280    3.1420
   26.310    2.8260
   26.340    2.9138
   26.370    2.7558
   26.400    3.1245
   26.430    2.8612
   26.460    3.5106
   26.490    3.3702
   26.520    2.8963
   26.550    2.8260
   26.580    2.7207
   26.610    3.0718
   26.640    3.0016
   26.670    2.7909
   26.700    2.7558
   26.730    3.1420
   26.760    2.8787
   26.790    2.8963
   26.820    2.9489
   26.850    3.0191
   26.880    2.9665
   26.910    2.7909
   26.940    2.8612
   26.970    2.8085
   27.000    3.1596
   27.030    2.8963
   27.060    2.6681
   27.090    2.8963
   27.120    2.8963
   27.150    2.5628
   27.180    2.3346
   27.210    2.9840
   27.240    2.4399
   27.270    2.6681
   27.300    2.8260
   27.330    2.5452
   27.360    2.8787
   27.390    2.5101
   27.420    3.0718
   27.450    2.9665
   27.480    2.9314
   27.510    2.9489
   27.540    2.9840
   27.570    2.4574
   27.600    2.7383
   27.630    2.4925
   27.660    2.6681
   27.690    2.8436
   27.720    2.6154
   27.750    2.4574
   27.780    2.5803
   27.810    2.6856
   27.840    2.9138
   27.870    2.7207
   27.900    2.8085
   27.930    3.1771
   27.960    3.1069
   27.990    3.4229
   28.020    3.1771
   28.050    2.8787
   28.080    2.5979
   28.110    2.5276
   28.140    2.7032
   28.170    2.7383
   28.200    2.8787
   28.230    2.8260
   28.260    2.6681
   28.290    2.8260
   28.320    2.5979
   28.350    2.4574
   28.380    2.8085
   28.410    2.5101
   28.440    2.5101
   28.470    2.8787
   28.500    2.5101
   28.530    2.6681
   28.560    2.8085
   28.590    2.3170
   28.620    2.8436
   28.650    2.6505
   28.680    2.8085
   28.710    2.8436
   28.740    2.5452
   28.770    2.8436
   28.800    2.7909
   28.830    2.5276
   28.860    3.0191
   28.890    2.4750
   28.920    2.8085
   28.950    3.3877
   28.980    3.0718
   29.010    2.9489
   29.040    2.6154
   29.070    2.6330
   29.100    2.2292
   29.130    2.5803
   29.160    2.7558
   29.190    2.9840
   29.220    2.4574
   29.250    3.1596
   29.280    2.6856
   29.310    2.7734
   29.340    2.5628
   29.370    2.3521
   29.400    2.5979
   29.430    2.4048
   29.460    2.4574
   29.490    2.1941
   29.520    2.4223
   29.550    2.4574
   29.580    2.2292
   29.610    2.4750
   29.640    2.0362
   29.670    2.1766
   29.700    2.3697
   29.730    2.6681
   29.760    2.1064
   29.790    2.1064
   29.820    2.5276
   29.850    2.2643
   29.880    2.2995
   29.910    2.3697
   29.940    1.8957
   29.970    2.2995
   30.000    2.1590
   30.030    2.3521
   30.060    1.9133
   30.090    2.2117
   30.120    2.5101
   30.150    2.4925
   30.180    2.2468
   30.210    2.3697
   30.240    2.1766
   30.270    2.5452
   30.300    2.0186
   30.330    2.2468
   30.360    2.0713
   30.390    2.0888
   30.420    2.3872
   30.450    2.0888
   30.480    2.3170
   30.510    2.1766
   30.540    2.2819
   30.570    2.4048
   30.600    2.1239
   30.630    2.3170
   30.660    2.0011
   30.690    2.3872
   30.720    2.2468
   30.750    2.0537
   30.780    2.4048
   30.810    2.2995
   30.840    2.3697
   30.870    2.2995
   30.900    2.1415
   30.930    1.9835
   30.960    2.2819
   30.990    2.4399
   31.020    2.0888
   31.050    2.2468
   31.080    2.2292
   31.110    1.9308
   31.140    2.0186
   31.170    1.9659
   31.200    1.7904
   31.230    2.2995
   31.260    2.0011
   31.290    2.4574
   31.320    2.1415
   31.350    2.1766
   31.380    1.9133
   31.410    2.2117
   31.440    1.8606
   31.470    2.2468
   31.500    1.9659
   31.530    2.0011
   31.560    2.1766
   31.590    1.7202
   31.620    2.1415
   31.650    2.0186
   31.680    2.0713
   31.710    1.9835
   31.740    2.1941
   31.770    2.0888
   31.800    2.2292
   31.830    1.9484
   31.860    1.9484
   31.890    2.0537
   31.920    2.0537
   31.950    2.0713
   31.980    1.8431
   32.010    2.1064
   32.040    2.3346
   32.070    3.0893
   32.100    3.1420
   32.130    2.6505
   32.160    2.0888
   32.190    2.0186
   32.220    2.0537
   32.250    2.0186
   32.280    2.0713
   32.310    1.8255
   32.340    2.0362
   32.370    1.9484
   32.400    1.9484
   32.430    1.8606
   32.460    1.7729
   32.490    1.9133
   32.520    1.9484
   32.550    1.9835
   32.580    1.8431
   32.610    1.9133
   32.640    1.7378
   32.670    1.8255
   32.700    1.7027
   32.730    2.0888
   32.760    1.7202
   32.790    1.9659
   32.820    1.8782
   32.850    1.6675
   32.880    1.6500
   32.910    1.8255
   32.940    1.8255
   32.970    1.9308
   33.000    1.7378
   33.030    1.9659
   33.060    2.0186
   33.090    1.9659
   33.120    1.6324
   33.150    1.8431
   33.180    1.7202
   33.210    1.7378
   33.240    1.9308
   33.270    1.8782
   33.300    1.7553
   33.330    1.8957
   33.360    1.9659
   33.390    1.6851
   33.420    1.7202
   33.450    1.9835
   33.480    1.6324
   33.510    1.7904
   33.540    1.7202
   33.570    1.7027
   33.600    1.7202
   33.630    1.7729
   33.660    1.8957
   33.690    1.9835
   33.720    1.7027
   33.750    1.7904
   33.780    2.2117
   33.810    2.4574
   33.840    2.3170
   33.870    1.8606
   33.900    1.7729
   33.930    1.8255
   33.960    1.9835
   33.990    1.9308
   34.020    2.0362
   34.050    1.8080
   34.080    1.8957
   34.110    1.7378
   34.140    2.1766
   34.170    1.7729
   34.200    1.5622
   34.230    1.5798
   34.260    1.8255
   34.290    1.8606
   34.320    1.7378
   34.350    1.9484
   34.380    1.7553
   34.410    1.7378
   34.440    1.4394
   34.470    1.6149
   34.500    1.8606
   34.530    2.0011
   34.560    1.4569
   34.590    1.7378
   34.620    1.6500
   34.650    1.8255
   34.680    1.5271
   34.710    1.8957
   34.740    1.9133
   34.770    1.8782
   34.800    1.6851
   34.830    1.5622
   34.860    1.7378
   34.890    1.7553
   34.920    1.8606
   34.950    1.7904
   34.980    1.8080
   35.010    1.7729
   35.040    1.6675
   35.070    1.8431
   35.100    1.6500
   35.130    1.7378
   35.160    1.9835
   35.190    1.7027
   35.220    1.7378
   35.250    1.8080
   35.280    1.5798
   35.310    1.5622
   35.340    1.6675
   35.370    1.8606
   35.400    1.5973
   35.430    1.7378
   35.460    1.9133
   35.490    1.7378
   35.520    1.8080
   35.550    1.7729
   35.580    2.0537
   35.610    1.6149
   35.640    1.4920
   35.670    1.6324
   35.700    1.7553
   35.730    1.6500
   35.760    1.5096
   35.790    1.8255
   35.820    1.5798
   35.850    1.7729
   35.880    1.7027
   35.910    1.8255
   35.940    1.8431
   35.970    1.5622
   36.000    1.9308
   36.030    1.4218
   36.060    1.5973
   36.090    2.0011
   36.120    1.4218
   36.150    1.5973
   36.180    1.5622
   36.210    1.4920
   36.240    1.5271
   36.270    1.7904
   36.300    1.7027
   36.330    1.5622
   36.360    1.7553
   36.390    1.5798
   36.420    1.8782
   36.450    1.7378
   36.480    1.5973
   36.510    1.8080
   36.540    1.7904
   36.570    1.6500
   36.600    1.7378
   36.630    1.9659
   36.660    1.7553
   36.690    1.4920
   36.720    1.6851
   36.750    1.6324
   36.780    1.5973
   36.810    1.8255
   36.840    1.5973
   36.870    1.5798
   36.900    1.7553
   36.930    2.0537
   36.960    1.8255
   36.990    1.8606
   37.020    1.7904
   37.050    1.9133
   37.080    1.6675
   37.110    1.5096
   37.140    1.6500
   37.170    1.6149
   37.200    1.5271
   37.230    1.7553
   37.260    1.7202
   37.290    1.6500
   37.320    1.8255
   37.350    1.6149
   37.380    1.6324
   37.410    1.6851
   37.440    1.6500
   37.470    1.5447
   37.500    1.6675
   37.530    1.8080
   37.560    1.4920
   37.590    1.5798
   37.620    1.6851
   37.650    1.5622
   37.680    1.5096
   37.710    1.5447
   37.740    1.3691
   37.770    1.7378
   37.800    1.5973
   37.830    1.6675
   37.860    1.5096
   37.890    1.7027
   37.920    1.6851
   37.950    1.7729
   37.980    1.6675
   38.010    1.8431
   38.040    1.5973
   38.070    1.4745
   38.100    1.5622
   38.130    1.6149
   38.160    1.5447
   38.190    1.7202
   38.220    1.8255
   38.250    1.4218
   38.280    1.4218
   38.310    1.5271
   38.340    1.5096
   38.370    1.7027
   38.400    1.6149
   38.430    1.5096
   38.460    1.4920
   38.490    1.6851
   38.520    1.5622
   38.550    1.7729
   38.580    1.9659
   38.610    1.9133
   38.640    1.7378
   38.670    1.6851
   38.700    1.7553
   38.730    1.7553
   38.760    1.6324
   38.790    1.4745
   38.820    1.5973
   38.850    1.5447
   38.880    1.6149
   38.910    1.4920
   38.940    1.7202
   38.970    1.4920
   39.000    1.5622
   39.030    1.4394
   39.060    1.4745
   39.090    1.7729
   39.120    1.4745
   39.150    1.4745
   39.180    1.5798
   39.210    1.6675
   39.240    1.4569
   39.270    1.4042
   39.300    1.4920
   39.330    1.4569
   39.360    1.7553
   39.390    1.6149
   39.420    1.7378
   39.450    1.7378
   39.480    1.6149
   39.510    1.6500
   39.540    1.5271
   39.570    1.4920
   39.600    1.6500
   39.630    1.7378
   39.660    1.6851
   39.690    1.6851
   39.720    1.7553
   39.750    1.5096
   39.780    1.5271
   39.810    1.4569
   39.840    1.3516
   39.870    1.3516
   39.900    1.3165
   39.930    1.5096
   39.960    1.5447
   39.990    1.5447