File: data/MOCOF-1/PXRD/PXRD_KE-087_Cu-Ka1_capillary-1mm_5s-deg.xyd
    1.500   10.0053
    1.530    9.9105
    1.560    9.9842
    1.590    9.7946
    1.620    9.5419
    1.650    9.5945
    1.680    8.9837
    1.710    9.6367
    1.740    9.1101
    1.770    8.7520
    1.800    9.3312
    1.830    9.1838
    1.860    8.6151
    1.890    8.6888
    1.920    9.0258
    1.950    8.7836
    1.980    8.4676
    2.010    8.7730
    2.040    8.6151
    2.070    8.4150
    2.100    8.6361
    2.130    8.5097
    2.160    8.4360
    2.190    8.2991
    2.220    8.4887
    2.250    8.3623
    2.280    8.8046
    2.310    8.2359
    2.340    8.4150
    2.370    8.2675
    2.400    8.2780
    2.430    8.5308
    2.460    8.3412
    2.490    8.4887
    2.520    8.3096
    2.550    8.4044
    2.580    8.2886
    2.610    8.2043
    2.640    7.9094
    2.670    8.5835
    2.700    8.5308
    2.730    8.0569
    2.760    7.8146
    2.790    8.3096
    2.820    8.4992
    2.850    7.8146
    2.880    7.9305
    2.910    8.2570
    2.940    8.1833
    2.970    8.1306
    3.000    7.9937
    3.030    8.0990
    3.060    8.1622
    3.090    8.2886
    3.120    8.4150
    3.150    8.3202
    3.180    8.3412
    3.210    8.3518
    3.240    8.2464
    3.270    8.4781
    3.300    8.0885
    3.330    8.4360
    3.360    7.9305
    3.390    7.9621
    3.420    8.5835
    3.450    8.0253
    3.480    8.1411
    3.510    8.7098
    3.540    8.0779
    3.570    8.6783
    3.600    8.0147
    3.630    8.3834
    3.660    8.2886
    3.690    8.3939
    3.720    8.2991
    3.750    8.2359
    3.780    8.3412
    3.810    8.4360
    3.840    8.3307
    3.870    8.5097
    3.900    8.2570
    3.930    8.9942
    3.960    8.6361
    3.990    8.5097
    4.020    8.4887
    4.050    8.4887
    4.080    8.7625
    4.110    8.6361
    4.140    8.7309
    4.170    8.9205
    4.200    8.5519
    4.230    8.5308
    4.260    8.5519
    4.290    8.6256
    4.320    8.5940
    4.350    8.4887
    4.380    8.2149
    4.410    8.7941
    4.440    9.1838
    4.470    8.4150
    4.500    9.1311
    4.530    8.8678
    4.560    8.4887
    4.590    8.9731
    4.620    8.6361
    4.650    8.7625
    4.680    8.7520
    4.710    8.8362
    4.740    8.6467
    4.770    8.4887
    4.800    8.4781
    4.830    8.9205
    4.860    8.4044
    4.890    8.5203
    4.920    8.6467
    4.950    8.8784
    4.980    8.4360
    5.010    9.0890
    5.040    8.4466
    5.070    8.7204
    5.100    8.7625
    5.130    8.9521
    5.160    8.8994
    5.190    8.7730
    5.220    8.8046
    5.250    8.5940
    5.280    8.4571
    5.310    8.7730
    5.340    8.6151
    5.370    8.7625
    5.400    8.4150
    5.430    8.9837
    5.460    8.5940
    5.490    8.4360
    5.520    8.4676
    5.550    8.9626
    5.580    8.6256
    5.610    9.2048
    5.640    8.3412
    5.670    8.6677
    5.700    8.9100
    5.730    8.8573
    5.760    8.4466
    5.790    8.4781
    5.820    8.8257
    5.850    8.7204
    5.880    8.2780
    5.910    8.5097
    5.940    8.3518
    5.970    8.3939
    6.000    8.4887
    6.030    8.4992
    6.060    8.4992
    6.090    8.3518
    6.120    8.4676
    6.150    8.4255
    6.180    8.8046
    6.210    8.4887
    6.240    8.3834
    6.270    8.9521
    6.300    8.7836
    6.330    8.6888
    6.360    8.3939
    6.390    8.5940
    6.420    8.6361
    6.450    8.4992
    6.480    8.7414
    6.510    8.7730
    6.540    8.3939
    6.570    8.0569
    6.600    8.4150
    6.630    8.6045
    6.660    8.9100
    6.690    8.9731
    6.720    8.7941
    6.750    9.1732
    6.780    8.6045
    6.810    8.8257
    6.840    8.6361
    6.870    9.0047
    6.900    8.7520
    6.930    9.1417
    6.960    8.9626
    6.990    9.4260
    7.020    8.9100
    7.050    9.0574
    7.080    8.4466
    7.110    9.1206
    7.140    9.0785
    7.170    8.7204
    7.200    8.6151
    7.230    8.8573
    7.260    9.2786
    7.290    9.1627
    7.320    8.6151
    7.350    8.8784
    7.380    8.7204
    7.410    9.1311
    7.440    8.7625
    7.470    9.0469
    7.500    9.1206
    7.530    8.6361
    7.560    9.3312
    7.590    8.9521
    7.620    8.4044
    7.650    8.6572
    7.680    8.6783
    7.710    8.6993
    7.740    8.8889
    7.770    9.1101
    7.800    9.0047
    7.830    8.2570
    7.860    9.1732
    7.890    8.8152
    7.920    9.1943
    7.950    9.3312
    7.980    9.1311
    8.010    9.1838
    8.040    9.1627
    8.070    8.8784
    8.100    8.8784
    8.130    9.4050
    8.160    9.0363
    8.190    9.1522
    8.220    8.7309
    8.250    9.1522
    8.280    9.4787
    8.310    9.5419
    8.340    9.4155
    8.370    9.7420
    8.400    9.3944
    8.430    9.6261
    8.460    9.3523
    8.490    9.2154
    8.520    9.6051
    8.550    9.9631
    8.580    9.4787
    8.610    9.4787
    8.640    9.6998
    8.670   10.2475
    8.700    9.7841
    8.730    9.1838
    8.760    9.3734
    8.790    9.2364
    8.820    9.3839
    8.850    9.3839
    8.880    9.7104
    8.910    9.7841
    8.940    9.1206
    8.970    9.3418
    9.000    9.9947
    9.030    9.5419
    9.060    9.8999
    9.090    9.6261
    9.120    9.9421
    9.150   10.3844
    9.180    9.6893
    9.210   10.1211
    9.240    9.7841
    9.270   10.3739
    9.300    9.6788
    9.330    9.9947
    9.360   10.0685
    9.390    9.7946
    9.420   10.4792
    9.450   10.1948
    9.480   10.2791
    9.510   10.1106
    9.540   10.3002
    9.570   10.0790
    9.600    9.8789
    9.630   10.1527
    9.660   10.3633
    9.690   10.4792
    9.720    9.9421
    9.750   10.0263
    9.780   10.2686
    9.810   10.1001
    9.840   10.0579
    9.870   10.7425
    9.900   10.5319
    9.930   10.4265
    9.960   10.4055
    9.990   10.4581
   10.020   10.7741
   10.050   10.5529
   10.080   10.2896
   10.110   10.5003
   10.140   10.3107
   10.170   10.5003
   10.200   10.7952
   10.230   10.5845
   10.260   10.0053
   10.290   10.1422
   10.320   10.2370
   10.350    9.9421
   10.380   10.2791
   10.410    9.9947
   10.440   10.1843
   10.470    9.8789
   10.500   10.0053
   10.530   10.3739
   10.560    9.6998
   10.590   10.1211
   10.620    9.6051
   10.650    9.9631
   10.680   10.0579
   10.710   10.3002
   10.740   10.4265
   10.770   10.3423
   10.800    9.7630
   10.830    9.6577
   10.860    9.6788
   10.890    9.3418
   10.920    9.7630
   10.950    9.8157
   10.980   10.0263
   11.010    9.6156
   11.040    8.9310
   11.070    9.2470
   11.100    9.3523
   11.130    9.3944
   11.160    9.2891
   11.190    9.7420
   11.220    9.9105
   11.250    8.8889
   11.280    9.4681
   11.310    9.2891
   11.340    9.1627
   11.370    8.9100
   11.400    9.6577
   11.430    9.4260
   11.460    9.9105
   11.490    9.5103
   11.520    9.5208
   11.550    9.1101
   11.580    9.2154
   11.610    9.3734
   11.640    9.1206
   11.670    8.9942
   11.700    9.5103
   11.730    9.4787
   11.760    9.0574
   11.790    9.0785
   11.820    9.2364
   11.850    9.2786
   11.880    9.1627
   11.910    8.9310
   11.940    9.2680
   11.970    8.8889
   12.000    8.7941
   12.030    9.0995
   12.060    8.9310
   12.090    9.0785
   12.120    9.0785
   12.150    9.1417
   12.180    8.6677
   12.210    8.7414
   12.240    8.4150
   12.270    8.7098
   12.300    9.2154
   12.330    8.7098
   12.360    8.5519
   12.390    9.2680
   12.420    8.7730
   12.450    8.8046
   12.480    8.4044
   12.510    8.8152
   12.540    8.2991
   12.570    8.6151
   12.600    8.3412
   12.630    8.7625
   12.660    8.4150
   12.690    8.8152
   12.720    8.5729
   12.750    8.3202
   12.780    8.8573
   12.810    8.5308
   12.840    8.6361
   12.870    8.7309
   12.900    8.6888
   12.930    8.2780
   12.960    8.3096
   12.990    8.2991
   13.020    8.5413
   13.050    8.0674
   13.080    8.4044
   13.110    8.4466
   13.140    8.0990
   13.170    8.5729
   13.200    8.8994
   13.230    8.5308
   13.260    8.8152
   13.290    8.1727
   13.320    8.2464
   13.350    8.5729
   13.380    8.5519
   13.410    8.3834
   13.440    8.0885
   13.470    8.4044
   13.500    8.5308
   13.530    8.4360
   13.560    8.6993
   13.590    8.3412
   13.620    8.2464
   13.650    8.1201
   13.680    8.1517
   13.710    8.0569
   13.740    8.7730
   13.770    8.5097
   13.800    8.2149
   13.830    8.1622
   13.860    8.3412
   13.890    8.3518
   13.920    8.1201
   13.950    8.5940
   13.980    8.2359
   14.010    8.5835
   14.040    8.6677
   14.070    7.8989
   14.100    8.6361
   14.130    8.2780
   14.160    8.6045
   14.190    8.2149
   14.220    8.3728
   14.250    8.9521
   14.280    8.4150
   14.310    8.4044
   14.340    8.4466
   14.370    8.2359
   14.400    8.6045
   14.430    8.4676
   14.460    8.2149
   14.490    8.7730
   14.520    8.2149
   14.550    8.2149
   14.580    8.5203
   14.610    8.3834
   14.640    8.2570
   14.670    8.6783
   14.700    8.4781
   14.730    8.1938
   14.760    8.4044
   14.790    8.3202
   14.820    8.0147
   14.850    8.7309
   14.880    8.4781
   14.910    8.2254
   14.940    8.0779
   14.970    8.5940
   15.000    8.1517
   15.030    8.5729
   15.060    7.9937
   15.090    8.1201
   15.120    8.1622
   15.150    8.3307
   15.180    8.4466
   15.210    8.7414
   15.240    8.3307
   15.270    8.2254
   15.300    8.5308
   15.330    8.5203
   15.360    8.5940
   15.390    9.0047
   15.420    8.6888
   15.450    8.8257
   15.480    8.6361
   15.510    8.3412
   15.540    8.4992
   15.570    8.4887
   15.600    8.5413
   15.630    8.3834
   15.660    8.1306
   15.690    8.4360
   15.720    8.5203
   15.750    8.3834
   15.780    8.8678
   15.810    8.2149
   15.840    8.5519
   15.870    8.2570
   15.900    8.8784
   15.930    8.3096
   15.960    7.9305
   15.990    9.1101
   16.020    8.4044
   16.050    8.6888
   16.080    8.3518
   16.110    8.1517
   16.140    8.4992
   16.170    8.7520
   16.200    8.3307
   16.230    8.5729
   16.260    8.2570
   16.290    8.5624
   16.320    8.0253
   16.350    7.9726
   16.380    8.0779
   16.410    8.3728
   16.440    8.9626
   16.470    8.9942
   16.500    8.5308
   16.530    8.1201
   16.560    8.3728
   16.590    8.1833
   16.620    8.7941
   16.650    8.6677
   16.680    8.5097
   16.710    8.0885
   16.740    8.3412
   16.770    8.5729
   16.800    8.5413
   16.830    8.3834
   16.860    8.1306
   16.890    8.7098
   16.920    8.7520
   16.950    8.8362
   16.980    7.9937
   17.010    8.9415
   17.040    8.2886
   17.070    8.4044
   17.100    8.2780
   17.130    8.2043
   17.160    8.4255
   17.190    8.9626
   17.220    8.5097
   17.250    8.1201
   17.280    8.2359
   17.310    8.6888
   17.340    8.4360
   17.370    8.4255
   17.400    8.2464
   17.430    8.8678
   17.460    8.2464
   17.490    8.1201
   17.520    8.1938
   17.550    8.6993
   17.580    8.5835
   17.610    9.0785
   17.640    8.7204
   17.670    8.8573
   17.700    8.8784
   17.730    8.6467
   17.760    9.4050
   17.790    8.8152
   17.820    8.5203
   17.850    8.2991
   17.880    8.4360
   17.910    8.5097
   17.940    8.6045
   17.970    8.3518
   18.000    8.2886
   18.030    8.5413
   18.060    8.5835
   18.090    8.7730
   18.120    8.5519
   18.150    8.4887
   18.180    8.8362
   18.210    8.4992
   18.240    8.5097
   18.270    8.9521
   18.300    8.6256
   18.330    8.3412
   18.360    8.4255
   18.390    8.3728
   18.420    8.6993
   18.450    8.3939
   18.480    8.9837
   18.510    8.5308
   18.540    8.8678
   18.570    8.6151
   18.600    8.6256
   18.630    8.9521
   18.660    8.7414
   18.690    8.6151
   18.720    8.9310
   18.750    8.8468
   18.780    8.8784
   18.810    8.4150
   18.840    8.9415
   18.870    8.8994
   18.900    8.4992
   18.930    8.1411
   18.960    8.4887
   18.990    9.0679
   19.020    8.3834
   19.050    8.4676
   19.080    8.9100
   19.110    8.4360
   19.140    8.0885
   19.170    8.5203
   19.200    8.7098
   19.230    8.4360
   19.260    8.7309
   19.290    8.7414
   19.320    9.0363
   19.350    8.7414
   19.380    8.2991
   19.410    8.9100
   19.440    8.6572
   19.470    8.3834
   19.500    8.5308
   19.530    8.8257
   19.560    8.7098
   19.590    8.6361
   19.620    8.8257
   19.650    8.8152
   19.680    9.0469
   19.710    9.0047
   19.740    8.7730
   19.770    8.9626
   19.800    8.6256
   19.830    8.9415
   19.860    8.6888
   19.890    8.6993
   19.920    8.9837
   19.950    8.9626
   19.980    8.9415
   20.010    8.6467
   20.040    8.8468
   20.070    8.6151
   20.100    9.0679
   20.130    8.4150
   20.160    8.4887
   20.190    8.5624
   20.220    8.9521
   20.250    8.8046
   20.280    8.9731
   20.310    9.0679
   20.340    8.4571
   20.370    8.4571
   20.400    8.6361
   20.430    8.7941
   20.460    9.0153
   20.490    8.7204
   20.520    8.8468
   20.550    8.9415
   20.580    9.1311
   20.610    9.0363
   20.640    8.7625
   20.670    8.7309
   20.700    8.7414
   20.730    8.7941
   20.760    9.0995
   20.790    8.5729
   20.820    9.5524
   20.850    8.5203
   20.880    9.0574
   20.910    9.0995
   20.940    8.8362
   20.970    8.9100
   21.000    9.0785
   21.030    8.8046
   21.060    8.9837
   21.090    8.8257
   21.120    9.0679
   21.150    8.7836
   21.180    8.5940
   21.210    9.4260
   21.240    8.9942
   21.270    8.9942
   21.300    9.4155
   21.330    8.9942
   21.360    9.1311
   21.390    9.2575
   21.420    8.7309
   21.450    9.1311
   21.480    9.0469
   21.510    8.9100
   21.540    8.9837
   21.570    9.1943
   21.600    9.3523
   21.630    9.2680
   21.660    9.0890
   21.690    9.0469
   21.720    9.0785
   21.750    8.9837
   21.780    9.2786
   21.810    8.8257
   21.840    9.1838
   21.870    9.2048
   21.900    8.6256
   21.930    9.1943
   21.960    9.0363
   21.990    9.7314
   22.020    9.2470
   22.050    9.1627
   22.080    8.8889
   22.110    9.4155
   22.140    9.2470
   22.170    9.4997
   22.200    8.9415
   22.230    9.1206
   22.260    9.1417
   22.290    9.1732
   22.320    9.3628
   22.350    8.8046
   22.380    8.9942
   22.410    9.2154
   22.440    9.0785
   22.470    9.3734
   22.500    9.0153
   22.530    9.6472
   22.560    9.7104
   22.590    9.3734
   22.620    9.3839
   22.650    9.3734
   22.680    9.4787
   22.710    9.2996
   22.740    9.4892
   22.770    9.2048
   22.800    9.6051
   22.830    9.4997
   22.860    9.0890
   22.890    9.1732
   22.920    9.0363
   22.950    9.2364
   22.980    9.0469
   23.010    8.6467
   23.040    9.0153
   23.070    8.4466
   23.100    9.0469
   23.130    8.8678
   23.160    9.0469
   23.190    8.9942
   23.220    9.6051
   23.250    8.8362
   23.280    8.9205
   23.310    9.1417
   23.340    9.0679
   23.370    9.6788
   23.400    9.1522
   23.430    8.9942
   23.460    9.0153
   23.490    9.4155
   23.520    9.4050
   23.550    9.2364
   23.580    9.8789
   23.610    9.5208
   23.640    8.8468
   23.670    8.9942
   23.700    9.1206
   23.730    9.1943
   23.760    8.9415
   23.790    8.9837
   23.820    8.8994
   23.850    9.3628
   23.880    9.3102
   23.910    8.7730
   23.940    8.8994
   23.970    9.1101
   24.000    9.2680
   24.030    9.4471
   24.060    9.0785
   24.090    9.1417
   24.120    8.7098
   24.150    9.2364
   24.180    8.8362
   24.210    9.2259
   24.240    9.0679
   24.270    9.1206
   24.300    9.4155
   24.330    9.0258
   24.360    9.1101
   24.390    9.0153
   24.420    9.1732
   24.450    8.5308
   24.480    8.8784
   24.510    8.9626
   24.540    9.0363
   24.570    8.8257
   24.600    9.0153
   24.630    8.7098
   24.660    8.5940
   24.690    9.1522
   24.720    8.9731
   24.750    8.5624
   24.780    8.8678
   24.810    8.9837
   24.840    8.2991
   24.870    8.4887
   24.900    8.7098
   24.930    8.6888
   24.960    9.2575
   24.990    8.6572
   25.020    9.0258
   25.050    9.4787
   25.080    8.7730
   25.110    8.7836
   25.140    8.4360
   25.170    8.7836
   25.200    8.7414
   25.230    8.9415
   25.260    8.9626
   25.290    8.9626
   25.320    8.5940
   25.350    9.0785
   25.380    8.9837
   25.410    8.8573
   25.440    9.4681
   25.470    9.5629
   25.500    8.9415
   25.530    8.7625
   25.560    9.2575
   25.590   10.7214
   25.620    9.4576
   25.650    8.6677
   25.680    8.7730
   25.710    8.9100
   25.740    8.8994
   25.770    8.7098
   25.800    8.6572
   25.830    8.5203
   25.860    8.3939
   25.890    8.3518
   25.920    8.7414
   25.950    8.5097
   25.980    8.6572
   26.010    8.5940
   26.040    8.5835
   26.070    8.9837
   26.100    8.7625
   26.130    8.6572
   26.160    8.7520
   26.190    8.8152
   26.220    8.7414
   26.250    8.1095
   26.280    8.8152
   26.310    8.2780
   26.340    8.6361
   26.370    8.5308
   26.400    8.7941
   26.430    8.6467
   26.460    8.7836
   26.490    8.8994
   26.520    8.3623
   26.550    8.4781
   26.580    8.8046
   26.610    8.1938
   26.640    8.4887
   26.670    8.6151
   26.700    8.0779
   26.730    8.5203
   26.760    8.4150
   26.790    7.9200
   26.820    8.2886
   26.850    8.4887
   26.880    8.6677
   26.910    8.7098
   26.940    8.3623
   26.970    8.5940
   27.000    8.5413
   27.030    8.0253
   27.060    8.4571
   27.090    8.6467
   27.120    8.7414
   27.150    7.8884
   27.180    8.9521
   27.210    8.7836
   27.240    8.6467
   27.270    8.1411
   27.300    8.4887
   27.330    8.3412
   27.360    8.5519
   27.390    8.4781
   27.420    8.2780
   27.450    8.5203
   27.480    8.5308
   27.510    8.2149
   27.540    8.2464
   27.570    8.4676
   27.600    8.1833
   27.630    8.2254
   27.660    8.5097
   27.690    8.4676
   27.720    8.5097
   27.750    8.5624
   27.780    8.2991
   27.810    8.4676
   27.840    8.5940
   27.870    7.9094
   27.900    8.2043
   27.930    8.2991
   27.960    8.1306
   27.990    8.2043
   28.020    8.0779
   28.050    8.3939
   28.080    8.1201
   28.110    8.5097
   28.140    8.2359
   28.170    8.8784
   28.200    8.4781
   28.230    7.9726
   28.260    8.3096
   28.290    8.3728
   28.320    8.1411
   28.350    8.1201
   28.380    7.8673
   28.410    8.0569
   28.440    8.3623
   28.470    7.9726
   28.500    8.7204
   28.530    7.9621
   28.560    8.1411
   28.590    8.7098
   28.620    8.6677
   28.650    7.8778
   28.680    8.3096
   28.710    8.2043
   28.740    8.0674
   28.770    8.4255
   28.800    7.9305
   28.830    7.9621
   28.860    8.2254
   28.890    7.6567
   28.920    7.3407
   28.950    8.2570
   28.980    7.7830
   29.010    8.1201
   29.040    8.0147
   29.070    8.2043
   29.100    8.0779
   29.130    8.3412
   29.160    8.1095
   29.190    7.7830
   29.220    7.5197
   29.250    7.9305
   29.280    7.9094
   29.310    7.9726
   29.340    8.2254
   29.370    7.7409
   29.400    8.1306
   29.430    7.6672
   29.460    8.0147
   29.490    8.0358
   29.520    8.1938
   29.550    7.4144
   29.580    7.4987
   29.610    8.0358
   29.640    7.9200
   29.670    7.8357
   29.700    7.8357
   29.730    8.1411
   29.760    7.9410
   29.790    7.8041
   29.820    7.8778
   29.850    7.5724
   29.880    7.6145
   29.910    7.5408
   29.940    7.7304
   29.970    8.1201
   30.000    7.7409
   30.030    7.7409
   30.060    7.1933
   30.090    7.7725
   30.120    7.9726
   30.150    7.7725
   30.180    8.0147
   30.210    7.8146
   30.240    8.4360
   30.270    7.5724
   30.300    7.7936
   30.330    7.7409
   30.360    7.8146
   30.390    7.5724
   30.420    7.7725
   30.450    7.5829
   30.480    7.7620
   30.510    7.8673
   30.540    7.7725
   30.570    7.4671
   30.600    7.5197
   30.630    7.8884
   30.660    7.9410
   30.690    7.7936
   30.720    7.6777
   30.750    7.5829
   30.780    7.4987
   30.810    7.4987
   30.840    7.5829
   30.870    7.9516
   30.900    7.7725
   30.930    8.0569
   30.960    7.3512
   30.990    7.9305
   31.020    7.2775
   31.050    7.3407
   31.080    7.9516
   31.110    7.2880
   31.140    7.5092
   31.170    7.8884
   31.200    7.2670
   31.230    7.4460
   31.260    7.4776
   31.290    7.6567
   31.320    8.0463
   31.350    7.4987
   31.380    7.2880
   31.410    7.3196
   31.440    7.3618
   31.470    7.8252
   31.500    7.6988
   31.530    7.9410
   31.560    7.1617
   31.590    7.8568
   31.620    7.7936
   31.650    7.7409
   31.680    8.1622
   31.710    8.0253
   31.740    8.2359
   31.770    7.8146
   31.800    8.5097
   31.830    8.8468
   31.860    8.3939
   31.890    8.2359
   31.920    7.6567
   31.950    7.4566
   31.980    7.3723
   32.010    7.4882
   32.040    7.5092
   32.070    7.2670
   32.100    7.0458
   32.130    7.3302
   32.160    7.6251
   32.190    7.5408
   32.220    7.8778
   32.250    7.1195
   32.280    7.3723
   32.310    7.5303
   32.340    7.6251
   32.370    7.5724
   32.400    7.4882
   32.430    7.8989
   32.460    7.4566
   32.490    7.5724
   32.520    7.0879
   32.550    7.0879
   32.580    7.5092
   32.610    7.7620
   32.640    7.5935
   32.670    7.4987
   32.700    7.4987
   32.730    7.5724
   32.760    7.9726
   32.790    7.2565
   32.820    7.6672
   32.850    7.3302
   32.880    7.3512
   32.910    7.3934
   32.940    7.1511
   32.970    7.5935
   33.000    7.6461
   33.030    7.0037
   33.060    6.9089
   33.090    7.2775
   33.120    7.3196
   33.150    7.1933
   33.180    7.7093
   33.210    7.0563
   33.240    7.2038
   33.270    6.9089
   33.300    7.3618
   33.330    7.2354
   33.360    7.8041
   33.390    7.5724
   33.420    7.1617
   33.450    7.2459
   33.480    7.6356
   33.510    7.0458
   33.540    7.4882
   33.570    7.1195
   33.600    7.4882
   33.630    6.9932
   33.660    7.5724
   33.690    7.2038
   33.720    7.4776
   33.750    7.0248
   33.780    7.0669
   33.810    7.5935
   33.840    7.2775
   33.870    7.1933
   33.900    7.6777
   33.930    7.4671
   33.960    7.7409
   33.990    7.8568
   34.020    7.7409
   34.050    7.3512
   34.080    7.1722
   34.110    7.2249
   34.140    7.2249
   34.170    7.0985
   34.200    7.3618
   34.230    7.2880
   34.260    6.9300
   34.290    7.0879
   34.320    7.3407
   34.350    7.2775
   34.380    6.7825
   34.410    6.6877
   34.440    7.0774
   34.470    7.0248
   34.500    6.9405
   34.530    6.7615
   34.560    6.7720
   34.590    6.8457
   34.620    6.8668
   34.650    7.2249
   34.680    6.8352
   34.710    7.2775
   34.740    6.7615
   34.770    6.8878
   34.800    7.1722
   34.830    7.2670
   34.860    6.8457
   34.890    6.9721
   34.920    7.1617
   34.950    7.4460
   34.980    7.3407
   35.010    6.9405
   35.040    7.4460
   35.070    6.8141
   35.100    7.1195
   35.130    6.9089
   35.160    7.3091
   35.190    7.3512
   35.220    7.2249
   35.250    6.9405
   35.280    7.3828
   35.310    7.0142
   35.340    6.9721
   35.370    7.1617
   35.400    6.6983
   35.430    6.8036
   35.460    6.9510
   35.490    6.7930
   35.520    6.7930
   35.550    6.7509
   35.580    7.2565
   35.610    6.6877
   35.640    7.4355
   35.670    6.8036
   35.700    7.0458
   35.730    6.9194
   35.760    7.2986
   35.790    7.0563
   35.820    6.9721
   35.850    6.8562
   35.880    7.2565
   35.910    7.5408
   35.940    7.2880
   35.970    6.9405
   36.000    7.4882
   36.030    6.3296
   36.060    7.1301
   36.090    7.1301
   36.120    6.4876
   36.150    6.7193
   36.180    7.1933
   36.210    7.1827
   36.240    6.8141
   36.270    6.9089
   36.300    7.0248
   36.330    6.8246
   36.360    6.9300
   36.390    7.0879
   36.420    6.9194
   36.450    6.7930
   36.480    7.3302
   36.510    7.1301
   36.540    6.8984
   36.570    7.0879
   36.600    7.0248
   36.630    6.8457
   36.660    7.0353
   36.690    7.2038
   36.720    6.9721
   36.750    7.2143
   36.780    6.6983
   36.810    7.0879
   36.840    7.6040
   36.870    6.8457
   36.900    7.1511
   36.930    6.9194
   36.960    6.7930
   36.990    6.9932
   37.020    7.3196
   37.050    7.0142
   37.080    7.1406
   37.110    6.9300
   37.140    6.8036
   37.170    6.8246
   37.200    7.0458
   37.230    7.1195
   37.260    7.0248
   37.290    7.1301
   37.320    6.8457
   37.350    6.5192
   37.380    7.1406
   37.410    7.1511
   37.440    6.8141
   37.470    7.2143
   37.500    6.7404
   37.530    6.8668
   37.560    6.7193
   37.590    6.9616
   37.620    6.4771
   37.650    7.2565
   37.680    7.1933
   37.710    7.0458
   37.740    6.8141
   37.770    7.1933
   37.800    7.1933
   37.830    7.1722
   37.860    7.1827
   37.890    6.9089
   37.920    6.8878
   37.950    7.2143
   37.980    7.0248
   38.010    6.6772
   38.040    7.0563
   38.070    6.9194
   38.100    7.1827
   38.130    7.0037
   38.160    6.9510
   38.190    7.0879
   38.220    6.6667
   38.250    6.8141
   38.280    6.7404
   38.310    6.7088
   38.340    6.4666
   38.370    7.2354
   38.400    6.6983
   38.430    7.1406
   38.460    6.8562
   38.490    6.9405
   38.520    6.7509
   38.550    6.8984
   38.580    7.1090
   38.610    6.7404
   38.640    6.8141
   38.670    6.9405
   38.700    6.7193
   38.730    7.0774
   38.760    6.9194
   38.790    7.0985
   38.820    7.0142
   38.850    6.9932
   38.880    6.9826
   38.910    6.8457
   38.940    7.1617
   38.970    7.0774
   39.000    6.5298
   39.030    6.9194
   39.060    7.1933
   39.090    7.0774
   39.120    6.2875
   39.150    6.6877
   39.180    6.8562
   39.210    6.7825
   39.240    7.1933
   39.270    7.1617
   39.300    6.9089
   39.330    7.0774
   39.360    6.7825
   39.390    6.7720
   39.420    6.7088
   39.450    6.9194
   39.480    6.6561
   39.510    6.6456
   39.540    7.1722
   39.570    6.7404
   39.600    7.2986
   39.630    6.6035
   39.660    7.0458
   39.690    6.7404
   39.720    6.6456
   39.750    7.0669
   39.780    6.7404
   39.810    6.4350
   39.840    7.2670
   39.870    6.4350
   39.900    6.9405
   39.930    6.6772
   39.960    6.7088
   39.990    6.9194