File: data/MOCOF-1/PXRD/PXRD_KE-318_Cu-Ka1_capillary-1mm_60s-deg.xyd
    1.500   14.4207
    1.530   14.2759
    1.560   13.8977
    1.590   13.6080
    1.620   13.4185
    1.650   12.8892
    1.680   12.6488
    1.710   12.3626
    1.740   11.9809
    1.770   11.8913
    1.800   11.7685
    1.830   11.4543
    1.860   11.1567
    1.890   10.9882
    1.920   10.8355
    1.950   10.8083
    1.980   10.4915
    2.010   10.5977
    2.040   10.4713
    2.070   10.1071
    2.100   10.2150
    2.130   10.0649
    2.160    9.9895
    2.190    9.9772
    2.220    9.9886
    2.250    9.8253
    2.280    9.8789
    2.310    9.8508
    2.340    9.8534
    2.370    9.8956
    2.400    9.8710
    2.430    9.9456
    2.460    9.8631
    2.490    9.8534
    2.520   10.0140
    2.550   10.1975
    2.580   10.3186
    2.610   10.3423
    2.640   10.5494
    2.670   10.8583
    2.700   10.8276
    2.730   10.9733
    2.760   11.3156
    2.790   11.5403
    2.820   11.7246
    2.850   12.1485
    2.880   12.4750
    2.910   12.7830
    2.940   13.1701
    2.970   13.5958
    3.000   14.0943
    3.030   14.3233
    3.060   14.9579
    3.090   15.5582
    3.120   16.2313
    3.150   16.8852
    3.180   17.6523
    3.210   18.5589
    3.240   19.7885
    3.270   20.2791
    3.300   21.6535
    3.330   22.9928
    3.360   24.7244
    3.390   26.2191
    3.420   28.2280
    3.450   30.6468
    3.480   33.0200
    3.510   36.0146
    3.540   39.5103
    3.570   43.7221
    3.600   48.2614
    3.630   55.0816
    3.660   63.0656
    3.690   73.8669
    3.720   90.3765
    3.750  115.8873
    3.780  123.1043
    3.810   87.0827
    3.840   44.0065
    3.870   19.3856
    3.900   11.5684
    3.930    8.9319
    3.960    7.4434
    3.990    6.7062
    4.020    6.2129
    4.050    5.6503
    4.080    5.5933
    4.110    5.3440
    4.140    5.1738
    4.170    5.1053
    4.200    4.9649
    4.230    4.8675
    4.260    4.8411
    4.290    4.8929
    4.320    4.7297
    4.350    4.7569
    4.380    4.7253
    4.410    4.7446
    4.440    4.8025
    4.470    4.7349
    4.500    4.7025
    4.530    4.8034
    4.560    4.8701
    4.590    4.9008
    4.620    4.9140
    4.650    5.0781
    4.680    5.0641
    4.710    5.2010
    4.740    5.3019
    4.770    5.3607
    4.800    5.4599
    4.830    5.5924
    4.860    5.7952
    4.890    5.7837
    4.920    6.1427
    4.950    6.3270
    4.980    6.5886
    5.010    6.7685
    5.040    7.1467
    5.070    7.5829
    5.100    8.0077
    5.130    8.6625
    5.160    9.2961
    5.190   10.1132
    5.220   11.1585
    5.250   12.5224
    5.280   14.3593
    5.310   16.9888
    5.340   21.1962
    5.370   23.4773
    5.400   18.5457
    5.430   11.6526
    5.460    6.8931
    5.490    5.2159
    5.520    4.6682
    5.550    4.3628
    5.580    4.2084
    5.610    4.1662
    5.640    4.0820
    5.670    4.0679
    5.700    3.9977
    5.730    4.0319
    5.760    3.9021
    5.790    3.9231
    5.820    3.9784
    5.850    3.9064
    5.880    3.8898
    5.910    3.9424
    5.940    3.9767
    5.970    4.0056
    6.000    3.9372
    6.030    3.9512
    6.060    4.0153
    6.090    4.0548
    6.120    3.9854
    6.150    4.0513
    6.180    4.0469
    6.210    4.0916
    6.240    4.1601
    6.270    4.1513
    6.300    4.3461
    6.330    4.2303
    6.360    4.5594
    6.390    4.6911
    6.420    4.9096
    6.450    5.0606
    6.480    5.4151
    6.510    5.8127
    6.540    6.4990
    6.570    7.4425
    6.600    7.8585
    6.630    6.6588
    6.660    5.1580
    6.690    4.3260
    6.720    3.9310
    6.750    3.8415
    6.780    3.7493
    6.810    3.6905
    6.840    3.8626
    6.870    3.7388
    6.900    3.6695
    6.930    3.7353
    6.960    3.7687
    6.990    3.7221
    7.020    3.7300
    7.050    3.6993
    7.080    3.7406
    7.110    3.7678
    7.140    3.7932
    7.170    3.9398
    7.200    3.9258
    7.230    3.9258
    7.260    4.0442
    7.290    4.0899
    7.320    4.1557
    7.350    4.3312
    7.380    4.4102
    7.410    4.5164
    7.440    4.6384
    7.470    4.9430
    7.500    5.2247
    7.530    5.7899
    7.560    6.1822
    7.590    7.1818
    7.620    8.1683
    7.650    7.4408
    7.680    5.8627
    7.710    4.4918
    7.740    3.9275
    7.770    3.7967
    7.800    3.6238
    7.830    3.6818
    7.860    3.5975
    7.890    3.5993
    7.920    3.5475
    7.950    3.5519
    7.980    3.6168
    8.010    3.5413
    8.040    3.5721
    8.070    3.6616
    8.100    3.6958
    8.130    3.6186
    8.160    3.6756
    8.190    3.7406
    8.220    3.8476
    8.250    3.8634
    8.280    3.8292
    8.310    4.0205
    8.340    4.0355
    8.370    4.2364
    8.400    4.3786
    8.430    4.6323
    8.460    4.9868
    8.490    5.4265
    8.520    6.2278
    8.550    6.0786
    8.580    5.1913
    8.610    4.3225
    8.640    3.8503
    8.670    3.5975
    8.700    3.5721
    8.730    3.6230
    8.760    3.5712
    8.790    3.5387
    8.820    3.5879
    8.850    3.6151
    8.880    3.6739
    8.910    3.6414
    8.940    3.6370
    8.970    3.7555
    9.000    3.9073
    9.030    3.9152
    9.060    4.0785
    9.090    4.2838
    9.120    4.4717
    9.150    4.6832
    9.180    5.0676
    9.210    5.4678
    9.240    6.0295
    9.270    6.7702
    9.300    8.0305
    9.330    9.7148
    9.360   10.8083
    9.390    9.4769
    9.420    6.7474
    9.450    4.7771
    9.480    4.0153
    9.510    3.8266
    9.540    3.5808
    9.570    3.5422
    9.600    3.4580
    9.630    3.4781
    9.660    3.5624
    9.690    3.5887
    9.720    3.5721
    9.750    3.6519
    9.780    3.6686
    9.810    3.8397
    9.840    3.9486
    9.870    4.0644
    9.900    4.0811
    9.930    4.3777
    9.960    4.5436
    9.990    4.9280
   10.020    5.4467
   10.050    6.2603
   10.080    7.2845
   10.110    8.2192
   10.140    7.6426
   10.170    5.9988
   10.200    4.5963
   10.230    3.8634
   10.260    3.6352
   10.290    3.4948
   10.320    3.4316
   10.350    3.4667
   10.380    3.3877
   10.410    3.3860
   10.440    3.4053
   10.470    3.4044
   10.500    3.5238
   10.530    3.5738
   10.560    3.6493
   10.590    3.6388
   10.620    3.8283
   10.650    4.0451
   10.680    4.1197
   10.710    4.4681
   10.740    5.0070
   10.770    5.5617
   10.800    6.2182
   10.830    6.5622
   10.860    5.7899
   10.890    4.7323
   10.920    3.7809
   10.950    3.5817
   10.980    3.3913
   11.010    3.3869
   11.040    3.3614
   11.070    3.3140
   11.100    3.3105
   11.130    3.3737
   11.160    3.2903
   11.190    3.3149
   11.220    3.4588
   11.250    3.4878
   11.280    3.4983
   11.310    3.5835
   11.340    3.6976
   11.370    3.8582
   11.400    4.0249
   11.430    4.4848
   11.460    4.8508
   11.490    5.0009
   11.520    4.6612
   11.550    4.0609
   11.580    3.5922
   11.610    3.3667
   11.640    3.2026
   11.670    3.2280
   11.700    3.1824
   11.730    3.2070
   11.760    3.2903
   11.790    3.2508
   11.820    3.2385
   11.850    3.2614
   11.880    3.2965
   11.910    3.3219
   11.940    3.4132
   11.970    3.5633
   12.000    3.4896
   12.030    3.7353
   12.060    3.9688
   12.090    4.1864
   12.120    4.3760
   12.150    4.1689
   12.180    3.5598
   12.210    3.3298
   12.240    3.1876
   12.270    3.1315
   12.300    3.2113
   12.330    3.1824
   12.360    3.2263
   12.390    3.2078
   12.420    3.2640
   12.450    3.2816
   12.480    3.3351
   12.510    3.4035
   12.540    3.5589
   12.570    3.6519
   12.600    3.8459
   12.630    4.1785
   12.660    4.5085
   12.690    5.0904
   12.720    5.2036
   12.750    4.5506
   12.780    3.9767
   12.810    3.4106
   12.840    3.2938
   12.870    3.1481
   12.900    3.1604
   12.930    3.1324
   12.960    3.1543
   12.990    3.1078
   13.020    3.1438
   13.050    3.1920
   13.080    3.1762
   13.110    3.2008
   13.140    3.2842
   13.170    3.4167
   13.200    3.4176
   13.230    3.7037
   13.260    3.9705
   13.290    3.9951
   13.320    3.7616
   13.350    3.3711
   13.380    3.2175
   13.410    3.1560
   13.440    3.1692
   13.470    3.1771
   13.500    3.2737
   13.530    3.2236
   13.560    3.2851
   13.590    3.3325
   13.620    3.4229
   13.650    3.5685
   13.680    3.7590
   13.710    3.9977
   13.740    4.2838
   13.770    4.9008
   13.800    5.6003
   13.830    5.9233
   13.860    5.5626
   13.890    4.5129
   13.920    3.7581
   13.950    3.4413
   13.980    3.2456
   14.010    3.1043
   14.040    3.1192
   14.070    3.0814
   14.100    3.0920
   14.130    3.0288
   14.160    3.0463
   14.190    3.0305
   14.220    3.1016
   14.250    2.9191
   14.280    3.0463
   14.310    2.9463
   14.340    3.0446
   14.370    2.9910
   14.400    3.0569
   14.430    2.9735
   14.460    3.0341
   14.490    3.0130
   14.520    3.0349
   14.550    2.9831
   14.580    2.9700
   14.610    3.0604
   14.640    3.0867
   14.670    3.0727
   14.700    3.1227
   14.730    3.1868
   14.760    3.2026
   14.790    3.3333
   14.820    3.3895
   14.850    3.5080
   14.880    3.6072
   14.910    3.5185
   14.940    3.2482
   14.970    3.2061
   15.000    3.0542
   15.030    2.9823
   15.060    3.0095
   15.090    3.0016
   15.120    2.9753
   15.150    3.0253
   15.180    3.0086
   15.210    3.0191
   15.240    2.9717
   15.270    2.9577
   15.300    3.0393
   15.330    2.9489
   15.360    3.0358
   15.390    3.0639
   15.420    3.0025
   15.450    2.9805
   15.480    3.0577
   15.510    3.0042
   15.540    3.0042
   15.570    2.9726
   15.600    3.0314
   15.630    3.0762
   15.660    3.1736
   15.690    3.1481
   15.720    3.2333
   15.750    3.4623
   15.780    3.6510
   15.810    3.8740
   15.840    3.8942
   15.870    3.7309
   15.900    3.4272
   15.930    3.2157
   15.960    3.1841
   15.990    3.0147
   16.020    3.0981
   16.050    3.0156
   16.080    3.0112
   16.110    3.0551
   16.140    3.0490
   16.170    3.1481
   16.200    3.2315
   16.230    3.2306
   16.260    3.4527
   16.290    3.4808
   16.320    3.4588
   16.350    3.2684
   16.380    3.2596
   16.410    3.1043
   16.440    3.0630
   16.470    3.0876
   16.500    3.1130
   16.530    3.0858
   16.560    3.1192
   16.590    3.1683
   16.620    3.2377
   16.650    3.3316
   16.680    3.5694
   16.710    3.6826
   16.740    4.0012
   16.770    3.8336
   16.800    3.6010
   16.830    3.4483
   16.860    3.1324
   16.890    3.0858
   16.920    3.1262
   16.950    3.0639
   16.980    3.1402
   17.010    3.1701
   17.040    3.1806
   17.070    3.1894
   17.100    3.2596
   17.130    3.4378
   17.160    3.6493
   17.190    3.6431
   17.220    3.6493
   17.250    3.3939
   17.280    3.2491
   17.310    3.0771
   17.340    3.0937
   17.370    3.0727
   17.400    2.9928
   17.430    3.0604
   17.460    3.0999
   17.490    3.0551
   17.520    3.1955
   17.550    3.2113
   17.580    3.2745
   17.610    3.3061
   17.640    3.3009
   17.670    3.2728
   17.700    3.1525
   17.730    3.0964
   17.760    3.0823
   17.790    3.0630
   17.820    3.0253
   17.850    3.0139
   17.880    3.0209
   17.910    3.0481
   17.940    3.1833
   17.970    3.1727
   18.000    3.1771
   18.030    3.2824
   18.060    3.2675
   18.090    3.2438
   18.120    3.1341
   18.150    3.1025
   18.180    3.0147
   18.210    3.1473
   18.240    3.0525
   18.270    3.0788
   18.300    3.0621
   18.330    3.0744
   18.360    3.1473
   18.390    3.1446
   18.420    3.3096
   18.450    3.2903
   18.480    3.3184
   18.510    3.2438
   18.540    3.1710
   18.570    3.2026
   18.600    3.0393
   18.630    3.0393
   18.660    3.0683
   18.690    3.0376
   18.720    3.0147
   18.750    3.0595
   18.780    3.1113
   18.810    3.0569
   18.840    3.0613
   18.870    3.0832
   18.900    3.0920
   18.930    3.0718
   18.960    3.1982
   18.990    3.0253
   19.020    3.0718
   19.050    3.0349
   19.080    3.0183
   19.110    3.0428
   19.140    3.2078
   19.170    3.2824
   19.200    3.3088
   19.230    3.3974
   19.260    3.4255
   19.290    3.3772
   19.320    3.3123
   19.350    3.1833
   19.380    3.1236
   19.410    3.1525
   19.440    3.0981
   19.470    3.0121
   19.500    3.0832
   19.530    3.0621
   19.560    3.1095
   19.590    3.0200
   19.620    3.1841
   19.650    3.0595
   19.680    3.1280
   19.710    3.1359
   19.740    3.1104
   19.770    3.1718
   19.800    3.1631
   19.830    3.1982
   19.860    3.2561
   19.890    3.3412
   19.920    3.5800
   19.950    3.8292
   19.980    4.1057
   20.010    4.3154
   20.040    4.1653
   20.070    3.9907
   20.100    3.6493
   20.130    3.3518
   20.160    3.2342
   20.190    3.1780
   20.220    3.2210
   20.250    3.1596
   20.280    3.2061
   20.310    3.0911
   20.340    3.1481
   20.370    3.1008
   20.400    3.1262
   20.430    3.1894
   20.460    3.1095
   20.490    3.0771
   20.520    3.1473
   20.550    3.0727
   20.580    3.1166
   20.610    3.2385
   20.640    3.1648
   20.670    3.2587
   20.700    3.3061
   20.730    3.3693
   20.760    3.3816
   20.790    3.3465
   20.820    3.2693
   20.850    3.1666
   20.880    3.1613
   20.910    3.0665
   20.940    3.0639
   20.970    3.0367
   21.000    3.0946
   21.030    3.1192
   21.060    3.2008
   21.090    3.1192
   21.120    3.1034
   21.150    3.0964
   21.180    3.1955
   21.210    3.1104
   21.240    3.1262
   21.270    3.1376
   21.300    3.0981
   21.330    3.2517
   21.360    3.2508
   21.390    3.3158
   21.420    3.5510
   21.450    3.4869
   21.480    3.6124
   21.510    3.5817
   21.540    3.3641
   21.570    3.2789
   21.600    3.2280
   21.630    3.1797
   21.660    3.1639
   21.690    3.1710
   21.720    3.2061
   21.750    3.1464
   21.780    3.2140
   21.810    3.2658
   21.840    3.3114
   21.870    3.3711
   21.900    3.1069
   21.930    3.3061
   21.960    3.2052
   21.990    3.2772
   22.020    3.2956
   22.050    3.3834
   22.080    3.5563
   22.110    3.6800
   22.140    3.8801
   22.170    3.9705
   22.200    3.8196
   22.230    3.6809
   22.260    3.5062
   22.290    3.4176
   22.320    3.3895
   22.350    3.4448
   22.380    3.6168
   22.410    3.8424
   22.440    4.1504
   22.470    4.4629
   22.500    4.5998
   22.530    4.5936
   22.560    4.2400
   22.590    3.8942
   22.620    3.4632
   22.650    3.3447
   22.680    3.2227
   22.710    3.2719
   22.740    3.1841
   22.770    3.3307
   22.800    3.2859
   22.830    3.4018
   22.860    3.1648
   22.890    3.2991
   22.920    3.1920
   22.950    3.1938
   22.980    3.1868
   23.010    3.1543
   23.040    3.1499
   23.070    3.1876
   23.100    3.1683
   23.130    3.1955
   23.160    3.2210
   23.190    3.2263
   23.220    3.2043
   23.250    3.1490
   23.280    3.1253
   23.310    3.2535
   23.340    3.2745
   23.370    3.3483
   23.400    3.4334
   23.430    3.5413
   23.460    3.7397
   23.490    3.7283
   23.520    3.6633
   23.550    3.6010
   23.580    3.3158
   23.610    3.2903
   23.640    3.2166
   23.670    3.1280
   23.700    3.1087
   23.730    3.1912
   23.760    3.2368
   23.790    3.2587
   23.820    3.2737
   23.850    3.1955
   23.880    3.1543
   23.910    3.0876
   23.940    3.1288
   23.970    3.0972
   24.000    3.1280
   24.030    3.1560
   24.060    3.1464
   24.090    3.1771
   24.120    3.1964
   24.150    3.1622
   24.180    3.1560
   24.210    3.0893
   24.240    3.1850
   24.270    3.0753
   24.300    3.1227
   24.330    3.1078
   24.360    3.0586
   24.390    3.0639
   24.420    3.0463
   24.450    3.1991
   24.480    3.1192
   24.510    3.0920
   24.540    3.0262
   24.570    3.0323
   24.600    3.0244
   24.630    3.1464
   24.660    3.0613
   24.690    3.1043
   24.720    3.2403
   24.750    3.1929
   24.780    3.2377
   24.810    3.1192
   24.840    3.2017
   24.870    3.0911
   24.900    3.1174
   24.930    3.1955
   24.960    3.2078
   24.990    3.3105
   25.020    3.3483
   25.050    3.3772
   25.080    3.4360
   25.110    3.4202
   25.140    3.2780
   25.170    3.3447
   25.200    3.3202
   25.230    3.3930
   25.260    3.5457
   25.290    3.8775
   25.320    4.0609
   25.350    4.3110
   25.380    4.2364
   25.410    4.0548
   25.440    3.7590
   25.470    3.5001
   25.500    3.2552
   25.530    3.2614
   25.560    3.1166
   25.590    3.1604
   25.620    3.0937
   25.650    3.1982
   25.680    3.1596
   25.710    3.0876
   25.740    3.0341
   25.770    3.0665
   25.800    3.0183
   25.830    3.1955
   25.860    3.2113
   25.890    3.3386
   25.920    3.5273
   25.950    3.4404
   25.980    3.5089
   26.010    3.3921
   26.040    3.3246
   26.070    3.1596
   26.100    3.1376
   26.130    3.0823
   26.160    3.0718
   26.190    3.0262
   26.220    2.9928
   26.250    3.0007
   26.280    2.9682
   26.310    2.9726
   26.340    3.0358
   26.370    2.9867
   26.400    3.0305
   26.430    3.0437
   26.460    3.0946
   26.490    3.1192
   26.520    3.2122
   26.550    3.2184
   26.580    3.2982
   26.610    3.0139
   26.640    3.1192
   26.670    3.0147
   26.700    3.0025
   26.730    2.9252
   26.760    2.9989
   26.790    3.0200
   26.820    2.9410
   26.850    2.9928
   26.880    2.9077
   26.910    2.9410
   26.940    2.9331
   26.970    2.9393
   27.000    2.9516
   27.030    2.9796
   27.060    3.0692
   27.090    3.0481
   27.120    3.0147
   27.150    3.0174
   27.180    3.0147
   27.210    3.0288
   27.240    2.9182
   27.270    2.9191
   27.300    2.9919
   27.330    2.9621
   27.360    3.0358
   27.390    2.9981
   27.420    3.0042
   27.450    3.0200
   27.480    2.9630
   27.510    2.9682
   27.540    3.0068
   27.570    3.0393
   27.600    3.0850
   27.630    3.1113
   27.660    3.2491
   27.690    3.1411
   27.720    3.1569
   27.750    3.1288
   27.780    3.0437
   27.810    3.0147
   27.840    2.9489
   27.870    2.9946
   27.900    3.1552
   27.930    3.1797
   27.960    3.1517
   27.990    3.0946
   28.020    2.9893
   28.050    2.9498
   28.080    2.9103
   28.110    2.8752
   28.140    2.8778
   28.170    2.9349
   28.200    2.9182
   28.230    2.8655
   28.260    2.8410
   28.290    2.8928
   28.320    2.8743
   28.350    2.8849
   28.380    2.8217
   28.410    2.8673
   28.440    2.9349
   28.470    3.0183
   28.500    3.0341
   28.530    3.0147
   28.560    2.9665
   28.590    2.9217
   28.620    2.9419
   28.650    2.9849
   28.680    3.0314
   28.710    3.2184
   28.740    3.2859
   28.770    3.2807
   28.800    3.1710
   28.830    3.2026
   28.860    3.0560
   28.890    2.9472
   28.920    2.8208
   28.950    2.8541
   28.980    2.8190
   29.010    2.8357
   29.040    2.8550
   29.070    2.8506
   29.100    2.8375
   29.130    2.8173
   29.160    2.8629
   29.190    2.8857
   29.220    2.9094
   29.250    3.0121
   29.280    3.0639
   29.310    3.0437
   29.340    3.0209
   29.370    2.9577
   29.400    2.9902
   29.430    2.9164
   29.460    2.8181
   29.490    2.8664
   29.520    2.9717
   29.550    2.8892
   29.580    2.9094
   29.610    2.8594
   29.640    2.8032
   29.670    2.8401
   29.700    2.6997
   29.730    2.7620
   29.760    2.8217
   29.790    2.8480
   29.820    2.8024
   29.850    2.7690
   29.880    2.7506
   29.910    2.7181
   29.940    2.7137
   29.970    2.6953
   30.000    2.7971
   30.030    2.7383
   30.060    2.8436
   30.090    2.8445
   30.120    2.8103
   30.150    2.9103
   30.180    2.7427
   30.210    2.7155
   30.240    2.7971
   30.270    2.8857
   30.300    2.7725
   30.330    2.8418
   30.360    2.7541
   30.390    2.7620
   30.420    2.7304
   30.450    2.7023
   30.480    2.8076
   30.510    2.6338
   30.540    2.7128
   30.570    2.7041
   30.600    2.6768
   30.630    2.6154
   30.660    2.7111
   30.690    2.6733
   30.720    2.6786
   30.750    2.6233
   30.780    2.6962
   30.810    2.6953
   30.840    2.7936
   30.870    2.8094
   30.900    2.7093
   30.930    2.5943
   30.960    2.6839
   30.990    2.6891
   31.020    2.7348
   31.050    2.6461
   31.080    2.7058
   31.110    2.6602
   31.140    2.6532
   31.170    2.6847
   31.200    2.6005
   31.230    2.6575
   31.260    2.6926
   31.290    2.7532
   31.320    2.8436
   31.350    2.6856
   31.380    2.7593
   31.410    2.6330
   31.440    2.7207
   31.470    2.7137
   31.500    2.6321
   31.530    2.7207
   31.560    2.6865
   31.590    2.6514
   31.620    2.6207
   31.650    2.6444
   31.680    2.5987
   31.710    2.6479
   31.740    2.6216
   31.770    2.6777
   31.800    2.6374
   31.830    2.6461
   31.860    2.5575
   31.890    2.5917
   31.920    2.6347
   31.950    2.5259
   31.980    2.6619
   32.010    2.5180
   32.040    2.5171
   32.070    2.5452
   32.100    2.5645
   32.130    2.5241
   32.160    2.5312
   32.190    2.5189
   32.220    2.5654
   32.250    2.6417
   32.280    2.6918
   32.310    2.6812
   32.340    2.6751
   32.370    2.6549
   32.400    2.5689
   32.430    2.5645
   32.460    2.4908
   32.490    2.5391
   32.520    2.3960
   32.550    2.4513
   32.580    2.4601
   32.610    2.4925
   32.640    2.5066
   32.670    2.4838
   32.700    2.4425
   32.730    2.4320
   32.760    2.4864
   32.790    2.4434
   32.820    2.4785
   32.850    2.4767
   32.880    2.4381
   32.910    2.4302
   32.940    2.4838
   32.970    2.4522
   33.000    2.5233
   33.030    2.5048
   33.060    2.4952
   33.090    2.5338
   33.120    2.5101
   33.150    2.4671
   33.180    2.4811
   33.210    2.5250
   33.240    2.4724
   33.270    2.5312
   33.300    2.4557
   33.330    2.4197
   33.360    2.4645
   33.390    2.4487
   33.420    2.4083
   33.450    2.3916
   33.480    2.3732
   33.510    2.3670
   33.540    2.3934
   33.570    2.3653
   33.600    2.3705
   33.630    2.3767
   33.660    2.4609
   33.690    2.3995
   33.720    2.4724
   33.750    2.4697
   33.780    2.4934
   33.810    2.4741
   33.840    2.4302
   33.870    2.4074
   33.900    2.4197
   33.930    2.4083
   33.960    2.4302
   33.990    2.3995
   34.020    2.4136
   34.050    2.3082
   34.080    2.3407
   34.110    2.3547
   34.140    2.4171
   34.170    2.3354
   34.200    2.3723
   34.230    2.3372
   34.260    2.3468
   34.290    2.2784
   34.320    2.4100
   34.350    2.3662
   34.380    2.2336
   34.410    2.3574
   34.440    2.2380
   34.470    2.2187
   34.500    2.2810
   34.530    2.2705
   34.560    2.2837
   34.590    2.2916
   34.620    2.2959
   34.650    2.3240
   34.680    2.2512
   34.710    2.2617
   34.740    2.2898
   34.770    2.2363
   34.800    2.3170
   34.830    2.3012
   34.860    2.3232
   34.890    2.3495
   34.920    2.3267
   34.950    2.2468
   34.980    2.2643
   35.010    2.2407
   35.040    2.2003
   35.070    2.2643
   35.100    2.1880
   35.130    2.2468
   35.160    2.2801
   35.190    2.1766
   35.220    2.2354
   35.250    2.2565
   35.280    2.2556
   35.310    2.2942
   35.340    2.2705
   35.370    2.2433
   35.400    2.1976
   35.430    2.2398
   35.460    2.1968
   35.490    2.1959
   35.520    2.2240
   35.550    2.2047
   35.580    2.1933
   35.610    2.2556
   35.640    2.1810
   35.670    2.1924
   35.700    2.2380
   35.730    2.1933
   35.760    2.1836
   35.790    2.1555
   35.820    2.1266
   35.850    2.2898
   35.880    2.1485
   35.910    2.2161
   35.940    2.2705
   35.970    2.2310
   36.000    2.2222
   36.030    2.2494
   36.060    2.2231
   36.090    2.1494
   36.120    2.0932
   36.150    2.1476
   36.180    2.0950
   36.210    2.1081
   36.240    2.1099
   36.270    2.1476
   36.300    2.0827
   36.330    2.1099
   36.360    2.1546
   36.390    2.1871
   36.420    2.1432
   36.450    2.1827
   36.480    2.1827
   36.510    2.2407
   36.540    2.1801
   36.570    2.0941
   36.600    2.1301
   36.630    2.1222
   36.660    2.1020
   36.690    2.0590
   36.720    2.1318
   36.750    2.0572
   36.780    2.1037
   36.810    2.1230
   36.840    2.0879
   36.870    2.1345
   36.900    2.2003
   36.930    2.1696
   36.960    2.0484
   36.990    2.0362
   37.020    2.1511
   37.050    2.1239
   37.080    2.1195
   37.110    2.1520
   37.140    2.1248
   37.170    2.1362
   37.200    2.2082
   37.230    2.1617
   37.260    2.2082
   37.290    2.1713
   37.320    2.2020
   37.350    2.1924
   37.380    2.1239
   37.410    2.1327
   37.440    2.0871
   37.470    2.0686
   37.500    2.0599
   37.530    2.0484
   37.560    2.0125
   37.590    2.0572
   37.620    2.0397
   37.650    2.0204
   37.680    2.1327
   37.710    2.0449
   37.740    2.1099
   37.770    2.0686
   37.800    2.0994
   37.830    1.9642
   37.860    2.0125
   37.890    2.0388
   37.920    1.9888
   37.950    2.0221
   37.980    2.0950
   38.010    2.0572
   38.040    2.0133
   38.070    2.0344
   38.100    2.0221
   38.130    2.0335
   38.160    2.0081
   38.190    1.9949
   38.220    2.0432
   38.250    1.9765
   38.280    1.9844
   38.310    2.0028
   38.340    2.0169
   38.370    2.0458
   38.400    2.0906
   38.430    2.0467
   38.460    2.0730
   38.490    2.1239
   38.520    2.0046
   38.550    2.1108
   38.580    2.1160
   38.610    2.1406
   38.640    2.0291
   38.670    2.0748
   38.700    2.0581
   38.730    2.0362
   38.760    2.0432
   38.790    2.0116
   38.820    2.0616
   38.850    2.0388
   38.880    2.0309
   38.910    2.0599
   38.940    2.0335
   38.970    2.0888
   39.000    2.0423
   39.030    1.9861
   39.060    2.0546
   39.090    2.0116
   39.120    2.0247
   39.150    2.0555
   39.180    2.0239
   39.210    1.9949
   39.240    2.0160
   39.270    1.9870
   39.300    2.0379
   39.330    2.0599
   39.360    1.9967
   39.390    2.0581
   39.420    1.9782
   39.450    2.0098
   39.480    2.0537
   39.510    2.0906
   39.540    2.0116
   39.570    2.0950
   39.600    2.0599
   39.630    2.0634
   39.660    2.0388
   39.690    2.0765
   39.720    2.0704
   39.750    2.1143
   39.780    2.0932
   39.810    2.0765
   39.840    2.0423
   39.870    1.9967
   39.900    1.9817
   39.930    1.9993
   39.960    1.9493
   39.990    1.9405