File: data/MOCOF-1/PXRD/PXRD_KE-289-3_Cu-Ka1_film-3mm_3s-deg_no_collimeter.xyd
    1.500   23.9600
    1.530   24.1531
    1.560   22.1345
    1.590   23.5036
    1.620   21.1339
    1.650   20.8531
    1.680   20.0632
    1.710   19.2909
    1.740   18.6765
    1.770   18.5712
    1.800   19.2382
    1.830   18.5185
    1.860   17.7111
    1.890   17.6233
    1.920   17.0616
    1.950   16.7983
    1.980   15.5696
    2.010   16.0084
    2.040   14.7797
    2.070   15.4292
    2.100   14.3058
    2.130   14.8675
    2.160   14.5691
    2.190   13.7792
    2.220   13.6037
    2.250   14.1478
    2.280   13.5159
    2.310   13.0771
    2.340   13.1122
    2.370   13.1297
    2.400   12.2872
    2.430   12.6382
    2.460   12.4803
    2.490   12.2521
    2.520   11.4797
    2.550   12.4451
    2.580   12.0239
    2.610   12.3047
    2.640   11.7430
    2.670   11.6377
    2.700   11.3569
    2.730   11.6728
    2.760   11.2164
    2.790   10.9180
    2.820   11.4797
    2.850   11.7606
    2.880   10.7600
    2.910   10.8654
    2.940   10.5143
    2.970   10.7776
    3.000   10.6898
    3.030   10.6021
    3.060   10.4441
    3.090   11.2164
    3.120   11.1638
    3.150   11.6904
    3.180   11.5148
    3.210   11.8659
    3.240   11.5675
    3.270   12.4276
    3.300   12.6733
    3.330   13.1473
    3.360   13.4983
    3.390   13.9723
    3.420   14.7973
    3.450   15.5520
    3.480   16.2191
    3.510   16.9563
    3.540   18.8871
    3.570   20.5547
    3.600   22.9243
    3.630   25.2062
    3.660   27.8392
    3.690   32.1573
    3.720   36.1243
    3.750   43.0578
    3.780   51.1146
    3.810   65.8592
    3.840   76.6544
    3.870   71.1252
    3.900   50.7811
    3.930   28.3483
    3.960   16.8159
    3.990   12.3925
    4.020   10.8829
    4.050   10.2686
    4.080   10.4968
    4.110   10.3739
    4.140    9.8999
    4.170    9.3909
    4.200    9.5313
    4.230   10.0755
    4.260    9.4787
    4.290    9.6367
    4.320    9.7069
    4.350    8.9345
    4.380    9.7069
    4.410    9.3207
    4.440    9.2154
    4.470    9.3382
    4.500    8.7941
    4.530    8.9170
    4.560    9.3207
    4.590    8.6888
    4.620    9.0223
    4.650    9.6718
    4.680    8.7239
    4.710    9.1452
    4.740    8.7941
    4.770    9.2505
    4.800    9.5840
    4.830    9.9702
    4.860    9.5840
    4.890   10.0053
    4.920    9.4962
    4.950    9.8297
    4.980    9.6893
    5.010    9.4611
    5.040   10.6547
    5.070   10.1983
    5.100   10.4441
    5.130   10.5670
    5.160   11.4446
    5.190   10.9180
    5.220   11.5324
    5.250   12.1643
    5.280   12.8840
    5.310   13.7090
    5.340   13.8669
    5.370   15.2887
    5.400   16.8861
    5.430   18.9222
    5.460   21.6605
    5.490   21.2568
    5.520   18.2026
    5.550   13.9196
    5.580   12.6207
    5.610   11.7430
    5.640   11.7781
    5.670   11.3393
    5.700   11.2340
    5.730   10.9356
    5.760   10.5670
    5.790   10.2861
    5.820   10.0228
    5.850    9.9526
    5.880    9.7069
    5.910   10.1106
    5.940    9.5664
    5.970   10.0579
    6.000    9.1803
    6.030    9.7069
    6.060    8.5308
    6.090    8.8819
    6.120    8.8117
    6.150    8.8643
    6.180    8.6537
    6.210    8.4430
    6.240    8.6010
    6.270    8.3202
    6.300    8.7414
    6.330    8.5835
    6.360    8.5835
    6.390    8.4430
    6.420    8.5835
    6.450    8.6186
    6.480    8.3202
    6.510    8.4957
    6.540    8.6888
    6.570    8.3904
    6.600    8.4957
    6.630    8.7590
    6.660    9.0223
    6.690    9.5138
    6.720    9.3207
    6.750    9.2154
    6.780    8.9345
    6.810    7.8989
    6.840    7.8287
    6.870    7.7760
    6.900    7.4776
    6.930    7.7936
    6.960    7.5654
    6.990    7.8111
    7.020    7.7234
    7.050    7.5127
    7.080    7.0739
    7.110    7.6532
    7.140    7.2670
    7.170    7.3021
    7.200    7.3021
    7.230    7.0739
    7.260    7.0563
    7.290    6.8106
    7.320    6.7053
    7.350    6.7930
    7.380    7.0212
    7.410    6.9335
    7.440    7.2845
    7.470    7.1968
    7.500    6.8808
    7.530    7.6532
    7.560    7.3547
    7.590    7.0915
    7.620    6.7053
    7.650    8.3202
    7.680    7.6532
    7.710    9.2680
    7.740    9.6542
    7.770   10.9531
    7.800    9.6367
    7.830    8.4430
    7.860    7.0212
    7.890    7.1792
    7.920    6.6351
    7.950    6.7930
    7.980    6.6000
    8.010    6.3893
    8.040    6.3718
    8.070    6.4946
    8.100    6.7053
    8.130    6.3367
    8.160    6.3893
    8.190    6.8984
    8.220    6.3016
    8.250    6.3718
    8.280    6.6702
    8.310    6.1962
    8.340    7.1792
    8.370    5.9505
    8.400    6.7930
    8.430    6.5298
    8.460    6.4595
    8.490    6.0909
    8.520    6.3718
    8.550    6.1611
    8.580    6.0734
    8.610    6.9159
    8.640    6.5824
    8.670    6.3367
    8.700    6.8633
    8.730    6.5824
    8.760    6.2138
    8.790    6.5298
    8.820    6.2665
    8.850    6.4069
    8.880    6.1260
    8.910    5.9505
    8.940    6.1260
    8.970    5.7925
    9.000    6.2489
    9.030    6.3016
    9.060    5.8101
    9.090    5.8627
    9.120    6.2489
    9.150    6.1962
    9.180    5.7925
    9.210    6.6351
    9.240    5.9329
    9.270    6.0207
    9.300    5.9505
    9.330    5.9505
    9.360    6.2313
    9.390    7.1090
    9.420    7.3021
    9.450    7.3021
    9.480    8.3904
    9.510   10.2686
    9.540   10.6372
    9.570    9.4611
    9.600    9.3031
    9.630    7.3372
    9.660    6.4595
    9.690    6.1611
    9.720    6.3367
    9.750    6.0558
    9.780    5.8101
    9.810    5.8627
    9.840    6.6702
    9.870    5.9681
    9.900    6.1085
    9.930    5.8101
    9.960    5.9681
    9.990    6.1962
   10.020    6.0909
   10.050    6.0558
   10.080    6.1260
   10.110    6.1787
   10.140    6.3542
   10.170    6.4420
   10.200    6.6702
   10.230    6.6000
   10.260    6.8984
   10.290    7.6532
   10.320    7.9340
   10.350    7.4601
   10.380    6.3016
   10.410    6.8282
   10.440    5.9681
   10.470    6.5298
   10.500    6.0207
   10.530    6.1787
   10.560    6.0207
   10.590    5.6872
   10.620    6.1787
   10.650    6.7579
   10.680    6.0032
   10.710    6.3191
   10.740    6.3542
   10.770    6.5649
   10.800    6.7579
   10.830    6.1787
   10.860    7.1617
   10.890    6.6000
   10.920    6.7755
   10.950    6.8808
   10.980    7.8287
   11.010    7.9516
   11.040    8.2500
   11.070    7.5478
   11.100    6.9159
   11.130    6.5473
   11.160    6.4595
   11.190    6.2489
   11.220    6.5473
   11.250    6.1085
   11.280    6.4946
   11.310    6.3016
   11.340    6.7930
   11.370    6.5649
   11.400    6.1260
   11.430    5.9681
   11.460    6.3016
   11.490    6.1085
   11.520    6.6000
   11.550    6.4069
   11.580    6.3718
   11.610    6.6175
   11.640    6.5473
   11.670    7.2319
   11.700    8.1973
   11.730    8.1622
   11.760    7.2494
   11.790    6.7579
   11.820    6.3191
   11.850    6.3718
   11.880    6.0383
   11.910    6.3016
   11.940    5.8627
   11.970    6.0032
   12.000    5.5292
   12.030    5.8101
   12.060    6.2489
   12.090    5.8627
   12.120    5.7750
   12.150    5.7399
   12.180    5.9505
   12.210    6.3367
   12.240    5.8627
   12.270    5.7750
   12.300    6.1611
   12.330    6.3542
   12.360    6.7228
   12.390    5.8101
   12.420    5.8452
   12.450    5.7925
   12.480    6.0558
   12.510    5.9505
   12.540    6.2840
   12.570    5.9329
   12.600    5.7750
   12.630    6.1085
   12.660    5.8803
   12.690    5.6170
   12.720    5.7048
   12.750    5.1957
   12.780    5.7574
   12.810    6.0558
   12.840    6.2489
   12.870    6.7053
   12.900    7.1266
   12.930    6.8457
   12.960    6.6351
   12.990    6.1436
   13.020    6.4420
   13.050    5.6697
   13.080    5.7223
   13.110    5.8276
   13.140    5.4415
   13.170    6.1436
   13.200    5.7048
   13.230    5.8101
   13.260    5.6697
   13.290    5.7048
   13.320    5.7574
   13.350    5.5117
   13.380    5.8627
   13.410    6.1436
   13.440    5.9505
   13.470    5.7750
   13.500    6.0032
   13.530    6.0909
   13.560    6.3718
   13.590    6.3191
   13.620    6.0032
   13.650    5.9329
   13.680    5.8101
   13.710    5.1080
   13.740    5.3888
   13.770    5.8978
   13.800    5.5468
   13.830    5.5643
   13.860    6.0032
   13.890    5.8627
   13.920    6.7579
   13.950    5.6345
   13.980    6.0032
   14.010    5.9154
   14.040    6.3016
   14.070    6.2138
   14.100    7.1441
   14.130    6.2138
   14.160    6.4595
   14.190    6.0734
   14.220    6.1436
   14.250    6.2665
   14.280    5.7925
   14.310    5.8978
   14.340    6.1611
   14.370    5.8452
   14.400    5.8627
   14.430    6.1260
   14.460    6.4244
   14.490    5.9329
   14.520    5.9505
   14.550    6.5122
   14.580    5.6872
   14.610    5.8978
   14.640    5.9856
   14.670    5.9681
   14.700    5.8978
   14.730    5.3712
   14.760    5.9856
   14.790    5.9856
   14.820    5.8978
   14.850    5.6521
   14.880    6.0558
   14.910    5.6521
   14.940    5.5117
   14.970    5.8978
   15.000    5.5468
   15.030    5.7750
   15.060    5.8101
   15.090    6.0207
   15.120    5.7048
   15.150    5.8276
   15.180    6.3016
   15.210    6.3893
   15.240    5.6345
   15.270    5.9329
   15.300    5.7399
   15.330    5.7223
   15.360    5.6697
   15.390    5.3888
   15.420    5.3361
   15.450    5.5292
   15.480    5.4941
   15.510    5.7399
   15.540    5.7750
   15.570    5.5292
   15.600    5.8452
   15.630    5.6521
   15.660    5.7925
   15.690    5.4766
   15.720    5.3186
   15.750    5.1431
   15.780    5.5994
   15.810    5.8276
   15.840    5.9329
   15.870    5.3712
   15.900    5.6697
   15.930    5.3712
   15.960    5.7223
   15.990    5.4064
   16.020    5.5643
   16.050    5.7399
   16.080    5.8276
   16.110    5.7574
   16.140    6.1787
   16.170    6.3893
   16.200    5.9505
   16.230    5.8627
   16.260    5.1957
   16.290    6.0032
   16.320    5.6345
   16.350    5.9154
   16.380    5.3712
   16.410    6.1085
   16.440    5.4239
   16.470    5.5643
   16.500    5.6170
   16.530    5.7574
   16.560    6.1085
   16.590    5.8101
   16.620    6.0032
   16.650    5.7750
   16.680    6.0207
   16.710    5.9505
   16.740    5.3888
   16.770    5.5819
   16.800    5.3712
   16.830    5.6170
   16.860    5.4415
   16.890    5.6170
   16.920    5.9329
   16.950    5.8978
   16.980    5.2484
   17.010    5.8627
   17.040    5.9681
   17.070    6.0558
   17.100    6.3016
   17.130    5.7223
   17.160    5.5117
   17.190    5.4239
   17.220    5.6697
   17.250    4.9851
   17.280    5.6170
   17.310    5.7925
   17.340    5.4064
   17.370    5.7399
   17.400    5.4766
   17.430    6.0032
   17.460    5.7399
   17.490    5.5292
   17.520    6.0032
   17.550    6.0909
   17.580    5.5994
   17.610    5.4064
   17.640    5.5994
   17.670    5.0202
   17.700    5.5117
   17.730    5.9505
   17.760    5.5117
   17.790    5.4239
   17.820    5.7223
   17.850    5.6872
   17.880    5.9329
   17.910    5.8452
   17.940    5.7750
   17.970    5.2659
   18.000    5.7750
   18.030    5.4941
   18.060    5.3186
   18.090    5.7750
   18.120    5.7574
   18.150    5.8627
   18.180    5.4590
   18.210    5.7925
   18.240    5.6697
   18.270    5.6521
   18.300    5.4064
   18.330    5.2835
   18.360    5.7048
   18.390    5.6345
   18.420    5.8276
   18.450    5.6697
   18.480    5.3010
   18.510    5.4941
   18.540    5.9681
   18.570    5.2659
   18.600    5.5292
   18.630    5.4415
   18.660    5.1782
   18.690    5.0728
   18.720    5.5994
   18.750    5.7925
   18.780    5.5117
   18.810    5.6521
   18.840    5.3186
   18.870    5.2308
   18.900    5.4415
   18.930    5.0904
   18.960    5.5994
   18.990    5.5292
   19.020    5.6345
   19.050    5.3186
   19.080    5.3361
   19.110    5.6170
   19.140    5.4239
   19.170    5.5643
   19.200    5.1606
   19.230    5.4064
   19.260    5.4239
   19.290    5.0202
   19.320    5.5117
   19.350    5.5994
   19.380    5.0202
   19.410    5.3712
   19.440    5.5994
   19.470    5.7048
   19.500    5.1080
   19.530    5.0904
   19.560    4.9675
   19.590    5.5117
   19.620    5.5819
   19.650    5.2484
   19.680    5.3361
   19.710    5.1957
   19.740    5.5819
   19.770    5.3537
   19.800    5.0026
   19.830    5.4766
   19.860    5.1782
   19.890    5.2484
   19.920    5.1431
   19.950    5.2835
   19.980    5.4590
   20.010    5.3712
   20.040    4.9324
   20.070    5.0553
   20.100    5.7574
   20.130    4.8095
   20.160    5.0904
   20.190    5.2308
   20.220    5.0377
   20.250    5.3010
   20.280    5.6170
   20.310    5.5994
   20.340    5.6170
   20.370    5.7223
   20.400    6.3016
   20.430    5.9856
   20.460    5.2659
   20.490    5.5819
   20.520    5.3361
   20.550    5.5643
   20.580    4.9500
   20.610    4.7218
   20.640    5.0728
   20.670    5.3186
   20.700    4.8447
   20.730    5.2308
   20.760    5.3010
   20.790    4.8271
   20.820    5.4239
   20.850    5.0377
   20.880    5.2484
   20.910    5.0202
   20.940    5.4766
   20.970    5.0904
   21.000    4.8973
   21.030    4.7569
   21.060    4.9675
   21.090    5.2659
   21.120    4.8798
   21.150    4.8973
   21.180    4.9149
   21.210    4.5287
   21.240    4.9675
   21.270    5.0553
   21.300    4.8622
   21.330    5.4766
   21.360    4.9500
   21.390    5.1431
   21.420    5.3712
   21.450    5.0904
   21.480    5.0202
   21.510    4.8622
   21.540    4.7744
   21.570    5.2659
   21.600    5.0553
   21.630    4.9675
   21.660    5.1431
   21.690    4.9324
   21.720    4.9149
   21.750    4.8447
   21.780    4.9149
   21.810    5.4239
   21.840    5.6170
   21.870    5.5819
   21.900    5.4590
   21.930    5.5994
   21.960    4.8447
   21.990    4.8095
   22.020    4.3883
   22.050    4.9500
   22.080    4.6691
   22.110    5.1782
   22.140    5.0553
   22.170    5.0553
   22.200    5.4415
   22.230    4.7920
   22.260    5.1782
   22.290    4.7569
   22.320    5.2308
   22.350    5.2133
   22.380    4.8095
   22.410    4.7393
   22.440    5.1255
   22.470    5.2308
   22.500    5.0904
   22.530    5.2133
   22.560    5.5468
   22.590    6.0558
   22.620    5.5468
   22.650    5.5117
   22.680    4.9851
   22.710    4.8095
   22.740    4.7744
   22.770    4.5989
   22.800    5.0202
   22.830    5.0026
   22.860    4.8095
   22.890    5.5292
   22.920    5.8452
   22.950    5.5468
   22.980    5.6170
   23.010    5.0904
   23.040    5.2133
   23.070    4.8798
   23.100    5.0202
   23.130    4.7569
   23.160    4.8271
   23.190    4.8973
   23.220    4.8622
   23.250    5.3712
   23.280    5.0728
   23.310    5.0202
   23.340    4.7218
   23.370    4.4409
   23.400    4.9500
   23.430    4.9851
   23.460    4.9675
   23.490    4.7744
   23.520    4.6867
   23.550    5.2835
   23.580    5.1080
   23.610    4.9149
   23.640    4.4936
   23.670    5.2484
   23.700    4.5463
   23.730    4.9324
   23.760    4.5638
   23.790    4.6340
   23.820    4.7218
   23.850    4.9149
   23.880    4.6165
   23.910    4.8622
   23.940    4.8798
   23.970    4.6867
   24.000    4.5814
   24.030    5.0904
   24.060    4.5638
   24.090    4.8973
   24.120    4.8271
   24.150    4.4409
   24.180    4.4585
   24.210    4.5111
   24.240    4.5638
   24.270    4.6691
   24.300    4.5111
   24.330    4.1952
   24.360    4.6691
   24.390    4.2654
   24.420    4.3883
   24.450    4.4234
   24.480    4.4760
   24.510    4.3005
   24.540    4.6691
   24.570    4.6165
   24.600    4.6691
   24.630    4.6867
   24.660    4.4409
   24.690    4.2478
   24.720    4.7920
   24.750    4.8095
   24.780    4.4409
   24.810    4.3707
   24.840    4.3532
   24.870    4.5463
   24.900    4.0197
   24.930    4.5638
   24.960    4.7569
   24.990    4.7393
   25.020    4.2127
   25.050    4.5638
   25.080    4.5814
   25.110    4.4409
   25.140    4.4936
   25.170    4.5989
   25.200    4.3883
   25.230    4.4234
   25.260    4.1601
   25.290    4.4760
   25.320    4.3532
   25.350    4.2654
   25.380    4.5111
   25.410    4.4585
   25.440    4.0899
   25.470    4.6165
   25.500    4.4409
   25.530    4.7218
   25.560    4.3005
   25.590    4.5989
   25.620    4.3181
   25.650    4.6165
   25.680    4.0899
   25.710    4.4409
   25.740    4.5989
   25.770    4.7393
   25.800    4.5287
   25.830    5.1957
   25.860    4.6691
   25.890    4.5111
   25.920    4.4409
   25.950    4.3005
   25.980    4.4409
   26.010    4.4585
   26.040    4.3181
   26.070    4.1776
   26.100    4.1074
   26.130    4.2830
   26.160    4.1776
   26.190    4.1601
   26.220    4.3707
   26.250    4.3181
   26.280    4.4760
   26.310    4.0548
   26.340    4.3005
   26.370    3.7564
   26.400    4.2830
   26.430    4.2654
   26.460    4.3883
   26.490    4.3707
   26.520    4.1074
   26.550    3.7388
   26.580    4.4760
   26.610    4.0899
   26.640    4.3883
   26.670    4.3532
   26.700    4.0372
   26.730    4.5989
   26.760    4.1601
   26.790    4.1250
   26.820    3.6510
   26.850    3.7739
   26.880    3.8441
   26.910    4.2654
   26.940    4.5111
   26.970    4.1601
   27.000    4.3707
   27.030    3.8968
   27.060    4.3005
   27.090    4.4585
   27.120    4.5287
   27.150    3.7564
   27.180    3.8792
   27.210    4.2303
   27.240    4.0548
   27.270    3.9670
   27.300    4.0548
   27.330    3.5106
   27.360    3.6335
   27.390    4.0197
   27.420    3.8266
   27.450    3.8968
   27.480    4.1776
   27.510    4.2127
   27.540    4.2654
   27.570    4.0372
   27.600    4.1601
   27.630    4.2830
   27.660    4.4409
   27.690    3.8968
   27.720    3.6159
   27.750    3.9143
   27.780    3.7388
   27.810    3.8968
   27.840    4.2127
   27.870    3.7739
   27.900    3.8441
   27.930    4.2127
   27.960    4.1074
   27.990    3.8968
   28.020    3.8617
   28.050    3.9494
   28.080    4.3181
   28.110    4.0548
   28.140    4.0197
   28.170    4.2654
   28.200    3.9494
   28.230    4.4234
   28.260    4.1776
   28.290    3.8968
   28.320    3.9494
   28.350    3.7915
   28.380    3.8441
   28.410    3.9319
   28.440    4.3005
   28.470    4.0372
   28.500    3.8968
   28.530    3.9494
   28.560    3.7037
   28.590    3.6862
   28.620    3.7915
   28.650    3.7739
   28.680    3.5633
   28.710    3.7388
   28.740    3.9494
   28.770    4.3707
   28.800    3.9846
   28.830    3.8792
   28.860    3.7037
   28.890    3.7037
   28.920    4.1952
   28.950    4.0899
   28.980    3.7388
   29.010    4.1776
   29.040    3.8968
   29.070    4.0021
   29.100    4.4409
   29.130    3.7739
   29.160    3.9143
   29.190    4.1601
   29.220    4.0372
   29.250    3.7739
   29.280    3.5984
   29.310    3.7037
   29.340    3.8090
   29.370    3.8792
   29.400    3.8968
   29.430    3.7564
   29.460    3.5633
   29.490    3.5106
   29.520    3.8617
   29.550    3.4931
   29.580    3.9846
   29.610    3.3000
   29.640    3.7037
   29.670    3.5106
   29.700    3.3175
   29.730    3.5282
   29.760    3.3877
   29.790    3.6510
   29.820    3.9494
   29.850    3.4229
   29.880    3.9143
   29.910    3.5457
   29.940    3.2122
   29.970    3.6159
   30.000    3.6335
   30.030    3.5984
   30.060    3.2649
   30.090    3.5282
   30.120    3.1596
   30.150    3.1947
   30.180    3.6159
   30.210    3.7564
   30.240    2.9489
   30.270    3.3702
   30.300    3.5457
   30.330    3.8792
   30.360    3.5282
   30.390    3.4229
   30.420    3.7739
   30.450    3.4053
   30.480    3.5984
   30.510    3.3000
   30.540    3.3000
   30.570    3.1947
   30.600    3.5808
   30.630    3.4404
   30.660    3.4580
   30.690    3.4931
   30.720    3.5984
   30.750    3.7213
   30.780    3.4580
   30.810    3.9494
   30.840    3.4404
   30.870    3.2649
   30.900    3.3175
   30.930    3.5106
   30.960    3.5808
   30.990    3.5106
   31.020    2.9489
   31.050    3.0542
   31.080    2.8436
   31.110    3.4931
   31.140    3.4404
   31.170    3.2122
   31.200    3.5633
   31.230    3.4229
   31.260    3.0191
   31.290    3.3702
   31.320    3.4404
   31.350    3.0542
   31.380    2.9665
   31.410    3.2473
   31.440    3.6686
   31.470    3.2473
   31.500    3.5984
   31.530    3.1596
   31.560    3.2824
   31.590    2.6330
   31.620    3.2649
   31.650    3.6159
   31.680    3.3702
   31.710    3.6510
   31.740    4.2303
   31.770    4.9675
   31.800    4.4234
   31.830    4.1250
   31.860    3.3175
   31.890    3.2824
   31.920    3.3702
   31.950    3.5282
   31.980    3.4053
   32.010    3.1420
   32.040    3.3175
   32.070    2.7383
   32.100    3.1947
   32.130    3.1771
   32.160    3.1596
   32.190    2.8612
   32.220    3.3877
   32.250    3.4580
   32.280    2.9489
   32.310    2.9489
   32.340    2.6154
   32.370    3.0367
   32.400    3.1596
   32.430    2.9314
   32.460    3.3175
   32.490    3.3000
   32.520    3.1596
   32.550    2.8612
   32.580    2.9138
   32.610    3.4229
   32.640    3.0191
   32.670    2.7383
   32.700    2.8436
   32.730    3.2824
   32.760    3.0718
   32.790    3.1420
   32.820    3.2298
   32.850    3.2122
   32.880    3.2649
   32.910    3.2824
   32.940    2.9665
   32.970    3.1245
   33.000    3.7213
   33.030    3.0718
   33.060    3.2122
   33.090    3.2649
   33.120    2.9489
   33.150    3.0893
   33.180    3.0718
   33.210    3.2298
   33.240    2.8260
   33.270    2.5979
   33.300    2.9840
   33.330    3.1947
   33.360    3.0191
   33.390    2.9665
   33.420    2.8963
   33.450    3.1420
   33.480    2.9138
   33.510    2.9489
   33.540    2.9840
   33.570    2.8085
   33.600    2.9665
   33.630    3.0016
   33.660    3.0542
   33.690    2.8612
   33.720    2.8612
   33.750    2.9489
   33.780    3.3175
   33.810    2.7207
   33.840    2.8085
   33.870    3.1069
   33.900    3.3702
   33.930    3.8090
   33.960    4.0372
   33.990    3.4755
   34.020    3.1771
   34.050    3.1420
   34.080    2.9314
   34.110    2.8260
   34.140    3.0016
   34.170    2.9314
   34.200    2.8085
   34.230    2.8963
   34.260    2.8612
   34.290    2.9138
   34.320    3.2473
   34.350    2.7558
   34.380    2.7909
   34.410    3.1069
   34.440    3.0367
   34.470    2.7734
   34.500    2.9840
   34.530    2.8787
   34.560    2.8260
   34.590    2.9138
   34.620    2.6856
   34.650    2.9840
   34.680    3.0893
   34.710    2.8787
   34.740    3.0367
   34.770    3.1245
   34.800    2.9840
   34.830    2.6681
   34.860    3.4580
   34.890    3.3351
   34.920    3.0367
   34.950    2.7558
   34.980    2.6154
   35.010    2.8612
   35.040    2.7558
   35.070    2.6856
   35.100    3.0718
   35.130    2.7734
   35.160    2.9314
   35.190    3.0191
   35.220    2.8963
   35.250    2.8787
   35.280    2.9138
   35.310    2.8260
   35.340    3.0016
   35.370    2.7032
   35.400    3.0191
   35.430    2.9840
   35.460    3.0542
   35.490    2.5276
   35.520    2.7207
   35.550    2.9665
   35.580    2.7734
   35.610    2.8436
   35.640    2.9665
   35.670    2.8260
   35.700    2.9840
   35.730    3.0191
   35.760    3.0893
   35.790    2.8085
   35.820    2.7558
   35.850    2.7032
   35.880    2.5628
   35.910    2.8436
   35.940    3.0016
   35.970    3.0542
   36.000    2.7734
   36.030    3.1069
   36.060    2.8612
   36.090    2.9489
   36.120    3.0718
   36.150    2.8085
   36.180    2.7032
   36.210    2.6681
   36.240    2.5101
   36.270    2.7383
   36.300    2.8612
   36.330    2.8963
   36.360    2.8436
   36.390    3.1420
   36.420    3.0893
   36.450    2.4925
   36.480    2.9138
   36.510    2.9840
   36.540    2.9314
   36.570    2.7909
   36.600    2.9665
   36.630    2.8612
   36.660    3.0191
   36.690    3.0542
   36.720    2.9665
   36.750    2.9489
   36.780    2.8787
   36.810    2.7207
   36.840    3.0542
   36.870    2.9489
   36.900    3.0016
   36.930    3.0718
   36.960    3.0016
   36.990    2.4048
   37.020    2.8963
   37.050    2.7383
   37.080    2.6505
   37.110    3.3351
   37.140    3.1245
   37.170    2.7383
   37.200    2.8085
   37.230    2.8260
   37.260    2.9665
   37.290    2.5628
   37.320    2.5452
   37.350    2.8787
   37.380    2.6681
   37.410    3.0542
   37.440    3.0016
   37.470    2.5276
   37.500    2.6154
   37.530    2.6330
   37.560    3.0542
   37.590    3.1069
   37.620    2.8260
   37.650    2.7207
   37.680    2.6856
   37.710    2.7032
   37.740    2.7032
   37.770    3.0542
   37.800    3.1420
   37.830    2.7383
   37.860    2.7734
   37.890    3.0016
   37.920    2.9314
   37.950    3.0191
   37.980    2.9138
   38.010    2.9489
   38.040    2.7734
   38.070    3.0367
   38.100    2.4399
   38.130    3.1069
   38.160    2.8260
   38.190    2.6154
   38.220    2.6856
   38.250    2.7383
   38.280    2.7032
   38.310    2.6505
   38.340    2.5101
   38.370    2.5276
   38.400    2.5979
   38.430    3.0718
   38.460    2.9314
   38.490    3.4580
   38.520    2.5979
   38.550    2.5276
   38.580    2.8787
   38.610    2.4925
   38.640    2.9314
   38.670    2.6856
   38.700    2.8612
   38.730    2.5452
   38.760    2.7909
   38.790    2.6330
   38.820    2.7032
   38.850    2.6330
   38.880    2.6856
   38.910    2.9840
   38.940    2.8260
   38.970    2.7558
   39.000    2.8963
   39.030    2.4574
   39.060    2.9665
   39.090    2.8436
   39.120    2.4223
   39.150    2.9138
   39.180    2.9665
   39.210    2.7383
   39.240    2.3872
   39.270    2.7558
   39.300    2.9314
   39.330    2.5628
   39.360    3.0542
   39.390    2.7207
   39.420    2.6505
   39.450    2.7032
   39.480    2.6681
   39.510    2.6154
   39.540    2.2468
   39.570    2.7383
   39.600    2.9665
   39.630    2.9840
   39.660    2.9665
   39.690    2.7383
   39.720    2.7207
   39.750    2.9489
   39.780    2.8436
   39.810    2.7383
   39.840    2.5276
   39.870    2.8436
   39.900    2.6505
   39.930    2.8612
   39.960    2.7909
   39.990    3.1069