File: data/MOCOF-1/PXRD/PXRD_KE-131_Cu-Ka1_capillary-1mm_5s-deg.xyd
    1.500   43.7599
    1.530   43.5808
    1.560   41.2217
    1.590   40.1474
    1.620   39.7051
    1.650   38.7994
    1.680   38.1359
    1.710   37.4197
    1.740   37.2091
    1.770   35.0395
    1.800   35.1659
    1.830   34.8078
    1.860   34.2917
    1.890   33.7230
    1.920   34.6709
    1.950   32.6172
    1.980   32.0484
    2.010   33.0595
    2.040   32.7225
    2.070   32.1748
    2.100   31.6693
    2.130   32.0484
    2.160   32.9226
    2.190   32.8805
    2.220   33.1543
    2.250   34.1022
    2.280   35.2080
    2.310   33.6914
    2.340   34.2601
    2.370   34.3233
    2.400   35.3976
    2.430   35.4397
    2.460   37.0511
    2.490   37.6093
    2.520   39.0311
    2.550   39.8631
    2.580   39.9263
    2.610   42.5276
    2.640   42.5382
    2.670   44.5708
    2.700   45.9610
    2.730   47.9726
    2.760   50.5951
    2.790   50.4581
    2.820   54.0811
    2.850   57.1248
    2.880   58.2938
    2.910   62.3591
    2.940   64.3602
    2.970   69.0469
    3.000   72.5961
    3.030   76.9774
    3.060   82.5698
    3.090   86.2665
    3.120   94.7762
    3.150  100.2001
    3.180  107.6040
    3.210  117.1775
    3.240  128.3834
    3.270  140.7794
    3.300  155.7767
    3.330  170.9953
    3.360  193.8073
    3.390  223.1069
    3.420  252.7962
    3.450  274.3760
    3.480  260.7583
    3.510  209.1838
    3.540  153.0279
    3.570  109.5419
    3.600   90.5213
    3.630   80.9795
    3.660   74.6182
    3.690   73.7757
    3.720   74.3865
    3.750   75.8083
    3.780   78.4939
    3.810   81.8536
    3.840   87.1090
    3.870   92.8278
    3.900   98.4308
    3.930  103.1174
    3.960  107.4566
    3.990  111.8378
    4.020  114.5656
    4.050  115.1343
    4.080  111.4903
    4.110  107.1827
    4.140   98.3149
    4.170   92.2170
    4.200   82.4013
    4.230   74.3023
    4.260   65.1817
    4.290   56.1875
    4.320   48.3412
    4.350   40.5371
    4.380   36.3560
    4.410   30.0158
    4.440   27.3196
    4.470   24.4655
    4.500   22.4223
    4.530   20.1580
    4.560   19.0627
    4.590   17.1564
    4.620   17.0511
    4.650   15.8715
    4.680   14.7657
    4.710   14.3023
    4.740   14.2707
    4.770   13.3544
    4.800   13.1332
    4.830   12.8489
    4.860   12.2801
    4.890   12.9226
    4.920   12.4803
    4.950   11.8062
    4.980   12.0590
    5.010   11.9010
    5.040   11.6166
    5.070   11.6693
    5.100   11.3955
    5.130   11.2375
    5.160   11.7220
    5.190   11.0163
    5.220   11.1848
    5.250   10.7741
    5.280   10.9953
    5.310   10.1843
    5.340   10.6266
    5.370   10.5213
    5.400   10.8057
    5.430   10.3528
    5.460   10.4055
    5.490   10.9110
    5.520    9.5735
    5.550    9.7946
    5.580    9.7736
    5.610   10.3423
    5.640    9.6788
    5.670    9.5313
    5.700   10.2475
    5.730    8.9205
    5.760    9.8368
    5.790    9.9210
    5.820    9.7104
    5.850    9.7630
    5.880    9.5840
    5.910    9.6893
    5.940    9.4155
    5.970    9.8999
    6.000    9.6893
    6.030    9.6261
    6.060    9.3102
    6.090    9.4155
    6.120    9.5629
    6.150    9.8157
    6.180   10.0369
    6.210    9.7946
    6.240    9.8789
    6.270   10.0685
    6.300   10.4055
    6.330   10.6372
    6.360   11.1848
    6.390   10.8794
    6.420   10.9110
    6.450   11.2480
    6.480   11.8167
    6.510   12.1538
    6.540   12.0800
    6.570   11.9431
    6.600   12.4276
    6.630   13.7967
    6.660   14.4602
    6.690   14.8920
    6.720   15.8294
    6.750   17.4934
    6.780   18.5150
    6.810   20.7899
    6.840   22.6751
    6.870   25.3186
    6.900   28.8573
    6.930   33.3123
    6.960   35.0290
    6.990   30.5845
    7.020   27.2249
    7.050   20.9057
    7.080   16.9036
    7.110   14.4181
    7.140   13.3965
    7.170   11.9853
    7.200   11.2902
    7.230   11.1322
    7.260   11.0795
    7.290   10.8689
    7.320   10.9110
    7.350   10.7425
    7.380   10.5213
    7.410   10.4581
    7.440   10.7741
    7.470   10.7741
    7.500   11.2586
    7.530   11.4165
    7.560   11.5324
    7.590   11.5429
    7.620   11.6377
    7.650   11.3007
    7.680   12.0590
    7.710   12.1222
    7.740   12.3328
    7.770   12.8805
    7.800   13.6072
    7.830   13.6072
    7.860   13.8283
    7.890   14.2391
    7.920   14.8289
    7.950   15.6398
    7.980   14.7551
    8.010   15.9136
    8.040   16.4718
    8.070   16.8299
    8.100   16.5456
    8.130   16.7246
    8.160   16.5350
    8.190   17.0616
    8.220   17.5987
    8.250   16.7457
    8.280   17.1564
    8.310   16.5877
    8.340   16.1243
    8.370   16.4297
    8.400   16.0927
    8.430   15.1975
    8.460   14.7657
    8.490   14.4708
    8.520   14.3549
    8.550   14.1969
    8.580   13.4387
    8.610   13.6282
    8.640   13.0595
    8.670   12.7120
    8.700   12.2275
    8.730   12.0063
    8.760   10.5635
    8.790   11.1111
    8.820   10.9110
    8.850   10.2370
    8.880    9.7841
    8.910   10.0685
    8.940   10.0053
    8.970    9.2891
    9.000    9.8157
    9.030    9.6788
    9.060    9.2364
    9.090    9.2048
    9.120    9.1417
    9.150    9.2470
    9.180    9.4365
    9.210    9.7209
    9.240    8.9415
    9.270    8.6361
    9.300    8.8362
    9.330    8.8362
    9.360    8.8784
    9.390    9.2680
    9.420    8.6993
    9.450    9.1311
    9.480    8.9837
    9.510    9.1101
    9.540    9.4365
    9.570    8.9205
    9.600    9.4155
    9.630    8.8678
    9.660    9.0890
    9.690    8.4992
    9.720    8.4992
    9.750    8.8573
    9.780    8.5413
    9.810    8.6888
    9.840    8.8994
    9.870    8.5519
    9.900    8.1622
    9.930    8.5940
    9.960    8.6151
    9.990    8.3518
   10.020    8.3307
   10.050    8.7836
   10.080    8.9415
   10.110    9.0047
   10.140    8.6677
   10.170    9.3523
   10.200    9.1943
   10.230    9.2154
   10.260    8.8362
   10.290    9.0363
   10.320    9.8473
   10.350    9.4892
   10.380    9.9737
   10.410   10.1738
   10.440   10.2054
   10.470   10.3423
   10.500    9.8999
   10.530   10.1948
   10.560    9.9315
   10.590    9.6788
   10.620    9.3628
   10.650    8.9837
   10.680    8.8046
   10.710    8.9942
   10.740    8.9942
   10.770    8.5519
   10.800    8.6888
   10.830    8.7941
   10.860    8.8257
   10.890    8.5624
   10.920    8.5940
   10.950    8.3518
   10.980    8.8573
   11.010    8.9626
   11.040    8.5835
   11.070    8.8046
   11.100    8.4676
   11.130    8.8257
   11.160    9.0258
   11.190    8.9100
   11.220    8.7730
   11.250    8.3202
   11.280    8.8994
   11.310    8.7309
   11.340    8.5097
   11.370    9.0258
   11.400    9.0363
   11.430    8.8257
   11.460    8.7625
   11.490    8.8362
   11.520    8.7941
   11.550    8.8046
   11.580    8.7730
   11.610    8.8573
   11.640    9.1943
   11.670    8.5413
   11.700    8.6045
   11.730    9.0679
   11.760    9.5208
   11.790    8.9731
   11.820    9.1732
   11.850    9.3839
   11.880    9.4787
   11.910    9.6472
   11.940    9.7525
   11.970    9.5208
   12.000    9.9947
   12.030    9.5629
   12.060    9.1522
   12.090    9.2786
   12.120    9.6893
   12.150    9.6682
   12.180   10.2791
   12.210    9.8684
   12.240    9.3944
   12.270    9.8789
   12.300    9.9842
   12.330   10.4581
   12.360    9.8578
   12.390    9.9105
   12.420   10.1422
   12.450    9.7104
   12.480   10.0158
   12.510    9.8157
   12.540    9.9210
   12.570    9.7630
   12.600    9.7420
   12.630    9.7736
   12.660    9.9842
   12.690    9.5735
   12.720    9.8999
   12.750    9.2470
   12.780    9.6156
   12.810    9.6998
   12.840    9.8157
   12.870    9.5524
   12.900    9.4892
   12.930    9.3312
   12.960    9.2259
   12.990    9.1732
   13.020    9.1838
   13.050    9.3418
   13.080    9.2364
   13.110    9.3312
   13.140    9.5419
   13.170    9.1627
   13.200    9.7841
   13.230    9.4050
   13.260    9.1417
   13.290    9.7736
   13.320    9.2680
   13.350    9.1522
   13.380    9.3523
   13.410    9.2470
   13.440    9.3523
   13.470    9.2680
   13.500    9.4787
   13.530    9.3628
   13.560    9.3207
   13.590    9.0047
   13.620    9.5313
   13.650    9.1522
   13.680    8.9205
   13.710    9.4155
   13.740    9.4155
   13.770    9.1943
   13.800    8.9415
   13.830    8.9310
   13.860    8.8889
   13.890    8.9521
   13.920    8.5835
   13.950    9.1417
   13.980    8.7941
   14.010    8.9205
   14.040    9.0785
   14.070    8.7414
   14.100    8.8362
   14.130    9.0679
   14.160    8.6572
   14.190    8.4150
   14.220    8.6045
   14.250    8.7309
   14.280    8.4255
   14.310    8.7098
   14.340    8.6151
   14.370    8.4781
   14.400    8.4676
   14.430    8.1411
   14.460    8.4571
   14.490    8.4887
   14.520    8.7204
   14.550    8.3412
   14.580    8.1095
   14.610    8.6572
   14.640    8.4992
   14.670    8.3834
   14.700    8.1517
   14.730    8.6783
   14.760    8.7414
   14.790    8.3412
   14.820    8.5729
   14.850    8.4571
   14.880    8.0885
   14.910    8.3202
   14.940    8.3202
   14.970    8.7520
   15.000    8.7414
   15.030    8.0147
   15.060    8.7836
   15.090    8.5940
   15.120    8.7414
   15.150    8.1517
   15.180    8.3412
   15.210    8.6467
   15.240    8.1517
   15.270    8.5835
   15.300    8.6888
   15.330    9.0469
   15.360    8.5308
   15.390    9.0785
   15.420    8.4992
   15.450    8.6467
   15.480    8.5940
   15.510    8.8784
   15.540    8.5413
   15.570    8.4466
   15.600    8.3939
   15.630    8.8362
   15.660    8.7098
   15.690    8.4781
   15.720    8.9837
   15.750    8.5940
   15.780    8.8257
   15.810    8.5203
   15.840    8.5940
   15.870    8.4360
   15.900    8.9310
   15.930    8.9310
   15.960    8.5097
   15.990    8.7098
   16.020    8.4466
   16.050    8.5308
   16.080    8.5729
   16.110    8.5940
   16.140    8.7414
   16.170    8.2780
   16.200    8.9626
   16.230    8.9521
   16.260    8.4887
   16.290    8.7414
   16.320    8.3834
   16.350    8.1411
   16.380    8.3728
   16.410    8.6888
   16.440    8.8257
   16.470    8.1517
   16.500    8.2043
   16.530    8.4360
   16.560    8.3307
   16.590    8.3728
   16.620    8.2254
   16.650    8.4887
   16.680    8.4992
   16.710    8.3939
   16.740    8.1938
   16.770    8.3412
   16.800    8.3202
   16.830    8.7309
   16.860    8.0674
   16.890    8.6151
   16.920    8.8046
   16.950    8.2464
   16.980    8.4255
   17.010    8.6256
   17.040    8.3412
   17.070    8.4360
   17.100    8.5624
   17.130    8.4466
   17.160    8.0885
   17.190    8.4992
   17.220    8.6572
   17.250    7.8778
   17.280    8.6467
   17.310    8.0779
   17.340    8.1938
   17.370    8.6572
   17.400    8.3412
   17.430    8.5097
   17.460    8.5940
   17.490    8.6888
   17.520    8.5203
   17.550    8.3834
   17.580    8.6677
   17.610    8.6361
   17.640    8.4360
   17.670    8.2780
   17.700    8.5519
   17.730    9.0995
   17.760    8.6467
   17.790    8.4992
   17.820    8.5308
   17.850    8.4571
   17.880    8.5203
   17.910    8.5097
   17.940    9.0785
   17.970    9.1522
   18.000    8.7520
   18.030    8.9415
   18.060    8.5413
   18.090    9.0679
   18.120    8.7941
   18.150    8.7730
   18.180    8.1622
   18.210    9.0785
   18.240    8.8889
   18.270    8.5413
   18.300    8.1517
   18.330    8.4255
   18.360    8.6888
   18.390    8.6045
   18.420    8.1833
   18.450    8.8362
   18.480    8.3307
   18.510    8.5097
   18.540    8.8046
   18.570    8.3623
   18.600    8.5729
   18.630    8.8994
   18.660    8.4044
   18.690    8.4255
   18.720    8.1938
   18.750    8.4781
   18.780    8.7309
   18.810    8.6467
   18.840    7.9831
   18.870    8.2675
   18.900    8.7309
   18.930    8.8046
   18.960    8.4150
   18.990    9.1627
   19.020    8.3834
   19.050    8.5203
   19.080    8.6045
   19.110    8.4992
   19.140    9.0679
   19.170    8.9942
   19.200    8.9415
   19.230    9.0258
   19.260    8.7098
   19.290    8.9415
   19.320    8.4676
   19.350    8.9415
   19.380    9.2575
   19.410    8.8152
   19.440    9.1311
   19.470    9.6156
   19.500    9.5945
   19.530    9.6156
   19.560    9.2786
   19.590    9.3102
   19.620    9.3207
   19.650    8.9205
   19.680    9.5419
   19.710    9.6788
   19.740    9.6261
   19.770    9.6893
   19.800    9.2154
   19.830    9.2891
   19.860    9.2470
   19.890    9.5208
   19.920    9.4576
   19.950    9.5945
   19.980    9.5629
   20.010    9.6051
   20.040    9.6998
   20.070    9.7314
   20.100    9.6682
   20.130    9.8789
   20.160    9.5103
   20.190    9.9842
   20.220    9.3734
   20.250    9.2786
   20.280    8.9415
   20.310    9.9105
   20.340    9.3523
   20.370    9.4365
   20.400    9.6367
   20.430    9.7630
   20.460    9.5840
   20.490    9.7420
   20.520    9.3207
   20.550    9.6682
   20.580    9.3944
   20.610    9.1838
   20.640    9.6682
   20.670    9.7209
   20.700    9.2891
   20.730    9.2048
   20.760    9.3312
   20.790    9.1522
   20.820    9.7314
   20.850    9.6261
   20.880    9.3102
   20.910    9.5208
   20.940    9.3523
   20.970    9.5945
   21.000    9.9842
   21.030    9.8578
   21.060    9.6051
   21.090    9.9315
   21.120   10.0579
   21.150   10.0895
   21.180    9.5313
   21.210    9.5945
   21.240   10.0158
   21.270    9.3839
   21.300    9.4787
   21.330    9.5208
   21.360    9.6051
   21.390   10.0158
   21.420   10.1738
   21.450    9.4787
   21.480    9.5629
   21.510    9.6577
   21.540    9.4892
   21.570    9.6051
   21.600    8.8362
   21.630    9.7841
   21.660    9.8052
   21.690    9.6472
   21.720    9.0047
   21.750    9.4050
   21.780    9.1417
   21.810    9.7104
   21.840    9.5419
   21.870    9.3734
   21.900    9.7630
   21.930    9.5103
   21.960   10.1106
   21.990    9.7525
   22.020    9.1627
   22.050    9.7104
   22.080    9.6893
   22.110    9.6261
   22.140    9.5419
   22.170    9.6367
   22.200    9.7209
   22.230    9.6472
   22.260    9.6156
   22.290    9.3839
   22.320    9.4576
   22.350   10.2264
   22.380    9.0890
   22.410    9.6261
   22.440    9.6367
   22.470    9.6261
   22.500    9.3102
   22.530    9.0995
   22.560    9.0890
   22.590    9.4681
   22.620    9.2154
   22.650    9.4576
   22.680    9.3418
   22.710    9.7630
   22.740    9.1943
   22.770    9.5103
   22.800    9.3839
   22.830    9.3628
   22.860    9.4155
   22.890    9.3312
   22.920    9.4681
   22.950    9.5945
   22.980    9.0469
   23.010    9.5208
   23.040    9.6893
   23.070    9.3418
   23.100    9.7630
   23.130    9.2470
   23.160    9.3207
   23.190    9.2470
   23.220    9.4155
   23.250    9.1417
   23.280    9.0153
   23.310    9.3734
   23.340    9.6367
   23.370    9.4155
   23.400    9.2786
   23.430    9.1417
   23.460    8.8784
   23.490    9.1943
   23.520    9.4365
   23.550    9.0469
   23.580    9.2048
   23.610    9.0995
   23.640    8.8046
   23.670    9.0363
   23.700    8.6256
   23.730    8.8573
   23.760    9.0153
   23.790    8.8046
   23.820    9.0469
   23.850    8.9942
   23.880    9.0153
   23.910    8.9942
   23.940    8.8257
   23.970    9.3628
   24.000    8.7309
   24.030    8.8784
   24.060    8.8152
   24.090    8.8889
   24.120    8.9205
   24.150    9.0890
   24.180    9.2680
   24.210    9.0574
   24.240    8.5835
   24.270    8.6677
   24.300    9.1943
   24.330    9.4787
   24.360    8.9100
   24.390    8.6467
   24.420    8.4255
   24.450    8.6361
   24.480    9.2048
   24.510    9.5945
   24.540    9.0469
   24.570    8.9626
   24.600    9.3523
   24.630    9.5524
   24.660    9.7630
   24.690    9.0995
   24.720    8.8362
   24.750    8.8468
   24.780    8.6993
   24.810    8.8468
   24.840    9.1522
   24.870    8.5835
   24.900    8.7520
   24.930    9.1101
   24.960    8.2675
   24.990    9.0047
   25.020    8.4255
   25.050    8.4571
   25.080    8.5413
   25.110    8.6256
   25.140    8.6677
   25.170    8.2780
   25.200    8.1938
   25.230    8.5203
   25.260    8.3518
   25.290    8.5413
   25.320    8.3518
   25.350    8.9521
   25.380    8.0358
   25.410    8.1201
   25.440    8.3939
   25.470    8.2254
   25.500    8.2886
   25.530    8.5308
   25.560    9.1838
   25.590    8.5835
   25.620    8.6993
   25.650    8.4255
   25.680    8.4781
   25.710    7.7304
   25.740    8.4150
   25.770    8.5203
   25.800    8.5729
   25.830    8.4781
   25.860    8.2886
   25.890    8.2570
   25.920    8.2149
   25.950    8.2780
   25.980    8.4255
   26.010    8.3834
   26.040    7.9621
   26.070    8.2991
   26.100    8.1201
   26.130    8.2043
   26.160    7.7936
   26.190    8.2359
   26.220    8.3307
   26.250    8.0885
   26.280    8.3307
   26.310    8.4150
   26.340    7.8778
   26.370    8.6256
   26.400    7.9726
   26.430    7.8568
   26.460    8.5519
   26.490    8.5835
   26.520    7.9621
   26.550    8.0990
   26.580    8.1833
   26.610    8.2149
   26.640    7.8673
   26.670    7.8146
   26.700    7.9937
   26.730    7.8462
   26.760    7.5408
   26.790    7.7409
   26.820    8.1727
   26.850    7.8568
   26.880    7.8357
   26.910    8.2675
   26.940    7.6356
   26.970    7.7830
   27.000    7.8041
   27.030    8.1622
   27.060    7.8462
   27.090    7.6777
   27.120    7.8673
   27.150    8.2464
   27.180    7.9831
   27.210    8.3728
   27.240    7.9937
   27.270    7.7304
   27.300    7.8989
   27.330    7.7409
   27.360    7.8884
   27.390    7.5513
   27.420    8.0674
   27.450    8.1201
   27.480    7.8884
   27.510    7.9410
   27.540    7.5935
   27.570    7.7936
   27.600    8.0990
   27.630    8.1622
   27.660    7.9410
   27.690    7.8568
   27.720    8.2780
   27.750    7.9831
   27.780    8.0885
   27.810    7.4776
   27.840    7.8146
   27.870    7.9937
   27.900    7.6356
   27.930    7.8357
   27.960    7.7830
   27.990    8.4150
   28.020    7.6356
   28.050    8.2886
   28.080    7.9410
   28.110    8.0569
   28.140    8.4255
   28.170    8.0779
   28.200    8.1938
   28.230    8.2149
   28.260    8.3096
   28.290    8.4255
   28.320    8.2991
   28.350    8.6677
   28.380    7.8989
   28.410    7.9516
   28.440    7.8146
   28.470    8.0253
   28.500    8.4466
   28.530    7.8357
   28.560    7.8884
   28.590    7.7199
   28.620    8.2886
   28.650    7.8462
   28.680    7.7830
   28.710    7.8252
   28.740    7.7725
   28.770    7.6356
   28.800    7.5092
   28.830    7.2459
   28.860    7.8673
   28.890    8.1833
   28.920    7.5092
   28.950    7.7304
   28.980    7.8568
   29.010    7.5724
   29.040    7.7725
   29.070    7.9200
   29.100    7.7409
   29.130    7.8462
   29.160    7.6883
   29.190    7.6777
   29.220    7.6461
   29.250    7.5513
   29.280    7.8568
   29.310    7.8146
   29.340    7.8146
   29.370    7.7620
   29.400    7.4250
   29.430    7.8462
   29.460    7.7304
   29.490    7.3196
   29.520    7.7936
   29.550    7.3407
   29.580    7.8989
   29.610    7.8041
   29.640    7.4882
   29.670    7.5197
   29.700    8.0147
   29.730    7.7409
   29.760    7.4355
   29.790    7.5935
   29.820    7.7620
   29.850    7.5619
   29.880    7.7514
   29.910    7.7620
   29.940    7.7830
   29.970    7.4776
   30.000    7.6883
   30.030    7.5724
   30.060    7.3828
   30.090    7.2775
   30.120    7.4250
   30.150    7.2986
   30.180    7.4144
   30.210    7.4987
   30.240    7.6251
   30.270    7.3302
   30.300    7.2565
   30.330    7.8673
   30.360    7.4671
   30.390    7.7936
   30.420    7.8252
   30.450    7.6883
   30.480    7.7409
   30.510    7.5724
   30.540    7.8884
   30.570    7.2459
   30.600    7.5513
   30.630    7.4987
   30.660    7.4039
   30.690    7.4882
   30.720    7.8146
   30.750    7.5303
   30.780    7.8146
   30.810    7.2249
   30.840    7.5619
   30.870    7.6040
   30.900    7.6145
   30.930    7.8568
   30.960    7.8462
   30.990    7.4776
   31.020    8.0358
   31.050    7.6356
   31.080    7.7199
   31.110    7.1406
   31.140    7.2038
   31.170    7.2986
   31.200    7.7409
   31.230    7.2249
   31.260    7.6040
   31.290    7.1827
   31.320    7.4566
   31.350    7.5197
   31.380    7.5619
   31.410    7.7725
   31.440    7.4250
   31.470    7.4882
   31.500    7.5724
   31.530    7.7409
   31.560    7.3091
   31.590    7.5724
   31.620    7.5197
   31.650    7.5197
   31.680    7.8568
   31.710    7.4355
   31.740    7.8357
   31.770    7.2670
   31.800    7.9305
   31.830    7.6883
   31.860    8.1727
   31.890    7.9094
   31.920    7.8989
   31.950    7.3302
   31.980    7.5935
   32.010    7.4882
   32.040    7.1090
   32.070    7.3091
   32.100    7.0353
   32.130    7.2249
   32.160    7.1722
   32.190    7.4355
   32.220    7.5619
   32.250    7.5724
   32.280    7.5829
   32.310    7.4355
   32.340    7.5829
   32.370    7.4039
   32.400    7.3618
   32.430    7.5092
   32.460    7.3723
   32.490    7.6040
   32.520    7.0142
   32.550    7.6672
   32.580    7.4671
   32.610    7.1933
   32.640    6.9721
   32.670    7.6145
   32.700    7.4460
   32.730    7.0774
   32.760    6.8457
   32.790    7.2670
   32.820    7.4671
   32.850    7.1617
   32.880    7.1617
   32.910    7.2880
   32.940    7.1406
   32.970    7.1301
   33.000    7.0353
   33.030    7.3196
   33.060    6.8668
   33.090    7.3723
   33.120    7.3828
   33.150    7.2459
   33.180    7.7093
   33.210    7.2565
   33.240    7.1090
   33.270    6.7825
   33.300    7.5724
   33.330    7.2670
   33.360    7.0985
   33.390    7.3512
   33.420    6.7930
   33.450    7.1195
   33.480    7.5724
   33.510    7.3723
   33.540    7.4144
   33.570    7.1722
   33.600    7.1195
   33.630    6.9300
   33.660    6.5929
   33.690    6.7825
   33.720    7.4460
   33.750    6.8562
   33.780    7.0142
   33.810    6.9721
   33.840    6.9194
   33.870    6.9194
   33.900    6.8984
   33.930    7.1511
   33.960    7.0774
   33.990    6.9405
   34.020    7.2354
   34.050    6.9300
   34.080    7.2565
   34.110    7.2565
   34.140    6.7404
   34.170    7.2775
   34.200    7.2249
   34.230    6.7930
   34.260    7.6777
   34.290    7.0669
   34.320    7.1090
   34.350    6.6561
   34.380    6.8246
   34.410    7.0985
   34.440    7.2354
   34.470    6.9300
   34.500    7.0353
   34.530    6.9405
   34.560    7.5092
   34.590    7.0248
   34.620    7.3302
   34.650    7.1406
   34.680    6.7930
   34.710    6.8562
   34.740    6.6456
   34.770    6.9405
   34.800    7.2249
   34.830    6.7299
   34.860    6.8352
   34.890    6.9194
   34.920    6.9510
   34.950    7.0248
   34.980    7.2249
   35.010    7.1617
   35.040    7.1090
   35.070    6.8352
   35.100    6.8984
   35.130    7.1827
   35.160    6.5403
   35.190    6.7930
   35.220    7.2670
   35.250    7.0142
   35.280    7.0774
   35.310    6.8773
   35.340    7.2880
   35.370    7.0458
   35.400    7.3302
   35.430    6.5719
   35.460    7.0774
   35.490    7.0774
   35.520    7.0669
   35.550    6.9194
   35.580    6.7193
   35.610    6.8773
   35.640    6.8668
   35.670    6.7193
   35.700    6.7930
   35.730    6.7825
   35.760    7.0458
   35.790    6.6772
   35.820    7.3512
   35.850    7.0985
   35.880    6.4876
   35.910    6.9089
   35.940    7.0563
   35.970    6.6140
   36.000    6.9932
   36.030    7.2775
   36.060    6.9300
   36.090    6.6351
   36.120    7.2880
   36.150    7.2143
   36.180    6.9089
   36.210    6.5403
   36.240    6.8141
   36.270    6.6245
   36.300    6.7299
   36.330    6.4244
   36.360    6.6035
   36.390    6.4455
   36.420    6.9826
   36.450    6.8878
   36.480    6.8457
   36.510    6.9826
   36.540    6.8352
   36.570    6.7509
   36.600    7.1827
   36.630    7.0985
   36.660    6.5613
   36.690    7.0142
   36.720    6.7193
   36.750    7.1090
   36.780    6.7825
   36.810    6.8984
   36.840    6.5719
   36.870    6.6456
   36.900    6.9826
   36.930    6.6561
   36.960    6.8141
   36.990    6.5403
   37.020    6.5508
   37.050    6.6667
   37.080    6.8141
   37.110    6.8878
   37.140    6.5508
   37.170    6.5719
   37.200    6.6561
   37.230    6.9932
   37.260    6.7930
   37.290    6.3191
   37.320    7.0037
   37.350    6.4455
   37.380    6.7509
   37.410    6.9300
   37.440    6.8773
   37.470    6.6035
   37.500    6.4034
   37.530    7.0037
   37.560    6.7193
   37.590    6.7299
   37.620    6.8036
   37.650    6.8562
   37.680    6.6245
   37.710    6.7193
   37.740    6.9194
   37.770    6.5298
   37.800    6.7088
   37.830    6.5824
   37.860    6.7088
   37.890    6.8457
   37.920    7.0037
   37.950    6.8246
   37.980    6.7825
   38.010    6.6245
   38.040    6.9405
   38.070    6.5403
   38.100    6.6983
   38.130    7.0669
   38.160    6.8562
   38.190    6.7930
   38.220    6.4139
   38.250    6.9089
   38.280    6.4560
   38.310    6.5508
   38.340    7.0879
   38.370    6.6140
   38.400    6.6667
   38.430    6.5824
   38.460    6.9405
   38.490    6.6877
   38.520    6.1085
   38.550    6.6035
   38.580    6.7193
   38.610    6.6351
   38.640    6.4034
   38.670    6.8246
   38.700    6.7615
   38.730    6.4034
   38.760    6.9405
   38.790    6.7720
   38.820    6.8457
   38.850    6.6035
   38.880    7.0142
   38.910    6.7930
   38.940    6.6456
   38.970    6.6667
   39.000    6.5403
   39.030    6.5824
   39.060    6.5929
   39.090    6.6667
   39.120    6.7509
   39.150    6.6772
   39.180    6.5719
   39.210    6.7930
   39.240    6.5403
   39.270    6.9510
   39.300    6.8773
   39.330    6.8036
   39.360    6.7825
   39.390    6.4982
   39.420    6.2875
   39.450    6.6561
   39.480    6.6877
   39.510    6.9932
   39.540    6.5298
   39.570    6.7720
   39.600    6.6772
   39.630    6.5298
   39.660    6.4560
   39.690    7.0142
   39.720    7.0563
   39.750    6.9826
   39.780    6.8036
   39.810    6.7825
   39.840    6.6983
   39.870    6.6877
   39.900    6.9300
   39.930    6.9932
   39.960    6.6983
   39.990    6.3928