File: data/MOCOF-1/PXRD/PXRD_KE-060-3_Cu-Ka1_capillary-1mm_5s-deg.xyd
    1.500   14.5866
    1.530   14.4181
    1.560   14.2180
    1.590   13.5545
    1.620   13.0490
    1.650   12.8173
    1.680   12.1959
    1.710   11.9958
    1.740   11.5324
    1.770   11.1954
    1.800   11.2480
    1.830   10.9005
    1.860   10.3633
    1.890   10.7109
    1.920   10.2896
    1.950   10.2580
    1.980    9.9210
    2.010    9.6893
    2.040    9.2680
    2.070    8.9521
    2.100    9.0469
    2.130    8.6467
    2.160    8.4044
    2.190    8.8468
    2.220    8.6467
    2.250    8.1833
    2.280    8.8257
    2.310    8.1201
    2.340    8.1622
    2.370    7.9726
    2.400    8.2254
    2.430    8.1938
    2.460    8.1411
    2.490    7.6145
    2.520    8.3307
    2.550    8.0885
    2.580    7.7304
    2.610    7.8146
    2.640    7.9831
    2.670    7.0142
    2.700    7.1722
    2.730    7.4144
    2.760    7.5724
    2.790    7.5829
    2.820    8.2149
    2.850    7.7199
    2.880    7.4039
    2.910    7.4671
    2.940    7.3618
    2.970    7.6461
    3.000    7.5408
    3.030    7.5513
    3.060    7.8146
    3.090    7.3091
    3.120    7.9410
    3.150    8.1727
    3.180    7.6567
    3.210    8.0885
    3.240    7.8568
    3.270    7.8462
    3.300    8.0674
    3.330    8.4255
    3.360    8.2043
    3.390    8.6572
    3.420    8.7941
    3.450    8.5308
    3.480    9.1838
    3.510    8.8468
    3.540    8.9415
    3.570    9.2575
    3.600    8.9942
    3.630    9.9210
    3.660   10.0685
    3.690   10.5635
    3.720   10.7004
    3.750   11.8483
    3.780   12.4697
    3.810   13.7546
    3.840   15.6714
    3.870   16.5982
    3.900   14.7551
    3.930   11.6482
    3.960    8.8046
    3.990    7.8673
    4.020    7.6988
    4.050    7.4882
    4.080    7.0879
    4.110    7.1090
    4.140    6.8773
    4.170    6.4982
    4.200    6.8141
    4.230    6.7299
    4.260    6.4876
    4.290    6.7825
    4.320    7.2986
    4.350    6.8457
    4.380    7.1090
    4.410    6.4876
    4.440    7.0142
    4.470    6.6983
    4.500    6.7825
    4.530    6.7720
    4.560    6.9616
    4.590    6.4876
    4.620    6.8246
    4.650    6.6877
    4.680    6.7509
    4.710    6.6035
    4.740    6.6667
    4.770    6.9616
    4.800    6.8246
    4.830    6.6456
    4.860    6.4666
    4.890    6.4876
    4.920    6.7509
    4.950    6.8984
    4.980    6.5508
    5.010    6.9510
    5.040    6.6456
    5.070    6.8773
    5.100    6.7509
    5.130    6.6667
    5.160    6.9510
    5.190    6.9826
    5.220    6.6772
    5.250    6.9826
    5.280    7.2775
    5.310    7.1933
    5.340    7.4566
    5.370    7.3934
    5.400    7.8252
    5.430    7.5513
    5.460    8.3623
    5.490    8.0990
    5.520    8.1201
    5.550    7.9726
    5.580    7.2986
    5.610    6.7615
    5.640    6.6561
    5.670    6.7930
    5.700    6.7299
    5.730    6.9405
    5.760    6.9089
    5.790    6.2033
    5.820    6.7193
    5.850    6.6140
    5.880    6.7404
    5.910    6.8141
    5.940    6.8141
    5.970    6.7509
    6.000    6.3507
    6.030    6.4666
    6.060    6.6140
    6.090    6.6877
    6.120    6.1717
    6.150    6.7825
    6.180    6.8984
    6.210    6.5298
    6.240    6.7930
    6.270    6.7615
    6.300    6.6772
    6.330    7.0248
    6.360    6.9932
    6.390    6.7193
    6.420    6.6035
    6.450    6.6035
    6.480    7.0458
    6.510    6.9194
    6.540    7.4671
    6.570    7.6883
    6.600    7.6461
    6.630    7.7725
    6.660    8.3096
    6.690    8.4676
    6.720    9.1627
    6.750    9.4155
    6.780    8.3412
    6.810    7.6883
    6.840    7.0353
    6.870    7.0458
    6.900    6.7088
    6.930    6.4560
    6.960    6.8878
    6.990    6.9826
    7.020    6.8141
    7.050    6.8246
    7.080    7.0458
    7.110    6.6456
    7.140    6.8878
    7.170    6.6035
    7.200    6.5087
    7.230    6.5929
    7.260    6.9089
    7.290    6.8773
    7.320    6.8773
    7.350    6.9405
    7.380    6.7930
    7.410    6.3928
    7.440    6.8878
    7.470    6.7299
    7.500    6.9194
    7.530    7.6145
    7.560    6.6877
    7.590    7.1301
    7.620    6.8668
    7.650    7.1933
    7.680    7.1511
    7.710    7.1511
    7.740    7.8673
    7.770    8.2464
    7.800    7.9516
    7.830    7.8357
    7.860    7.4776
    7.890    7.1827
    7.920    6.9616
    7.950    6.8668
    7.980    6.9510
    8.010    7.3196
    8.040    6.7299
    8.070    7.2354
    8.100    6.6351
    8.130    6.9089
    8.160    7.1090
    8.190    7.0985
    8.220    7.2775
    8.250    7.2249
    8.280    6.8036
    8.310    7.2986
    8.340    7.2880
    8.370    7.4039
    8.400    7.2880
    8.430    7.6777
    8.460    7.1090
    8.490    7.1195
    8.520    7.1195
    8.550    7.3091
    8.580    7.0353
    8.610    7.4566
    8.640    7.1617
    8.670    7.5303
    8.700    7.6145
    8.730    7.1090
    8.760    7.0563
    8.790    7.2038
    8.820    7.1933
    8.850    7.4039
    8.880    6.8878
    8.910    7.0142
    8.940    7.6251
    8.970    7.7620
    9.000    7.4776
    9.030    7.6777
    9.060    7.7199
    9.090    7.2459
    9.120    7.6461
    9.150    7.0669
    9.180    8.1306
    9.210    7.8989
    9.240    8.0463
    9.270    8.5940
    9.300    8.4466
    9.330    8.7520
    9.360    8.0885
    9.390    8.6888
    9.420    8.7520
    9.450    9.2680
    9.480    9.6261
    9.510    9.7525
    9.540   11.2375
    9.570   10.6161
    9.600    9.6156
    9.630    8.4571
    9.660    7.6461
    9.690    7.6251
    9.720    7.9410
    9.750    7.2038
    9.780    7.2249
    9.810    7.6567
    9.840    7.0563
    9.870    6.7720
    9.900    7.4987
    9.930    7.5619
    9.960    7.7093
    9.990    7.9937
   10.020    7.4460
   10.050    7.8884
   10.080    7.9094
   10.110    7.9305
   10.140    8.1622
   10.170    8.0779
   10.200    8.1517
   10.230    9.0995
   10.260    8.9310
   10.290    9.7946
   10.320    9.9631
   10.350    9.2470
   10.380    8.6993
   10.410    7.8989
   10.440    7.2775
   10.470    7.1722
   10.500    7.1617
   10.530    7.7093
   10.560    7.4039
   10.590    7.5197
   10.620    7.4776
   10.650    7.4987
   10.680    6.9932
   10.710    7.8041
   10.740    7.0142
   10.770    7.1090
   10.800    7.4987
   10.830    7.4355
   10.860    7.8462
   10.890    7.6461
   10.920    7.3723
   10.950    7.4671
   10.980    8.1306
   11.010    8.2254
   11.040    8.3939
   11.070    7.8252
   11.100    8.3939
   11.130    7.2459
   11.160    6.7509
   11.190    7.1933
   11.220    6.9616
   11.250    6.9300
   11.280    6.7299
   11.310    6.8457
   11.340    7.2775
   11.370    7.1406
   11.400    6.9405
   11.430    7.1195
   11.460    6.6667
   11.490    6.9300
   11.520    6.9510
   11.550    7.1090
   11.580    7.6672
   11.610    7.9200
   11.640    7.8778
   11.670    8.3202
   11.700    8.3518
   11.730    8.3834
   11.760    8.4360
   11.790    7.2775
   11.820    7.1090
   11.850    6.7299
   11.880    6.5087
   11.910    6.2454
   11.940    6.4876
   11.970    7.1406
   12.000    6.7825
   12.030    6.4876
   12.060    6.4244
   12.090    6.7299
   12.120    6.9089
   12.150    6.7088
   12.180    6.5192
   12.210    7.1406
   12.240    6.8773
   12.270    7.2354
   12.300    6.9616
   12.330    6.9405
   12.360    6.7930
   12.390    6.9089
   12.420    6.9932
   12.450    6.9405
   12.480    6.8036
   12.510    6.6035
   12.540    6.7825
   12.570    6.4982
   12.600    6.9616
   12.630    6.6351
   12.660    6.6456
   12.690    6.8562
   12.720    6.3402
   12.750    6.5719
   12.780    6.7193
   12.810    6.7509
   12.840    7.1722
   12.870    7.1511
   12.900    7.3828
   12.930    7.4987
   12.960    8.0674
   12.990    7.8568
   13.020    7.3196
   13.050    6.6877
   13.080    6.7088
   13.110    6.7404
   13.140    6.3296
   13.170    6.8246
   13.200    6.7825
   13.230    6.3507
   13.260    6.7088
   13.290    6.4455
   13.320    6.3402
   13.350    6.8036
   13.380    6.4244
   13.410    6.3928
   13.440    6.5824
   13.470    6.5508
   13.500    6.6351
   13.530    6.8562
   13.560    6.7193
   13.590    7.0142
   13.620    6.5824
   13.650    6.5613
   13.680    6.4455
   13.710    6.5403
   13.740    6.0453
   13.770    6.5613
   13.800    6.4771
   13.830    6.1717
   13.860    6.5298
   13.890    6.4244
   13.920    6.3402
   13.950    6.7930
   13.980    6.7825
   14.010    7.0985
   14.040    7.2354
   14.070    6.7404
   14.100    7.4460
   14.130    6.8773
   14.160    6.7088
   14.190    6.4350
   14.220    6.3402
   14.250    6.3928
   14.280    6.4034
   14.310    6.3718
   14.340    6.5824
   14.370    6.2033
   14.400    6.4244
   14.430    6.4244
   14.460    6.3928
   14.490    6.1401
   14.520    6.1822
   14.550    6.4666
   14.580    6.3612
   14.610    6.0242
   14.640    5.8978
   14.670    6.4034
   14.700    6.5298
   14.730    6.4666
   14.760    6.4350
   14.790    6.2243
   14.820    6.4244
   14.850    6.5403
   14.880    6.7299
   14.910    6.3823
   14.940    6.2665
   14.970    6.3296
   15.000    6.6772
   15.030    6.5929
   15.060    6.3612
   15.090    6.4139
   15.120    6.7088
   15.150    6.6667
   15.180    6.4455
   15.210    6.6561
   15.240    6.7193
   15.270    6.6983
   15.300    6.7404
   15.330    6.5403
   15.360    6.2981
   15.390    6.6983
   15.420    6.9616
   15.450    6.4666
   15.480    6.5824
   15.510    6.5719
   15.540    6.1611
   15.570    6.3402
   15.600    6.3402
   15.630    6.8246
   15.660    6.2243
   15.690    6.3086
   15.720    6.5508
   15.750    6.4244
   15.780    6.5298
   15.810    6.1085
   15.840    7.0774
   15.870    6.1190
   15.900    6.3612
   15.930    6.2875
   15.960    6.5824
   15.990    6.4982
   16.020    6.3823
   16.050    6.8562
   16.080    6.7615
   16.110    7.1406
   16.140    6.6667
   16.170    6.8246
   16.200    6.6351
   16.230    6.7404
   16.260    6.1717
   16.290    6.1085
   16.320    6.2033
   16.350    6.4666
   16.380    6.3823
   16.410    6.0242
   16.440    6.6351
   16.470    6.2559
   16.500    6.5087
   16.530    6.6877
   16.560    6.5298
   16.590    6.5192
   16.620    6.8036
   16.650    6.8246
   16.680    6.6772
   16.710    6.9932
   16.740    6.6245
   16.770    6.5192
   16.800    6.8352
   16.830    6.6351
   16.860    6.4771
   16.890    6.7720
   16.920    6.4139
   16.950    6.6772
   16.980    6.9300
   17.010    7.5303
   17.040    7.1090
   17.070    7.8673
   17.100    7.3828
   17.130    7.1301
   17.160    7.3196
   17.190    6.4139
   17.220    6.6035
   17.250    6.4139
   17.280    6.0137
   17.310    6.8773
   17.340    6.5298
   17.370    6.5508
   17.400    6.7299
   17.430    6.7930
   17.460    6.4560
   17.490    6.6667
   17.520    6.8984
   17.550    6.6983
   17.580    6.7720
   17.610    6.5298
   17.640    6.8246
   17.670    6.5508
   17.700    6.4350
   17.730    6.1401
   17.760    6.9510
   17.790    6.1085
   17.820    6.5929
   17.850    6.8141
   17.880    6.7088
   17.910    6.6983
   17.940    6.2349
   17.970    6.6561
   18.000    7.0037
   18.030    6.7720
   18.060    6.7615
   18.090    6.7720
   18.120    6.8773
   18.150    6.2243
   18.180    6.5508
   18.210    6.4139
   18.240    6.9721
   18.270    6.6983
   18.300    7.2143
   18.330    6.7930
   18.360    6.7088
   18.390    6.9932
   18.420    6.8984
   18.450    6.6667
   18.480    6.4876
   18.510    6.5719
   18.540    6.7615
   18.570    6.3086
   18.600    6.1822
   18.630    6.6456
   18.660    6.6035
   18.690    6.3402
   18.720    6.6245
   18.750    6.6351
   18.780    6.8457
   18.810    6.8036
   18.840    6.5824
   18.870    6.6983
   18.900    6.9089
   18.930    6.7825
   18.960    7.2143
   18.990    7.0774
   19.020    7.6988
   19.050    6.8141
   19.080    6.6140
   19.110    6.6245
   19.140    6.7088
   19.170    6.5824
   19.200    7.0142
   19.230    6.3823
   19.260    6.9194
   19.290    6.8457
   19.320    6.6245
   19.350    6.6561
   19.380    6.8878
   19.410    6.3507
   19.440    6.5087
   19.470    6.9194
   19.500    7.2775
   19.530    6.8773
   19.560    6.8668
   19.590    7.0248
   19.620    6.5087
   19.650    7.4355
   19.680    7.3723
   19.710    6.7509
   19.740    6.8246
   19.770    7.3196
   19.800    6.9405
   19.830    7.0563
   19.860    6.7720
   19.890    6.8457
   19.920    7.1090
   19.950    6.6983
   19.980    6.6351
   20.010    6.7299
   20.040    6.9510
   20.070    6.9300
   20.100    6.8246
   20.130    6.6667
   20.160    7.3091
   20.190    6.8457
   20.220    7.0563
   20.250    6.8562
   20.280    6.8668
   20.310    7.2143
   20.340    6.9721
   20.370    7.4250
   20.400    7.2986
   20.430    7.4250
   20.460    7.2459
   20.490    6.9721
   20.520    6.9932
   20.550    7.0248
   20.580    6.8352
   20.610    6.7404
   20.640    7.2986
   20.670    6.9194
   20.700    6.9194
   20.730    6.7720
   20.760    6.7509
   20.790    7.1090
   20.820    7.2459
   20.850    6.9405
   20.880    6.9616
   20.910    6.9721
   20.940    6.8668
   20.970    6.6561
   21.000    6.8141
   21.030    6.8562
   21.060    6.8352
   21.090    7.2670
   21.120    6.8246
   21.150    7.0037
   21.180    7.2565
   21.210    6.8773
   21.240    6.9721
   21.270    6.7930
   21.300    6.8036
   21.330    7.0879
   21.360    7.0985
   21.390    6.8984
   21.420    6.5192
   21.450    6.7720
   21.480    6.6351
   21.510    6.7930
   21.540    6.6983
   21.570    7.0142
   21.600    6.8352
   21.630    7.0142
   21.660    7.0985
   21.690    6.8773
   21.720    7.1195
   21.750    7.2354
   21.780    7.3196
   21.810    7.4987
   21.840    7.3934
   21.870    7.5619
   21.900    7.4460
   21.930    7.2565
   21.960    7.5092
   21.990    7.1301
   22.020    6.9616
   22.050    7.1933
   22.080    7.1722
   22.110    7.1722
   22.140    7.0248
   22.170    7.2038
   22.200    7.6988
   22.230    7.1511
   22.260    7.2986
   22.290    6.8984
   22.320    7.3828
   22.350    7.5408
   22.380    6.9510
   22.410    7.7514
   22.440    7.8041
   22.470    7.8989
   22.500    7.6567
   22.530    8.3623
   22.560    8.1517
   22.590    8.4571
   22.620    8.3834
   22.650    7.3407
   22.680    7.5197
   22.710    7.1933
   22.740    7.3828
   22.770    7.6461
   22.800    8.1517
   22.830    7.3618
   22.860    8.2570
   22.890    8.2570
   22.920    8.2359
   22.950    7.8884
   22.980    8.0147
   23.010    7.7304
   23.040    8.1201
   23.070    6.8878
   23.100    7.2143
   23.130    7.2775
   23.160    7.5724
   23.190    7.1933
   23.220    7.6145
   23.250    7.3934
   23.280    6.6245
   23.310    7.5829
   23.340    6.9089
   23.370    7.2354
   23.400    7.0248
   23.430    7.1195
   23.460    7.2143
   23.490    7.5408
   23.520    7.0353
   23.550    7.1195
   23.580    7.7725
   23.610    7.5408
   23.640    7.6461
   23.670    7.1090
   23.700    7.3618
   23.730    6.9405
   23.760    7.1617
   23.790    7.1090
   23.820    7.2038
   23.850    7.0879
   23.880    7.6883
   23.910    6.9721
   23.940    7.1511
   23.970    7.4039
   24.000    6.8984
   24.030    6.9721
   24.060    7.4250
   24.090    7.2565
   24.120    7.1301
   24.150    7.0879
   24.180    6.9616
   24.210    6.8141
   24.240    7.0037
   24.270    6.8878
   24.300    7.1933
   24.330    6.9721
   24.360    6.7299
   24.390    6.9300
   24.420    6.7720
   24.450    7.1617
   24.480    7.1301
   24.510    7.3302
   24.540    7.0142
   24.570    7.2459
   24.600    7.2565
   24.630    6.9089
   24.660    6.8668
   24.690    6.7825
   24.720    7.2249
   24.750    7.1722
   24.780    6.8562
   24.810    7.0142
   24.840    7.6145
   24.870    7.0985
   24.900    7.1933
   24.930    7.0037
   24.960    6.8036
   24.990    6.9300
   25.020    6.6877
   25.050    7.0142
   25.080    6.8352
   25.110    7.1617
   25.140    7.2880
   25.170    6.8457
   25.200    7.2565
   25.230    6.5719
   25.260    6.7615
   25.290    6.8457
   25.320    6.7404
   25.350    7.0669
   25.380    7.1722
   25.410    7.1933
   25.440    6.7088
   25.470    7.2565
   25.500    7.3196
   25.530    7.4144
   25.560    7.1933
   25.590    7.0458
   25.620    7.0774
   25.650    7.1090
   25.680    7.1195
   25.710    6.8668
   25.740    7.3934
   25.770    7.1511
   25.800    7.5724
   25.830    7.4566
   25.860    7.6251
   25.890    7.4776
   25.920    7.2249
   25.950    7.0774
   25.980    6.7404
   26.010    6.6351
   26.040    6.7720
   26.070    6.7825
   26.100    7.0669
   26.130    6.8984
   26.160    7.0248
   26.190    7.3934
   26.220    6.7615
   26.250    6.4034
   26.280    6.8246
   26.310    6.8773
   26.340    6.9194
   26.370    6.8984
   26.400    7.0879
   26.430    7.0563
   26.460    7.2459
   26.490    7.0563
   26.520    6.9194
   26.550    6.9510
   26.580    6.3928
   26.610    6.9194
   26.640    7.0879
   26.670    6.5719
   26.700    6.4666
   26.730    7.4566
   26.760    6.3928
   26.790    6.6140
   26.820    6.5613
   26.850    6.7193
   26.880    6.9194
   26.910    7.0774
   26.940    6.5824
   26.970    7.0037
   27.000    7.2143
   27.030    6.9826
   27.060    7.4355
   27.090    7.1827
   27.120    6.8246
   27.150    7.0458
   27.180    6.2454
   27.210    6.7088
   27.240    6.6351
   27.270    6.4034
   27.300    6.5508
   27.330    6.4560
   27.360    6.7404
   27.390    6.8878
   27.420    6.6351
   27.450    6.7088
   27.480    6.9089
   27.510    6.6245
   27.540    6.7193
   27.570    6.4666
   27.600    7.2565
   27.630    7.1090
   27.660    6.9089
   27.690    7.1827
   27.720    6.2665
   27.750    6.7615
   27.780    6.6351
   27.810    7.3091
   27.840    6.8878
   27.870    6.8562
   27.900    7.1090
   27.930    6.9510
   27.960    6.8668
   27.990    7.2670
   28.020    7.2670
   28.050    6.8036
   28.080    6.8984
   28.110    6.5508
   28.140    6.5929
   28.170    7.1511
   28.200    7.3512
   28.230    7.1933
   28.260    7.0669
   28.290    6.7404
   28.320    6.6035
   28.350    6.5824
   28.380    6.8141
   28.410    6.7404
   28.440    6.7088
   28.470    6.4455
   28.500    6.6245
   28.530    6.5192
   28.560    6.9300
   28.590    6.6561
   28.620    6.6561
   28.650    6.4139
   28.680    6.7509
   28.710    6.3507
   28.740    6.6456
   28.770    6.5929
   28.800    6.3296
   28.830    6.3086
   28.860    6.7930
   28.890    6.6561
   28.920    6.5929
   28.950    6.7615
   28.980    6.8036
   29.010    7.1511
   29.040    6.3612
   29.070    7.0248
   29.100    6.3612
   29.130    6.4244
   29.160    6.4034
   29.190    6.5087
   29.220    6.6877
   29.250    6.6772
   29.280    6.7825
   29.310    6.3086
   29.340    6.4666
   29.370    6.2770
   29.400    6.5613
   29.430    6.6877
   29.460    6.3402
   29.490    6.2454
   29.520    6.6035
   29.550    6.1190
   29.580    6.4771
   29.610    6.2454
   29.640    6.4771
   29.670    6.3402
   29.700    6.2138
   29.730    6.3296
   29.760    6.4666
   29.790    6.2981
   29.820    6.2770
   29.850    6.2349
   29.880    6.4771
   29.910    6.3928
   29.940    6.0664
   29.970    6.4139
   30.000    6.3823
   30.030    6.6667
   30.060    6.3612
   30.090    6.2875
   30.120    6.2770
   30.150    6.2875
   30.180    5.9610
   30.210    6.3823
   30.240    5.9189
   30.270    6.4982
   30.300    5.9189
   30.330    6.3191
   30.360    6.5719
   30.390    6.4350
   30.420    6.3928
   30.450    6.3296
   30.480    6.2559
   30.510    6.2875
   30.540    6.2138
   30.570    6.5719
   30.600    5.8662
   30.630    6.4244
   30.660    5.9084
   30.690    6.2665
   30.720    5.8768
   30.750    5.8557
   30.780    6.0769
   30.810    6.2033
   30.840    5.8662
   30.870    6.1611
   30.900    5.9716
   30.930    5.5398
   30.960    5.8873
   30.990    6.0032
   31.020    6.3086
   31.050    6.1611
   31.080    6.0242
   31.110    5.8873
   31.140    5.9821
   31.170    5.7188
   31.200    6.2770
   31.230    5.7820
   31.260    6.0137
   31.290    6.0032
   31.320    6.1506
   31.350    6.5087
   31.380    6.6351
   31.410    6.0664
   31.440    6.2665
   31.470    6.4771
   31.500    6.0453
   31.530    5.9400
   31.560    6.1401
   31.590    6.1611
   31.620    6.0348
   31.650    5.9294
   31.680    6.6035
   31.710    5.9821
   31.740    6.1190
   31.770    6.6351
   31.800    6.3507
   31.830    6.1295
   31.860    6.2138
   31.890    6.2033
   31.920    5.9716
   31.950    6.1506
   31.980    6.3507
   32.010    6.3402
   32.040    6.3507
   32.070    6.2559
   32.100    6.4771
   32.130    6.5087
   32.160    6.4982
   32.190    6.0664
   32.220    6.0664
   32.250    6.2138
   32.280    5.8136
   32.310    5.5398
   32.340    5.8347
   32.370    5.6240
   32.400    5.7715
   32.430    6.0979
   32.460    5.8136
   32.490    5.6977
   32.520    5.8557
   32.550    5.8557
   32.580    5.6977
   32.610    5.5819
   32.640    5.8768
   32.670    6.1190
   32.700    5.7609
   32.730    5.7504
   32.760    5.3607
   32.790    5.6451
   32.820    5.8978
   32.850    5.6135
   32.880    5.7504
   32.910    6.0874
   32.940    5.9294
   32.970    5.8452
   33.000    5.6767
   33.030    5.6240
   33.060    5.6556
   33.090    5.6451
   33.120    5.5714
   33.150    5.7925
   33.180    5.5608
   33.210    5.7399
   33.240    5.6345
   33.270    5.6556
   33.300    5.4871
   33.330    5.5398
   33.360    5.8241
   33.390    5.4976
   33.420    5.4660
   33.450    5.4660
   33.480    5.6767
   33.510    5.9189
   33.540    5.4976
   33.570    5.8241
   33.600    5.5819
   33.630    5.8873
   33.660    5.8241
   33.690    5.3818
   33.720    5.7399
   33.750    5.8136
   33.780    5.8978
   33.810    6.0137
   33.840    6.3086
   33.870    5.9084
   33.900    6.1822
   33.930    6.1190
   33.960    6.2243
   33.990    6.0242
   34.020    5.7715
   34.050    5.8347
   34.080    5.9294
   34.110    5.6135
   34.140    5.6767
   34.170    5.3712
   34.200    5.3186
   34.230    5.7188
   34.260    5.5082
   34.290    5.1922
   34.320    5.8978
   34.350    5.2659
   34.380    5.3712
   34.410    5.3081
   34.440    5.5714
   34.470    5.4028
   34.500    5.5503
   34.530    5.6451
   34.560    5.5292
   34.590    5.2133
   34.620    5.4555
   34.650    5.7293
   34.680    5.4976
   34.710    5.2870
   34.740    5.8768
   34.770    5.6872
   34.800    5.6240
   34.830    5.5503
   34.860    5.3607
   34.890    5.2870
   34.920    5.3502
   34.950    5.6661
   34.980    4.9816
   35.010    5.4239
   35.040    5.5819
   35.070    5.5398
   35.100    5.0448
   35.130    5.5082
   35.160    5.4450
   35.190    5.6872
   35.220    5.5714
   35.250    5.8452
   35.280    5.1395
   35.310    5.3186
   35.340    5.4766
   35.370    5.1606
   35.400    5.6135
   35.430    5.7293
   35.460    5.5187
   35.490    5.5292
   35.520    5.2870
   35.550    5.3923
   35.580    5.4976
   35.610    5.3712
   35.640    5.2659
   35.670    5.8978
   35.700    5.4344
   35.730    5.5714
   35.760    5.3712
   35.790    5.7925
   35.820    5.2133
   35.850    5.3291
   35.880    5.2449
   35.910    5.3397
   35.940    5.5398
   35.970    5.3502
   36.000    5.4660
   36.030    5.1922
   36.060    5.4028
   36.090    5.7820
   36.120    5.3818
   36.150    5.3291
   36.180    5.3923
   36.210    5.4976
   36.240    5.6872
   36.270    5.5082
   36.300    5.4871
   36.330    5.6029
   36.360    4.8552
   36.390    5.3607
   36.420    5.5819
   36.450    5.4344
   36.480    5.6556
   36.510    5.3081
   36.540    5.1817
   36.570    5.3818
   36.600    5.1606
   36.630    5.2449
   36.660    5.3081
   36.690    5.4976
   36.720    5.6556
   36.750    5.2449
   36.780    5.0026
   36.810    5.4555
   36.840    5.1080
   36.870    5.2133
   36.900    5.2765
   36.930    5.5819
   36.960    5.2765
   36.990    5.2133
   37.020    5.2765
   37.050    5.5924
   37.080    5.2870
   37.110    5.7609
   37.140    5.2238
   37.170    5.2238
   37.200    5.2343
   37.230    5.3502
   37.260    5.0237
   37.290    5.1395
   37.320    5.6451
   37.350    5.2027
   37.380    5.0132
   37.410    5.5608
   37.440    5.4028
   37.470    5.2870
   37.500    5.3502
   37.530    5.2554
   37.560    5.2449
   37.590    5.2027
   37.620    5.2870
   37.650    5.2133
   37.680    5.0448
   37.710    5.3818
   37.740    4.8341
   37.770    5.1395
   37.800    5.4344
   37.830    5.2133
   37.860    5.3923
   37.890    4.8868
   37.920    5.4239
   37.950    5.3818
   37.980    5.1817
   38.010    5.3502
   38.040    4.8868
   38.070    5.2870
   38.100    5.1395
   38.130    5.0658
   38.160    5.0448
   38.190    5.2449
   38.220    5.3502
   38.250    5.5714
   38.280    5.3923
   38.310    5.3818
   38.340    4.8868
   38.370    5.1817
   38.400    5.3397
   38.430    5.4555
   38.460    5.1922
   38.490    5.1395
   38.520    5.5819
   38.550    5.0553
   38.580    5.2027
   38.610    5.3923
   38.640    5.5924
   38.670    5.1606
   38.700    5.2238
   38.730    4.8447
   38.760    4.9816
   38.790    4.8973
   38.820    5.2027
   38.850    5.0974
   38.880    5.3712
   38.910    5.0448
   38.940    5.1711
   38.970    5.1395
   39.000    5.2238
   39.030    5.0658
   39.060    4.7393
   39.090    5.1395
   39.120    4.8341
   39.150    5.2870
   39.180    4.9289
   39.210    5.1711
   39.240    5.2133
   39.270    5.4766
   39.300    5.6661
   39.330    5.3081
   39.360    5.0658
   39.390    4.9289
   39.420    5.2449
   39.450    4.9289
   39.480    5.2027
   39.510    5.0237
   39.540    5.4028
   39.570    4.9605
   39.600    5.5187
   39.630    5.0026
   39.660    5.0764
   39.690    5.3081
   39.720    5.3923
   39.750    4.9078
   39.780    5.2027
   39.810    5.3923
   39.840    5.1290
   39.870    5.3502
   39.900    5.5292
   39.930    5.0026
   39.960    5.5714
   39.990    5.4450