File: data/MOCOF-1/PXRD/PXRD_KE-070_Cu-Ka1_capillary-1mm_5s-deg.xyd
    1.500   10.7109
    1.530   10.6793
    1.560   10.5319
    1.590   10.2054
    1.620   10.4581
    1.650   10.0685
    1.680    9.8894
    1.710    9.7630
    1.740   10.2686
    1.770   10.1948
    1.800   10.0158
    1.830   10.0474
    1.860   10.0579
    1.890    9.6998
    1.920   10.2054
    1.950   10.6898
    1.980   10.1001
    2.010    9.8789
    2.040    9.6472
    2.070   10.1422
    2.100   10.9637
    2.130   10.2896
    2.160   10.9847
    2.190   11.0479
    2.220   11.1322
    2.250   11.1006
    2.280   11.7641
    2.310   11.2902
    2.340   11.9010
    2.370   12.2275
    2.400   11.9010
    2.430   11.8589
    2.460   12.7014
    2.490   12.9963
    2.520   13.4071
    2.550   14.4497
    2.580   14.4602
    2.610   14.2285
    2.640   15.3870
    2.670   15.5134
    2.700   16.0611
    2.730   16.5034
    2.760   17.1037
    2.790   17.8304
    2.820   19.1048
    2.850   19.5155
    2.880   19.8420
    2.910   20.9689
    2.940   21.7167
    2.970   22.9910
    3.000   24.1811
    3.030   24.9500
    3.060   27.0353
    3.090   29.0153
    3.120   30.7741
    3.150   31.6588
    3.180   34.7235
    3.210   36.2823
    3.240   39.9157
    3.270   42.8963
    3.300   46.3507
    3.330   50.0263
    3.360   54.7867
    3.390   61.4218
    3.420   69.2996
    3.450   73.1648
    3.480   78.1359
    3.510   74.5445
    3.540   66.0558
    3.570   54.2601
    3.600   44.4023
    3.630   38.4623
    3.660   34.0390
    3.690   31.8694
    3.720   30.6582
    3.750   31.4165
    3.780   31.6061
    3.810   31.3323
    3.840   33.5756
    3.870   34.6709
    3.900   34.3971
    3.930   36.5140
    3.960   33.2596
    3.990   33.2280
    4.020   32.1222
    4.050   30.9426
    4.080   29.8684
    4.110   27.7936
    4.140   25.3291
    4.170   22.7804
    4.200   22.0221
    4.230   18.8520
    4.260   17.5671
    4.290   15.5977
    4.320   14.2812
    4.350   13.4492
    4.380   11.5956
    4.410   10.6266
    4.440   10.2264
    4.470    8.8678
    4.500    8.6572
    4.530    8.2886
    4.560    8.2254
    4.590    7.3302
    4.620    7.4882
    4.650    7.2880
    4.680    6.6035
    4.710    6.6667
    4.740    6.3507
    4.770    6.1611
    4.800    6.2981
    4.830    6.2033
    4.860    6.1401
    4.890    5.9610
    4.920    5.6029
    4.950    5.6556
    4.980    5.4028
    5.010    5.8136
    5.040    5.3081
    5.070    5.2659
    5.100    5.8031
    5.130    5.4871
    5.160    5.4871
    5.190    4.9605
    5.220    5.6556
    5.250    5.4555
    5.280    5.3607
    5.310    4.9921
    5.340    5.3818
    5.370    5.2554
    5.400    5.4239
    5.430    5.1080
    5.460    4.6972
    5.490    5.2238
    5.520    5.0342
    5.550    5.3607
    5.580    5.1290
    5.610    4.8973
    5.640    5.1501
    5.670    4.5287
    5.700    4.8131
    5.730    4.2865
    5.760    4.4234
    5.790    4.7709
    5.820    4.5182
    5.850    4.8973
    5.880    4.7077
    5.910    4.5919
    5.940    4.4760
    5.970    4.4444
    6.000    4.6340
    6.030    4.5814
    6.060    4.8131
    6.090    4.4128
    6.120    4.3707
    6.150    4.7183
    6.180    4.5287
    6.210    5.0026
    6.240    4.7288
    6.270    4.9289
    6.300    4.8763
    6.330    4.7815
    6.360    4.8131
    6.390    5.1395
    6.420    4.9394
    6.450    5.3291
    6.480    5.2343
    6.510    5.1606
    6.540    5.5503
    6.570    5.6661
    6.600    5.3818
    6.630    5.9821
    6.660    5.8241
    6.690    6.2349
    6.720    6.5403
    6.750    7.2775
    6.780    7.2880
    6.810    7.8989
    6.840    7.7409
    6.870    8.4044
    6.900    9.3418
    6.930    9.7630
    6.960   10.4897
    6.990   10.9953
    7.020   10.7214
    7.050    9.3312
    7.080    8.8257
    7.110    7.3618
    7.140    6.8246
    7.170    5.9610
    7.200    5.7609
    7.230    5.5082
    7.260    5.0658
    7.290    5.2870
    7.320    5.3291
    7.350    5.1080
    7.380    5.3607
    7.410    4.8868
    7.440    5.1711
    7.470    4.9710
    7.500    4.8552
    7.530    4.9289
    7.560    5.3081
    7.590    5.4766
    7.620    5.3607
    7.650    5.1185
    7.680    5.7609
    7.710    6.0242
    7.740    5.7925
    7.770    5.7925
    7.800    6.0137
    7.830    6.3612
    7.860    6.1717
    7.890    6.2243
    7.920    5.9294
    7.950    6.2559
    7.980    6.7615
    8.010    6.5508
    8.040    6.4455
    8.070    6.5824
    8.100    7.0037
    8.130    6.5087
    8.160    6.1822
    8.190    6.3402
    8.220    6.3296
    8.250    6.1717
    8.280    6.2770
    8.310    6.2454
    8.340    6.0453
    8.370    5.8557
    8.400    6.1190
    8.430    5.5082
    8.460    5.4660
    8.490    5.7188
    8.520    5.6661
    8.550    5.3186
    8.580    5.4766
    8.610    5.2238
    8.640    4.9710
    8.670    4.9078
    8.700    5.2765
    8.730    4.8447
    8.760    4.8973
    8.790    5.0869
    8.820    4.5603
    8.850    4.3075
    8.880    4.7815
    8.910    4.3707
    8.940    4.4971
    8.970    4.6551
    9.000    4.4760
    9.030    4.1390
    9.060    4.3707
    9.090    4.3602
    9.120    4.5392
    9.150    4.4655
    9.180    4.7604
    9.210    4.1917
    9.240    4.2970
    9.270    4.3075
    9.300    4.2338
    9.330    4.2759
    9.360    4.3075
    9.390    4.4339
    9.420    4.1285
    9.450    4.4444
    9.480    4.0021
    9.510    4.5182
    9.540    4.2759
    9.570    4.6235
    9.600    4.5287
    9.630    4.4550
    9.660    4.2759
    9.690    4.0232
    9.720    4.2759
    9.750    4.0864
    9.780    4.3181
    9.810    4.0232
    9.840    4.0864
    9.870    4.1811
    9.900    4.1285
    9.930    4.1285
    9.960    3.9600
    9.990    3.9916
   10.020    4.0126
   10.050    4.4023
   10.080    3.9494
   10.110    4.1917
   10.140    4.1917
   10.170    4.2233
   10.200    4.2127
   10.230    4.3286
   10.260    4.1285
   10.290    4.2022
   10.320    4.1811
   10.350    4.6024
   10.380    4.7077
   10.410    4.6445
   10.440    4.5498
   10.470    4.7709
   10.500    4.4866
   10.530    4.4128
   10.560    4.1811
   10.590    4.2549
   10.620    4.4444
   10.650    4.1285
   10.680    4.0442
   10.710    4.0653
   10.740    3.8652
   10.770    4.2759
   10.800    4.0126
   10.830    3.9179
   10.860    4.2127
   10.890    4.2654
   10.920    3.8547
   10.950    4.2865
   10.980    4.1074
   11.010    4.3497
   11.040    4.2338
   11.070    4.2654
   11.100    4.2338
   11.130    3.8547
   11.160    4.0864
   11.190    4.1180
   11.220    4.1180
   11.250    4.1496
   11.280    4.0969
   11.310    4.0442
   11.340    4.1390
   11.370    4.1390
   11.400    4.1496
   11.430    4.0232
   11.460    4.1706
   11.490    4.2549
   11.520    4.2865
   11.550    4.2759
   11.580    4.1601
   11.610    4.2654
   11.640    3.8968
   11.670    4.2127
   11.700    4.2338
   11.730    4.4760
   11.760    4.4444
   11.790    4.7288
   11.820    4.4866
   11.850    4.1601
   11.880    4.3813
   11.910    4.3286
   11.940    4.5814
   11.970    4.4339
   12.000    4.7920
   12.030    4.1811
   12.060    4.4444
   12.090    4.4128
   12.120    4.5498
   12.150    4.3181
   12.180    4.1074
   12.210    4.2338
   12.240    4.4128
   12.270    4.5603
   12.300    4.3707
   12.330    4.5708
   12.360    3.9073
   12.390    4.5076
   12.420    4.5182
   12.450    4.0653
   12.480    4.3918
   12.510    4.4444
   12.540    4.2127
   12.570    4.3181
   12.600    4.3602
   12.630    4.3602
   12.660    4.3707
   12.690    4.2022
   12.720    4.1285
   12.750    4.1917
   12.780    4.0548
   12.810    4.2970
   12.840    4.3075
   12.870    4.3181
   12.900    4.0548
   12.930    4.1285
   12.960    4.6340
   12.990    4.2865
   13.020    4.1496
   13.050    4.5708
   13.080    3.8441
   13.110    3.8968
   13.140    4.2970
   13.170    4.4023
   13.200    3.9916
   13.230    4.4655
   13.260    4.1390
   13.290    4.3181
   13.320    4.0337
   13.350    4.0548
   13.380    4.0337
   13.410    4.3918
   13.440    4.1601
   13.470    4.0442
   13.500    3.9179
   13.530    4.0232
   13.560    4.2970
   13.590    4.2654
   13.620    4.2233
   13.650    4.0969
   13.680    4.1706
   13.710    4.0232
   13.740    4.1180
   13.770    3.9284
   13.800    4.4760
   13.830    4.1706
   13.860    4.1285
   13.890    4.1496
   13.920    3.9179
   13.950    4.1706
   13.980    4.0969
   14.010    4.2549
   14.040    4.0864
   14.070    4.1180
   14.100    3.9916
   14.130    4.1074
   14.160    4.0337
   14.190    3.6546
   14.220    4.1811
   14.250    4.0969
   14.280    3.9916
   14.310    4.1496
   14.340    3.8231
   14.370    3.8547
   14.400    4.0653
   14.430    3.6862
   14.460    3.4544
   14.490    3.8020
   14.520    3.9179
   14.550    4.2443
   14.580    3.6440
   14.610    3.5492
   14.640    4.0126
   14.670    3.8231
   14.700    4.0126
   14.730    4.1601
   14.760    3.9705
   14.790    3.8020
   14.820    3.9916
   14.850    3.9705
   14.880    3.8336
   14.910    3.9810
   14.940    3.9494
   14.970    3.9179
   15.000    3.8231
   15.030    3.8652
   15.060    3.7388
   15.090    4.0232
   15.120    3.8547
   15.150    4.0126
   15.180    3.7283
   15.210    3.9179
   15.240    4.1811
   15.270    3.9916
   15.300    3.9494
   15.330    3.9705
   15.360    3.9073
   15.390    4.4234
   15.420    3.9179
   15.450    3.8441
   15.480    3.7388
   15.510    3.8757
   15.540    3.7283
   15.570    4.3602
   15.600    3.7915
   15.630    4.1390
   15.660    4.0548
   15.690    4.1180
   15.720    3.9073
   15.750    4.0126
   15.780    3.9810
   15.810    4.0126
   15.840    3.8336
   15.870    3.9179
   15.900    3.9284
   15.930    3.8441
   15.960    4.0337
   15.990    3.6124
   16.020    3.6967
   16.050    3.9179
   16.080    4.0969
   16.110    3.9389
   16.140    3.8441
   16.170    3.8125
   16.200    3.7283
   16.230    3.8652
   16.260    3.8020
   16.290    3.4544
   16.320    3.8125
   16.350    3.9073
   16.380    3.8125
   16.410    3.9916
   16.440    3.7072
   16.470    3.9073
   16.500    3.8020
   16.530    4.0021
   16.560    3.6440
   16.590    3.6651
   16.620    3.8020
   16.650    3.8652
   16.680    3.8968
   16.710    3.9810
   16.740    3.7177
   16.770    3.7388
   16.800    3.7177
   16.830    3.9600
   16.860    3.6862
   16.890    3.9073
   16.920    3.7915
   16.950    4.0442
   16.980    4.1285
   17.010    3.8231
   17.040    3.9810
   17.070    3.6651
   17.100    4.1285
   17.130    3.8441
   17.160    3.9073
   17.190    3.7388
   17.220    3.6862
   17.250    3.7599
   17.280    3.8968
   17.310    3.8757
   17.340    3.9494
   17.370    3.9600
   17.400    3.6440
   17.430    3.9389
   17.460    3.8441
   17.490    3.8125
   17.520    3.8441
   17.550    3.8231
   17.580    3.8652
   17.610    3.8968
   17.640    3.9284
   17.670    3.9389
   17.700    3.9284
   17.730    4.1180
   17.760    3.5914
   17.790    3.9389
   17.820    3.8441
   17.850    3.8125
   17.880    3.8336
   17.910    4.1074
   17.940    4.1285
   17.970    3.8968
   18.000    3.8231
   18.030    3.8336
   18.060    4.0232
   18.090    4.0021
   18.120    3.6440
   18.150    4.1706
   18.180    3.7283
   18.210    3.7493
   18.240    4.0758
   18.270    3.9494
   18.300    4.0548
   18.330    4.1180
   18.360    3.9179
   18.390    3.8336
   18.420    3.7915
   18.450    3.7809
   18.480    3.9600
   18.510    3.9284
   18.540    3.8863
   18.570    3.7809
   18.600    4.1074
   18.630    3.8547
   18.660    3.6124
   18.690    4.2233
   18.720    3.8652
   18.750    3.8757
   18.780    4.2865
   18.810    4.0969
   18.840    3.8336
   18.870    4.0442
   18.900    4.0442
   18.930    4.0864
   18.960    4.2759
   18.990    4.1601
   19.020    4.7709
   19.050    4.4550
   19.080    4.2338
   19.110    3.9494
   19.140    4.0653
   19.170    3.8652
   19.200    3.9705
   19.230    4.1180
   19.260    4.0548
   19.290    3.8652
   19.320    3.6651
   19.350    4.5287
   19.380    3.6124
   19.410    3.8757
   19.440    4.3813
   19.470    4.1706
   19.500    4.2127
   19.530    4.1074
   19.560    4.3918
   19.590    4.0337
   19.620    4.0969
   19.650    3.9600
   19.680    4.2549
   19.710    4.4550
   19.740    4.1390
   19.770    4.1917
   19.800    3.6862
   19.830    4.2127
   19.860    4.0232
   19.890    4.2549
   19.920    3.9494
   19.950    4.3286
   19.980    4.4655
   20.010    4.0337
   20.040    4.3391
   20.070    4.3181
   20.100    4.0126
   20.130    4.0126
   20.160    3.8757
   20.190    4.5076
   20.220    4.6024
   20.250    4.1496
   20.280    4.3286
   20.310    4.0969
   20.340    4.6024
   20.370    4.3813
   20.400    4.6656
   20.430    4.4234
   20.460    4.1917
   20.490    4.4234
   20.520    4.1074
   20.550    4.0232
   20.580    4.1180
   20.610    4.1601
   20.640    4.4234
   20.670    4.4023
   20.700    4.1496
   20.730    4.0442
   20.760    4.3707
   20.790    4.1917
   20.820    3.9810
   20.850    4.0864
   20.880    4.3707
   20.910    4.3391
   20.940    4.3602
   20.970    4.2970
   21.000    4.0021
   21.030    4.2443
   21.060    4.1811
   21.090    4.1285
   21.120    4.2022
   21.150    4.1811
   21.180    4.4234
   21.210    4.0548
   21.240    4.3181
   21.270    4.3602
   21.300    4.3707
   21.330    4.3286
   21.360    4.1706
   21.390    4.4444
   21.420    3.9284
   21.450    4.5076
   21.480    4.1390
   21.510    4.2127
   21.540    4.4023
   21.570    4.1074
   21.600    4.3391
   21.630    4.4339
   21.660    4.4128
   21.690    4.5076
   21.720    4.2865
   21.750    4.3075
   21.780    4.0232
   21.810    4.2759
   21.840    4.4444
   21.870    4.2338
   21.900    4.1496
   21.930    4.1074
   21.960    4.3707
   21.990    4.0548
   22.020    4.3075
   22.050    4.0653
   22.080    4.2865
   22.110    4.3497
   22.140    4.3391
   22.170    4.5392
   22.200    4.0337
   22.230    4.2022
   22.260    4.3918
   22.290    4.2549
   22.320    4.4234
   22.350    4.4023
   22.380    4.1074
   22.410    4.1285
   22.440    4.6340
   22.470    4.4550
   22.500    4.4023
   22.530    4.3497
   22.560    3.9916
   22.590    4.3918
   22.620    4.1390
   22.650    4.5919
   22.680    4.5708
   22.710    4.2865
   22.740    4.1074
   22.770    3.9389
   22.800    4.3075
   22.830    4.0969
   22.860    4.2338
   22.890    4.3391
   22.920    4.3497
   22.950    4.1706
   22.980    4.2338
   23.010    4.1496
   23.040    4.0969
   23.070    4.1285
   23.100    4.2127
   23.130    4.3918
   23.160    4.3918
   23.190    4.4550
   23.220    4.0337
   23.250    4.3497
   23.280    3.9916
   23.310    4.3181
   23.340    4.0442
   23.370    4.0758
   23.400    4.4128
   23.430    4.0232
   23.460    3.7599
   23.490    4.2970
   23.520    4.1706
   23.550    4.2759
   23.580    3.9705
   23.610    4.0548
   23.640    4.1811
   23.670    4.2338
   23.700    3.9073
   23.730    4.2338
   23.760    4.2127
   23.790    4.3813
   23.820    3.8125
   23.850    4.1917
   23.880    3.8441
   23.910    3.9916
   23.940    3.8231
   23.970    3.9284
   24.000    4.2970
   24.030    4.0653
   24.060    4.0337
   24.090    4.5603
   24.120    3.9916
   24.150    4.1390
   24.180    4.0232
   24.210    3.9389
   24.240    4.1285
   24.270    3.9494
   24.300    4.0758
   24.330    3.9284
   24.360    4.2338
   24.390    4.3813
   24.420    4.0442
   24.450    3.8020
   24.480    3.7704
   24.510    3.9810
   24.540    4.0548
   24.570    3.8231
   24.600    4.1917
   24.630    4.0442
   24.660    4.0864
   24.690    3.9916
   24.720    3.6546
   24.750    3.9284
   24.780    4.2443
   24.810    3.9916
   24.840    3.8336
   24.870    3.9073
   24.900    3.6862
   24.930    4.0758
   24.960    4.1496
   24.990    3.9179
   25.020    3.6335
   25.050    4.0548
   25.080    3.6546
   25.110    3.7493
   25.140    3.6967
   25.170    3.8863
   25.200    4.1390
   25.230    3.9810
   25.260    4.0864
   25.290    4.2549
   25.320    3.7809
   25.350    3.8547
   25.380    3.8441
   25.410    3.9494
   25.440    3.5808
   25.470    3.6967
   25.500    3.9916
   25.530    3.6862
   25.560    3.9600
   25.590    3.9389
   25.620    3.7915
   25.650    3.8020
   25.680    3.6967
   25.710    3.7915
   25.740    3.5914
   25.770    3.8757
   25.800    3.6440
   25.830    3.6440
   25.860    3.7388
   25.890    3.7915
   25.920    3.8757
   25.950    3.7915
   25.980    3.7388
   26.010    3.7072
   26.040    3.4755
   26.070    3.7283
   26.100    3.7072
   26.130    3.5703
   26.160    3.4439
   26.190    3.7072
   26.220    3.7493
   26.250    3.6019
   26.280    3.5914
   26.310    3.5598
   26.340    3.6651
   26.370    3.4860
   26.400    3.8652
   26.430    3.8125
   26.460    3.6651
   26.490    3.8125
   26.520    3.6756
   26.550    3.7915
   26.580    3.6335
   26.610    3.6019
   26.640    3.5387
   26.670    3.5071
   26.700    3.6124
   26.730    3.6124
   26.760    3.5808
   26.790    3.5071
   26.820    3.4755
   26.850    3.6124
   26.880    3.3281
   26.910    3.7388
   26.940    3.6651
   26.970    3.5387
   27.000    3.6756
   27.030    3.6440
   27.060    3.6756
   27.090    3.4334
   27.120    3.2543
   27.150    3.5703
   27.180    3.4650
   27.210    3.5282
   27.240    3.4229
   27.270    3.4334
   27.300    3.5387
   27.330    3.4334
   27.360    3.5282
   27.390    3.9179
   27.420    3.7388
   27.450    3.5914
   27.480    3.5703
   27.510    3.4123
   27.540    3.5598
   27.570    3.4755
   27.600    3.6546
   27.630    3.4544
   27.660    3.6440
   27.690    3.4966
   27.720    3.6651
   27.750    3.4018
   27.780    3.4334
   27.810    3.6230
   27.840    3.5492
   27.870    3.4650
   27.900    3.2438
   27.930    3.9179
   27.960    3.7177
   27.990    3.6862
   28.020    3.6756
   28.050    3.5492
   28.080    4.0548
   28.110    3.7493
   28.140    3.8125
   28.170    3.3807
   28.200    3.5598
   28.230    3.6440
   28.260    3.9705
   28.290    3.7177
   28.320    3.4018
   28.350    3.3281
   28.380    3.4439
   28.410    3.4229
   28.440    3.6019
   28.470    3.5598
   28.500    3.3175
   28.530    3.3807
   28.560    3.4755
   28.590    3.5703
   28.620    3.4544
   28.650    3.5387
   28.680    3.5282
   28.710    3.4334
   28.740    3.3597
   28.770    3.1701
   28.800    3.5598
   28.830    3.5282
   28.860    3.2649
   28.890    3.4018
   28.920    3.3807
   28.950    3.7704
   28.980    3.9179
   29.010    3.8757
   29.040    3.9073
   29.070    3.5282
   29.100    3.5703
   29.130    3.3175
   29.160    3.4229
   29.190    3.3386
   29.220    3.6019
   29.250    3.0753
   29.280    3.1596
   29.310    3.7177
   29.340    3.4123
   29.370    3.1912
   29.400    3.2859
   29.430    3.3386
   29.460    3.2543
   29.490    3.4860
   29.520    3.3702
   29.550    3.5176
   29.580    3.4544
   29.610    3.6124
   29.640    3.2227
   29.670    3.2333
   29.700    3.1912
   29.730    3.1385
   29.760    3.4229
   29.790    3.1912
   29.820    2.8857
   29.850    3.2649
   29.880    3.1701
   29.910    3.4860
   29.940    3.2017
   29.970    3.2543
   30.000    3.1385
   30.030    3.2017
   30.060    3.0437
   30.090    3.1280
   30.120    2.9595
   30.150    3.2543
   30.180    3.1806
   30.210    3.0858
   30.240    3.0964
   30.270    3.2543
   30.300    3.0121
   30.330    3.2122
   30.360    3.2122
   30.390    3.1912
   30.420    3.0542
   30.450    3.0542
   30.480    3.0226
   30.510    3.0437
   30.540    3.0016
   30.570    3.1596
   30.600    3.1385
   30.630    3.4229
   30.660    3.0332
   30.690    3.1596
   30.720    3.0648
   30.750    3.2543
   30.780    2.9805
   30.810    3.2754
   30.840    2.9173
   30.870    3.1069
   30.900    3.3597
   30.930    3.3175
   30.960    2.9595
   30.990    3.2543
   31.020    2.9489
   31.050    3.1280
   31.080    3.1280
   31.110    2.9173
   31.140    2.8963
   31.170    3.2333
   31.200    3.2965
   31.230    3.1280
   31.260    3.0648
   31.290    2.9910
   31.320    2.7804
   31.350    2.8225
   31.380    3.0437
   31.410    3.1701
   31.440    3.3491
   31.470    3.1912
   31.500    3.3386
   31.530    3.0542
   31.560    3.4650
   31.590    3.1912
   31.620    3.3281
   31.650    3.2227
   31.680    3.3175
   31.710    3.2649
   31.740    3.1069
   31.770    3.2965
   31.800    3.0964
   31.830    3.1701
   31.860    3.1490
   31.890    3.2965
   31.920    3.1174
   31.950    3.1912
   31.980    3.2438
   32.010    3.2333
   32.040    3.3175
   32.070    3.5492
   32.100    3.8231
   32.130    3.8863
   32.160    4.0337
   32.190    3.7915
   32.220    3.4860
   32.250    2.9700
   32.280    3.0332
   32.310    2.8225
   32.340    2.9279
   32.370    2.6962
   32.400    2.8225
   32.430    2.7488
   32.460    2.9595
   32.490    3.0542
   32.520    3.1385
   32.550    2.9173
   32.580    2.9805
   32.610    2.8120
   32.640    2.8857
   32.670    2.7699
   32.700    2.8857
   32.730    3.0753
   32.760    2.6962
   32.790    2.9595
   32.820    2.8647
   32.850    2.8541
   32.880    2.9068
   32.910    2.8541
   32.940    2.8331
   32.970    2.7278
   33.000    2.5698
   33.030    2.8331
   33.060    2.7909
   33.090    2.9173
   33.120    2.7488
   33.150    2.7804
   33.180    2.6330
   33.210    2.8015
   33.240    2.8120
   33.270    2.7909
   33.300    2.9384
   33.330    2.9173
   33.360    2.8963
   33.390    2.7804
   33.420    2.7067
   33.450    2.8015
   33.480    2.7488
   33.510    2.6751
   33.540    2.8225
   33.570    2.6540
   33.600    3.0226
   33.630    2.6330
   33.660    2.7593
   33.690    2.8015
   33.720    2.9805
   33.750    2.6435
   33.780    2.8963
   33.810    3.0016
   33.840    2.9805
   33.870    3.0332
   33.900    3.1069
   33.930    3.0226
   33.960    2.7593
   33.990    2.8120
   34.020    2.8752
   34.050    2.6646
   34.080    2.7488
   34.110    2.6962
   34.140    2.9068
   34.170    2.8015
   34.200    2.8436
   34.230    2.7593
   34.260    2.5171
   34.290    2.4329
   34.320    2.6646
   34.350    2.5171
   34.380    2.7699
   34.410    2.5698
   34.440    2.4118
   34.470    2.4750
   34.500    2.4118
   34.530    2.5487
   34.560    2.6751
   34.590    2.6224
   34.620    2.8015
   34.650    2.5698
   34.680    2.6856
   34.710    2.4645
   34.740    2.3802
   34.770    2.2328
   34.800    3.1385
   34.830    2.2117
   34.860    2.6435
   34.890    2.7699
   34.920    2.6646
   34.950    2.6856
   34.980    2.6435
   35.010    2.6962
   35.040    2.6540
   35.070    2.5698
   35.100    2.9805
   35.130    2.7067
   35.160    2.5171
   35.190    2.3591
   35.220    2.5171
   35.250    2.6646
   35.280    2.7909
   35.310    2.6856
   35.340    2.5487
   35.370    2.6014
   35.400    2.6856
   35.430    2.3065
   35.460    2.5382
   35.490    2.3907
   35.520    2.3275
   35.550    2.7909
   35.580    2.6856
   35.610    2.5803
   35.640    2.5803
   35.670    2.6119
   35.700    2.3907
   35.730    2.3591
   35.760    2.4645
   35.790    2.4855
   35.820    2.7699
   35.850    2.2854
   35.880    2.6540
   35.910    2.5803
   35.940    2.5592
   35.970    2.6330
   36.000    2.4750
   36.030    2.4539
   36.060    2.6224
   36.090    2.2538
   36.120    2.2854
   36.150    2.3065
   36.180    2.6435
   36.210    2.7593
   36.240    2.4329
   36.270    2.3591
   36.300    2.4118
   36.330    2.4855
   36.360    2.3170
   36.390    2.3381
   36.420    2.2222
   36.450    2.3486
   36.480    2.4645
   36.510    2.4223
   36.540    2.3591
   36.570    2.4855
   36.600    2.4645
   36.630    2.5382
   36.660    2.4013
   36.690    2.4855
   36.720    2.4645
   36.750    2.4645
   36.780    2.3486
   36.810    2.6856
   36.840    2.3907
   36.870    2.3170
   36.900    2.3697
   36.930    2.2643
   36.960    2.3802
   36.990    2.6856
   37.020    2.3697
   37.050    2.1696
   37.080    2.2749
   37.110    2.1906
   37.140    2.1696
   37.170    2.3275
   37.200    2.1274
   37.230    2.4645
   37.260    2.4539
   37.290    2.5066
   37.320    2.3486
   37.350    2.2854
   37.380    2.3275
   37.410    2.2433
   37.440    2.2538
   37.470    2.4434
   37.500    2.1906
   37.530    2.2433
   37.560    2.6014
   37.590    2.3170
   37.620    2.1380
   37.650    2.1906
   37.680    2.4329
   37.710    2.2117
   37.740    2.2433
   37.770    2.2749
   37.800    2.5382
   37.830    2.2643
   37.860    2.3381
   37.890    2.2012
   37.920    2.3802
   37.950    2.1485
   37.980    2.2117
   38.010    2.1696
   38.040    2.1380
   38.070    2.3065
   38.100    2.3486
   38.130    2.2328
   38.160    2.5171
   38.190    2.4223
   38.220    2.1485
   38.250    2.1590
   38.280    2.3381
   38.310    2.4013
   38.340    2.4013
   38.370    2.3381
   38.400    2.2222
   38.430    2.2012
   38.460    2.5487
   38.490    2.4539
   38.520    2.3486
   38.550    2.5382
   38.580    2.4750
   38.610    2.4750
   38.640    2.3275
   38.670    2.4855
   38.700    2.3802
   38.730    2.2749
   38.760    2.1485
   38.790    2.3170
   38.820    2.2012
   38.850    2.1380
   38.880    2.2959
   38.910    1.9800
   38.940    2.1274
   38.970    2.3170
   39.000    2.2854
   39.030    2.2222
   39.060    2.2222
   39.090    2.2012
   39.120    2.0853
   39.150    2.2012
   39.180    2.2643
   39.210    2.2328
   39.240    2.2538
   39.270    2.1380
   39.300    2.2222
   39.330    2.1169
   39.360    2.2433
   39.390    2.3381
   39.420    2.0853
   39.450    2.0748
   39.480    2.0432
   39.510    2.4645
   39.540    2.0432
   39.570    2.2643
   39.600    2.1696
   39.630    2.2959
   39.660    2.2222
   39.690    2.3802
   39.720    2.2433
   39.750    2.4645
   39.780    2.1801
   39.810    2.1906
   39.840    2.1590
   39.870    2.2012
   39.900    2.2222
   39.930    2.2538
   39.960    2.2433
   39.990    2.3275