File: data/MOCOF-1/PXRD/PXRD_KE-110_Cu-Ka1_capillary-1mm_5s-deg.xyd
    1.500   11.8694
    1.530   11.6166
    1.560   11.6166
    1.590   11.6798
    1.620   11.0795
    1.650   10.8373
    1.680   10.0579
    1.710   10.2791
    1.740   10.4792
    1.770   10.2159
    1.800    9.6367
    1.830    9.0363
    1.860    9.3944
    1.890    8.8573
    1.920    8.8152
    1.950    8.3307
    1.980    8.1201
    2.010    8.0147
    2.040    8.1833
    2.070    8.1727
    2.100    7.9094
    2.130    7.4250
    2.160    7.4460
    2.190    7.0669
    2.220    7.1195
    2.250    7.0669
    2.280    7.3091
    2.310    7.2249
    2.340    6.8773
    2.370    6.9089
    2.400    7.3934
    2.430    6.7615
    2.460    7.0774
    2.490    6.8352
    2.520    6.9721
    2.550    6.8562
    2.580    6.4666
    2.610    6.6351
    2.640    6.6245
    2.670    6.4982
    2.700    6.6456
    2.730    6.7720
    2.760    6.8352
    2.790    6.5824
    2.820    6.4771
    2.850    6.3612
    2.880    5.8031
    2.910    6.0874
    2.940    6.2770
    2.970    6.0348
    3.000    6.4139
    3.030    5.8978
    3.060    6.6140
    3.090    6.0137
    3.120    6.2770
    3.150    6.2770
    3.180    6.5087
    3.210    6.0874
    3.240    5.6872
    3.270    6.4876
    3.300    6.0137
    3.330    6.3718
    3.360    6.2138
    3.390    6.3612
    3.420    5.8662
    3.450    5.9294
    3.480    5.7609
    3.510    5.8452
    3.540    5.9189
    3.570    6.0348
    3.600    5.7609
    3.630    5.8662
    3.660    6.3928
    3.690    5.7820
    3.720    5.9294
    3.750    5.8031
    3.780    5.7820
    3.810    6.0453
    3.840    5.6556
    3.870    5.9926
    3.900    5.8873
    3.930    5.8136
    3.960    5.8662
    3.990    6.2349
    4.020    5.5187
    4.050    6.0453
    4.080    5.7399
    4.110    5.4976
    4.140    5.6345
    4.170    5.9189
    4.200    5.5187
    4.230    5.4871
    4.260    5.9926
    4.290    5.5503
    4.320    5.4450
    4.350    5.5187
    4.380    5.4976
    4.410    5.5503
    4.440    5.4976
    4.470    5.6451
    4.500    5.4766
    4.530    5.6451
    4.560    5.5398
    4.590    5.6029
    4.620    5.7188
    4.650    5.7083
    4.680    5.3923
    4.710    5.6872
    4.740    5.6451
    4.770    5.6872
    4.800    5.3923
    4.830    5.5608
    4.860    5.6977
    4.890    5.7504
    4.920    5.4976
    4.950    5.4555
    4.980    5.1290
    5.010    5.3291
    5.040    5.3502
    5.070    5.3081
    5.100    5.5187
    5.130    5.4028
    5.160    5.4134
    5.190    5.5398
    5.220    5.4766
    5.250    5.4976
    5.280    5.1711
    5.310    5.4871
    5.340    5.2554
    5.370    5.7820
    5.400    5.5608
    5.430    5.4239
    5.460    5.4766
    5.490    5.6767
    5.520    5.3502
    5.550    5.2133
    5.580    5.4028
    5.610    5.2975
    5.640    5.6872
    5.670    5.1711
    5.700    5.3081
    5.730    5.2765
    5.760    5.1501
    5.790    5.1395
    5.820    5.3712
    5.850    5.3081
    5.880    5.4660
    5.910    5.3186
    5.940    5.4239
    5.970    5.3923
    6.000    5.3186
    6.030    5.8136
    6.060    5.4344
    6.090    5.0132
    6.120    5.1922
    6.150    5.4239
    6.180    5.8136
    6.210    5.5187
    6.240    5.3607
    6.270    5.5608
    6.300    5.2133
    6.330    5.4344
    6.360    5.5398
    6.390    5.5292
    6.420    5.4976
    6.450    5.1817
    6.480    5.3607
    6.510    5.4028
    6.540    5.7083
    6.570    5.3712
    6.600    5.3923
    6.630    5.2449
    6.660    5.4871
    6.690    5.6767
    6.720    5.4028
    6.750    5.7188
    6.780    5.6451
    6.810    5.4239
    6.840    5.4028
    6.870    5.6135
    6.900    5.4028
    6.930    5.3397
    6.960    5.7083
    6.990    5.4028
    7.020    5.6556
    7.050    5.7504
    7.080    5.5082
    7.110    5.4976
    7.140    5.5924
    7.170    5.5819
    7.200    5.2554
    7.230    5.4766
    7.260    5.1922
    7.290    5.4766
    7.320    5.4239
    7.350    5.8662
    7.380    5.6556
    7.410    5.5187
    7.440    5.6977
    7.470    5.6556
    7.500    5.7925
    7.530    5.6345
    7.560    5.8241
    7.590    5.4450
    7.620    5.8347
    7.650    5.6451
    7.680    5.7925
    7.710    5.5187
    7.740    5.8662
    7.770    5.7083
    7.800    6.0664
    7.830    6.0137
    7.860    5.5187
    7.890    5.8136
    7.920    5.6029
    7.950    5.4871
    7.980    5.8347
    8.010    5.6872
    8.040    5.3923
    8.070    5.6240
    8.100    5.2870
    8.130    5.6661
    8.160    5.8978
    8.190    5.7715
    8.220    5.7925
    8.250    5.9821
    8.280    6.2033
    8.310    5.7715
    8.340    5.3081
    8.370    5.6135
    8.400    5.5082
    8.430    5.5924
    8.460    5.9505
    8.490    6.0769
    8.520    5.8978
    8.550    5.6345
    8.580    5.9716
    8.610    6.1717
    8.640    5.2975
    8.670    6.2875
    8.700    5.9294
    8.730    6.0348
    8.760    5.9926
    8.790    6.4350
    8.820    6.1611
    8.850    6.1190
    8.880    5.7820
    8.910    6.1822
    8.940    5.9189
    8.970    6.0979
    9.000    6.0769
    9.030    5.5608
    9.060    6.2243
    9.090    5.6661
    9.120    5.8347
    9.150    5.8662
    9.180    6.1717
    9.210    6.1822
    9.240    6.4350
    9.270    5.9821
    9.300    6.3612
    9.330    6.2665
    9.360    5.9821
    9.390    6.5719
    9.420    5.9926
    9.450    5.9084
    9.480    6.0769
    9.510    6.4139
    9.540    6.3823
    9.570    6.3086
    9.600    6.1295
    9.630    6.2243
    9.660    6.1717
    9.690    6.1822
    9.720    6.2349
    9.750    6.2138
    9.780    6.1717
    9.810    6.1506
    9.840    6.3718
    9.870    6.0453
    9.900    6.3928
    9.930    6.3507
    9.960    6.2033
    9.990    6.4876
   10.020    6.1190
   10.050    5.9610
   10.080    6.4139
   10.110    6.4560
   10.140    6.1190
   10.170    6.4876
   10.200    6.1190
   10.230    6.1927
   10.260    6.4244
   10.290    6.5508
   10.320    6.4034
   10.350    6.2559
   10.380    6.4139
   10.410    6.1822
   10.440    6.2981
   10.470    6.2349
   10.500    6.0453
   10.530    6.2559
   10.560    6.1927
   10.590    6.7509
   10.620    6.1822
   10.650    6.4876
   10.680    6.4244
   10.710    6.4350
   10.740    5.7293
   10.770    6.2243
   10.800    6.5613
   10.830    6.1717
   10.860    6.2243
   10.890    5.8768
   10.920    6.1190
   10.950    6.2454
   10.980    5.7925
   11.010    6.2243
   11.040    6.4350
   11.070    5.8768
   11.100    6.0453
   11.130    6.0348
   11.160    6.1611
   11.190    5.6556
   11.220    6.0453
   11.250    5.7609
   11.280    6.0979
   11.310    6.0979
   11.340    6.0348
   11.370    5.9084
   11.400    6.2665
   11.430    6.0769
   11.460    5.6661
   11.490    6.2138
   11.520    5.9610
   11.550    5.6556
   11.580    5.9084
   11.610    5.8768
   11.640    5.8452
   11.670    6.2033
   11.700    5.9821
   11.730    5.3607
   11.760    5.5608
   11.790    5.8031
   11.820    5.8978
   11.850    5.9716
   11.880    5.6135
   11.910    5.8031
   11.940    5.4766
   11.970    5.8452
   12.000    5.8136
   12.030    5.5608
   12.060    5.4555
   12.090    5.6240
   12.120    5.5082
   12.150    5.3818
   12.180    5.6661
   12.210    5.3712
   12.240    5.3502
   12.270    5.3081
   12.300    5.2027
   12.330    5.2975
   12.360    5.7609
   12.390    5.3923
   12.420    5.4976
   12.450    5.4450
   12.480    5.6977
   12.510    5.1817
   12.540    5.3607
   12.570    5.2554
   12.600    5.3291
   12.630    5.6767
   12.660    5.3186
   12.690    5.2238
   12.720    5.1290
   12.750    5.2133
   12.780    5.4660
   12.810    5.3397
   12.840    5.4344
   12.870    5.2975
   12.900    5.2238
   12.930    5.3712
   12.960    5.5187
   12.990    5.2765
   13.020    5.2449
   13.050    5.1290
   13.080    5.2659
   13.110    5.2238
   13.140    5.2870
   13.170    5.3397
   13.200    5.2659
   13.230    5.4766
   13.260    5.3607
   13.290    5.1185
   13.320    5.3291
   13.350    5.2027
   13.380    5.2449
   13.410    5.1711
   13.440    5.0974
   13.470    4.9289
   13.500    5.2659
   13.530    5.0448
   13.560    5.2449
   13.590    5.1185
   13.620    5.3291
   13.650    4.8657
   13.680    4.9605
   13.710    5.1817
   13.740    4.9816
   13.770    5.0448
   13.800    5.3186
   13.830    5.2343
   13.860    5.4555
   13.890    5.2975
   13.920    4.9289
   13.950    5.3712
   13.980    5.1080
   14.010    5.4239
   14.040    5.3291
   14.070    4.8868
   14.100    5.1395
   14.130    5.3712
   14.160    5.1290
   14.190    5.0448
   14.220    4.8973
   14.250    5.3291
   14.280    5.1922
   14.310    5.3397
   14.340    5.2027
   14.370    5.1290
   14.400    5.2027
   14.430    5.1080
   14.460    5.3502
   14.490    5.1817
   14.520    4.7393
   14.550    5.2449
   14.580    4.9816
   14.610    4.9605
   14.640    5.0869
   14.670    5.1290
   14.700    4.4971
   14.730    5.0237
   14.760    5.3291
   14.790    5.1817
   14.820    5.4134
   14.850    5.3607
   14.880    4.8131
   14.910    5.1395
   14.940    5.3923
   14.970    5.2343
   15.000    5.2133
   15.030    5.0448
   15.060    5.2133
   15.090    5.2870
   15.120    4.8973
   15.150    5.2554
   15.180    5.2343
   15.210    5.1185
   15.240    4.9078
   15.270    5.0869
   15.300    5.2238
   15.330    5.0974
   15.360    5.1290
   15.390    5.3712
   15.420    5.2870
   15.450    5.4871
   15.480    5.2659
   15.510    4.9500
   15.540    5.0132
   15.570    4.9500
   15.600    4.9289
   15.630    4.9816
   15.660    5.2238
   15.690    5.0764
   15.720    5.0237
   15.750    4.9710
   15.780    5.0974
   15.810    5.2343
   15.840    5.2659
   15.870    5.5187
   15.900    5.1501
   15.930    5.2027
   15.960    5.2659
   15.990    5.3712
   16.020    5.1185
   16.050    5.0658
   16.080    5.0974
   16.110    5.2133
   16.140    4.9500
   16.170    5.0237
   16.200    5.1711
   16.230    5.1185
   16.260    5.1922
   16.290    4.8131
   16.320    5.0869
   16.350    5.2765
   16.380    4.9605
   16.410    5.3712
   16.440    5.2554
   16.470    5.3186
   16.500    4.9394
   16.530    4.9816
   16.560    4.9605
   16.590    4.9710
   16.620    5.0974
   16.650    5.2554
   16.680    5.4239
   16.710    5.1290
   16.740    5.0132
   16.770    5.4660
   16.800    5.0869
   16.830    5.0974
   16.860    5.1185
   16.890    5.2554
   16.920    5.3291
   16.950    5.1606
   16.980    5.3397
   17.010    5.2343
   17.040    5.2027
   17.070    5.3607
   17.100    4.9184
   17.130    5.3081
   17.160    4.9078
   17.190    5.2870
   17.220    5.2765
   17.250    5.0132
   17.280    5.6977
   17.310    5.3081
   17.340    5.2027
   17.370    5.2975
   17.400    4.8447
   17.430    5.0764
   17.460    5.3186
   17.490    5.3291
   17.520    5.0237
   17.550    5.0658
   17.580    5.3607
   17.610    5.1817
   17.640    5.1185
   17.670    5.5082
   17.700    5.2133
   17.730    5.4871
   17.760    5.4871
   17.790    5.0764
   17.820    5.0658
   17.850    5.0448
   17.880    4.9500
   17.910    5.4239
   17.940    5.3081
   17.970    5.5398
   18.000    5.1606
   18.030    5.0448
   18.060    5.1606
   18.090    5.1606
   18.120    5.0658
   18.150    5.0553
   18.180    5.6345
   18.210    5.3923
   18.240    4.9710
   18.270    5.0658
   18.300    5.1606
   18.330    5.2975
   18.360    5.4450
   18.390    5.2133
   18.420    5.2343
   18.450    5.2975
   18.480    4.9605
   18.510    5.1606
   18.540    5.1501
   18.570    5.2343
   18.600    5.2027
   18.630    5.1711
   18.660    5.4766
   18.690    4.9500
   18.720    5.3291
   18.750    5.0764
   18.780    5.0132
   18.810    5.0132
   18.840    5.3607
   18.870    5.0974
   18.900    5.3186
   18.930    5.0448
   18.960    5.1290
   18.990    5.5819
   19.020    5.1817
   19.050    5.4660
   19.080    5.2027
   19.110    5.2765
   19.140    5.1922
   19.170    5.1290
   19.200    4.9500
   19.230    5.1922
   19.260    4.8025
   19.290    5.4028
   19.320    5.4134
   19.350    5.6661
   19.380    5.3712
   19.410    5.3186
   19.440    5.7609
   19.470    5.4028
   19.500    5.3081
   19.530    5.3291
   19.560    5.1501
   19.590    5.1711
   19.620    5.9294
   19.650    5.2659
   19.680    5.0869
   19.710    5.0448
   19.740    5.4555
   19.770    5.3923
   19.800    5.0553
   19.830    5.6135
   19.860    5.6977
   19.890    5.3712
   19.920    5.3186
   19.950    5.3081
   19.980    5.5398
   20.010    5.2870
   20.040    5.0342
   20.070    5.4134
   20.100    5.3923
   20.130    5.1711
   20.160    5.5082
   20.190    5.3291
   20.220    5.3712
   20.250    5.3502
   20.280    5.5187
   20.310    5.5819
   20.340    5.2765
   20.370    5.3818
   20.400    5.4028
   20.430    5.5398
   20.460    5.5819
   20.490    5.1711
   20.520    5.5082
   20.550    5.5187
   20.580    5.4028
   20.610    5.4871
   20.640    5.3712
   20.670    5.4555
   20.700    5.5819
   20.730    5.8136
   20.760    5.3923
   20.790    5.5398
   20.820    5.4976
   20.850    5.2870
   20.880    5.6661
   20.910    5.2975
   20.940    5.6661
   20.970    5.4555
   21.000    5.3607
   21.030    5.5608
   21.060    5.2133
   21.090    6.0242
   21.120    5.7609
   21.150    5.3923
   21.180    5.4239
   21.210    5.0869
   21.240    5.3923
   21.270    5.5082
   21.300    5.5398
   21.330    5.5082
   21.360    5.7293
   21.390    5.4344
   21.420    5.4976
   21.450    5.4766
   21.480    5.7715
   21.510    5.6345
   21.540    5.1501
   21.570    5.5187
   21.600    5.5714
   21.630    5.6556
   21.660    5.3502
   21.690    5.5608
   21.720    5.5714
   21.750    5.4028
   21.780    5.6767
   21.810    5.5819
   21.840    5.5503
   21.870    5.6135
   21.900    5.8768
   21.930    5.5187
   21.960    5.5924
   21.990    5.7504
   22.020    5.6977
   22.050    5.2870
   22.080    5.5819
   22.110    6.0348
   22.140    5.4976
   22.170    5.1290
   22.200    5.4450
   22.230    5.7399
   22.260    5.5503
   22.290    5.8873
   22.320    6.0242
   22.350    5.3818
   22.380    5.4344
   22.410    5.4660
   22.440    5.7399
   22.470    5.4134
   22.500    5.5292
   22.530    5.6977
   22.560    5.7504
   22.590    5.4239
   22.620    5.4660
   22.650    5.6556
   22.680    5.7293
   22.710    5.4660
   22.740    5.6029
   22.770    5.9189
   22.800    5.6345
   22.830    5.6135
   22.860    5.9610
   22.890    5.5924
   22.920    5.9505
   22.950    5.6451
   22.980    5.6135
   23.010    5.4976
   23.040    5.6029
   23.070    5.2659
   23.100    5.7293
   23.130    5.5819
   23.160    5.5608
   23.190    5.6872
   23.220    5.2765
   23.250    5.3607
   23.280    5.5292
   23.310    5.7504
   23.340    5.6661
   23.370    5.5187
   23.400    5.5714
   23.430    5.5503
   23.460    5.3818
   23.490    5.6451
   23.520    5.4028
   23.550    5.5714
   23.580    5.6135
   23.610    5.5924
   23.640    5.2133
   23.670    5.7083
   23.700    5.4871
   23.730    5.1290
   23.760    5.2343
   23.790    5.5292
   23.820    5.6872
   23.850    5.5503
   23.880    5.2133
   23.910    5.4028
   23.940    5.6556
   23.970    5.3923
   24.000    5.5924
   24.030    5.1711
   24.060    5.3818
   24.090    5.6135
   24.120    5.3502
   24.150    5.6135
   24.180    5.5714
   24.210    5.5819
   24.240    5.3818
   24.270    5.4766
   24.300    5.2027
   24.330    5.6029
   24.360    5.7609
   24.390    5.3291
   24.420    5.4344
   24.450    5.3818
   24.480    5.3502
   24.510    5.6135
   24.540    5.1080
   24.570    5.5398
   24.600    5.2765
   24.630    5.5082
   24.660    5.2554
   24.690    5.2133
   24.720    5.4239
   24.750    5.3607
   24.780    5.7083
   24.810    5.2343
   24.840    4.9289
   24.870    5.4660
   24.900    5.3712
   24.930    5.2870
   24.960    5.2133
   24.990    5.3818
   25.020    5.5924
   25.050    5.6345
   25.080    5.3923
   25.110    5.4134
   25.140    5.4976
   25.170    5.4871
   25.200    5.0764
   25.230    4.7604
   25.260    5.2554
   25.290    5.1711
   25.320    5.3818
   25.350    6.1927
   25.380    5.4134
   25.410    5.1606
   25.440    5.2975
   25.470    5.4766
   25.500    5.4239
   25.530    5.4976
   25.560    5.2870
   25.590    5.0132
   25.620    5.3818
   25.650    5.6135
   25.680    5.0658
   25.710    5.2870
   25.740    5.2449
   25.770    5.0764
   25.800    5.5608
   25.830    5.2554
   25.860    5.1395
   25.890    5.4028
   25.920    5.4871
   25.950    5.1290
   25.980    5.1606
   26.010    5.1290
   26.040    4.9289
   26.070    5.2238
   26.100    5.0026
   26.130    5.2238
   26.160    5.1711
   26.190    5.2975
   26.220    4.8763
   26.250    4.8025
   26.280    5.4344
   26.310    5.3397
   26.340    5.3712
   26.370    5.0658
   26.400    5.4450
   26.430    5.3818
   26.460    5.5608
   26.490    5.3712
   26.520    5.2343
   26.550    5.1922
   26.580    4.9710
   26.610    4.9078
   26.640    5.1606
   26.670    5.1290
   26.700    5.0237
   26.730    4.9500
   26.760    5.0553
   26.790    5.1501
   26.820    5.1501
   26.850    5.0237
   26.880    4.7499
   26.910    4.8657
   26.940    5.3186
   26.970    5.1922
   27.000    5.1080
   27.030    4.7815
   27.060    5.1606
   27.090    5.2765
   27.120    5.0448
   27.150    5.3397
   27.180    5.2659
   27.210    5.2554
   27.240    5.0974
   27.270    5.2133
   27.300    5.0974
   27.330    5.3818
   27.360    4.9816
   27.390    4.8447
   27.420    5.1501
   27.450    4.9710
   27.480    4.9289
   27.510    4.9500
   27.540    4.8131
   27.570    5.2554
   27.600    5.1711
   27.630    5.0974
   27.660    4.8552
   27.690    5.0237
   27.720    4.8657
   27.750    4.9500
   27.780    5.0237
   27.810    4.8657
   27.840    4.9500
   27.870    5.0132
   27.900    5.1395
   27.930    5.0764
   27.960    4.5498
   27.990    4.6972
   28.020    4.7183
   28.050    4.8025
   28.080    4.9184
   28.110    4.8763
   28.140    4.8657
   28.170    5.1395
   28.200    4.8763
   28.230    4.5498
   28.260    4.8973
   28.290    4.8447
   28.320    4.8552
   28.350    5.0658
   28.380    5.0764
   28.410    4.8657
   28.440    4.9500
   28.470    5.0869
   28.500    4.6867
   28.530    5.1290
   28.560    4.6340
   28.590    4.9710
   28.620    5.3818
   28.650    4.9605
   28.680    4.8447
   28.710    4.8657
   28.740    4.4866
   28.770    4.6340
   28.800    4.5392
   28.830    4.8025
   28.860    4.5076
   28.890    4.8868
   28.920    4.2970
   28.950    4.5182
   28.980    4.7604
   29.010    4.5603
   29.040    5.1501
   29.070    4.6235
   29.100    4.8236
   29.130    5.0342
   29.160    4.7815
   29.190    4.7077
   29.220    4.3918
   29.250    4.6656
   29.280    4.1811
   29.310    4.2970
   29.340    4.7393
   29.370    4.7077
   29.400    4.5287
   29.430    4.8341
   29.460    4.9921
   29.490    4.4234
   29.520    5.1185
   29.550    4.6024
   29.580    4.6551
   29.610    4.5919
   29.640    4.7499
   29.670    4.5814
   29.700    4.5603
   29.730    4.7920
   29.760    4.6867
   29.790    4.4866
   29.820    4.8025
   29.850    4.7604
   29.880    4.5919
   29.910    4.5919
   29.940    4.4128
   29.970    4.7393
   30.000    4.6445
   30.030    4.3497
   30.060    4.3391
   30.090    4.6867
   30.120    4.6235
   30.150    4.4971
   30.180    4.5287
   30.210    4.3181
   30.240    4.7499
   30.270    4.3181
   30.300    4.6867
   30.330    4.3813
   30.360    4.6867
   30.390    4.3813
   30.420    4.5287
   30.450    4.0969
   30.480    4.7499
   30.510    4.4550
   30.540    4.2759
   30.570    4.5076
   30.600    4.5392
   30.630    4.4339
   30.660    4.2443
   30.690    4.7920
   30.720    4.6445
   30.750    4.4550
   30.780    4.5498
   30.810    4.5814
   30.840    4.4339
   30.870    4.6445
   30.900    4.0864
   30.930    4.3813
   30.960    4.2338
   30.990    4.5814
   31.020    4.5498
   31.050    4.4339
   31.080    4.2970
   31.110    4.6024
   31.140    4.1706
   31.170    4.5287
   31.200    4.4339
   31.230    4.5814
   31.260    4.2022
   31.290    4.3813
   31.320    4.4971
   31.350    4.4128
   31.380    4.4128
   31.410    4.4023
   31.440    4.2022
   31.470    4.4023
   31.500    4.1917
   31.530    4.7077
   31.560    4.4128
   31.590    4.2549
   31.620    4.1285
   31.650    4.3391
   31.680    4.1496
   31.710    4.5076
   31.740    4.2759
   31.770    4.0864
   31.800    4.2865
   31.830    4.0232
   31.860    4.3181
   31.890    4.4023
   31.920    4.4128
   31.950    4.0969
   31.980    4.0969
   32.010    4.3813
   32.040    4.2654
   32.070    4.0126
   32.100    4.3918
   32.130    4.2233
   32.160    4.5498
   32.190    4.2970
   32.220    4.2338
   32.250    4.4760
   32.280    4.3391
   32.310    4.0021
   32.340    4.2233
   32.370    4.3602
   32.400    4.2654
   32.430    4.0758
   32.460    3.9073
   32.490    4.1390
   32.520    4.5708
   32.550    4.2443
   32.580    4.1390
   32.610    4.4339
   32.640    4.1811
   32.670    4.2443
   32.700    4.1706
   32.730    4.2865
   32.760    4.2127
   32.790    3.9389
   32.820    4.3602
   32.850    4.1601
   32.880    4.2127
   32.910    4.0021
   32.940    3.8547
   32.970    4.2654
   33.000    4.2022
   33.030    4.0021
   33.060    4.0126
   33.090    3.8020
   33.120    3.9073
   33.150    3.8757
   33.180    4.0864
   33.210    4.0864
   33.240    3.9810
   33.270    3.9494
   33.300    3.7599
   33.330    4.1285
   33.360    3.8441
   33.390    4.1811
   33.420    4.0653
   33.450    3.8757
   33.480    3.9179
   33.510    3.9494
   33.540    3.9179
   33.570    4.2127
   33.600    4.2865
   33.630    3.8652
   33.660    3.9916
   33.690    4.1601
   33.720    3.8652
   33.750    3.7809
   33.780    4.3181
   33.810    4.0864
   33.840    3.8863
   33.870    3.8968
   33.900    4.1811
   33.930    3.7388
   33.960    3.6440
   33.990    4.0548
   34.020    4.2759
   34.050    4.2970
   34.080    4.1601
   34.110    3.8441
   34.140    3.9494
   34.170    4.1706
   34.200    3.6967
   34.230    3.7809
   34.260    3.8231
   34.290    3.7283
   34.320    3.8547
   34.350    3.9600
   34.380    4.0864
   34.410    3.9600
   34.440    4.0021
   34.470    3.9494
   34.500    3.7493
   34.530    3.8863
   34.560    3.9073
   34.590    3.9705
   34.620    3.5492
   34.650    3.9600
   34.680    3.8125
   34.710    3.8441
   34.740    3.9810
   34.770    3.8547
   34.800    3.9916
   34.830    3.5282
   34.860    3.9705
   34.890    3.8336
   34.920    4.0969
   34.950    3.7283
   34.980    4.0232
   35.010    3.9600
   35.040    4.0758
   35.070    3.7599
   35.100    4.0021
   35.130    3.7704
   35.160    3.6230
   35.190    3.4650
   35.220    3.8547
   35.250    3.8336
   35.280    3.9073
   35.310    3.5703
   35.340    4.1285
   35.370    3.7704
   35.400    3.5914
   35.430    3.8125
   35.460    3.8652
   35.490    3.7704
   35.520    3.9073
   35.550    3.8757
   35.580    3.6967
   35.610    3.8652
   35.640    3.8863
   35.670    3.3175
   35.700    3.5282
   35.730    3.6651
   35.760    3.7283
   35.790    3.7809
   35.820    3.7283
   35.850    3.8757
   35.880    3.7493
   35.910    3.5914
   35.940    4.0758
   35.970    3.7915
   36.000    3.8336
   36.030    3.4544
   36.060    3.6651
   36.090    3.6230
   36.120    3.8336
   36.150    3.5492
   36.180    3.7177
   36.210    3.6230
   36.240    3.5914
   36.270    3.8231
   36.300    3.5387
   36.330    3.7388
   36.360    3.8863
   36.390    3.9073
   36.420    3.8125
   36.450    3.6440
   36.480    3.7704
   36.510    3.2649
   36.540    3.7072
   36.570    3.6230
   36.600    3.6651
   36.630    3.6019
   36.660    3.7704
   36.690    3.4018
   36.720    3.6546
   36.750    3.5598
   36.780    3.5387
   36.810    3.8441
   36.840    3.8231
   36.870    3.4334
   36.900    3.6546
   36.930    3.5808
   36.960    3.9073
   36.990    3.4966
   37.020    3.5282
   37.050    3.6546
   37.080    3.6019
   37.110    3.6756
   37.140    3.6019
   37.170    3.6230
   37.200    3.7809
   37.230    3.7072
   37.260    3.4018
   37.290    4.1180
   37.320    3.5176
   37.350    3.4123
   37.380    3.6862
   37.410    3.6651
   37.440    3.4439
   37.470    3.8757
   37.500    3.6335
   37.530    3.5282
   37.560    3.6019
   37.590    3.7599
   37.620    3.7388
   37.650    3.8231
   37.680    3.3702
   37.710    3.5387
   37.740    3.6651
   37.770    3.5914
   37.800    3.9179
   37.830    3.3597
   37.860    3.7915
   37.890    3.8336
   37.920    3.7388
   37.950    3.5703
   37.980    3.5914
   38.010    3.4650
   38.040    3.6335
   38.070    3.6230
   38.100    3.4650
   38.130    3.7177
   38.160    3.6756
   38.190    3.6546
   38.220    3.3702
   38.250    3.4439
   38.280    3.4229
   38.310    3.4334
   38.340    3.1701
   38.370    3.4650
   38.400    3.4018
   38.430    3.7388
   38.460    3.5808
   38.490    3.4860
   38.520    3.5176
   38.550    3.6756
   38.580    3.6019
   38.610    3.5808
   38.640    3.5808
   38.670    3.3702
   38.700    3.8231
   38.730    3.3491
   38.760    3.6862
   38.790    3.5703
   38.820    3.5598
   38.850    3.4018
   38.880    3.5703
   38.910    3.5492
   38.940    3.5598
   38.970    3.4755
   39.000    3.6440
   39.030    3.7072
   39.060    3.6335
   39.090    3.5176
   39.120    3.2122
   39.150    3.3597
   39.180    3.4755
   39.210    3.3702
   39.240    3.5703
   39.270    3.5598
   39.300    3.5492
   39.330    3.4755
   39.360    3.4018
   39.390    3.4544
   39.420    3.4650
   39.450    3.4860
   39.480    3.4755
   39.510    4.0232
   39.540    3.5282
   39.570    3.4544
   39.600    3.6335
   39.630    3.0016
   39.660    3.4860
   39.690    3.4544
   39.720    3.3281
   39.750    3.2965
   39.780    3.5176
   39.810    3.1806
   39.840    3.4334
   39.870    3.4966
   39.900    3.5282
   39.930    3.3386
   39.960    3.2649
   39.990    3.5703