File: data/MOCOF-1/PXRD/PXRD_KE-053-4_Cu-Ka1_capillary-0.5mm_5s-deg.xyd
    1.500   30.3949
    1.530   30.3844
    1.560   29.1364
    1.590   28.2517
    1.620   27.4302
    1.650   27.0353
    1.680   26.2717
    1.710   25.0448
    1.740   24.5445
    1.770   24.4286
    1.800   23.3597
    1.830   23.2912
    1.860   22.5119
    1.890   21.8589
    1.920   21.1480
    1.950   20.9268
    1.980   20.5108
    2.010   20.1738
    2.040   19.6367
    2.070   19.6209
    2.100   19.3312
    2.130   18.5255
    2.160   18.3781
    2.190   18.4202
    2.220   17.9779
    2.250   17.9989
    2.280   17.7146
    2.310   17.4460
    2.340   17.4566
    2.370   16.9300
    2.400   16.5666
    2.430   16.8720
    2.460   16.6877
    2.490   16.4560
    2.520   16.5508
    2.550   16.2928
    2.580   16.6561
    2.610   16.0874
    2.640   16.1032
    2.670   15.9979
    2.700   16.3665
    2.730   16.0400
    2.760   15.9136
    2.790   16.5666
    2.820   17.2565
    2.850   16.8878
    2.880   17.0458
    2.910   17.2301
    2.940   17.2670
    2.970   17.3670
    3.000   17.8199
    3.030   17.9989
    3.060   18.4834
    3.090   18.9731
    3.120   19.6735
    3.150   20.2054
    3.180   20.3528
    3.210   20.7899
    3.240   22.2591
    3.270   22.9121
    3.300   23.7125
    3.330   24.3813
    3.360   26.2507
    3.390   26.4244
    3.420   28.3886
    3.450   29.8210
    3.480   32.2644
    3.510   33.6440
    3.540   34.4813
    3.570   36.7667
    3.600   39.4945
    3.630   41.1322
    3.660   45.1343
    3.690   48.5255
    3.720   54.1759
    3.750   60.0632
    3.780   67.0300
    3.810   78.1148
    3.840   93.9073
    3.870  118.9574
    3.900  159.8210
    3.930  152.7436
    3.960   78.4571
    3.990   24.2285
    4.020   14.7235
    4.050   12.7067
    4.080   10.9847
    4.110   10.5687
    4.140    9.7894
    4.170    9.4839
    4.200    9.3944
    4.230    8.9995
    4.260    8.9784
    4.290    8.7836
    4.320    8.6730
    4.350    8.6730
    4.380    8.4939
    4.410    8.7836
    4.440    8.5097
    4.470    8.1727
    4.500    8.6203
    4.530    8.3834
    4.560    8.3623
    4.590    8.4255
    4.620    8.1780
    4.650    8.3781
    4.680    8.1991
    4.710    8.5361
    4.740    8.3518
    4.770    8.6203
    4.800    8.9047
    4.830    8.6677
    4.860    8.5308
    4.890    8.9415
    4.920    8.8573
    4.950    8.9415
    4.980    9.4313
    5.010    9.8894
    5.040    9.6051
    5.070    9.9473
    5.100   10.1001
    5.130   10.4318
    5.160   10.9005
    5.190   11.1058
    5.220   11.8009
    5.250   12.5066
    5.280   13.1859
    5.310   14.1443
    5.340   15.2712
    5.370   16.5613
    5.400   18.4044
    5.430   20.6266
    5.460   23.7599
    5.490   28.8889
    5.520   38.5782
    5.550   39.1838
    5.580   24.0548
    5.610   11.1638
    5.640    8.0621
    5.670    7.4039
    5.700    7.6303
    5.730    7.3249
    5.760    7.3723
    5.790    7.3144
    5.820    6.9405
    5.850    6.6877
    5.880    6.6719
    5.910    6.8931
    5.940    7.0827
    5.970    6.7351
    6.000    6.8404
    6.030    6.7088
    6.060    6.6667
    6.090    7.0563
    6.120    6.8720
    6.150    6.7509
    6.180    7.0985
    6.210    6.9616
    6.240    6.8562
    6.270    7.0248
    6.300    6.9616
    6.330    6.8984
    6.360    7.3407
    6.390    7.2565
    6.420    7.4250
    6.450    7.6725
    6.480    7.8462
    6.510    7.9252
    6.540    7.7988
    6.570    8.4360
    6.600    8.8942
    6.630    9.3523
    6.660    9.3576
    6.690   10.3897
    6.720   11.8115
    6.750   13.8863
    6.780   16.2559
    6.810   14.8236
    6.840    9.5208
    6.870    7.2249
    6.900    6.9721
    6.930    6.9247
    6.960    6.6772
    6.990    6.8404
    7.020    6.8457
    7.050    6.6614
    7.080    6.7351
    7.110    6.7983
    7.140    6.3086
    7.170    6.7088
    7.200    6.2770
    7.230    6.5561
    7.260    6.5613
    7.290    6.6983
    7.320    6.2717
    7.350    6.9142
    7.380    7.0037
    7.410    7.0037
    7.440    6.6509
    7.470    6.8562
    7.500    6.9300
    7.530    6.9721
    7.560    7.1827
    7.590    7.3618
    7.620    7.6461
    7.650    7.9200
    7.680    8.2254
    7.710    8.6203
    7.740    9.1153
    7.770   10.1580
    7.800   11.8167
    7.830   13.7335
    7.860   12.5066
    7.890    8.8784
    7.920    7.0563
    7.950    6.7246
    7.980    6.6877
    8.010    6.4613
    8.040    6.6983
    8.070    6.4560
    8.100    6.4824
    8.130    6.4771
    8.160    6.3823
    8.190    6.4402
    8.220    6.3086
    8.250    6.5034
    8.280    6.5666
    8.310    6.4139
    8.340    6.2875
    8.370    6.4560
    8.400    6.6561
    8.430    6.4350
    8.460    6.5245
    8.490    6.2665
    8.520    6.5561
    8.550    6.6193
    8.580    6.6877
    8.610    6.5719
    8.640    6.7878
    8.670    6.8773
    8.700    6.4086
    8.730    7.0827
    8.760    7.1933
    8.790    6.8720
    8.820    6.5192
    8.850    6.3665
    8.880    6.4666
    8.910    6.4718
    8.940    6.5403
    8.970    6.2243
    9.000    6.4034
    9.030    6.4824
    9.060    6.6035
    9.090    6.2875
    9.120    6.5140
    9.150    6.5034
    9.180    6.7773
    9.210    6.9247
    9.240    7.0248
    9.270    7.1775
    9.300    7.5566
    9.330    7.5145
    9.360    8.3676
    9.390    8.8099
    9.420    9.1943
    9.450   10.0421
    9.480   10.5635
    9.510   12.1485
    9.540   14.3655
    9.570   18.6467
    9.600   21.7062
    9.630   18.1359
    9.660   10.8847
    9.690    7.3354
    9.720    6.8404
    9.750    6.6035
    9.780    6.0558
    9.810    6.5403
    9.840    6.4034
    9.870    6.5034
    9.900    6.5350
    9.930    6.4508
    9.960    6.3454
    9.990    6.3086
   10.020    6.6298
   10.050    6.5824
   10.080    6.6719
   10.110    6.6298
   10.140    6.9984
   10.170    7.0405
   10.200    7.3144
   10.230    7.5408
   10.260    7.7988
   10.290    8.4360
   10.320    9.2259
   10.350   11.1690
   10.380   11.4587
   10.410    9.7946
   10.440    7.3091
   10.470    6.5666
   10.500    6.3349
   10.530    6.2559
   10.560    6.2928
   10.590    6.3560
   10.620    6.4139
   10.650    6.2138
   10.680    6.2665
   10.710    6.2085
   10.740    6.2033
   10.770    6.3507
   10.800    6.3876
   10.830    6.4508
   10.860    6.6456
   10.890    6.5771
   10.920    7.0511
   10.950    7.3144
   10.980    7.4671
   11.010    8.0253
   11.040    8.9205
   11.070   10.3054
   11.100   10.8162
   11.130    9.1101
   11.160    7.2091
   11.190    6.4876
   11.220    6.0664
   11.250    6.2138
   11.280    6.3981
   11.310    6.0769
   11.340    6.3033
   11.370    6.2717
   11.400    6.1980
   11.430    6.5350
   11.460    6.3296
   11.490    6.3454
   11.520    5.9874
   11.550    6.3507
   11.580    7.0037
   11.610    7.0248
   11.640    7.1880
   11.670    7.8199
   11.700    8.7994
   11.730    9.8420
   11.760   11.5692
   11.790   10.7899
   11.820    7.8936
   11.850    6.2665
   11.880    6.0032
   11.910    5.8978
   11.940    5.6398
   11.970    5.9768
   12.000    5.8768
   12.030    5.7504
   12.060    5.6661
   12.090    5.6977
   12.120    6.3454
   12.150    5.8347
   12.180    5.8294
   12.210    5.9400
   12.240    6.1559
   12.270    6.1664
   12.300    5.6925
   12.330    6.1822
   12.360    6.0664
   12.390    6.2612
   12.420    6.3402
   12.450    5.9242
   12.480    6.0979
   12.510    5.7820
   12.540    5.7820
   12.570    5.5714
   12.600    5.7030
   12.630    5.7873
   12.660    5.6187
   12.690    5.8189
   12.720    5.5240
   12.750    6.0137
   12.780    5.9610
   12.810    5.8189
   12.840    6.2928
   12.870    6.4034
   12.900    6.6509
   12.930    7.0669
   12.960    7.5777
   12.990    8.7783
   13.020    9.1575
   13.050    8.0885
   13.080    6.5192
   13.110    5.7767
   13.140    5.8662
   13.170    5.5082
   13.200    5.8873
   13.230    5.5187
   13.260    5.7293
   13.290    5.7399
   13.320    5.7504
   13.350    5.6925
   13.380    6.0190
   13.410    5.9400
   13.440    5.8504
   13.470    5.8452
   13.500    6.1243
   13.530    6.5034
   13.560    6.8299
   13.590    7.1985
   13.620    6.7773
   13.650    5.9926
   13.680    5.6135
   13.710    5.5714
   13.740    5.7609
   13.770    5.6240
   13.800    5.9136
   13.830    5.6029
   13.860    5.7030
   13.890    5.3291
   13.920    5.9347
   13.950    6.0084
   13.980    5.8715
   14.010    6.1243
   14.040    6.2928
   14.070    6.6245
   14.100    7.0616
   14.130    8.1253
   14.160    8.2096
   14.190    7.2880
   14.220    6.0348
   14.250    5.7399
   14.280    5.5029
   14.310    5.6029
   14.340    5.5766
   14.370    5.5029
   14.400    5.6135
   14.430    5.4292
   14.460    5.3397
   14.490    5.5608
   14.520    5.3291
   14.550    5.4818
   14.580    5.4766
   14.610    5.4397
   14.640    5.3765
   14.670    5.2027
   14.700    5.5819
   14.730    5.5977
   14.760    5.4713
   14.790    5.5872
   14.820    5.4397
   14.850    5.3133
   14.880    5.4660
   14.910    5.1922
   14.940    5.1132
   14.970    5.4239
   15.000    5.6240
   15.030    5.5240
   15.060    5.4292
   15.090    5.8241
   15.120    5.4924
   15.150    5.6767
   15.180    5.7873
   15.210    6.1980
   15.240    5.8768
   15.270    5.6503
   15.300    5.5082
   15.330    5.4397
   15.360    5.6503
   15.390    5.2659
   15.420    5.2817
   15.450    5.0342
   15.480    5.2554
   15.510    5.5187
   15.540    5.4292
   15.570    5.4502
   15.600    5.2975
   15.630    5.4186
   15.660    5.1975
   15.690    5.3870
   15.720    5.6556
   15.750    5.4186
   15.780    5.4924
   15.810    5.2133
   15.840    5.5872
   15.870    5.3502
   15.900    5.6135
   15.930    5.6451
   15.960    5.6029
   15.990    5.6661
   16.020    5.5924
   16.050    5.4450
   16.080    5.5714
   16.110    5.9505
   16.140    5.7609
   16.170    5.9716
   16.200    6.2296
   16.230    5.8768
   16.260    5.6187
   16.290    5.5608
   16.320    5.2554
   16.350    5.4186
   16.380    5.3923
   16.410    5.2975
   16.440    5.5661
   16.470    5.3818
   16.500    5.2712
   16.530    5.5029
   16.560    5.5134
   16.590    5.5082
   16.620    5.8083
   16.650    6.0242
   16.680    6.1453
   16.710    5.7662
   16.740    5.5240
   16.770    5.6029
   16.800    5.3555
   16.830    5.6556
   16.860    5.5345
   16.890    5.5977
   16.920    5.6187
   16.950    5.7346
   16.980    5.8189
   17.010    5.6714
   17.040    6.2981
   17.070    6.6983
   17.100    7.5303
   17.130    8.2201
   17.160    7.2407
   17.190    6.4876
   17.220    5.8662
   17.250    5.6609
   17.280    5.2291
   17.310    5.4555
   17.340    5.7083
   17.370    5.6187
   17.400    5.4081
   17.430    5.6503
   17.460    5.7083
   17.490    5.5714
   17.520    5.6977
   17.550    5.8662
   17.580    6.0137
   17.610    5.7609
   17.640    5.4397
   17.670    5.2607
   17.700    5.4713
   17.730    5.3028
   17.760    5.2501
   17.790    5.6398
   17.820    5.4976
   17.850    5.4239
   17.880    5.5029
   17.910    5.3765
   17.940    5.6240
   17.970    5.6135
   18.000    5.7241
   18.030    5.9084
   18.060    5.8347
   18.090    5.3976
   18.120    5.5450
   18.150    5.4818
   18.180    5.6398
   18.210    5.6135
   18.240    5.3555
   18.270    5.4028
   18.300    5.5872
   18.330    5.3344
   18.360    5.8820
   18.390    6.0084
   18.420    5.7346
   18.450    5.8399
   18.480    5.8504
   18.510    5.7293
   18.540    5.5134
   18.570    5.5661
   18.600    5.6714
   18.630    5.3081
   18.660    5.5924
   18.690    5.2975
   18.720    5.3186
   18.750    5.5608
   18.780    5.6977
   18.810    5.3028
   18.840    5.7399
   18.870    5.7925
   18.900    5.7609
   18.930    5.4028
   18.960    5.4239
   18.990    5.4397
   19.020    5.4555
   19.050    5.2712
   19.080    5.2712
   19.110    5.2975
   19.140    5.5556
   19.170    5.5029
   19.200    5.5608
   19.230    5.4502
   19.260    5.1922
   19.290    5.3765
   19.320    5.5450
   19.350    5.3133
   19.380    5.2712
   19.410    5.3502
   19.440    5.2923
   19.470    5.4450
   19.500    5.7504
   19.530    5.3186
   19.560    5.6398
   19.590    5.8136
   19.620    5.6714
   19.650    6.1190
   19.680    6.2243
   19.710    6.0664
   19.740    5.6082
   19.770    5.5082
   19.800    5.4502
   19.830    5.4608
   19.860    5.5029
   19.890    5.4186
   19.920    5.4134
   19.950    5.3976
   19.980    5.2501
   20.010    5.5292
   20.040    5.5661
   20.070    5.5766
   20.100    5.3712
   20.130    5.5977
   20.160    5.5556
   20.190    5.5556
   20.220    5.5029
   20.250    5.3397
   20.280    5.6661
   20.310    5.5082
   20.340    6.1243
   20.370    6.0506
   20.400    6.3981
   20.430    6.7667
   20.460    7.1195
   20.490    6.9563
   20.520    5.9821
   20.550    5.9347
   20.580    5.4134
   20.610    5.3555
   20.640    5.3765
   20.670    5.2554
   20.700    5.3976
   20.730    5.6977
   20.760    5.5714
   20.790    5.3397
   20.820    5.5240
   20.850    5.4766
   20.880    5.5924
   20.910    5.5924
   20.940    5.6029
   20.970    5.5450
   21.000    5.4713
   21.030    5.4818
   21.060    5.3660
   21.090    5.4818
   21.120    5.5292
   21.150    5.5398
   21.180    5.5714
   21.210    5.6767
   21.240    5.3923
   21.270    5.3081
   21.300    5.5766
   21.330    5.6556
   21.360    5.6556
   21.390    5.4766
   21.420    5.5714
   21.450    5.1711
   21.480    5.3397
   21.510    5.3976
   21.540    5.4555
   21.570    5.5503
   21.600    5.6293
   21.630    5.2501
   21.660    5.7399
   21.690    5.7030
   21.720    5.3712
   21.750    5.4924
   21.780    5.5398
   21.810    6.0084
   21.840    5.6451
   21.870    5.9242
   21.900    5.9926
   21.930    6.2033
   21.960    6.0190
   21.990    6.0716
   22.020    5.6398
   22.050    5.4713
   22.080    5.5345
   22.110    5.3291
   22.140    5.6293
   22.170    5.6135
   22.200    5.6609
   22.230    5.5661
   22.260    6.0558
   22.290    5.7873
   22.320    5.8031
   22.350    5.5556
   22.380    5.7399
   22.410    5.8926
   22.440    5.5292
   22.470    5.8241
   22.500    5.8452
   22.530    6.0348
   22.560    6.0400
   22.590    6.9194
   22.620    7.3723
   22.650    7.6040
   22.680    7.2196
   22.710    6.3402
   22.740    5.6187
   22.770    6.0769
   22.800    5.7767
   22.830    5.6556
   22.860    6.1295
   22.890    6.2349
   22.920    6.5456
   22.950    7.1564
   22.980    7.7778
   23.010    7.4197
   23.040    6.8299
   23.070    6.0242
   23.100    5.9926
   23.130    5.6977
   23.160    5.6767
   23.190    5.8083
   23.220    5.6661
   23.250    5.7030
   23.280    6.0242
   23.310    6.3402
   23.340    6.3612
   23.370    5.8610
   23.400    6.0558
   23.430    5.5556
   23.460    5.6345
   23.490    5.3870
   23.520    5.4976
   23.550    5.4766
   23.580    5.2080
   23.610    5.5977
   23.640    5.6345
   23.670    5.4766
   23.700    5.4292
   23.730    5.6977
   23.760    5.4344
   23.790    5.4450
   23.820    5.4976
   23.850    5.5556
   23.880    5.5082
   23.910    5.7715
   23.940    5.7083
   23.970    5.7399
   24.000    6.0821
   24.030    6.2349
   24.060    5.6714
   24.090    5.4292
   24.120    5.3081
   24.150    5.2870
   24.180    5.2554
   24.210    5.4766
   24.240    5.4239
   24.270    5.2607
   24.300    5.6187
   24.330    5.4081
   24.360    5.5292
   24.390    5.3028
   24.420    5.3449
   24.450    5.2449
   24.480    5.5398
   24.510    5.5977
   24.540    5.2607
   24.570    5.3081
   24.600    5.4555
   24.630    5.6556
   24.660    5.6135
   24.690    5.5977
   24.720    5.4766
   24.750    5.3976
   24.780    5.3607
   24.810    5.5292
   24.840    5.4344
   24.870    5.3502
   24.900    5.4186
   24.930    5.1711
   24.960    5.4502
   24.990    5.4713
   25.020    5.2607
   25.050    5.3291
   25.080    5.2923
   25.110    5.4871
   25.140    5.4450
   25.170    5.4186
   25.200    5.8873
   25.230    5.5187
   25.260    5.7978
   25.290    5.6661
   25.320    5.6187
   25.350    5.4292
   25.380    5.2027
   25.410    5.3923
   25.440    5.1395
   25.470    5.0711
   25.500    5.3923
   25.530    5.4660
   25.560    5.2027
   25.590    5.4344
   25.620    5.5714
   25.650    5.6819
   25.680    5.2923
   25.710    5.0816
   25.740    5.3923
   25.770    5.3133
   25.800    5.5292
   25.830    6.0716
   25.860    6.5403
   25.890    6.7878
   25.920    6.6140
   25.950    6.2717
   25.980    5.5029
   26.010    5.2027
   26.040    5.2133
   26.070    5.3607
   26.100    5.0974
   26.130    5.4713
   26.160    5.5608
   26.190    5.3765
   26.220    5.2343
   26.250    5.2870
   26.280    5.3660
   26.310    4.9552
   26.340    5.3239
   26.370    5.3291
   26.400    5.0500
   26.430    5.3239
   26.460    5.3081
   26.490    5.3870
   26.520    5.5819
   26.550    5.4660
   26.580    5.2923
   26.610    5.2765
   26.640    5.1027
   26.670    5.0290
   26.700    5.1922
   26.730    5.0026
   26.760    5.3923
   26.790    5.0290
   26.820    5.1606
   26.850    4.9236
   26.880    5.0869
   26.910    4.9131
   26.940    5.2185
   26.970    5.2238
   27.000    5.2870
   27.030    5.4081
   27.060    5.5766
   27.090    5.6819
   27.120    5.4555
   27.150    5.2554
   27.180    5.3607
   27.210    5.0922
   27.240    5.2923
   27.270    4.9658
   27.300    5.0079
   27.330    5.1290
   27.360    5.2554
   27.390    4.8447
   27.420    5.2343
   27.450    5.1185
   27.480    4.8131
   27.510    5.2238
   27.540    5.0290
   27.570    5.1027
   27.600    5.1185
   27.630    5.2080
   27.660    5.2449
   27.690    5.4081
   27.720    5.3870
   27.750    5.4186
   27.780    5.0606
   27.810    4.9236
   27.840    4.9500
   27.870    5.1343
   27.900    4.9447
   27.930    5.2659
   27.960    5.1764
   27.990    5.3660
   28.020    5.1395
   28.050    5.0237
   28.080    5.1711
   28.110    4.9184
   28.140    5.0606
   28.170    5.1975
   28.200    5.3818
   28.230    5.4134
   28.260    5.6872
   28.290    5.4608
   28.320    5.1922
   28.350    5.3555
   28.380    4.8710
   28.410    5.0026
   28.440    5.2080
   28.470    5.1922
   28.500    5.3555
   28.530    5.6503
   28.560    5.5766
   28.590    5.2133
   28.620    5.4028
   28.650    5.0290
   28.680    4.9394
   28.710    4.9289
   28.740    4.6972
   28.770    4.9500
   28.800    4.6288
   28.830    4.7077
   28.860    4.6340
   28.890    4.7077
   28.920    4.6867
   28.950    4.9131
   28.980    4.9710
   29.010    4.9236
   29.040    5.0553
   29.070    4.7762
   29.100    5.0500
   29.130    4.8815
   29.160    5.0079
   29.190    4.9974
   29.220    4.9236
   29.250    5.0395
   29.280    5.0974
   29.310    4.9605
   29.340    5.1185
   29.370    5.5134
   29.400    5.0816
   29.430    4.9605
   29.460    5.0079
   29.490    4.8078
   29.520    4.8078
   29.550    4.9394
   29.580    4.9710
   29.610    4.7920
   29.640    4.8657
   29.670    4.9236
   29.700    4.5392
   29.730    4.7551
   29.760    4.8131
   29.790    4.6340
   29.820    4.9763
   29.850    4.8552
   29.880    4.8447
   29.910    4.9974
   29.940    4.8710
   29.970    4.8447
   30.000    4.8394
   30.030    4.7235
   30.060    4.7920
   30.090    4.9868
   30.120    4.7130
   30.150    4.9921
   30.180    4.9131
   30.210    4.7288
   30.240    4.6972
   30.270    4.6656
   30.300    4.8447
   30.330    4.6393
   30.360    4.8341
   30.390    4.7077
   30.420    4.7551
   30.450    4.5919
   30.480    4.7077
   30.510    4.7762
   30.540    4.5234
   30.570    4.7657
   30.600    4.5076
   30.630    4.7183
   30.660    4.8236
   30.690    4.8183
   30.720    4.8763
   30.750    5.0184
   30.780    4.7973
   30.810    4.6445
   30.840    4.8920
   30.870    4.7762
   30.900    4.6235
   30.930    4.7815
   30.960    4.5182
   30.990    5.0237
   31.020    4.5761
   31.050    4.5866
   31.080    4.6340
   31.110    4.5024
   31.140    4.5340
   31.170    4.5392
   31.200    4.3075
   31.230    4.4550
   31.260    4.4760
   31.290    4.4550
   31.320    4.3760
   31.350    4.4444
   31.380    4.5076
   31.410    4.6182
   31.440    4.7341
   31.470    4.9658
   31.500    4.8605
   31.530    4.9763
   31.560    4.8920
   31.590    4.5708
   31.620    4.6498
   31.650    4.7973
   31.680    4.5340
   31.710    4.8078
   31.740    4.3602
   31.770    4.4971
   31.800    4.6445
   31.830    4.4602
   31.860    4.2865
   31.890    4.4760
   31.920    4.4760
   31.950    4.4181
   31.980    4.3971
   32.010    4.8499
   32.040    4.5392
   32.070    4.5656
   32.100    4.6340
   32.130    4.4550
   32.160    4.5814
   32.190    4.5708
   32.220    4.6130
   32.250    4.2759
   32.280    4.1811
   32.310    4.3286
   32.340    4.4602
   32.370    4.4128
   32.400    4.3813
   32.430    4.5550
   32.460    4.2917
   32.490    4.2917
   32.520    4.2022
   32.550    4.3286
   32.580    4.2865
   32.610    4.1759
   32.640    4.2759
   32.670    4.4550
   32.700    4.1548
   32.730    4.4866
   32.760    4.1496
   32.790    4.1338
   32.820    4.4497
   32.850    4.1390
   32.880    4.5656
   32.910    4.3233
   32.940    4.6603
   32.970    4.4602
   33.000    4.4760
   33.030    4.5603
   33.060    4.7604
   33.090    4.3760
   33.120    4.1180
   33.150    4.6445
   33.180    4.1180
   33.210    4.3444
   33.240    4.2865
   33.270    4.2812
   33.300    4.1864
   33.330    4.0706
   33.360    4.1390
   33.390    4.1180
   33.420    4.1706
   33.450    4.2075
   33.480    4.2180
   33.510    4.3286
   33.540    4.3181
   33.570    4.2443
   33.600    4.0758
   33.630    4.1917
   33.660    4.2391
   33.690    4.2075
   33.720    4.1285
   33.750    4.3602
   33.780    4.3655
   33.810    4.1706
   33.840    4.2075
   33.870    4.0337
   33.900    4.5024
   33.930    4.5076
   33.960    4.6024
   33.990    4.6919
   34.020    4.2496
   34.050    4.1917
   34.080    4.2233
   34.110    4.0126
   34.140    4.2865
   34.170    4.4813
   34.200    4.2338
   34.230    4.3918
   34.260    4.1811
   34.290    4.1496
   34.320    4.0600
   34.350    4.3181
   34.380    4.1864
   34.410    4.2549
   34.440    4.1548
   34.470    4.3707
   34.500    4.2022
   34.530    4.1917
   34.560    4.1601
   34.590    3.9863
   34.620    4.0232
   34.650    4.0390
   34.680    4.0495
   34.710    4.2443
   34.740    4.0811
   34.770    3.9231
   34.800    4.1338
   34.830    4.1443
   34.860    4.1285
   34.890    4.1443
   34.920    4.1917
   34.950    4.2391
   34.980    4.1811
   35.010    3.9863
   35.040    3.9442
   35.070    4.1443
   35.100    4.1074
   35.130    3.9442
   35.160    3.9126
   35.190    3.9916
   35.220    4.1917
   35.250    4.0758
   35.280    3.8599
   35.310    4.1443
   35.340    3.9600
   35.370    4.0548
   35.400    4.0074
   35.430    4.0811
   35.460    4.1601
   35.490    4.1443
   35.520    3.9126
   35.550    3.9494
   35.580    4.0284
   35.610    3.9810
   35.640    3.9231
   35.670    3.8757
   35.700    4.0232
   35.730    4.1022
   35.760    3.9863
   35.790    4.0390
   35.820    3.9336
   35.850    4.0653
   35.880    4.1496
   35.910    3.7704
   35.940    3.8863
   35.970    3.8863
   36.000    3.7230
   36.030    3.9179
   36.060    4.0126
   36.090    4.1496
   36.120    3.8231
   36.150    3.9073
   36.180    4.0021
   36.210    3.9179
   36.240    3.9021
   36.270    3.9600
   36.300    3.7019
   36.330    4.3444
   36.360    3.9179
   36.390    3.8494
   36.420    3.7809
   36.450    3.7125
   36.480    3.7388
   36.510    3.7915
   36.540    3.9652
   36.570    3.8547
   36.600    3.7072
   36.630    3.7757
   36.660    3.7651
   36.690    4.1074
   36.720    4.0653
   36.750    3.9758
   36.780    3.9284
   36.810    3.7651
   36.840    3.9652
   36.870    4.0600
   36.900    3.6704
   36.930    4.0232
   36.960    3.8968
   36.990    3.5914
   37.020    3.7546
   37.050    3.9389
   37.080    4.0126
   37.110    3.8125
   37.140    3.9547
   37.170    4.1601
   37.200    4.0442
   37.230    4.0864
   37.260    3.8178
   37.290    3.8125
   37.320    3.9336
   37.350    3.9968
   37.380    3.9494
   37.410    3.6124
   37.440    3.8283
   37.470    3.8915
   37.500    3.7651
   37.530    3.7493
   37.560    3.9810
   37.590    3.8178
   37.620    3.7651
   37.650    3.6546
   37.680    3.5018
   37.710    3.7546
   37.740    3.6546
   37.770    3.5861
   37.800    3.9336
   37.830    3.7915
   37.860    3.7546
   37.890    3.7125
   37.920    3.5387
   37.950    3.8231
   37.980    3.8178
   38.010    3.9126
   38.040    3.9916
   38.070    3.8757
   38.100    4.0706
   38.130    4.0811
   38.160    3.6177
   38.190    3.7704
   38.220    3.6177
   38.250    3.8599
   38.280    3.8283
   38.310    3.7335
   38.340    3.5808
   38.370    3.7019
   38.400    3.7335
   38.430    3.6019
   38.460    3.8178
   38.490    3.7072
   38.520    3.6124
   38.550    3.8757
   38.580    3.6598
   38.610    3.4544
   38.640    3.6651
   38.670    3.5914
   38.700    3.5545
   38.730    3.5176
   38.760    3.7177
   38.790    3.7335
   38.820    3.7967
   38.850    3.4966
   38.880    3.7019
   38.910    3.7441
   38.940    3.7757
   38.970    3.7493
   39.000    3.7177
   39.030    3.5914
   39.060    3.7283
   39.090    3.6651
   39.120    3.6440
   39.150    3.7019
   39.180    3.7651
   39.210    3.6124
   39.240    3.6493
   39.270    3.7388
   39.300    3.6493
   39.330    3.8283
   39.360    3.8231
   39.390    3.9758
   39.420    3.7177
   39.450    3.8283
   39.480    3.6914
   39.510    3.4860
   39.540    3.5492
   39.570    3.6230
   39.600    3.5914
   39.630    3.6651
   39.660    3.6335
   39.690    3.7283
   39.720    3.7967
   39.750    3.7757
   39.780    3.9284
   39.810    3.8125
   39.840    3.6388
   39.870    3.6177
   39.900    3.7809
   39.930    3.5966
   39.960    3.7599
   39.990    3.7177