File: data/MOCOF-1/PXRD/PXRD_KE-045_Cu-Ka1_capillary-1mm_5s-deg.xyd
    1.500   17.2091
    1.530   17.5145
    1.560   16.5982
    1.590   16.0716
    1.620   15.5029
    1.650   16.1243
    1.680   16.0927
    1.710   15.6082
    1.740   15.2817
    1.770   15.2923
    1.800   14.8605
    1.830   14.9236
    1.860   14.8499
    1.890   14.8499
    1.920   14.7235
    1.950   14.8920
    1.980   14.6077
    2.010   14.4181
    2.040   15.1132
    2.070   15.0395
    2.100   15.4924
    2.130   15.9768
    2.160   15.4397
    2.190   15.1132
    2.220   15.0606
    2.250   15.7451
    2.280   16.3560
    2.310   15.8926
    2.340   16.5140
    2.370   17.0721
    2.400   16.5877
    2.430   17.2301
    2.460   17.2301
    2.490   17.8410
    2.520   17.7883
    2.550   18.4308
    2.580   19.0627
    2.610   19.8736
    2.640   19.9052
    2.670   20.4845
    2.700   21.3586
    2.730   21.5692
    2.760   22.8541
    2.790   24.1390
    2.820   24.7815
    2.850   25.4766
    2.880   26.5719
    2.910   28.0463
    2.940   28.6677
    2.970   30.7109
    3.000   32.3749
    3.030   33.5650
    3.060   36.9142
    3.090   37.6198
    3.120   41.1374
    3.150   44.0758
    3.180   46.7193
    3.210   50.7952
    3.240   53.9547
    3.270   58.3676
    3.300   64.9816
    3.330   71.7746
    3.360   78.7151
    3.390   87.0985
    3.420   99.5471
    3.450  106.2033
    3.480  111.5113
    3.510  105.4134
    3.540   90.5951
    3.570   73.2701
    3.600   59.3260
    3.630   52.1432
    3.660   48.8046
    3.690   46.9300
    3.720   45.3081
    3.750   47.2249
    3.780   48.7730
    3.810   52.3539
    3.840   57.7462
    3.870   66.8878
    3.900   75.6609
    3.930   73.1964
    3.960   56.2823
    3.990   41.0637
    4.020   40.9900
    4.050   40.9268
    4.080   40.4423
    4.110   39.0943
    4.140   37.9358
    4.170   36.3454
    4.200   33.9758
    4.230   31.4903
    4.260   29.1627
    4.290   27.3196
    4.320   24.8341
    4.350   21.6851
    4.380   19.1785
    4.410   17.4408
    4.440   15.6503
    4.470   13.6282
    4.500   12.7751
    4.530   12.4908
    4.560   10.8583
    4.590   10.5213
    4.620    9.9421
    4.650    9.3312
    4.680    9.1311
    4.710    8.7414
    4.740    8.2991
    4.770    7.8462
    4.800    8.3834
    4.830    7.7936
    4.860    7.6461
    4.890    7.5303
    4.920    7.4039
    4.950    7.0353
    4.980    7.2670
    5.010    7.2775
    5.040    7.1827
    5.070    7.5724
    5.100    7.5724
    5.130    7.3828
    5.160    7.4355
    5.190    7.8778
    5.220    7.9726
    5.250    7.6988
    5.280    8.3202
    5.310    8.5097
    5.340    9.1417
    5.370    9.5419
    5.400    9.9631
    5.430   11.1954
    5.460   12.7962
    5.490   15.8189
    5.520   18.1569
    5.550   17.4513
    5.580   11.1743
    5.610    6.3718
    5.640    5.5714
    5.670    5.5187
    5.700    5.3502
    5.730    5.5398
    5.760    5.4239
    5.790    5.2870
    5.820    5.6451
    5.850    5.2449
    5.880    5.6135
    5.910    5.4028
    5.940    5.2870
    5.970    5.4660
    6.000    5.4028
    6.030    5.6556
    6.060    5.5398
    6.090    5.8978
    6.120    5.3923
    6.150    5.7925
    6.180    5.5608
    6.210    5.7820
    6.240    5.4450
    6.270    5.8452
    6.300    5.8768
    6.330    6.2665
    6.360    6.0453
    6.390    6.4666
    6.420    6.1506
    6.450    6.6667
    6.480    6.4666
    6.510    6.8036
    6.540    6.8562
    6.570    7.2880
    6.600    7.8673
    6.630    7.8462
    6.660    8.4255
    6.690    9.3628
    6.720    9.8052
    6.750   11.2796
    6.780   12.3328
    6.810   11.9221
    6.840   11.2059
    6.870   11.9642
    6.900   12.7751
    6.930   13.6282
    6.960   14.2496
    6.990   14.3760
    7.020   12.7857
    7.050   11.6272
    7.080    9.5524
    7.110    8.2886
    7.140    7.8673
    7.170    6.7615
    7.200    6.7088
    7.230    6.5403
    7.260    6.4982
    7.290    6.4560
    7.320    6.0558
    7.350    6.1506
    7.380    5.7609
    7.410    6.5087
    7.440    6.2559
    7.470    6.2033
    7.500    6.0769
    7.530    6.0558
    7.560    6.2981
    7.590    6.5719
    7.620    6.4139
    7.650    6.5613
    7.680    6.4350
    7.710    6.8984
    7.740    7.2565
    7.770    7.8568
    7.800    8.4150
    7.830    9.1522
    7.860    7.9726
    7.890    7.7725
    7.920    6.9405
    7.950    6.5403
    7.980    7.1827
    8.010    7.3302
    8.040    7.3828
    8.070    7.3828
    8.100    7.2986
    8.130    7.6040
    8.160    8.0674
    8.190    7.8673
    8.220    8.2675
    8.250    8.0463
    8.280    7.2249
    8.310    7.7199
    8.340    7.8252
    8.370    8.1201
    8.400    8.1095
    8.430    7.8778
    8.460    7.9831
    8.490    7.9094
    8.520    8.3623
    8.550    8.0674
    8.580    7.4250
    8.610    7.4039
    8.640    7.3723
    8.670    7.0353
    8.700    7.3196
    8.730    6.8246
    8.760    7.1195
    8.790    6.9510
    8.820    6.0558
    8.850    6.2981
    8.880    6.0874
    8.910    6.0558
    8.940    6.2770
    8.970    5.8662
    9.000    5.4766
    9.030    5.4871
    9.060    5.5292
    9.090    5.7188
    9.120    5.7293
    9.150    5.4555
    9.180    5.6556
    9.210    5.7609
    9.240    6.0664
    9.270    6.3507
    9.300    5.9716
    9.330    6.1506
    9.360    5.5819
    9.390    5.9189
    9.420    5.9084
    9.450    6.6140
    9.480    6.4034
    9.510    7.4355
    9.540    8.0674
    9.570    9.3523
    9.600   10.1527
    9.630    8.7204
    9.660    5.9505
    9.690    4.8552
    9.720    5.1711
    9.750    4.7815
    9.780    4.8763
    9.810    5.0237
    9.840    5.0237
    9.870    4.6656
    9.900    4.8341
    9.930    4.9921
    9.960    5.0026
    9.990    5.3502
   10.020    5.0658
   10.050    5.3291
   10.080    5.3923
   10.110    5.1817
   10.140    5.2975
   10.170    5.1501
   10.200    5.3081
   10.230    5.4134
   10.260    5.6767
   10.290    5.6977
   10.320    6.3402
   10.350    6.8457
   10.380    7.1933
   10.410    6.2349
   10.440    5.6451
   10.470    5.6240
   10.500    5.4450
   10.530    5.3502
   10.560    5.2133
   10.590    5.2027
   10.620    5.3607
   10.650    5.0553
   10.680    5.1080
   10.710    5.2133
   10.740    5.2554
   10.770    5.0448
   10.800    4.9921
   10.830    5.0026
   10.860    4.9605
   10.890    5.2238
   10.920    5.0553
   10.950    5.0553
   10.980    5.5819
   11.010    5.6556
   11.040    6.3507
   11.070    5.8031
   11.100    5.9505
   11.130    5.5924
   11.160    4.7920
   11.190    4.7288
   11.220    4.7288
   11.250    5.0974
   11.280    4.7288
   11.310    4.6130
   11.340    5.1395
   11.370    5.0869
   11.400    4.8763
   11.430    4.8657
   11.460    5.0132
   11.490    5.0553
   11.520    4.9289
   11.550    5.0658
   11.580    5.2975
   11.610    5.2659
   11.640    5.2343
   11.670    5.6556
   11.700    6.2033
   11.730    6.4560
   11.760    6.4982
   11.790    6.2243
   11.820    5.1290
   11.850    5.2449
   11.880    5.0764
   11.910    5.2343
   11.940    5.0237
   11.970    5.0448
   12.000    4.9605
   12.030    5.1185
   12.060    5.2449
   12.090    5.1501
   12.120    4.7920
   12.150    5.0026
   12.180    5.2870
   12.210    5.3712
   12.240    5.0026
   12.270    5.6556
   12.300    5.6135
   12.330    5.5082
   12.360    5.7925
   12.390    5.5292
   12.420    5.4555
   12.450    5.0132
   12.480    5.4871
   12.510    5.6451
   12.540    5.2554
   12.570    5.4344
   12.600    5.2765
   12.630    5.2027
   12.660    5.6451
   12.690    5.3397
   12.720    5.2870
   12.750    5.6661
   12.780    5.8031
   12.810    5.7399
   12.840    5.5924
   12.870    5.7293
   12.900    5.4450
   12.930    5.8873
   12.960    6.0664
   12.990    6.4139
   13.020    6.3718
   13.050    5.8347
   13.080    5.2659
   13.110    5.0026
   13.140    5.3291
   13.170    5.1290
   13.200    4.8657
   13.230    5.5608
   13.260    5.3818
   13.290    5.2765
   13.320    5.2765
   13.350    5.3291
   13.380    5.1817
   13.410    5.1501
   13.440    5.3607
   13.470    5.2659
   13.500    5.2870
   13.530    5.3607
   13.560    5.3923
   13.590    6.0137
   13.620    5.5398
   13.650    5.3607
   13.680    5.4450
   13.710    5.1080
   13.740    5.0869
   13.770    5.1606
   13.800    4.8341
   13.830    5.3818
   13.860    4.5814
   13.890    5.1185
   13.920    5.4871
   13.950    5.2343
   13.980    5.5714
   14.010    5.1395
   14.040    5.3291
   14.070    5.5503
   14.100    5.8347
   14.130    6.1401
   14.160    5.8978
   14.190    5.4239
   14.220    5.0448
   14.250    4.4550
   14.280    5.2554
   14.310    4.6972
   14.340    4.8447
   14.370    5.0553
   14.400    4.6972
   14.430    4.6024
   14.460    4.7499
   14.490    4.4760
   14.520    4.8868
   14.550    4.6972
   14.580    4.5814
   14.610    5.0869
   14.640    4.5708
   14.670    4.5603
   14.700    4.6235
   14.730    4.9921
   14.760    4.8552
   14.790    4.9184
   14.820    5.0764
   14.850    4.7709
   14.880    4.6551
   14.910    4.7709
   14.940    4.8868
   14.970    4.6130
   15.000    4.5814
   15.030    4.7499
   15.060    4.7815
   15.090    4.8236
   15.120    4.7815
   15.150    4.7920
   15.180    4.7815
   15.210    4.7183
   15.240    4.6761
   15.270    5.0132
   15.300    4.7077
   15.330    4.6761
   15.360    4.7604
   15.390    4.8868
   15.420    4.8868
   15.450    4.7920
   15.480    4.7499
   15.510    4.7077
   15.540    4.9289
   15.570    4.6551
   15.600    4.8763
   15.630    5.1922
   15.660    4.6761
   15.690    4.8341
   15.720    4.9078
   15.750    4.7288
   15.780    4.6972
   15.810    5.0974
   15.840    4.8657
   15.870    4.8763
   15.900    5.1501
   15.930    4.8973
   15.960    4.7183
   15.990    4.8341
   16.020    4.7709
   16.050    4.8657
   16.080    5.1606
   16.110    4.7709
   16.140    4.9394
   16.170    5.1185
   16.200    4.8341
   16.230    4.8657
   16.260    4.9078
   16.290    4.4866
   16.320    4.6867
   16.350    4.9816
   16.380    4.7077
   16.410    4.6024
   16.440    4.5919
   16.470    4.6551
   16.500    4.6445
   16.530    4.9184
   16.560    4.9921
   16.590    4.8447
   16.620    4.7499
   16.650    5.0026
   16.680    5.0237
   16.710    4.4234
   16.740    4.8131
   16.770    4.7709
   16.800    4.7499
   16.830    4.5603
   16.860    4.7499
   16.890    4.5814
   16.920    4.9394
   16.950    4.5814
   16.980    4.8236
   17.010    4.9500
   17.040    5.0448
   17.070    5.2659
   17.100    6.0664
   17.130    5.2975
   17.160    5.2870
   17.190    4.8341
   17.220    4.7077
   17.250    4.8868
   17.280    4.5392
   17.310    4.6024
   17.340    4.3918
   17.370    4.6972
   17.400    4.5919
   17.430    4.5287
   17.460    4.8131
   17.490    5.1185
   17.520    4.8868
   17.550    5.0974
   17.580    5.0026
   17.610    4.9816
   17.640    4.6656
   17.670    4.7077
   17.700    4.6445
   17.730    4.8025
   17.760    4.4760
   17.790    5.0448
   17.820    5.0237
   17.850    5.0974
   17.880    4.9289
   17.910    4.9816
   17.940    5.0237
   17.970    5.0658
   18.000    5.4450
   18.030    4.7920
   18.060    5.2027
   18.090    4.6972
   18.120    5.1606
   18.150    4.6024
   18.180    4.7183
   18.210    5.1290
   18.240    5.1395
   18.270    4.7288
   18.300    4.7393
   18.330    4.8657
   18.360    4.9289
   18.390    5.0658
   18.420    5.0132
   18.450    4.8025
   18.480    5.1606
   18.510    4.6656
   18.540    4.6656
   18.570    5.1711
   18.600    4.8236
   18.630    4.7709
   18.660    5.0448
   18.690    4.7288
   18.720    4.5708
   18.750    4.4971
   18.780    4.5814
   18.810    5.0342
   18.840    4.8868
   18.870    4.7183
   18.900    4.9078
   18.930    4.5603
   18.960    4.9394
   18.990    4.6761
   19.020    4.9394
   19.050    4.6867
   19.080    4.7920
   19.110    4.9078
   19.140    4.8025
   19.170    4.6867
   19.200    5.0132
   19.230    4.8657
   19.260    4.8025
   19.290    4.5708
   19.320    4.8447
   19.350    4.8868
   19.380    5.2659
   19.410    4.8447
   19.440    5.1290
   19.470    5.3397
   19.500    4.8763
   19.530    5.1606
   19.560    5.0658
   19.590    5.2449
   19.620    5.7820
   19.650    5.1080
   19.680    5.3923
   19.710    5.1606
   19.740    5.0764
   19.770    5.0974
   19.800    5.2449
   19.830    5.2659
   19.860    5.1080
   19.890    5.1395
   19.920    5.1395
   19.950    5.5714
   19.980    5.1606
   20.010    5.2027
   20.040    5.5608
   20.070    5.3607
   20.100    5.3081
   20.130    5.2343
   20.160    5.3081
   20.190    5.4766
   20.220    5.3081
   20.250    5.4239
   20.280    5.4660
   20.310    5.2765
   20.340    5.3502
   20.370    5.5292
   20.400    5.8662
   20.430    5.9400
   20.460    5.7188
   20.490    5.5398
   20.520    5.2554
   20.550    5.7188
   20.580    5.2343
   20.610    5.4028
   20.640    5.1080
   20.670    5.2133
   20.700    5.2975
   20.730    5.2027
   20.760    5.4660
   20.790    5.0658
   20.820    5.0764
   20.850    4.7183
   20.880    5.2975
   20.910    5.3712
   20.940    5.2554
   20.970    4.8657
   21.000    5.2765
   21.030    5.5503
   21.060    5.2870
   21.090    5.5714
   21.120    5.1185
   21.150    5.4239
   21.180    4.9816
   21.210    5.1817
   21.240    5.3712
   21.270    5.0658
   21.300    5.0869
   21.330    5.0026
   21.360    4.9078
   21.390    5.1395
   21.420    5.0974
   21.450    5.2870
   21.480    5.1080
   21.510    5.2133
   21.540    4.9078
   21.570    5.2449
   21.600    5.1922
   21.630    5.5398
   21.660    5.0974
   21.690    5.2027
   21.720    4.9500
   21.750    5.3712
   21.780    5.1606
   21.810    5.1817
   21.840    5.4134
   21.870    5.6029
   21.900    5.4344
   21.930    5.4239
   21.960    5.1606
   21.990    4.8552
   22.020    5.2343
   22.050    5.0869
   22.080    5.0553
   22.110    5.1501
   22.140    5.4871
   22.170    5.3502
   22.200    5.2343
   22.230    5.2449
   22.260    4.9184
   22.290    5.3186
   22.320    5.4344
   22.350    5.3186
   22.380    5.1922
   22.410    5.4239
   22.440    4.9710
   22.470    5.3712
   22.500    5.6767
   22.530    5.4134
   22.560    5.8662
   22.590    5.6661
   22.620    5.8347
   22.650    6.1190
   22.680    5.4344
   22.710    5.4660
   22.740    5.4555
   22.770    5.1185
   22.800    5.1501
   22.830    5.4766
   22.860    5.3607
   22.890    5.3397
   22.920    5.2343
   22.950    5.7820
   22.980    6.0979
   23.010    5.5503
   23.040    5.3397
   23.070    4.9500
   23.100    4.8236
   23.130    4.8973
   23.160    4.9710
   23.190    5.4871
   23.220    4.8657
   23.250    5.3502
   23.280    5.2133
   23.310    5.1185
   23.340    5.3712
   23.370    5.0026
   23.400    4.9921
   23.430    4.7709
   23.460    5.0869
   23.490    4.8973
   23.520    5.3291
   23.550    5.1606
   23.580    4.9500
   23.610    5.1501
   23.640    5.1185
   23.670    5.1606
   23.700    5.1080
   23.730    5.4344
   23.760    5.0132
   23.790    4.9394
   23.820    5.0869
   23.850    4.7393
   23.880    5.0132
   23.910    4.7604
   23.940    5.4555
   23.970    4.8131
   24.000    5.0553
   24.030    5.1185
   24.060    5.1922
   24.090    4.9921
   24.120    4.8973
   24.150    4.7604
   24.180    5.0869
   24.210    4.9078
   24.240    5.0869
   24.270    5.1080
   24.300    4.9710
   24.330    4.8973
   24.360    5.1817
   24.390    5.0237
   24.420    5.0448
   24.450    5.0342
   24.480    4.8552
   24.510    5.2765
   24.540    5.3397
   24.570    5.0132
   24.600    5.4976
   24.630    4.9078
   24.660    5.2554
   24.690    5.3502
   24.720    5.3397
   24.750    4.4866
   24.780    4.5814
   24.810    5.0869
   24.840    4.7393
   24.870    4.7393
   24.900    4.4128
   24.930    4.7815
   24.960    5.0237
   24.990    5.0342
   25.020    4.8447
   25.050    4.6551
   25.080    5.0237
   25.110    4.8552
   25.140    4.7077
   25.170    5.0658
   25.200    4.8657
   25.230    5.0342
   25.260    4.9605
   25.290    4.9394
   25.320    5.0237
   25.350    4.6130
   25.380    4.3602
   25.410    4.6972
   25.440    5.0026
   25.470    5.0448
   25.500    4.4971
   25.530    4.9816
   25.560    4.7393
   25.590    4.8973
   25.620    4.6235
   25.650    4.3918
   25.680    4.7920
   25.710    4.8657
   25.740    5.0132
   25.770    4.9289
   25.800    5.0974
   25.830    5.2554
   25.860    5.2238
   25.890    5.2343
   25.920    5.0448
   25.950    4.6130
   25.980    4.6761
   26.010    4.5182
   26.040    4.5919
   26.070    4.7077
   26.100    4.4023
   26.130    4.6551
   26.160    4.7183
   26.190    4.6130
   26.220    4.3075
   26.250    4.5287
   26.280    4.5603
   26.310    4.4339
   26.340    4.1917
   26.370    4.5603
   26.400    4.3918
   26.430    4.8131
   26.460    4.8341
   26.490    4.6235
   26.520    4.5076
   26.550    4.3075
   26.580    4.3286
   26.610    4.3286
   26.640    4.5182
   26.670    4.5182
   26.700    4.2549
   26.730    4.5708
   26.760    4.3391
   26.790    4.3918
   26.820    4.7920
   26.850    4.6445
   26.880    4.5919
   26.910    4.4655
   26.940    4.1390
   26.970    4.1917
   27.000    4.7920
   27.030    4.6024
   27.060    4.3918
   27.090    4.7815
   27.120    4.2549
   27.150    4.6761
   27.180    4.4760
   27.210    4.4128
   27.240    4.4023
   27.270    4.6130
   27.300    4.5498
   27.330    4.6235
   27.360    4.2338
   27.390    4.3075
   27.420    4.3181
   27.450    4.4128
   27.480    4.3181
   27.510    4.5814
   27.540    4.8131
   27.570    4.6340
   27.600    4.3497
   27.630    4.4971
   27.660    4.6130
   27.690    4.5708
   27.720    4.4234
   27.750    4.5076
   27.780    4.6445
   27.810    4.6235
   27.840    4.4760
   27.870    4.4339
   27.900    4.1706
   27.930    4.1496
   27.960    4.4550
   27.990    4.4023
   28.020    4.5814
   28.050    4.8973
   28.080    4.7604
   28.110    4.5392
   28.140    4.7499
   28.170    4.8447
   28.200    4.7499
   28.230    4.9289
   28.260    4.7709
   28.290    4.6972
   28.320    4.5287
   28.350    4.1601
   28.380    4.2654
   28.410    4.2443
   28.440    4.9605
   28.470    4.2233
   28.500    4.6024
   28.530    4.6130
   28.560    4.4550
   28.590    4.3813
   28.620    4.4760
   28.650    4.1285
   28.680    4.0337
   28.710    4.1917
   28.740    4.3181
   28.770    4.3707
   28.800    4.1917
   28.830    4.2022
   28.860    4.0232
   28.890    4.4234
   28.920    4.1917
   28.950    4.2654
   28.980    4.3707
   29.010    4.4971
   29.040    4.5498
   29.070    4.2233
   29.100    4.2759
   29.130    4.4128
   29.160    4.1496
   29.190    4.1180
   29.220    4.2233
   29.250    4.4023
   29.280    4.3813
   29.310    4.1074
   29.340    4.7393
   29.370    4.2233
   29.400    4.2759
   29.430    4.4550
   29.460    4.2022
   29.490    3.9284
   29.520    4.1390
   29.550    4.1811
   29.580    4.5182
   29.610    4.3286
   29.640    4.1390
   29.670    4.1285
   29.700    4.3075
   29.730    4.1285
   29.760    4.2865
   29.790    4.3181
   29.820    4.1706
   29.850    4.0021
   29.880    4.0653
   29.910    4.4128
   29.940    4.2443
   29.970    4.1917
   30.000    4.0653
   30.030    4.2127
   30.060    4.3391
   30.090    4.2127
   30.120    4.2654
   30.150    3.9073
   30.180    4.2127
   30.210    3.7388
   30.240    4.1285
   30.270    3.8968
   30.300    3.9705
   30.330    3.7704
   30.360    3.8441
   30.390    3.7388
   30.420    3.9810
   30.450    3.5914
   30.480    4.2338
   30.510    4.4760
   30.540    4.0232
   30.570    4.0337
   30.600    4.0864
   30.630    4.1706
   30.660    4.2443
   30.690    4.1601
   30.720    4.1706
   30.750    4.1706
   30.780    4.1074
   30.810    4.0864
   30.840    4.0864
   30.870    3.7809
   30.900    4.3707
   30.930    4.1811
   30.960    4.1074
   30.990    4.1601
   31.020    3.9916
   31.050    3.8968
   31.080    3.9284
   31.110    3.9389
   31.140    4.2022
   31.170    4.0758
   31.200    3.8336
   31.230    4.2970
   31.260    3.9073
   31.290    4.2759
   31.320    4.0442
   31.350    3.9179
   31.380    3.8441
   31.410    3.7493
   31.440    3.7599
   31.470    4.1496
   31.500    4.1180
   31.530    4.2970
   31.560    4.1496
   31.590    4.0653
   31.620    4.3707
   31.650    3.8441
   31.680    3.9810
   31.710    3.9810
   31.740    4.1074
   31.770    4.0442
   31.800    3.9705
   31.830    3.8863
   31.860    4.1180
   31.890    4.0653
   31.920    4.1180
   31.950    4.1180
   31.980    4.2022
   32.010    3.8125
   32.040    3.9494
   32.070    3.9705
   32.100    3.8441
   32.130    3.9916
   32.160    4.1601
   32.190    4.0232
   32.220    4.0337
   32.250    4.1285
   32.280    3.8125
   32.310    3.8441
   32.340    3.6651
   32.370    3.8125
   32.400    4.0021
   32.430    3.8020
   32.460    3.9284
   32.490    3.8125
   32.520    3.8863
   32.550    3.9284
   32.580    3.6967
   32.610    3.7493
   32.640    3.9705
   32.670    3.7493
   32.700    3.6335
   32.730    3.6440
   32.760    3.7388
   32.790    4.0021
   32.820    3.7704
   32.850    3.5703
   32.880    3.8020
   32.910    3.5703
   32.940    4.1285
   32.970    3.5703
   33.000    3.4439
   33.030    3.8125
   33.060    3.5598
   33.090    3.8231
   33.120    3.8020
   33.150    3.8020
   33.180    3.9389
   33.210    3.8231
   33.240    3.6651
   33.270    3.7072
   33.300    3.6546
   33.330    3.5703
   33.360    3.4229
   33.390    3.7388
   33.420    3.8441
   33.450    3.4123
   33.480    3.7388
   33.510    3.6124
   33.540    3.7177
   33.570    3.5598
   33.600    4.0548
   33.630    3.7493
   33.660    3.8231
   33.690    3.8020
   33.720    3.5808
   33.750    3.7704
   33.780    3.6019
   33.810    3.6546
   33.840    3.6651
   33.870    3.3175
   33.900    3.5387
   33.930    3.6862
   33.960    3.5387
   33.990    3.5176
   34.020    3.3386
   34.050    3.7493
   34.080    3.6862
   34.110    3.4966
   34.140    3.5387
   34.170    3.3807
   34.200    3.6546
   34.230    3.6019
   34.260    3.5387
   34.290    3.5598
   34.320    3.6546
   34.350    3.4650
   34.380    3.6440
   34.410    3.3281
   34.440    3.6230
   34.470    3.6651
   34.500    3.5176
   34.530    3.4018
   34.560    3.2754
   34.590    3.4544
   34.620    3.7599
   34.650    3.6335
   34.680    3.2333
   34.710    3.3597
   34.740    3.7809
   34.770    3.4123
   34.800    3.3913
   34.830    3.6019
   34.860    3.5282
   34.890    3.6335
   34.920    3.8547
   34.950    3.3491
   34.980    3.2859
   35.010    3.1912
   35.040    3.5071
   35.070    3.3281
   35.100    3.2754
   35.130    3.7177
   35.160    3.6440
   35.190    3.5071
   35.220    3.8125
   35.250    3.5282
   35.280    3.5071
   35.310    3.5598
   35.340    3.4650
   35.370    3.2017
   35.400    3.3702
   35.430    3.5492
   35.460    3.6230
   35.490    3.3913
   35.520    3.4650
   35.550    3.3702
   35.580    3.4334
   35.610    3.4755
   35.640    3.4544
   35.670    3.4229
   35.700    3.3807
   35.730    3.4018
   35.760    3.3913
   35.790    3.3070
   35.820    3.2754
   35.850    3.1912
   35.880    3.3702
   35.910    2.9595
   35.940    3.5071
   35.970    3.3386
   36.000    3.2754
   36.030    3.1490
   36.060    3.1385
   36.090    3.3491
   36.120    3.1806
   36.150    3.2017
   36.180    3.4229
   36.210    3.1596
   36.240    3.3281
   36.270    2.8857
   36.300    3.3491
   36.330    3.2754
   36.360    3.5598
   36.390    3.4018
   36.420    3.3491
   36.450    3.4860
   36.480    3.0753
   36.510    3.3491
   36.540    3.2965
   36.570    3.1385
   36.600    3.0964
   36.630    3.0226
   36.660    3.2543
   36.690    3.1912
   36.720    3.0437
   36.750    3.4229
   36.780    3.0542
   36.810    2.9173
   36.840    3.1806
   36.870    3.1912
   36.900    3.0964
   36.930    3.2227
   36.960    3.3281
   36.990    3.1490
   37.020    3.2017
   37.050    3.1385
   37.080    3.0753
   37.110    3.2649
   37.140    3.5282
   37.170    3.3281
   37.200    3.2859
   37.230    3.0226
   37.260    3.2965
   37.290    3.2754
   37.320    3.3491
   37.350    3.2649
   37.380    3.0226
   37.410    3.4439
   37.440    3.0226
   37.470    3.0964
   37.500    3.3281
   37.530    3.2017
   37.560    2.8331
   37.590    3.1701
   37.620    3.2754
   37.650    3.3597
   37.680    2.9910
   37.710    3.2543
   37.740    3.1385
   37.770    2.9805
   37.800    2.8857
   37.830    2.9700
   37.860    3.4229
   37.890    2.9489
   37.920    3.2965
   37.950    3.1069
   37.980    3.1596
   38.010    3.1174
   38.040    3.1280
   38.070    3.0753
   38.100    3.0121
   38.130    2.6856
   38.160    3.0858
   38.190    3.0858
   38.220    3.2017
   38.250    2.9700
   38.280    3.2017
   38.310    3.0121
   38.340    3.1069
   38.370    3.1596
   38.400    3.1596
   38.430    2.8752
   38.460    2.8647
   38.490    2.9173
   38.520    3.2754
   38.550    3.0542
   38.580    3.2017
   38.610    2.8436
   38.640    3.0016
   38.670    3.0121
   38.700    3.0016
   38.730    3.1069
   38.760    3.1596
   38.790    3.2965
   38.820    3.1385
   38.850    3.0121
   38.880    3.0542
   38.910    3.3386
   38.940    3.2333
   38.970    3.1069
   39.000    3.0016
   39.030    2.7383
   39.060    3.0964
   39.090    3.3491
   39.120    3.0121
   39.150    3.0226
   39.180    3.0542
   39.210    3.1701
   39.240    3.3175
   39.270    3.2859
   39.300    3.1806
   39.330    3.1385
   39.360    3.2438
   39.390    3.1806
   39.420    3.1174
   39.450    3.0226
   39.480    3.0332
   39.510    3.1280
   39.540    3.0542
   39.570    2.9068
   39.600    3.0226
   39.630    3.0753
   39.660    2.9595
   39.690    2.9700
   39.720    3.0858
   39.750    3.1490
   39.780    3.1701
   39.810    3.1069
   39.840    3.1596
   39.870    2.9068
   39.900    2.8120
   39.930    2.9805
   39.960    3.0858
   39.990    3.1912