File: data/MOCOF-1/PXRD/PXRD_KE-153_Cu-Ka1_capillary-1mm_5s-deg.xyd
    1.500   28.9415
    1.530   28.9626
    1.560   27.8673
    1.590   27.3302
    1.620   27.4671
    1.650   26.4666
    1.680   26.4666
    1.710   25.5082
    1.740   25.3397
    1.770   24.7288
    1.800   24.8552
    1.830   25.0132
    1.860   23.8652
    1.890   23.6124
    1.920   23.0964
    1.950   22.9595
    1.980   22.9068
    2.010   22.8120
    2.040   22.6014
    2.070   22.0748
    2.100   22.2012
    2.130   21.5798
    2.160   22.0221
    2.190   21.9379
    2.220   21.8852
    2.250   22.0116
    2.280   21.3691
    2.310   21.1901
    2.340   21.1164
    2.370   21.1374
    2.400   20.9163
    2.430   21.7378
    2.460   22.0011
    2.490   21.8641
    2.520   22.1380
    2.550   22.3275
    2.580   22.2117
    2.610   22.7699
    2.640   23.4545
    2.670   23.8336
    2.700   23.9284
    2.730   24.3918
    2.760   25.1711
    2.790   25.7925
    2.820   26.7825
    2.850   26.4560
    2.880   28.4255
    2.910   28.3623
    2.940   30.1843
    2.970   30.5951
    3.000   32.1222
    3.030   32.5645
    3.060   34.2285
    3.090   36.8720
    3.120   38.1675
    3.150   40.0527
    3.180   41.9800
    3.210   45.1501
    3.240   49.3628
    3.270   51.7220
    3.300   55.8820
    3.330   61.1796
    3.360   66.4139
    3.390   72.1748
    3.420   79.2417
    3.450   83.0542
    3.480   80.8215
    3.510   73.2701
    3.540   61.5482
    3.570   50.4371
    3.600   41.9589
    3.630   38.3465
    3.660   33.8705
    3.690   34.6919
    3.720   32.8594
    3.750   33.5018
    3.780   33.0279
    3.810   34.5234
    3.840   35.2291
    3.870   37.4934
    3.900   36.4824
    3.930   38.6835
    3.960   39.0416
    3.990   39.3260
    4.020   38.7467
    4.050   38.7046
    4.080   37.4408
    4.110   36.1980
    4.140   35.3765
    4.170   32.4592
    4.200   31.2164
    4.230   28.7836
    4.260   27.6145
    4.290   24.4128
    4.320   21.6640
    4.350   20.1896
    4.380   19.2628
    4.410   18.3992
    4.440   15.9663
    4.470   15.3344
    4.500   14.4392
    4.530   14.0179
    4.560   13.6704
    4.590   12.7436
    4.620   12.7751
    4.650   12.4697
    4.680   11.7325
    4.710   11.1848
    4.740   11.6377
    4.770   11.0795
    4.800   11.0900
    4.830   10.6898
    4.860   10.5108
    4.890   10.7952
    4.920   10.4476
    4.950   10.2791
    4.980    9.8157
    5.010   10.6793
    5.040   11.1532
    5.070   10.6056
    5.100   10.0263
    5.130   10.2054
    5.160   10.1001
    5.190   10.0158
    5.220   10.0474
    5.250   10.2054
    5.280    9.5524
    5.310   10.1527
    5.340   10.1316
    5.370   10.0685
    5.400    9.9105
    5.430   10.1001
    5.460    9.5313
    5.490    9.6577
    5.520    9.3734
    5.550    9.1943
    5.580    9.6893
    5.610    9.3207
    5.640    9.7314
    5.670    8.8152
    5.700    9.2575
    5.730    9.5313
    5.760    9.5840
    5.790    9.2680
    5.820    9.6051
    5.850    9.6788
    5.880    9.4471
    5.910    8.7520
    5.940    9.1417
    5.970    9.4787
    6.000    9.4471
    6.030    9.1101
    6.060    9.3207
    6.090    9.8052
    6.120    9.1417
    6.150    9.4997
    6.180    9.3734
    6.210    8.9626
    6.240    9.6367
    6.270    9.5945
    6.300    9.5419
    6.330    9.4576
    6.360    9.9526
    6.390    9.6261
    6.420    9.5419
    6.450   10.1843
    6.480    9.2891
    6.510   10.1843
    6.540   10.4371
    6.570   10.1316
    6.600    9.8578
    6.630   10.4687
    6.660   10.6161
    6.690   11.1006
    6.720   11.9747
    6.750   11.7641
    6.780   12.7646
    6.810   12.6804
    6.840   13.1122
    6.870   13.5861
    6.900   14.6288
    6.930   15.2923
    6.960   15.3976
    6.990   15.7873
    7.020   14.3549
    7.050   13.9442
    7.080   13.0068
    7.110   11.7325
    7.140   11.3639
    7.170   11.1848
    7.200   10.2896
    7.230   10.2791
    7.260    9.8999
    7.290   10.0474
    7.320    9.6893
    7.350    9.9526
    7.380   10.5529
    7.410   10.0790
    7.440    9.6472
    7.470   10.6056
    7.500   10.0474
    7.530   10.7530
    7.560   10.2686
    7.590   10.4160
    7.620    9.8473
    7.650   10.2686
    7.680   10.3318
    7.710   11.0058
    7.740   11.0479
    7.770   10.4581
    7.800   11.0269
    7.830   10.5424
    7.860   10.7530
    7.890   11.2480
    7.920   11.1848
    7.950   11.2375
    7.980   10.8373
    8.010   11.3744
    8.040   11.3217
    8.070   11.0690
    8.100   11.5008
    8.130   11.6166
    8.160   11.1427
    8.190   11.7325
    8.220   11.3217
    8.250   11.9431
    8.280   12.0484
    8.310   11.0585
    8.340   12.0274
    8.370   10.9531
    8.400   11.6904
    8.430   11.4587
    8.460   11.2586
    8.490   11.2059
    8.520   11.1322
    8.550   10.7320
    8.580   10.9847
    8.610   10.7214
    8.640   10.8268
    8.670    9.9842
    8.700   10.5108
    8.730   10.4687
    8.760   10.2791
    8.790   10.0369
    8.820   10.7636
    8.850   10.2896
    8.880    9.9631
    8.910    9.8789
    8.940    9.5735
    8.970    9.6998
    9.000    9.8368
    9.030   10.0474
    9.060    9.6998
    9.090    9.4681
    9.120    9.8684
    9.150    9.6998
    9.180    9.8052
    9.210   10.0790
    9.240    9.5629
    9.270    9.5945
    9.300    9.3312
    9.330    9.4050
    9.360    9.4050
    9.390    9.7420
    9.420    9.6367
    9.450    9.4365
    9.480    9.8052
    9.510    9.5629
    9.540    9.3734
    9.570    9.2259
    9.600    9.8368
    9.630    9.2996
    9.660    9.4681
    9.690    9.9315
    9.720    9.3839
    9.750    9.1838
    9.780    9.0995
    9.810    9.6156
    9.840    9.7420
    9.870    9.4576
    9.900    9.6893
    9.930    9.5419
    9.960    9.2364
    9.990    9.3628
   10.020    9.7420
   10.050    9.3523
   10.080    9.2575
   10.110    9.9421
   10.140    9.5419
   10.170    9.0890
   10.200    9.1101
   10.230    9.3102
   10.260    9.1522
   10.290    9.4681
   10.320    9.4050
   10.350    9.3523
   10.380    9.6893
   10.410    9.8578
   10.440    9.6156
   10.470    9.6156
   10.500    9.6682
   10.530    9.4155
   10.560    9.6788
   10.590    9.4681
   10.620    9.5629
   10.650    9.7946
   10.680    9.8262
   10.710    9.5840
   10.740    9.5735
   10.770    9.6577
   10.800    9.2996
   10.830    9.3312
   10.860    9.5735
   10.890    9.7209
   10.920    9.3312
   10.950    8.9415
   10.980    9.1417
   11.010    9.3207
   11.040    9.1627
   11.070    9.3207
   11.100    9.2786
   11.130    9.5103
   11.160    9.5103
   11.190    9.2364
   11.220    9.3523
   11.250    9.1311
   11.280    9.2259
   11.310    9.3207
   11.340    9.3628
   11.370    8.9310
   11.400    8.7098
   11.430    9.0469
   11.460    9.2470
   11.490    9.2786
   11.520    9.2364
   11.550    9.4997
   11.580    9.0679
   11.610    9.1101
   11.640    9.2680
   11.670    8.9521
   11.700    9.4155
   11.730    9.3312
   11.760    8.8994
   11.790    8.8152
   11.820    9.4260
   11.850    9.4155
   11.880    9.0890
   11.910    8.9205
   11.940    9.1943
   11.970    8.9942
   12.000    8.9205
   12.030    8.6467
   12.060    9.7209
   12.090    9.1101
   12.120    9.2891
   12.150    9.2364
   12.180    9.3312
   12.210    8.4887
   12.240    9.3628
   12.270    8.6467
   12.300    8.8994
   12.330    9.2470
   12.360    9.3628
   12.390    9.0047
   12.420    9.1522
   12.450    9.1522
   12.480    9.1522
   12.510    9.6261
   12.540    9.0890
   12.570    9.2575
   12.600    9.1943
   12.630    9.0469
   12.660    9.2048
   12.690    8.6256
   12.720    8.9415
   12.750    9.1732
   12.780    8.8678
   12.810    9.1101
   12.840    8.8152
   12.870    8.8573
   12.900    9.0047
   12.930    8.8152
   12.960    8.6888
   12.990    8.6361
   13.020    9.2680
   13.050    8.7309
   13.080    9.2470
   13.110    8.4676
   13.140    9.3312
   13.170    9.4050
   13.200    8.6572
   13.230    9.3312
   13.260    8.5729
   13.290    8.6467
   13.320    9.0679
   13.350    8.9521
   13.380    9.0469
   13.410    8.6888
   13.440    8.9626
   13.470    9.2364
   13.500    9.3312
   13.530    8.9521
   13.560    8.3518
   13.590    8.6993
   13.620    8.9942
   13.650    8.4571
   13.680    8.5308
   13.710    9.0363
   13.740    8.8468
   13.770    9.1101
   13.800    8.4781
   13.830    8.8152
   13.860    8.9731
   13.890    9.1311
   13.920    9.0469
   13.950    8.9942
   13.980    8.3096
   14.010    8.5835
   14.040    9.1417
   14.070    8.3412
   14.100    8.8152
   14.130    8.6888
   14.160    8.7520
   14.190    8.8152
   14.220    8.7414
   14.250    8.6256
   14.280    9.1838
   14.310    8.7414
   14.340    8.4466
   14.370    8.6572
   14.400    8.4571
   14.430    8.7625
   14.460    8.8362
   14.490    8.7625
   14.520    8.6151
   14.550    8.8889
   14.580    9.0469
   14.610    9.0258
   14.640    8.4676
   14.670    8.3834
   14.700    8.4571
   14.730    8.8362
   14.760    8.8362
   14.790    8.5097
   14.820    8.3939
   14.850    8.6677
   14.880    8.8152
   14.910    8.2464
   14.940    8.6467
   14.970    8.8784
   15.000    8.9310
   15.030    8.4360
   15.060    8.9100
   15.090    9.2891
   15.120    8.2570
   15.150    8.5413
   15.180    8.5413
   15.210    8.9731
   15.240    8.6256
   15.270    8.5835
   15.300    8.5097
   15.330    8.9100
   15.360    8.5097
   15.390    8.6888
   15.420    8.6467
   15.450    8.5729
   15.480    8.2886
   15.510    8.2570
   15.540    8.7098
   15.570    8.9626
   15.600    8.4255
   15.630    8.1517
   15.660    8.5729
   15.690    8.8678
   15.720    8.4255
   15.750    9.1206
   15.780    8.7941
   15.810    8.7309
   15.840    8.3202
   15.870    8.8362
   15.900    8.6572
   15.930    8.7309
   15.960    8.4887
   15.990    8.5413
   16.020    8.5308
   16.050    8.7098
   16.080    8.4887
   16.110    8.6572
   16.140    8.8468
   16.170    8.4781
   16.200    8.8257
   16.230    8.3307
   16.260    8.6993
   16.290    8.8152
   16.320    8.3096
   16.350    9.0574
   16.380    8.7625
   16.410    8.3518
   16.440    8.3623
   16.470    9.1732
   16.500    8.4781
   16.530    8.7941
   16.560    8.6677
   16.590    8.1938
   16.620    8.5097
   16.650    8.6888
   16.680    9.2996
   16.710    8.4044
   16.740    8.0885
   16.770    8.4466
   16.800    8.3518
   16.830    8.5519
   16.860    8.4992
   16.890    8.5940
   16.920    8.8046
   16.950    8.6151
   16.980    8.6572
   17.010    9.0258
   17.040    8.3096
   17.070    8.5519
   17.100    8.7730
   17.130    8.9310
   17.160    8.8573
   17.190    8.9415
   17.220    8.4676
   17.250    8.9521
   17.280    8.4044
   17.310    8.9205
   17.340    8.4887
   17.370    8.3623
   17.400    8.4992
   17.430    9.1943
   17.460    9.0890
   17.490    9.0153
   17.520    8.8046
   17.550    8.4466
   17.580    8.9626
   17.610    8.4676
   17.640    9.2891
   17.670    8.2359
   17.700    8.6888
   17.730    8.8046
   17.760    8.4360
   17.790    9.2996
   17.820    8.5624
   17.850    8.9521
   17.880    8.8994
   17.910    8.5729
   17.940    8.2043
   17.970    8.4150
   18.000    8.9626
   18.030    8.4887
   18.060    8.4992
   18.090    8.8994
   18.120    8.4150
   18.150    9.0890
   18.180    8.4676
   18.210    8.7204
   18.240    8.8889
   18.270    8.7204
   18.300    9.0995
   18.330    8.7204
   18.360    8.6361
   18.390    8.6993
   18.420    8.6256
   18.450    8.6361
   18.480    8.9942
   18.510    9.0785
   18.540    8.5308
   18.570    8.7309
   18.600    8.1938
   18.630    8.6467
   18.660    8.4150
   18.690    8.6361
   18.720    9.1838
   18.750    9.3523
   18.780    8.7625
   18.810    8.8889
   18.840    8.6993
   18.870    8.7520
   18.900    8.6783
   18.930    8.8152
   18.960    8.6888
   18.990    8.5729
   19.020    8.6993
   19.050    8.9731
   19.080    8.7941
   19.110    9.0679
   19.140    8.7098
   19.170    8.3412
   19.200    8.4781
   19.230    8.8573
   19.260    9.2259
   19.290    8.5097
   19.320    8.5729
   19.350    8.7309
   19.380    9.2786
   19.410    9.0153
   19.440    9.4787
   19.470    8.9521
   19.500    8.7098
   19.530    8.9415
   19.560    8.9731
   19.590    9.0153
   19.620    9.0574
   19.650    8.9205
   19.680    9.2259
   19.710    9.1732
   19.740    9.0785
   19.770    8.9626
   19.800    9.0363
   19.830    8.9100
   19.860    9.3734
   19.890    8.7941
   19.920    8.8468
   19.950    9.7946
   19.980    9.0363
   20.010    9.3418
   20.040    8.8994
   20.070    9.1417
   20.100    9.3102
   20.130    9.4471
   20.160    8.9415
   20.190    9.2259
   20.220    8.8468
   20.250    9.6577
   20.280    9.0785
   20.310    9.8157
   20.340    9.1838
   20.370    9.4681
   20.400    9.0574
   20.430    9.4892
   20.460    9.4155
   20.490    9.3207
   20.520    9.0258
   20.550    9.0890
   20.580    8.9837
   20.610    9.1943
   20.640    9.1838
   20.670    9.3944
   20.700    8.9626
   20.730    9.4892
   20.760    8.9731
   20.790    9.0785
   20.820    8.9310
   20.850    9.2364
   20.880    8.9100
   20.910    9.0679
   20.940    8.9415
   20.970    9.5103
   21.000    8.9942
   21.030    8.9626
   21.060    9.1417
   21.090    9.2470
   21.120    9.1206
   21.150    9.1627
   21.180    9.0363
   21.210    9.2891
   21.240    8.8678
   21.270    9.2048
   21.300    9.6051
   21.330    9.4681
   21.360    9.3839
   21.390    9.4260
   21.420    8.7098
   21.450    9.4576
   21.480    9.2891
   21.510    8.8889
   21.540    9.1627
   21.570    9.3628
   21.600    9.1522
   21.630    8.9521
   21.660    9.2048
   21.690    9.2154
   21.720    9.8262
   21.750    9.3312
   21.780    9.4787
   21.810    9.1101
   21.840    9.6472
   21.870    8.8994
   21.900    8.8784
   21.930    9.2259
   21.960    9.0785
   21.990    9.4787
   22.020    8.9415
   22.050    9.3418
   22.080    8.9942
   22.110    9.0679
   22.140    8.8573
   22.170    8.6783
   22.200    9.0574
   22.230    9.3734
   22.260    9.1101
   22.290    9.2048
   22.320    9.4050
   22.350    9.0995
   22.380   10.0579
   22.410    9.2786
   22.440    9.3839
   22.470    9.3839
   22.500    9.4892
   22.530    9.7209
   22.560    9.3839
   22.590    9.0153
   22.620    9.4681
   22.650    9.0363
   22.680    9.1522
   22.710    9.3944
   22.740    8.8889
   22.770    9.2259
   22.800    9.2154
   22.830    9.2786
   22.860    9.4260
   22.890    9.5735
   22.920    9.4365
   22.950    9.2680
   22.980    9.5629
   23.010    9.1627
   23.040    8.9310
   23.070    9.2575
   23.100    8.9626
   23.130    9.6156
   23.160    8.8468
   23.190    9.2154
   23.220    9.1627
   23.250    9.0047
   23.280    9.1732
   23.310    9.3944
   23.340    9.0153
   23.370    8.9837
   23.400    9.0258
   23.430    8.8889
   23.460    9.1417
   23.490    9.3312
   23.520    9.1101
   23.550    9.1311
   23.580    8.6783
   23.610    8.8889
   23.640    9.1627
   23.670    9.1522
   23.700    9.4155
   23.730    9.5103
   23.760    8.8152
   23.790    8.9415
   23.820    8.8784
   23.850    8.6256
   23.880    9.0679
   23.910    9.3734
   23.940    8.5308
   23.970    9.1206
   24.000    9.1627
   24.030    8.8362
   24.060    9.1627
   24.090    9.0785
   24.120    8.5097
   24.150    8.7836
   24.180    8.8678
   24.210    9.1732
   24.240    8.8889
   24.270    8.7836
   24.300    8.9310
   24.330    9.0153
   24.360    8.9731
   24.390    9.2680
   24.420    8.7730
   24.450    8.9731
   24.480    8.8046
   24.510    8.8784
   24.540    8.9837
   24.570    8.8257
   24.600    8.6888
   24.630    8.7098
   24.660    9.4365
   24.690    8.8573
   24.720    8.8784
   24.750    8.6572
   24.780    8.8784
   24.810    9.0363
   24.840    8.7836
   24.870    8.9205
   24.900    8.8362
   24.930    8.6151
   24.960    8.9942
   24.990    9.3207
   25.020    8.6677
   25.050    8.8889
   25.080    8.7625
   25.110    9.0258
   25.140    8.7625
   25.170    8.4150
   25.200    8.4466
   25.230    8.6783
   25.260    8.3623
   25.290    8.4676
   25.320    8.4360
   25.350    8.1833
   25.380    9.1206
   25.410    8.9415
   25.440    8.4255
   25.470    8.6256
   25.500    8.5413
   25.530    8.2359
   25.560    8.7204
   25.590    8.5413
   25.620    8.8573
   25.650    8.6151
   25.680    8.7204
   25.710    8.9626
   25.740    8.3202
   25.770    8.7625
   25.800    8.8468
   25.830    8.4992
   25.860    8.6888
   25.890    8.7098
   25.920    8.4150
   25.950    8.7098
   25.980    8.6256
   26.010    8.9205
   26.040    8.7730
   26.070    8.6151
   26.100    8.5729
   26.130    8.8994
   26.160    8.2254
   26.190    8.7625
   26.220    8.6467
   26.250    8.0569
   26.280    8.4044
   26.310    8.5203
   26.340    8.1938
   26.370    8.2464
   26.400    8.8257
   26.430    8.5835
   26.460    8.4992
   26.490    8.7414
   26.520    8.2254
   26.550    8.5308
   26.580    8.4044
   26.610    8.4676
   26.640    8.5519
   26.670    8.7204
   26.700    8.3728
   26.730    8.3202
   26.760    8.4255
   26.790    8.4887
   26.820    8.2991
   26.850    8.6467
   26.880    8.3412
   26.910    8.3518
   26.940    8.3834
   26.970    8.6677
   27.000    8.3623
   27.030    8.1306
   27.060    8.2886
   27.090    8.5940
   27.120    8.7309
   27.150    8.6256
   27.180    8.5835
   27.210    8.3623
   27.240    8.5729
   27.270    8.0042
   27.300    8.7836
   27.330    8.0885
   27.360    8.4466
   27.390    8.5729
   27.420    8.5729
   27.450    8.8046
   27.480    8.4571
   27.510    8.1833
   27.540    8.4044
   27.570    8.5413
   27.600    8.3623
   27.630    7.9621
   27.660    7.9305
   27.690    8.2886
   27.720    8.5203
   27.750    8.2886
   27.780    8.5308
   27.810    8.3096
   27.840    8.4044
   27.870    8.3307
   27.900    8.4571
   27.930    8.0674
   27.960    8.3518
   27.990    8.1306
   28.020    8.5519
   28.050    8.4571
   28.080    7.9410
   28.110    8.3518
   28.140    8.5203
   28.170    8.5729
   28.200    8.6361
   28.230    8.9205
   28.260    8.4676
   28.290    8.5940
   28.320    8.1517
   28.350    8.3307
   28.380    8.4044
   28.410    8.2991
   28.440    8.2780
   28.470    8.3307
   28.500    7.8884
   28.530    8.5835
   28.560    8.4992
   28.590    8.1622
   28.620    8.0990
   28.650    8.2043
   28.680    8.1622
   28.710    7.9937
   28.740    7.8989
   28.770    8.4255
   28.800    8.2149
   28.830    7.8568
   28.860    8.1833
   28.890    8.3202
   28.920    8.5308
   28.950    8.1411
   28.980    8.1727
   29.010    8.0463
   29.040    7.8989
   29.070    8.0885
   29.100    7.8146
   29.130    8.3202
   29.160    8.0779
   29.190    7.7830
   29.220    8.3307
   29.250    8.0042
   29.280    8.6467
   29.310    8.5835
   29.340    8.5413
   29.370    8.2886
   29.400    8.2991
   29.430    8.2886
   29.460    8.1727
   29.490    8.2149
   29.520    8.2149
   29.550    7.9726
   29.580    8.2359
   29.610    7.9621
   29.640    8.1938
   29.670    8.1306
   29.700    7.9516
   29.730    8.1517
   29.760    8.2675
   29.790    7.7409
   29.820    8.2043
   29.850    8.1306
   29.880    7.8673
   29.910    8.0463
   29.940    7.8252
   29.970    7.9305
   30.000    8.1201
   30.030    7.9200
   30.060    8.3096
   30.090    8.7309
   30.120    8.1938
   30.150    7.8673
   30.180    8.2043
   30.210    8.0463
   30.240    8.1306
   30.270    7.9200
   30.300    8.1727
   30.330    7.8252
   30.360    8.2254
   30.390    8.3307
   30.420    8.0042
   30.450    8.0779
   30.480    7.8462
   30.510    8.2464
   30.540    7.9200
   30.570    7.9726
   30.600    7.7514
   30.630    7.9410
   30.660    7.9726
   30.690    7.9200
   30.720    7.6883
   30.750    7.7409
   30.780    8.0253
   30.810    8.5097
   30.840    7.9305
   30.870    7.7093
   30.900    7.9516
   30.930    8.3728
   30.960    7.6988
   30.990    7.9621
   31.020    8.2149
   31.050    7.7514
   31.080    8.3834
   31.110    8.5940
   31.140    7.9516
   31.170    7.9937
   31.200    8.1306
   31.230    7.9516
   31.260    7.8778
   31.290    8.1938
   31.320    7.8357
   31.350    7.5092
   31.380    7.7830
   31.410    7.8884
   31.440    7.6461
   31.470    8.6361
   31.500    8.0990
   31.530    7.4566
   31.560    7.8673
   31.590    8.0569
   31.620    7.8146
   31.650    7.8884
   31.680    8.2991
   31.710    7.9726
   31.740    8.2991
   31.770    8.0463
   31.800    7.7409
   31.830    7.9094
   31.860    8.1306
   31.890    7.4987
   31.920    7.8568
   31.950    8.0358
   31.980    8.1517
   32.010    8.1201
   32.040    7.7725
   32.070    7.6567
   32.100    8.4571
   32.130    8.3518
   32.160    8.0358
   32.190    7.8778
   32.220    8.1411
   32.250    7.8778
   32.280    7.8462
   32.310    7.4987
   32.340    7.5513
   32.370    8.0569
   32.400    7.9200
   32.430    7.7514
   32.460    8.1517
   32.490    8.0463
   32.520    7.8357
   32.550    7.6777
   32.580    8.0147
   32.610    8.1938
   32.640    7.8989
   32.670    7.6777
   32.700    7.7936
   32.730    7.6145
   32.760    7.5935
   32.790    7.4250
   32.820    8.0463
   32.850    7.7620
   32.880    7.5513
   32.910    7.9621
   32.940    8.0042
   32.970    7.4776
   33.000    7.8462
   33.030    7.3618
   33.060    7.2775
   33.090    7.9831
   33.120    8.2886
   33.150    7.5724
   33.180    7.8673
   33.210    7.7725
   33.240    7.5197
   33.270    7.9621
   33.300    7.5408
   33.330    7.8462
   33.360    7.1511
   33.390    7.4144
   33.420    7.6356
   33.450    7.5303
   33.480    7.8041
   33.510    7.4460
   33.540    7.6461
   33.570    7.8568
   33.600    7.5197
   33.630    7.2986
   33.660    7.7409
   33.690    7.6356
   33.720    7.7936
   33.750    7.7093
   33.780    7.3828
   33.810    7.6883
   33.840    7.7199
   33.870    8.0674
   33.900    7.9621
   33.930    7.7304
   33.960    7.5092
   33.990    7.9516
   34.020    8.0463
   34.050    7.8568
   34.080    7.4039
   34.110    7.4355
   34.140    7.9094
   34.170    8.0042
   34.200    8.3518
   34.230    7.6777
   34.260    8.0463
   34.290    7.8568
   34.320    7.5408
   34.350    7.8673
   34.380    7.5092
   34.410    7.7514
   34.440    7.8041
   34.470    7.2670
   34.500    7.6040
   34.530    7.7830
   34.560    7.6251
   34.590    7.5197
   34.620    7.6883
   34.650    7.6040
   34.680    7.6883
   34.710    7.6777
   34.740    7.6567
   34.770    7.7514
   34.800    7.6356
   34.830    7.4250
   34.860    7.8778
   34.890    7.4355
   34.920    7.9831
   34.950    7.6672
   34.980    8.0147
   35.010    7.4355
   35.040    7.4250
   35.070    7.9937
   35.100    7.6883
   35.130    7.7304
   35.160    7.5724
   35.190    7.7936
   35.220    7.4776
   35.250    7.2459
   35.280    7.5092
   35.310    7.6672
   35.340    7.8884
   35.370    7.4355
   35.400    7.7830
   35.430    7.7725
   35.460    7.2565
   35.490    7.9937
   35.520    7.4987
   35.550    7.6567
   35.580    7.8252
   35.610    7.5197
   35.640    7.6988
   35.670    7.9516
   35.700    7.6567
   35.730    7.6251
   35.760    7.8989
   35.790    7.6988
   35.820    7.4566
   35.850    7.4250
   35.880    7.9831
   35.910    7.1511
   35.940    7.5197
   35.970    7.5619
   36.000    7.7304
   36.030    8.1095
   36.060    7.9305
   36.090    7.4882
   36.120    7.7093
   36.150    7.3512
   36.180    7.6461
   36.210    7.5724
   36.240    7.5935
   36.270    7.0985
   36.300    7.3196
   36.330    7.6672
   36.360    7.8462
   36.390    8.2149
   36.420    7.4882
   36.450    7.2459
   36.480    7.8252
   36.510    7.6672
   36.540    7.2565
   36.570    7.9410
   36.600    7.5619
   36.630    7.3723
   36.660    7.3934
   36.690    7.5935
   36.720    7.5408
   36.750    7.5197
   36.780    7.2670
   36.810    7.4882
   36.840    7.5197
   36.870    7.4460
   36.900    7.3512
   36.930    7.6988
   36.960    7.2565
   36.990    7.5303
   37.020    7.4039
   37.050    7.1827
   37.080    7.4039
   37.110    7.3091
   37.140    7.2565
   37.170    7.8252
   37.200    7.6145
   37.230    7.2880
   37.260    7.9726
   37.290    7.4460
   37.320    7.5092
   37.350    7.2880
   37.380    7.5092
   37.410    7.6251
   37.440    7.6988
   37.470    7.4987
   37.500    7.6251
   37.530    7.6145
   37.560    7.3512
   37.590    7.3828
   37.620    7.3618
   37.650    7.5092
   37.680    7.6567
   37.710    7.3934
   37.740    7.3091
   37.770    7.4144
   37.800    7.9410
   37.830    7.6567
   37.860    7.6145
   37.890    7.4671
   37.920    7.3407
   37.950    7.1406
   37.980    7.5197
   38.010    7.3302
   38.040    7.6461
   38.070    7.2565
   38.100    7.4460
   38.130    7.2775
   38.160    7.4039
   38.190    7.4882
   38.220    7.7199
   38.250    7.3407
   38.280    7.1827
   38.310    7.0879
   38.340    7.1406
   38.370    7.6672
   38.400    7.4987
   38.430    6.9616
   38.460    7.6356
   38.490    7.7725
   38.520    8.0569
   38.550    7.3091
   38.580    8.0885
   38.610    7.4355
   38.640    7.9726
   38.670    7.5303
   38.700    7.3934
   38.730    7.5197
   38.760    7.3407
   38.790    7.3302
   38.820    7.1195
   38.850    7.3723
   38.880    7.4776
   38.910    7.6672
   38.940    7.3512
   38.970    7.6040
   39.000    7.0774
   39.030    7.4566
   39.060    7.5513
   39.090    7.5619
   39.120    7.5513
   39.150    7.6356
   39.180    7.3512
   39.210    7.9726
   39.240    7.1827
   39.270    7.3723
   39.300    7.5619
   39.330    6.7509
   39.360    7.3302
   39.390    7.4355
   39.420    7.5303
   39.450    6.9510
   39.480    7.3723
   39.510    7.4250
   39.540    8.0990
   39.570    7.8989
   39.600    7.8462
   39.630    7.1511
   39.660    7.6145
   39.690    7.3618
   39.720    7.4144
   39.750    7.0037
   39.780    7.2143
   39.810    7.6251
   39.840    7.4460
   39.870    7.3407
   39.900    7.3407
   39.930    7.0774
   39.960    7.3934
   39.990    6.9300