File: data/MOCOF-1/PXRD/PXRD_KE-009_Cu-Ka1_capillary-1mm_5s-deg.xyd
    1.500   40.8110
    1.530   40.5055
    1.560   38.9679
    1.590   38.9679
    1.620   37.1037
    1.650   35.6082
    1.680   33.9442
    1.710   34.1548
    1.740   31.6482
    1.770   30.9847
    1.800   29.7736
    1.830   29.8262
    1.860   27.8041
    1.890   26.3086
    1.920   26.4139
    1.950   25.0026
    1.980   24.5076
    2.010   24.7815
    2.040   24.0864
    2.070   23.2859
    2.100   23.0226
    2.130   21.6219
    2.160   21.5271
    2.190   20.5687
    2.220   20.7583
    2.250   20.0948
    2.280   20.2422
    2.310   19.6630
    2.340   18.8204
    2.370   19.2417
    2.400   18.2096
    2.430   18.2412
    2.460   17.8515
    2.490   17.1985
    2.520   17.0721
    2.550   16.7351
    2.580   16.8931
    2.610   16.7351
    2.640   16.3033
    2.670   15.5977
    2.700   14.8078
    2.730   15.9136
    2.760   15.3870
    2.790   14.6814
    2.820   14.5024
    2.850   14.6603
    2.880   13.8599
    2.910   13.5650
    2.940   14.2285
    2.970   14.0390
    3.000   13.7230
    3.030   13.7967
    3.060   13.4071
    3.090   13.2280
    3.120   13.3649
    3.150   13.0174
    3.180   12.5961
    3.210   12.0695
    3.240   12.5645
    3.270   12.5434
    3.300   11.7536
    3.330   11.8167
    3.360   12.1327
    3.390   12.3012
    3.420   11.9010
    3.450   11.8062
    3.480   11.6377
    3.510   11.4376
    3.540   11.3112
    3.570   11.3744
    3.600   11.0585
    3.630   11.5113
    3.660   10.9215
    3.690   10.8794
    3.720   10.9426
    3.750   10.9110
    3.780   10.4581
    3.810   11.1427
    3.840   10.5213
    3.870   10.6161
    3.900   10.4897
    3.930   10.7214
    3.960   10.0685
    3.990   10.7846
    4.020   10.1738
    4.050   10.0790
    4.080    9.9737
    4.110    9.7946
    4.140   10.3528
    4.170   10.5529
    4.200    9.5735
    4.230   10.5108
    4.260    9.9105
    4.290   10.5213
    4.320   10.0474
    4.350    9.9210
    4.380   10.0158
    4.410    9.6051
    4.440    9.8999
    4.470    9.5735
    4.500    9.5524
    4.530    9.3628
    4.560    9.9737
    4.590    9.6472
    4.620    9.3523
    4.650    8.9942
    4.680    9.5313
    4.710    9.1838
    4.740    9.2470
    4.770    9.0890
    4.800    8.9415
    4.830    9.0679
    4.860    9.0363
    4.890    9.4787
    4.920    8.9205
    4.950    9.2470
    4.980    8.9731
    5.010    8.7730
    5.040    9.4365
    5.070    9.4471
    5.100    9.2364
    5.130    8.7625
    5.160    8.6888
    5.190    8.9310
    5.220    8.6467
    5.250    8.6888
    5.280    9.4997
    5.310    8.4992
    5.340    8.9942
    5.370    9.5419
    5.400    8.4781
    5.430    8.5624
    5.460    8.8257
    5.490    8.8152
    5.520    8.8468
    5.550    8.7625
    5.580    8.6467
    5.610    9.0890
    5.640    8.6888
    5.670    8.9942
    5.700    8.9415
    5.730    9.1206
    5.760    8.5308
    5.790    8.9415
    5.820    9.0469
    5.850    8.8994
    5.880    8.4676
    5.910    8.5413
    5.940    8.9205
    5.970    8.5519
    6.000    8.9100
    6.030    8.5624
    6.060    8.9100
    6.090    8.6572
    6.120    8.7414
    6.150    8.4887
    6.180    8.7941
    6.210    8.8046
    6.240    8.4466
    6.270    8.6045
    6.300    8.4150
    6.330    8.7836
    6.360    8.2780
    6.390    8.6256
    6.420    8.4255
    6.450    8.0147
    6.480    8.4044
    6.510    8.5203
    6.540    8.6993
    6.570    8.6361
    6.600    8.3728
    6.630    8.7098
    6.660    8.5835
    6.690    8.7204
    6.720    8.6677
    6.750    8.5940
    6.780    8.3939
    6.810    8.4150
    6.840    8.2464
    6.870    8.3939
    6.900    8.5940
    6.930    8.6677
    6.960    8.4781
    6.990    8.3096
    7.020    8.6151
    7.050    8.5203
    7.080    8.5413
    7.110    8.7309
    7.140    8.4044
    7.170    8.4676
    7.200    8.5729
    7.230    8.5097
    7.260    8.5835
    7.290    9.2154
    7.320    8.1833
    7.350    8.5519
    7.380    8.4992
    7.410    8.5097
    7.440    8.6256
    7.470    8.6045
    7.500    8.2780
    7.530    8.2149
    7.560    8.4571
    7.590    8.0674
    7.620    8.3202
    7.650    8.6572
    7.680    8.6361
    7.710    8.7098
    7.740    8.9942
    7.770    8.5519
    7.800    8.9626
    7.830    8.7204
    7.860    8.8994
    7.890    8.5624
    7.920    9.0574
    7.950    8.9837
    7.980    8.2570
    8.010    8.8994
    8.040    9.0258
    8.070    8.7836
    8.100    8.8784
    8.130    8.7414
    8.160    8.4676
    8.190    9.0258
    8.220    9.0574
    8.250    8.9415
    8.280    8.6572
    8.310    8.5729
    8.340    8.5835
    8.370    9.3102
    8.400    9.3418
    8.430    8.8994
    8.460    8.6572
    8.490    8.8784
    8.520    8.5940
    8.550    8.8889
    8.580    8.9415
    8.610    8.8678
    8.640    8.9415
    8.670    9.2154
    8.700    8.2991
    8.730    9.3207
    8.760    8.6783
    8.790    9.1732
    8.820    9.0995
    8.850    8.8046
    8.880    9.0574
    8.910    9.1732
    8.940    9.3839
    8.970    8.8784
    9.000    8.4466
    9.030    8.9521
    9.060    8.8573
    9.090    8.5097
    9.120    9.0258
    9.150    9.2786
    9.180    9.3207
    9.210    9.1838
    9.240    9.1838
    9.270    9.2470
    9.300    8.3518
    9.330    9.1943
    9.360    9.2259
    9.390    9.3628
    9.420    9.0995
    9.450    9.2786
    9.480    8.6677
    9.510    8.8678
    9.540    9.0469
    9.570    9.0890
    9.600    9.1943
    9.630    9.1732
    9.660    9.0153
    9.690    9.0469
    9.720    9.2786
    9.750    9.0890
    9.780    9.0574
    9.810    8.9415
    9.840    9.2048
    9.870    9.1627
    9.900    9.1627
    9.930    8.8152
    9.960    9.1627
    9.990    9.0258
   10.020    8.9310
   10.050    9.0469
   10.080    8.8468
   10.110    8.8152
   10.140    9.5208
   10.170    9.0153
   10.200    8.7941
   10.230    9.0995
   10.260    9.4365
   10.290    9.4576
   10.320    8.9415
   10.350    9.0258
   10.380    8.7836
   10.410    9.3102
   10.440    8.8362
   10.470    8.7098
   10.500    8.8889
   10.530    9.0995
   10.560    9.0890
   10.590    8.8573
   10.620    8.8046
   10.650    8.3939
   10.680    9.1627
   10.710    8.9942
   10.740    8.6783
   10.770    8.9521
   10.800    9.0679
   10.830    8.4150
   10.860    9.0785
   10.890    8.9100
   10.920    8.6467
   10.950    8.6256
   10.980    8.7309
   11.010    8.6045
   11.040    8.7836
   11.070    9.2048
   11.100    8.7309
   11.130    8.8784
   11.160    8.6467
   11.190    8.7520
   11.220    8.7941
   11.250    8.9942
   11.280    8.3623
   11.310    8.8046
   11.340    8.5835
   11.370    8.5203
   11.400    8.5519
   11.430    8.5097
   11.460    8.1727
   11.490    8.1938
   11.520    8.2043
   11.550    8.8889
   11.580    8.3202
   11.610    8.4466
   11.640    8.3623
   11.670    8.2570
   11.700    8.6361
   11.730    8.4360
   11.760    8.2886
   11.790    8.2359
   11.820    8.2149
   11.850    8.4150
   11.880    8.2043
   11.910    8.5203
   11.940    8.4571
   11.970    8.2991
   12.000    8.5624
   12.030    8.2043
   12.060    8.1833
   12.090    8.3096
   12.120    8.4255
   12.150    8.5624
   12.180    8.1622
   12.210    8.3623
   12.240    8.0569
   12.270    7.8357
   12.300    7.9094
   12.330    7.6672
   12.360    7.8778
   12.390    7.9305
   12.420    7.8568
   12.450    7.8252
   12.480    8.1727
   12.510    7.9831
   12.540    8.2570
   12.570    7.9200
   12.600    7.5408
   12.630    7.7409
   12.660    7.8462
   12.690    7.6777
   12.720    7.5724
   12.750    8.1411
   12.780    7.5197
   12.810    8.0147
   12.840    7.5303
   12.870    8.0885
   12.900    7.7199
   12.930    7.9516
   12.960    7.9726
   12.990    7.4776
   13.020    7.7304
   13.050    7.9410
   13.080    7.5513
   13.110    7.7199
   13.140    7.2565
   13.170    7.9831
   13.200    7.9200
   13.230    8.2464
   13.260    7.7514
   13.290    8.0253
   13.320    7.5935
   13.350    8.0779
   13.380    7.4987
   13.410    7.9200
   13.440    7.6567
   13.470    7.8673
   13.500    8.1306
   13.530    7.8041
   13.560    7.4460
   13.590    7.5513
   13.620    7.6567
   13.650    7.7620
   13.680    8.1201
   13.710    7.6777
   13.740    7.5829
   13.770    7.7936
   13.800    7.4355
   13.830    7.2986
   13.860    7.7620
   13.890    7.5092
   13.920    7.6251
   13.950    7.4039
   13.980    7.7936
   14.010    7.9621
   14.040    7.3512
   14.070    7.3302
   14.100    7.8041
   14.130    7.7304
   14.160    7.6672
   14.190    7.3091
   14.220    7.6777
   14.250    7.3196
   14.280    7.6356
   14.310    7.4987
   14.340    7.5619
   14.370    7.4039
   14.400    8.1201
   14.430    7.6356
   14.460    7.5303
   14.490    7.9200
   14.520    7.7093
   14.550    7.8041
   14.580    7.3723
   14.610    7.6040
   14.640    7.9516
   14.670    7.2354
   14.700    7.7620
   14.730    7.6672
   14.760    7.7620
   14.790    7.4566
   14.820    7.2670
   14.850    7.7936
   14.880    7.0248
   14.910    7.7725
   14.940    7.6988
   14.970    7.4566
   15.000    7.4250
   15.030    7.2038
   15.060    7.5619
   15.090    7.6883
   15.120    7.5197
   15.150    7.5303
   15.180    7.7936
   15.210    7.3407
   15.240    8.0253
   15.270    7.6883
   15.300    7.8041
   15.330    7.6145
   15.360    7.3196
   15.390    7.3828
   15.420    7.8041
   15.450    7.5513
   15.480    7.8989
   15.510    7.8673
   15.540    7.6040
   15.570    7.5092
   15.600    7.4671
   15.630    7.8357
   15.660    7.7830
   15.690    6.8773
   15.720    7.5513
   15.750    7.4250
   15.780    7.5408
   15.810    7.4144
   15.840    7.6040
   15.870    7.4355
   15.900    7.9726
   15.930    7.6251
   15.960    7.6883
   15.990    7.7304
   16.020    7.8041
   16.050    7.7725
   16.080    7.5303
   16.110    7.6251
   16.140    8.0358
   16.170    7.6145
   16.200    7.4776
   16.230    8.2464
   16.260    7.6988
   16.290    7.8252
   16.320    7.4987
   16.350    7.8778
   16.380    7.2249
   16.410    7.8462
   16.440    7.3407
   16.470    7.6040
   16.500    7.4882
   16.530    7.5408
   16.560    7.6567
   16.590    7.4671
   16.620    7.6988
   16.650    7.1933
   16.680    7.9831
   16.710    7.5513
   16.740    8.1306
   16.770    7.4566
   16.800    7.0037
   16.830    7.7725
   16.860    7.7936
   16.890    7.6777
   16.920    7.4039
   16.950    7.7936
   16.980    7.6883
   17.010    7.8041
   17.040    8.0147
   17.070    7.8357
   17.100    7.5619
   17.130    7.7093
   17.160    7.4987
   17.190    7.5092
   17.220    7.6040
   17.250    7.7514
   17.280    7.4987
   17.310    7.6988
   17.340    7.6777
   17.370    7.7830
   17.400    7.8778
   17.430    7.8146
   17.460    7.2459
   17.490    7.7093
   17.520    7.9831
   17.550    8.1727
   17.580    7.6883
   17.610    8.0358
   17.640    7.9726
   17.670    8.0253
   17.700    7.8568
   17.730    8.3518
   17.760    7.8673
   17.790    7.8884
   17.820    8.2675
   17.850    8.2359
   17.880    8.5097
   17.910    8.4466
   17.940    8.5308
   17.970    9.2048
   18.000    9.3207
   18.030    9.2891
   18.060    9.4997
   18.090    9.3839
   18.120    8.3728
   18.150    8.0674
   18.180    8.1833
   18.210    8.2886
   18.240    7.9410
   18.270    8.0674
   18.300    7.8462
   18.330    7.5513
   18.360    7.9516
   18.390    7.5197
   18.420    7.6777
   18.450    8.1727
   18.480    7.6883
   18.510    7.6988
   18.540    7.6461
   18.570    7.7093
   18.600    7.4566
   18.630    8.0042
   18.660    8.0253
   18.690    8.1411
   18.720    7.4566
   18.750    7.9410
   18.780    7.5724
   18.810    7.7199
   18.840    7.5829
   18.870    8.0042
   18.900    8.0885
   18.930    8.3834
   18.960    7.6988
   18.990    7.7199
   19.020    7.6251
   19.050    8.0569
   19.080    7.7725
   19.110    7.5619
   19.140    8.1095
   19.170    7.9410
   19.200    7.5935
   19.230    7.5829
   19.260    7.4460
   19.290    8.2043
   19.320    7.6251
   19.350    7.7830
   19.380    7.7304
   19.410    7.7514
   19.440    7.3723
   19.470    7.7620
   19.500    7.7725
   19.530    7.7725
   19.560    8.0147
   19.590    7.5408
   19.620    7.9305
   19.650    7.7830
   19.680    7.8462
   19.710    7.9621
   19.740    8.0042
   19.770    7.9516
   19.800    7.9621
   19.830    7.6356
   19.860    7.4566
   19.890    8.0253
   19.920    8.0147
   19.950    7.9831
   19.980    7.9726
   20.010    7.6145
   20.040    7.8252
   20.070    7.7409
   20.100    8.0147
   20.130    8.1727
   20.160    8.0042
   20.190    7.9516
   20.220    7.8568
   20.250    7.9094
   20.280    7.9831
   20.310    7.6356
   20.340    7.9937
   20.370    8.0358
   20.400    7.6777
   20.430    7.9305
   20.460    7.4144
   20.490    7.7830
   20.520    7.6883
   20.550    7.5303
   20.580    7.9831
   20.610    8.1306
   20.640    7.9831
   20.670    7.8041
   20.700    8.0674
   20.730    7.7936
   20.760    7.9831
   20.790    7.8989
   20.820    7.7093
   20.850    7.5829
   20.880    7.6567
   20.910    7.8884
   20.940    7.7409
   20.970    7.8357
   21.000    8.1306
   21.030    8.6256
   21.060    7.6672
   21.090    7.6040
   21.120    7.8989
   21.150    7.9831
   21.180    7.8146
   21.210    7.8989
   21.240    8.1938
   21.270    8.1938
   21.300    8.1727
   21.330    7.8146
   21.360    7.8989
   21.390    8.3412
   21.420    8.2149
   21.450    8.0042
   21.480    7.6988
   21.510    8.0463
   21.540    8.3202
   21.570    8.0463
   21.600    8.1306
   21.630    7.8884
   21.660    7.9831
   21.690    7.8041
   21.720    8.3412
   21.750    8.0147
   21.780    7.9200
   21.810    8.2675
   21.840    8.2675
   21.870    7.9726
   21.900    7.9516
   21.930    8.2570
   21.960    7.8884
   21.990    7.5829
   22.020    8.1306
   22.050    8.0990
   22.080    7.9937
   22.110    7.7199
   22.140    7.6883
   22.170    7.9410
   22.200    7.6251
   22.230    8.1095
   22.260    7.9094
   22.290    7.7830
   22.320    7.9726
   22.350    8.1095
   22.380    8.0990
   22.410    8.2464
   22.440    7.8357
   22.470    8.2254
   22.500    8.0463
   22.530    7.9410
   22.560    8.0147
   22.590    7.8673
   22.620    8.3939
   22.650    7.4250
   22.680    8.4255
   22.710    8.3939
   22.740    7.8673
   22.770    8.0885
   22.800    8.0885
   22.830    8.5519
   22.860    7.8989
   22.890    7.8568
   22.920    8.1095
   22.950    8.2149
   22.980    8.1938
   23.010    8.0463
   23.040    7.8673
   23.070    7.8568
   23.100    7.5408
   23.130    7.8568
   23.160    8.1938
   23.190    8.3939
   23.220    7.9410
   23.250    7.8146
   23.280    7.9516
   23.310    7.8989
   23.340    8.1727
   23.370    8.1306
   23.400    7.8673
   23.430    7.8884
   23.460    7.8884
   23.490    8.1833
   23.520    7.8778
   23.550    7.5724
   23.580    7.8462
   23.610    7.7936
   23.640    7.6145
   23.670    7.5829
   23.700    8.1306
   23.730    8.1727
   23.760    7.6040
   23.790    8.2254
   23.820    7.5935
   23.850    7.6567
   23.880    8.0885
   23.910    7.7830
   23.940    7.9621
   23.970    7.6988
   24.000    7.9516
   24.030    7.7514
   24.060    7.7093
   24.090    7.6672
   24.120    7.7725
   24.150    7.4882
   24.180    7.9410
   24.210    7.6988
   24.240    7.8146
   24.270    8.1201
   24.300    7.8568
   24.330    8.4044
   24.360    8.0674
   24.390    8.0147
   24.420    7.7620
   24.450    7.8252
   24.480    7.6883
   24.510    7.7304
   24.540    8.2359
   24.570    7.7830
   24.600    7.9831
   24.630    7.6040
   24.660    8.0147
   24.690    7.6040
   24.720    7.5303
   24.750    7.4355
   24.780    7.7936
   24.810    7.6777
   24.840    7.6461
   24.870    7.6567
   24.900    7.4882
   24.930    7.4566
   24.960    7.7936
   24.990    7.5829
   25.020    7.4250
   25.050    7.3091
   25.080    8.0358
   25.110    7.9726
   25.140    7.3828
   25.170    7.7409
   25.200    7.7304
   25.230    7.5619
   25.260    7.8041
   25.290    7.6461
   25.320    7.4355
   25.350    8.0147
   25.380    7.3196
   25.410    7.6988
   25.440    7.3723
   25.470    7.8252
   25.500    7.4460
   25.530    7.7936
   25.560    7.6567
   25.590    7.7093
   25.620    7.1406
   25.650    7.4039
   25.680    7.4039
   25.710    7.9516
   25.740    7.9305
   25.770    7.4144
   25.800    7.8146
   25.830    7.2565
   25.860    7.5092
   25.890    7.2249
   25.920    7.8673
   25.950    7.5829
   25.980    7.8673
   26.010    7.2986
   26.040    7.0563
   26.070    7.1406
   26.100    7.6040
   26.130    7.2459
   26.160    7.6883
   26.190    7.4039
   26.220    7.5724
   26.250    7.6040
   26.280    7.8252
   26.310    7.4776
   26.340    7.3407
   26.370    7.3302
   26.400    6.9194
   26.430    6.7193
   26.460    7.2249
   26.490    7.1933
   26.520    6.6245
   26.550    7.3934
   26.580    7.8462
   26.610    7.6883
   26.640    7.6040
   26.670    7.0248
   26.700    7.2354
   26.730    7.2565
   26.760    7.4250
   26.790    7.0985
   26.820    7.3934
   26.850    7.2565
   26.880    7.7620
   26.910    7.0248
   26.940    7.2670
   26.970    7.2459
   27.000    6.9194
   27.030    6.9300
   27.060    7.2143
   27.090    7.2459
   27.120    6.8352
   27.150    7.0037
   27.180    7.1933
   27.210    7.4776
   27.240    7.1301
   27.270    6.7930
   27.300    7.0458
   27.330    6.9826
   27.360    6.9510
   27.390    7.1617
   27.420    7.1090
   27.450    7.1722
   27.480    7.4776
   27.510    6.9721
   27.540    6.9510
   27.570    7.0037
   27.600    6.8141
   27.630    6.3823
   27.660    6.8984
   27.690    6.8984
   27.720    7.1195
   27.750    6.7930
   27.780    6.9089
   27.810    6.9721
   27.840    6.9089
   27.870    6.9300
   27.900    6.4771
   27.930    7.0248
   27.960    7.0774
   27.990    7.2670
   28.020    6.9405
   28.050    6.6456
   28.080    6.9405
   28.110    6.6772
   28.140    7.0458
   28.170    7.2459
   28.200    6.9300
   28.230    6.7404
   28.260    6.4455
   28.290    7.2880
   28.320    7.0774
   28.350    6.8036
   28.380    7.1722
   28.410    6.8036
   28.440    6.8773
   28.470    6.7193
   28.500    7.0563
   28.530    6.9510
   28.560    7.0142
   28.590    6.8773
   28.620    6.3928
   28.650    6.6772
   28.680    7.1195
   28.710    7.0563
   28.740    6.6456
   28.770    6.4034
   28.800    6.6351
   28.830    6.4350
   28.860    6.7615
   28.890    6.9510
   28.920    6.7509
   28.950    6.9510
   28.980    6.5719
   29.010    6.4876
   29.040    6.7193
   29.070    6.9089
   29.100    6.8352
   29.130    6.4771
   29.160    6.6772
   29.190    6.4139
   29.220    6.6456
   29.250    6.5192
   29.280    6.8457
   29.310    6.7088
   29.340    6.8036
   29.370    6.6245
   29.400    6.4244
   29.430    6.7088
   29.460    6.6245
   29.490    6.6245
   29.520    6.4876
   29.550    6.6667
   29.580    6.6140
   29.610    6.8668
   29.640    6.5719
   29.670    6.6667
   29.700    6.7825
   29.730    6.6877
   29.760    6.7404
   29.790    6.7930
   29.820    6.4876
   29.850    6.7720
   29.880    6.6667
   29.910    6.8984
   29.940    6.4771
   29.970    6.4034
   30.000    6.7299
   30.030    6.8036
   30.060    6.5613
   30.090    6.8984
   30.120    6.7088
   30.150    6.5192
   30.180    6.4350
   30.210    6.6667
   30.240    6.7299
   30.270    6.5508
   30.300    6.4771
   30.330    6.1085
   30.360    6.3296
   30.390    6.8246
   30.420    6.5403
   30.450    6.8878
   30.480    6.4350
   30.510    6.4666
   30.540    6.4139
   30.570    6.5613
   30.600    6.6140
   30.630    6.4982
   30.660    6.3928
   30.690    6.8352
   30.720    6.3086
   30.750    6.3928
   30.780    6.2243
   30.810    6.2033
   30.840    6.3718
   30.870    6.4034
   30.900    6.2033
   30.930    6.3928
   30.960    6.2559
   30.990    6.4560
   31.020    6.1401
   31.050    6.2349
   31.080    6.4666
   31.110    6.3296
   31.140    6.8984
   31.170    6.4139
   31.200    6.3507
   31.230    6.6877
   31.260    6.3928
   31.290    6.3086
   31.320    6.2665
   31.350    6.2559
   31.380    6.3928
   31.410    6.1190
   31.440    6.3296
   31.470    6.1927
   31.500    6.7088
   31.530    6.2665
   31.560    6.2875
   31.590    6.4666
   31.620    6.6351
   31.650    6.0769
   31.680    6.2349
   31.710    6.1611
   31.740    6.2454
   31.770    6.3507
   31.800    6.1506
   31.830    5.7925
   31.860    6.0874
   31.890    6.4560
   31.920    6.2138
   31.950    6.1717
   31.980    6.0979
   32.010    6.1295
   32.040    6.3718
   32.070    6.2349
   32.100    6.2454
   32.130    6.0242
   32.160    6.0979
   32.190    6.0348
   32.220    6.1717
   32.250    6.2770
   32.280    6.1295
   32.310    6.2981
   32.340    5.9084
   32.370    6.2665
   32.400    6.1927
   32.430    6.1295
   32.460    6.1611
   32.490    6.6245
   32.520    6.0769
   32.550    5.9926
   32.580    5.9610
   32.610    5.9926
   32.640    5.5608
   32.670    5.6135
   32.700    6.0242
   32.730    6.0769
   32.760    6.2770
   32.790    5.8452
   32.820    5.6345
   32.850    5.9189
   32.880    5.8662
   32.910    6.1190
   32.940    5.8978
   32.970    5.9610
   33.000    5.9400
   33.030    6.0769
   33.060    5.9189
   33.090    6.0874
   33.120    5.6661
   33.150    5.8452
   33.180    5.8873
   33.210    5.7820
   33.240    5.9189
   33.270    6.0137
   33.300    5.8347
   33.330    5.8768
   33.360    5.8136
   33.390    5.7820
   33.420    6.0453
   33.450    6.0874
   33.480    5.6345
   33.510    5.7820
   33.540    5.9926
   33.570    6.1085
   33.600    5.9400
   33.630    5.7188
   33.660    5.7715
   33.690    6.0242
   33.720    5.9610
   33.750    5.7715
   33.780    6.3086
   33.810    6.0032
   33.840    5.6135
   33.870    6.0664
   33.900    5.7820
   33.930    5.6451
   33.960    5.8241
   33.990    5.4766
   34.020    5.7399
   34.050    6.1295
   34.080    6.1927
   34.110    5.6661
   34.140    5.9505
   34.170    6.0558
   34.200    5.6556
   34.230    5.6345
   34.260    5.7504
   34.290    5.5714
   34.320    5.4976
   34.350    5.8031
   34.380    5.7293
   34.410    5.7399
   34.440    5.7925
   34.470    5.3818
   34.500    5.4660
   34.530    5.6556
   34.560    5.7504
   34.590    5.8136
   34.620    5.5924
   34.650    5.8347
   34.680    5.6661
   34.710    5.6029
   34.740    5.7715
   34.770    5.6029
   34.800    5.6345
   34.830    5.5292
   34.860    5.9084
   34.890    5.3397
   34.920    5.4344
   34.950    5.6135
   34.980    6.0874
   35.010    5.5082
   35.040    5.3397
   35.070    5.3186
   35.100    5.1606
   35.130    6.0137
   35.160    5.6029
   35.190    5.6029
   35.220    5.4871
   35.250    5.7293
   35.280    5.8241
   35.310    5.5924
   35.340    5.7715
   35.370    5.5924
   35.400    5.7399
   35.430    5.6661
   35.460    5.6767
   35.490    5.5714
   35.520    5.6661
   35.550    5.3397
   35.580    5.3291
   35.610    5.5819
   35.640    5.3502
   35.670    5.4871
   35.700    5.5187
   35.730    5.9926
   35.760    5.7715
   35.790    5.4766
   35.820    5.8662
   35.850    6.0348
   35.880    5.5292
   35.910    5.7504
   35.940    5.7925
   35.970    5.6977
   36.000    5.6556
   36.030    5.3818
   36.060    5.3607
   36.090    5.7083
   36.120    5.3712
   36.150    5.6977
   36.180    5.3291
   36.210    5.7504
   36.240    5.2870
   36.270    5.3502
   36.300    5.4450
   36.330    5.3923
   36.360    5.7504
   36.390    5.3712
   36.420    5.7293
   36.450    5.6240
   36.480    5.4134
   36.510    5.6767
   36.540    5.6451
   36.570    5.4976
   36.600    5.4660
   36.630    5.0974
   36.660    5.3186
   36.690    5.2765
   36.720    5.8241
   36.750    5.2133
   36.780    5.4871
   36.810    5.5187
   36.840    5.3081
   36.870    5.5819
   36.900    5.4344
   36.930    5.2449
   36.960    5.6556
   36.990    5.5819
   37.020    5.1711
   37.050    5.6135
   37.080    5.2027
   37.110    5.5398
   37.140    4.9921
   37.170    5.5819
   37.200    5.4450
   37.230    5.1606
   37.260    5.3397
   37.290    5.5398
   37.320    5.7399
   37.350    5.7083
   37.380    5.6345
   37.410    5.7293
   37.440    5.4871
   37.470    5.3081
   37.500    5.4239
   37.530    5.7293
   37.560    5.2765
   37.590    5.1606
   37.620    5.2343
   37.650    5.5292
   37.680    5.5398
   37.710    5.0342
   37.740    5.4660
   37.770    5.1290
   37.800    5.6029
   37.830    5.2659
   37.860    5.7188
   37.890    5.6872
   37.920    5.6029
   37.950    5.6977
   37.980    5.3923
   38.010    5.6240
   38.040    5.4134
   38.070    5.5503
   38.100    5.1395
   38.130    5.6029
   38.160    5.5608
   38.190    5.4134
   38.220    5.2449
   38.250    5.4134
   38.280    5.1711
   38.310    5.6345
   38.340    5.5714
   38.370    5.2027
   38.400    5.4450
   38.430    5.1606
   38.460    5.3186
   38.490    5.2238
   38.520    5.0237
   38.550    5.3186
   38.580    5.5608
   38.610    5.3397
   38.640    5.3081
   38.670    5.8978
   38.700    4.8657
   38.730    5.4344
   38.760    5.5398
   38.790    5.5187
   38.820    5.2133
   38.850    5.4450
   38.880    5.1922
   38.910    5.4134
   38.940    5.0026
   38.970    5.1922
   39.000    5.1501
   39.030    5.1606
   39.060    5.5292
   39.090    5.3502
   39.120    5.1395
   39.150    5.0869
   39.180    5.5292
   39.210    5.2449
   39.240    5.4660
   39.270    5.1817
   39.300    5.6556
   39.330    5.6872
   39.360    5.2554
   39.390    5.0869
   39.420    5.2133
   39.450    5.1711
   39.480    5.1711
   39.510    5.1185
   39.540    5.7083
   39.570    5.2659
   39.600    5.0764
   39.630    5.4239
   39.660    5.3712
   39.690    4.9078
   39.720    5.3291
   39.750    5.6135
   39.780    5.2343
   39.810    5.3186
   39.840    4.9394
   39.870    5.0869
   39.900    5.2765
   39.930    5.2449
   39.960    5.4239
   39.990    5.2027