File: data/MOCOF-1/PXRD/PXRD_KE-239_Co-Ka1_film-3mm_5s-deg.xyd
    1.500    2.7608
    1.530    2.9320
    1.560    2.6645
    1.590    2.7073
    1.620    2.5468
    1.650    2.4826
    1.680    2.3435
    1.710    2.5682
    1.740    2.4933
    1.770    2.2044
    1.800    2.4612
    1.830    2.0974
    1.860    2.0653
    1.890    2.1616
    1.920    2.0546
    1.950    1.9583
    1.980    1.8727
    2.010    2.1081
    2.040    1.9369
    2.070    1.8406
    2.100    1.7871
    2.130    1.9048
    2.160    2.1188
    2.190    1.9262
    2.220    1.8727
    2.250    1.8406
    2.280    1.7978
    2.310    1.7335
    2.340    1.6051
    2.370    1.6051
    2.400    1.7014
    2.430    1.5623
    2.460    1.7121
    2.490    1.8406
    2.520    1.8085
    2.550    1.5516
    2.580    1.6586
    2.610    1.6479
    2.640    1.7657
    2.670    1.6479
    2.700    1.8192
    2.730    1.5944
    2.760    1.6586
    2.790    1.5195
    2.820    1.5623
    2.850    1.5623
    2.880    1.3911
    2.910    1.6586
    2.940    1.6800
    2.970    1.4553
    3.000    1.6158
    3.030    1.5302
    3.060    1.4125
    3.090    1.4339
    3.120    1.4981
    3.150    1.6265
    3.180    1.3055
    3.210    1.6800
    3.240    1.4874
    3.270    1.5837
    3.300    1.5944
    3.330    1.5837
    3.360    1.4874
    3.390    1.4767
    3.420    1.5944
    3.450    1.4981
    3.480    1.3911
    3.510    1.2306
    3.540    1.3911
    3.570    1.4339
    3.600    1.4232
    3.630    1.3590
    3.660    1.3804
    3.690    1.2841
    3.720    1.2199
    3.750    1.4874
    3.780    1.5409
    3.810    1.3162
    3.840    1.4767
    3.870    1.5730
    3.900    1.3483
    3.930    1.5409
    3.960    1.6265
    3.990    1.2841
    4.020    1.3911
    4.050    1.2734
    4.080    1.2734
    4.110    1.2520
    4.140    1.2734
    4.170    1.2092
    4.200    1.4874
    4.230    1.3055
    4.260    1.3911
    4.290    1.3911
    4.320    1.3055
    4.350    1.4660
    4.380    1.3483
    4.410    1.3911
    4.440    1.2948
    4.470    1.5088
    4.500    1.5302
    4.530    1.4981
    4.560    1.4018
    4.590    1.3911
    4.620    1.2841
    4.650    1.3804
    4.680    1.3804
    4.710    1.2948
    4.740    1.3804
    4.770    1.2306
    4.800    1.3804
    4.830    1.4981
    4.860    1.3911
    4.890    1.4874
    4.920    1.1771
    4.950    1.3804
    4.980    1.5088
    5.010    1.3269
    5.040    1.4767
    5.070    1.5088
    5.100    1.2948
    5.130    1.4981
    5.160    1.2841
    5.190    1.2841
    5.220    1.3804
    5.250    1.4767
    5.280    1.1771
    5.310    1.5195
    5.340    1.2841
    5.370    1.4767
    5.400    1.3269
    5.430    1.4232
    5.460    1.5409
    5.490    1.5516
    5.520    1.5944
    5.550    1.6907
    5.580    1.2841
    5.610    1.5195
    5.640    1.5195
    5.670    1.4874
    5.700    1.5623
    5.730    1.1985
    5.760    1.4767
    5.790    1.7014
    5.820    1.4981
    5.850    1.5409
    5.880    1.4125
    5.910    1.4981
    5.940    1.6693
    5.970    1.7549
    6.000    1.7871
    6.030    1.5302
    6.060    1.7871
    6.090    1.5623
    6.120    1.7657
    6.150    1.7121
    6.180    1.8727
    6.210    1.8406
    6.240    1.7871
    6.270    2.0439
    6.300    1.9048
    6.330    2.0225
    6.360    1.8941
    6.390    1.9048
    6.420    2.1616
    6.450    2.0653
    6.480    1.9690
    6.510    2.0011
    6.540    1.9797
    6.570    1.9048
    6.600    1.9904
    6.630    1.9797
    6.660    1.8406
    6.690    1.8406
    6.720    1.9583
    6.750    1.9583
    6.780    1.5516
    6.810    1.4981
    6.840    1.5088
    6.870    1.7121
    6.900    1.5302
    6.930    1.6372
    6.960    1.5409
    6.990    1.5195
    7.020    1.5516
    7.050    1.4981
    7.080    1.3697
    7.110    1.3376
    7.140    1.4339
    7.170    1.3269
    7.200    1.4660
    7.230    1.3911
    7.260    1.5195
    7.290    1.3804
    7.320    1.4767
    7.350    1.2734
    7.380    1.4125
    7.410    1.4339
    7.440    1.2734
    7.470    1.3376
    7.500    1.2092
    7.530    1.3269
    7.560    1.3804
    7.590    1.1985
    7.620    1.1557
    7.650    1.2520
    7.680    1.3162
    7.710    1.2520
    7.740    1.2841
    7.770    1.3055
    7.800    1.2199
    7.830    1.2841
    7.860    1.2413
    7.890    1.2092
    7.920    1.3269
    7.950    1.0380
    7.980    1.1878
    8.010    1.1022
    8.040    1.1664
    8.070    1.2199
    8.100    1.1771
    8.130    1.2199
    8.160    1.3376
    8.190    1.1129
    8.220    1.0273
    8.250    0.9952
    8.280    1.1236
    8.310    1.2306
    8.340    1.1557
    8.370    1.0487
    8.400    0.9952
    8.430    1.1450
    8.460    0.9310
    8.490    1.1664
    8.520    1.1450
    8.550    1.0701
    8.580    1.0380
    8.610    1.0166
    8.640    1.1878
    8.670    1.0273
    8.700    1.0701
    8.730    0.9631
    8.760    1.0380
    8.790    1.1022
    8.820    1.0701
    8.850    0.9952
    8.880    0.9952
    8.910    1.1343
    8.940    0.8561
    8.970    0.8240
    9.000    1.0273
    9.030    0.8775
    9.060    0.9096
    9.090    0.9631
    9.120    1.0059
    9.150    0.9738
    9.180    0.8026
    9.210    0.9310
    9.240    0.9203
    9.270    0.9524
    9.300    0.8561
    9.330    0.8347
    9.360    0.9738
    9.390    0.9310
    9.420    0.9524
    9.450    0.8989
    9.480    0.9631
    9.510    0.8989
    9.540    0.8454
    9.570    1.0273
    9.600    0.8775
    9.630    0.8561
    9.660    0.8133
    9.690    1.0166
    9.720    0.8668
    9.750    0.7491
    9.780    0.8454
    9.810    0.8454
    9.840    0.8882
    9.870    1.0059
    9.900    0.7598
    9.930    0.8454
    9.960    0.8668
    9.990    0.6742
   10.020    0.7812
   10.050    0.7812
   10.080    0.9096
   10.110    0.8347
   10.140    0.9524
   10.170    0.7919
   10.200    0.7705
   10.230    0.8240
   10.260    0.8347
   10.290    0.8989
   10.320    0.8454
   10.350    0.7491
   10.380    0.7705
   10.410    0.7812
   10.440    0.7812
   10.470    0.9096
   10.500    0.6635
   10.530    0.9631
   10.560    0.8668
   10.590    0.8240
   10.620    0.6956
   10.650    0.7170
   10.680    0.6742
   10.710    0.8133
   10.740    0.7491
   10.770    0.7919
   10.800    0.6100
   10.830    0.7491
   10.860    1.0273
   10.890    0.8240
   10.920    0.6635
   10.950    0.8133
   10.980    0.7812
   11.010    0.8133
   11.040    0.8668
   11.070    0.6635
   11.100    0.7705
   11.130    0.7063
   11.160    0.7063
   11.190    0.6742
   11.220    0.8347
   11.250    0.8668
   11.280    0.7384
   11.310    0.7705
   11.340    0.8454
   11.370    0.8775
   11.400    0.8775
   11.430    0.7063
   11.460    0.8989
   11.490    0.7705
   11.520    0.7063
   11.550    0.8775
   11.580    0.8347
   11.610    0.8026
   11.640    0.7277
   11.670    0.8026
   11.700    0.8561
   11.730    0.7277
   11.760    0.7919
   11.790    0.6635
   11.820    0.6956
   11.850    0.7063
   11.880    0.9096
   11.910    0.8882
   11.940    0.8347
   11.970    0.9203
   12.000    0.6207
   12.030    0.5993
   12.060    0.8882
   12.090    0.7598
   12.120    0.6956
   12.150    0.7812
   12.180    0.7812
   12.210    0.8775
   12.240    0.7812
   12.270    0.8561
   12.300    0.9845
   12.330    0.8775
   12.360    0.9631
   12.390    0.8775
   12.420    1.0059
   12.450    0.9203
   12.480    0.8133
   12.510    0.9524
   12.540    0.8026
   12.570    1.0059
   12.600    0.7277
   12.630    0.9310
   12.660    0.9203
   12.690    0.8561
   12.720    0.8347
   12.750    0.9738
   12.780    0.8347
   12.810    0.8026
   12.840    0.8347
   12.870    0.8775
   12.900    0.8347
   12.930    0.6956
   12.960    0.8240
   12.990    0.8026
   13.020    0.7491
   13.050    0.8347
   13.080    0.8347
   13.110    0.8133
   13.140    0.8133
   13.170    0.8133
   13.200    0.7705
   13.230    0.7919
   13.260    0.7919
   13.290    0.8133
   13.320    0.8454
   13.350    0.9310
   13.380    0.8989
   13.410    0.7598
   13.440    1.0166
   13.470    0.7919
   13.500    0.8133
   13.530    0.8454
   13.560    0.8668
   13.590    0.8775
   13.620    0.8347
   13.650    0.9631
   13.680    0.8240
   13.710    0.7277
   13.740    0.8240
   13.770    0.8454
   13.800    0.8989
   13.830    0.7812
   13.860    0.8668
   13.890    0.9952
   13.920    0.6635
   13.950    0.7919
   13.980    0.7705
   14.010    0.8347
   14.040    0.9310
   14.070    0.7491
   14.100    0.7170
   14.130    0.7812
   14.160    0.9845
   14.190    0.7812
   14.220    0.8775
   14.250    0.7384
   14.280    0.8882
   14.310    0.7491
   14.340    0.8561
   14.370    0.7919
   14.400    0.8989
   14.430    0.7170
   14.460    0.7705
   14.490    0.7705
   14.520    0.7063
   14.550    0.8668
   14.580    0.7277
   14.610    0.7919
   14.640    0.7384
   14.670    0.7812
   14.700    0.8668
   14.730    0.8454
   14.760    0.9631
   14.790    0.7063
   14.820    0.8133
   14.850    0.8561
   14.880    0.8561
   14.910    0.7812
   14.940    0.7919
   14.970    0.7277
   15.000    0.8454
   15.030    0.8240
   15.060    0.8347
   15.090    0.7384
   15.120    0.7919
   15.150    0.7919
   15.180    0.7277
   15.210    0.7063
   15.240    0.8668
   15.270    0.6314
   15.300    0.6849
   15.330    0.7491
   15.360    0.9310
   15.390    0.8240
   15.420    0.7491
   15.450    0.8668
   15.480    0.8026
   15.510    0.7812
   15.540    0.9096
   15.570    0.9524
   15.600    0.8668
   15.630    0.8668
   15.660    0.7170
   15.690    0.7919
   15.720    0.6742
   15.750    0.9203
   15.780    0.8026
   15.810    0.7384
   15.840    0.8133
   15.870    0.6956
   15.900    0.8133
   15.930    0.6421
   15.960    0.6742
   15.990    0.9631
   16.020    0.8347
   16.050    0.7919
   16.080    0.9096
   16.110    0.7705
   16.140    0.8026
   16.170    0.7812
   16.200    0.7063
   16.230    0.7384
   16.260    0.8026
   16.290    0.8454
   16.320    0.8133
   16.350    0.7705
   16.380    0.8133
   16.410    0.7919
   16.440    0.8668
   16.470    0.8347
   16.500    0.9524
   16.530    0.7919
   16.560    0.8775
   16.590    0.8668
   16.620    0.7812
   16.650    0.7705
   16.680    0.9417
   16.710    0.8240
   16.740    0.8989
   16.770    0.8240
   16.800    0.8989
   16.830    0.8561
   16.860    0.9203
   16.890    0.7919
   16.920    0.8026
   16.950    0.7812
   16.980    0.9952
   17.010    0.8026
   17.040    0.7919
   17.070    1.0808
   17.100    0.8240
   17.130    0.8561
   17.160    0.7598
   17.190    0.9417
   17.220    0.7598
   17.250    0.9310
   17.280    0.7705
   17.310    0.7063
   17.340    0.9096
   17.370    0.8775
   17.400    0.8454
   17.430    0.8668
   17.460    0.8347
   17.490    0.6635
   17.520    0.8240
   17.550    0.8775
   17.580    0.7384
   17.610    0.8882
   17.640    0.6956
   17.670    0.7919
   17.700    0.8454
   17.730    0.7384
   17.760    0.7919
   17.790    0.6742
   17.820    0.8026
   17.850    0.7063
   17.880    0.6635
   17.910    0.8347
   17.940    0.7812
   17.970    0.7598
   18.000    0.8454
   18.030    0.7384
   18.060    0.7598
   18.090    0.6528
   18.120    0.7598
   18.150    0.6849
   18.180    0.6421
   18.210    0.7491
   18.240    0.7063
   18.270    0.7491
   18.300    0.8454
   18.330    0.7277
   18.360    0.7384
   18.390    0.7812
   18.420    0.6635
   18.450    0.6314
   18.480    0.6849
   18.510    0.7384
   18.540    0.7170
   18.570    0.6956
   18.600    0.6314
   18.630    0.9417
   18.660    0.6849
   18.690    0.8240
   18.720    0.7384
   18.750    0.8989
   18.780    0.7491
   18.810    0.7705
   18.840    0.7063
   18.870    0.7919
   18.900    0.8668
   18.930    0.7812
   18.960    0.6314
   18.990    0.7598
   19.020    0.7384
   19.050    0.8989
   19.080    0.7598
   19.110    0.8882
   19.140    0.8668
   19.170    0.7598
   19.200    0.7919
   19.230    0.6314
   19.260    0.8133
   19.290    0.6314
   19.320    0.6635
   19.350    0.8775
   19.380    0.8454
   19.410    0.9417
   19.440    0.6100
   19.470    0.7598
   19.500    0.5886
   19.530    0.7705
   19.560    0.8240
   19.590    0.7170
   19.620    0.6742
   19.650    0.6100
   19.680    0.7170
   19.710    0.7491
   19.740    0.6956
   19.770    0.7384
   19.800    0.6528
   19.830    0.7277
   19.860    0.6742
   19.890    0.8347
   19.920    0.7598
   19.950    0.7705
   19.980    0.7491
   20.010    0.8133
   20.040    0.7170
   20.070    0.7063
   20.100    0.8347
   20.130    0.7919
   20.160    0.6100
   20.190    0.7170
   20.220    0.8026
   20.250    0.7277
   20.280    0.8454
   20.310    0.8133
   20.340    0.8133
   20.370    0.6849
   20.400    0.6100
   20.430    0.7384
   20.460    0.7598
   20.490    0.7491
   20.520    0.6635
   20.550    0.8775
   20.580    0.7598
   20.610    0.8133
   20.640    0.8347
   20.670    0.8454
   20.700    0.7277
   20.730    0.7919
   20.760    0.7277
   20.790    0.6314
   20.820    0.7063
   20.850    0.7598
   20.880    0.7170
   20.910    0.8133
   20.940    0.6742
   20.970    0.6635
   21.000    0.7491
   21.030    0.7491
   21.060    0.6314
   21.090    0.7170
   21.120    0.6849
   21.150    0.7170
   21.180    0.7919
   21.210    0.6849
   21.240    0.6956
   21.270    0.7063
   21.300    0.6100
   21.330    0.7170
   21.360    0.6421
   21.390    0.8882
   21.420    0.7491
   21.450    0.6635
   21.480    0.6849
   21.510    0.7705
   21.540    0.7063
   21.570    0.8026
   21.600    0.8347
   21.630    0.7277
   21.660    0.6314
   21.690    0.6207
   21.720    0.8454
   21.750    0.7063
   21.780    0.6421
   21.810    0.6314
   21.840    0.7170
   21.870    0.8347
   21.900    0.6635
   21.930    0.8133
   21.960    0.7812
   21.990    0.6100
   22.020    0.8133
   22.050    0.8026
   22.080    1.3162
   22.110    0.9524
   22.140    0.6742
   22.170    0.7384
   22.200    0.6635
   22.230    0.7170
   22.260    0.7063
   22.290    0.6635
   22.320    0.8026
   22.350    0.8347
   22.380    0.6742
   22.410    0.7063
   22.440    0.7491
   22.470    0.7705
   22.500    0.7491
   22.530    0.7919
   22.560    0.8989
   22.590    0.7170
   22.620    0.8561
   22.650    0.6742
   22.680    0.7384
   22.710    0.6528
   22.740    0.5457
   22.770    0.7063
   22.800    0.7812
   22.830    0.8133
   22.860    0.5993
   22.890    0.7598
   22.920    0.7705
   22.950    0.6207
   22.980    0.6421
   23.010    0.6207
   23.040    0.6100
   23.070    0.6100
   23.100    0.5993
   23.130    0.6100
   23.160    0.5886
   23.190    0.5350
   23.220    0.6956
   23.250    0.6635
   23.280    0.7491
   23.310    0.6207
   23.340    0.6849
   23.370    0.7277
   23.400    0.5886
   23.430    0.6849
   23.460    0.7384
   23.490    0.6100
   23.520    0.6849
   23.550    0.5993
   23.580    0.5886
   23.610    0.5993
   23.640    0.6528
   23.670    0.7705
   23.700    0.5350
   23.730    0.7277
   23.760    0.6207
   23.790    0.7170
   23.820    0.6314
   23.850    0.6742
   23.880    0.6528
   23.910    0.6421
   23.940    0.5886
   23.970    0.5350
   24.000    0.5778
   24.030    0.6635
   24.060    0.7277
   24.090    0.6314
   24.120    0.6742
   24.150    0.7170
   24.180    0.7063
   24.210    0.6421
   24.240    0.5350
   24.270    0.6742
   24.300    0.6100
   24.330    0.7812
   24.360    0.5457
   24.390    0.6207
   24.420    0.6314
   24.450    0.7705
   24.480    0.7063
   24.510    0.5350
   24.540    0.7705
   24.570    0.6742
   24.600    0.6421
   24.630    0.6956
   24.660    0.6100
   24.690    0.6314
   24.720    0.6421
   24.750    0.5671
   24.780    0.5671
   24.810    0.6528
   24.840    0.6528
   24.870    0.6421
   24.900    0.6421
   24.930    0.6100
   24.960    0.7705
   24.990    0.5564
   25.020    0.6314
   25.050    0.6742
   25.080    0.5457
   25.110    0.6635
   25.140    0.6100
   25.170    0.6528
   25.200    0.6421
   25.230    0.6849
   25.260    0.6314
   25.290    0.6100
   25.320    0.6314
   25.350    0.6635
   25.380    0.5886
   25.410    0.6849
   25.440    0.5457
   25.470    0.7277
   25.500    0.6742
   25.530    0.5457
   25.560    0.7705
   25.590    0.7277
   25.620    0.5993
   25.650    0.7384
   25.680    0.5778
   25.710    0.5564
   25.740    0.6207
   25.770    0.5993
   25.800    0.5778
   25.830    0.7384
   25.860    0.5886
   25.890    0.5243
   25.920    0.5886
   25.950    0.5671
   25.980    0.6100
   26.010    0.5671
   26.040    0.6956
   26.070    0.5993
   26.100    0.5671
   26.130    0.5136
   26.160    0.6421
   26.190    0.6100
   26.220    0.4922
   26.250    0.5671
   26.280    0.5886
   26.310    0.5993
   26.340    0.5671
   26.370    0.5350
   26.400    0.6314
   26.430    0.5243
   26.460    0.5778
   26.490    0.7170
   26.520    0.5564
   26.550    0.4708
   26.580    0.6100
   26.610    0.5029
   26.640    0.6742
   26.670    0.4815
   26.700    0.5243
   26.730    0.5136
   26.760    0.5564
   26.790    0.5457
   26.820    0.4066
   26.850    0.6314
   26.880    0.5243
   26.910    0.8347
   26.940    0.4708
   26.970    0.5993
   27.000    0.5564
   27.030    0.4494
   27.060    0.5564
   27.090    0.5671
   27.120    0.4815
   27.150    0.4922
   27.180    0.5350
   27.210    0.5886
   27.240    0.6314
   27.270    0.5886
   27.300    0.4708
   27.330    0.6528
   27.360    0.5564
   27.390    0.5671
   27.420    0.6528
   27.450    0.4922
   27.480    0.4922
   27.510    0.4922
   27.540    0.4601
   27.570    0.5350
   27.600    0.5993
   27.630    0.5564
   27.660    0.6635
   27.690    0.5350
   27.720    0.4815
   27.750    0.5564
   27.780    0.6314
   27.810    0.4601
   27.840    0.4815
   27.870    0.5457
   27.900    0.4815
   27.930    0.4601
   27.960    0.5564
   27.990    0.4494
   28.020    0.5457
   28.050    0.5136
   28.080    0.4173
   28.110    0.5136
   28.140    0.6528
   28.170    0.4815
   28.200    0.5778
   28.230    0.4494
   28.260    0.5564
   28.290    0.5136
   28.320    0.4815
   28.350    0.5029
   28.380    0.4922
   28.410    0.5350
   28.440    0.4494
   28.470    0.5350
   28.500    0.5136
   28.530    0.4708
   28.560    0.5886
   28.590    0.5457
   28.620    0.5136
   28.650    0.4708
   28.680    0.4815
   28.710    0.4494
   28.740    0.5350
   28.770    0.4601
   28.800    0.3852
   28.830    0.5136
   28.860    0.4066
   28.890    0.4280
   28.920    0.4280
   28.950    0.5243
   28.980    0.4173
   29.010    0.5136
   29.040    0.6528
   29.070    0.4922
   29.100    0.5136
   29.130    0.4708
   29.160    0.6207
   29.190    0.5136
   29.220    0.5564
   29.250    0.4815
   29.280    0.5029
   29.310    0.4815
   29.340    0.5136
   29.370    0.4815
   29.400    0.5671
   29.430    0.5671
   29.460    0.5778
   29.490    0.5136
   29.520    0.5564
   29.550    0.4922
   29.580    0.7277
   29.610    0.5243
   29.640    0.4387
   29.670    0.7063
   29.700    0.7598
   29.730    0.5136
   29.760    0.4708
   29.790    0.5243
   29.820    0.4066
   29.850    0.5029
   29.880    0.4494
   29.910    0.5136
   29.940    0.4173
   29.970    0.4601
   30.000    0.4815
   30.030    0.4815
   30.060    0.4708
   30.090    0.3852
   30.120    0.5350
   30.150    0.4815
   30.180    0.4815
   30.210    0.5350
   30.240    0.4815
   30.270    0.4708
   30.300    0.5136
   30.330    0.4494
   30.360    0.5243
   30.390    0.4922
   30.420    0.4280
   30.450    0.5029
   30.480    0.4922
   30.510    0.3852
   30.540    0.4708
   30.570    0.5993
   30.600    0.5136
   30.630    0.4708
   30.660    0.4066
   30.690    0.3638
   30.720    0.5136
   30.750    0.4173
   30.780    0.4601
   30.810    0.4387
   30.840    0.4066
   30.870    0.5457
   30.900    0.4173
   30.930    0.4494
   30.960    0.4494
   30.990    0.4601
   31.020    0.3852
   31.050    0.4066
   31.080    0.5778
   31.110    0.4066
   31.140    0.4708
   31.170    0.4601
   31.200    0.4280
   31.230    0.4066
   31.260    0.4066
   31.290    0.4280
   31.320    0.4601
   31.350    0.4387
   31.380    0.3745
   31.410    0.5029
   31.440    0.4494
   31.470    0.5136
   31.500    0.5136
   31.530    0.3959
   31.560    0.3959
   31.590    0.3638
   31.620    0.4173
   31.650    0.3531
   31.680    0.2889
   31.710    0.5136
   31.740    0.4066
   31.770    0.4066
   31.800    0.5029
   31.830    0.4494
   31.860    0.3638
   31.890    0.4280
   31.920    0.4815
   31.950    0.4922
   31.980    0.5136
   32.010    0.4815
   32.040    0.4815
   32.070    0.5136
   32.100    0.4173
   32.130    0.3638
   32.160    0.3852
   32.190    0.3424
   32.220    0.4173
   32.250    0.3745
   32.280    0.3852
   32.310    0.4173
   32.340    0.3745
   32.370    0.4173
   32.400    0.3638
   32.430    0.4173
   32.460    0.4280
   32.490    0.4066
   32.520    0.3745
   32.550    0.4066
   32.580    0.6314
   32.610    1.0059
   32.640    0.6421
   32.670    0.4494
   32.700    0.4494
   32.730    0.3317
   32.760    0.4066
   32.790    0.3852
   32.820    0.3959
   32.850    0.3424
   32.880    0.3959
   32.910    0.3745
   32.940    0.3531
   32.970    0.5029
   33.000    0.4922
   33.030    0.3745
   33.060    0.4387
   33.090    0.3959
   33.120    0.2782
   33.150    0.3745
   33.180    0.4173
   33.210    0.4280
   33.240    0.4708
   33.270    0.3317
   33.300    0.3638
   33.330    0.3210
   33.360    0.3210
   33.390    0.4387
   33.420    0.5136
   33.450    0.4387
   33.480    0.3745
   33.510    0.3424
   33.540    0.4280
   33.570    0.4387
   33.600    0.4280
   33.630    0.3959
   33.660    0.4280
   33.690    0.5243
   33.720    0.7705
   33.750    1.3804
   33.780    0.4708
   33.810    0.5029
   33.840    0.4494
   33.870    0.4280
   33.900    0.3852
   33.930    0.4280
   33.960    0.5243
   33.990    0.3638
   34.020    0.2675
   34.050    0.4494
   34.080    0.3531
   34.110    0.4601
   34.140    0.3852
   34.170    0.4173
   34.200    0.4708
   34.230    0.3638
   34.260    0.4815
   34.290    0.2996
   34.320    0.4494
   34.350    0.3852
   34.380    0.3424
   34.410    0.3959
   34.440    0.2675
   34.470    0.3317
   34.500    0.3638
   34.530    0.3531
   34.560    0.3638
   34.590    0.3210
   34.620    0.3959
   34.650    0.3959
   34.680    0.3317
   34.710    0.4280
   34.740    0.3745
   34.770    0.3317
   34.800    0.2996
   34.830    0.2568
   34.860    0.2996
   34.890    0.3210
   34.920    0.3424
   34.950    0.3638
   34.980    0.3959
   35.010    0.4708
   35.040    0.3317
   35.070    0.3103
   35.100    0.3638
   35.130    0.2247
   35.160    0.2782
   35.190    0.3210
   35.220    0.3103
   35.250    0.3638
   35.280    0.3638
   35.310    0.3531
   35.340    0.2675
   35.370    0.3317
   35.400    0.4173
   35.430    0.2782
   35.460    0.3210
   35.490    0.2675
   35.520    0.3745
   35.550    0.2996
   35.580    0.3531
   35.610    0.3103
   35.640    0.3317
   35.670    0.1605
   35.700    0.2889
   35.730    0.3103
   35.760    0.3103
   35.790    0.4066
   35.820    0.3317
   35.850    0.3424
   35.880    0.2996
   35.910    0.2889
   35.940    0.4173
   35.970    0.2782
   36.000    0.2782
   36.030    0.3959
   36.060    0.3745
   36.090    0.2996
   36.120    0.3745
   36.150    0.2996
   36.180    0.2247
   36.210    0.3852
   36.240    0.3638
   36.270    0.2782
   36.300    0.2782
   36.330    0.2140
   36.360    0.3959
   36.390    0.2675
   36.420    0.3103
   36.450    0.3103
   36.480    0.2889
   36.510    0.2140
   36.540    0.3210
   36.570    0.3531
   36.600    0.2889
   36.630    0.2461
   36.660    0.2889
   36.690    0.3531
   36.720    0.2782
   36.750    0.3210
   36.780    0.2996
   36.810    0.3959
   36.840    0.2354
   36.870    0.2675
   36.900    0.2675
   36.930    0.2354
   36.960    0.2996
   36.990    0.4280
   37.020    0.4173
   37.050    0.4708
   37.080    0.5136
   37.110    0.3745
   37.140    0.3210
   37.170    0.3852
   37.200    0.3317
   37.230    0.2889
   37.260    0.2568
   37.290    0.3852
   37.320    0.3317
   37.350    0.3959
   37.380    0.5564
   37.410    1.2413
   37.440    1.1771
   37.470    0.3852
   37.500    0.3745
   37.530    0.2889
   37.560    0.3210
   37.590    0.2889
   37.620    0.3103
   37.650    0.1926
   37.680    0.2354
   37.710    0.2996
   37.740    0.3103
   37.770    0.2889
   37.800    0.2782
   37.830    0.2461
   37.860    0.3424
   37.890    0.3317
   37.920    0.2461
   37.950    0.2247
   37.980    0.2033
   38.010    0.3103
   38.040    0.3210
   38.070    0.2033
   38.100    0.3317
   38.130    0.2461
   38.160    0.3103
   38.190    0.2568
   38.220    0.2247
   38.250    0.2782
   38.280    0.1605
   38.310    0.2033
   38.340    0.1926
   38.370    0.2782
   38.400    0.2247
   38.430    0.2033
   38.460    0.1712
   38.490    0.2782
   38.520    0.2782
   38.550    0.2461
   38.580    0.2568
   38.610    0.2568
   38.640    0.2354
   38.670    0.2889
   38.700    0.2354
   38.730    0.1926
   38.760    0.2568
   38.790    0.2782
   38.820    0.2140
   38.850    0.2996
   38.880    0.2247
   38.910    0.2889
   38.940    0.2782
   38.970    0.2996
   39.000    0.2889
   39.030    0.3103
   39.060    0.3103
   39.090    0.3210
   39.120    0.2033
   39.150    0.2354
   39.180    0.2247
   39.210    0.1819
   39.240    0.2568
   39.270    0.2782
   39.300    0.2461
   39.330    0.2782
   39.360    0.2461
   39.390    0.2568
   39.420    0.4066
   39.450    0.6100
   39.480    0.3959
   39.510    0.2782
   39.540    0.3531
   39.570    0.2568
   39.600    0.3531
   39.630    0.3959
   39.660    0.3210
   39.690    0.3531
   39.720    0.2140
   39.750    0.2782
   39.780    0.2461
   39.810    0.2889
   39.840    0.2033
   39.870    0.2461
   39.900    0.2996
   39.930    0.2354
   39.960    0.2354
   39.990    0.2247