File: data/MOCOF-1/PXRD/PXRD_KE-163_Cu-Ka1_capillary-1mm_5s-deg.xyd
    1.500   24.4866
    1.530   24.1390
    1.560   23.3281
    1.590   22.7172
    1.620   22.0116
    1.650   20.7794
    1.680   20.3160
    1.710   20.1369
    1.740   19.7051
    1.770   18.9258
    1.800   18.3781
    1.830   17.5882
    1.860   17.4302
    1.890   17.1459
    1.920   16.5666
    1.950   15.7557
    1.980   15.9452
    2.010   15.8610
    2.040   15.8715
    2.070   15.3555
    2.100   15.1132
    2.130   15.6082
    2.160   15.4397
    2.190   15.1553
    2.220   14.1759
    2.250   14.9026
    2.280   14.7973
    2.310   14.6919
    2.340   15.1975
    2.370   14.1759
    2.400   14.8710
    2.430   15.3239
    2.460   15.0184
    2.490   15.5661
    2.520   15.0606
    2.550   15.1975
    2.580   15.7873
    2.610   16.2612
    2.640   15.8610
    2.670   16.6087
    2.700   16.5666
    2.730   18.1148
    2.760   17.9358
    2.790   18.1043
    2.820   19.1680
    2.850   19.9263
    2.880   20.1580
    2.910   20.8320
    2.940   21.8009
    2.970   23.8020
    3.000   24.5603
    3.030   25.5082
    3.060   27.7093
    3.090   28.7836
    3.120   29.6788
    3.150   32.2275
    3.180   35.7241
    3.210   36.5877
    3.240   40.4529
    3.270   43.5282
    3.300   46.5192
    3.330   53.8810
    3.360   58.0516
    3.390   64.3391
    3.420   69.7525
    3.450   73.2385
    3.480   70.7320
    3.510   63.7283
    3.540   56.5350
    3.570   49.8157
    3.600   44.4550
    3.630   39.9157
    3.660   38.4202
    3.690   37.9568
    3.720   38.2728
    3.750   40.4845
    3.780   42.4329
    3.810   46.3928
    3.840   53.2385
    3.870   63.6440
    3.900   60.6003
    3.930   42.9173
    3.960   28.5519
    3.990   26.8668
    4.020   26.1085
    4.050   24.8236
    4.080   23.6019
    4.110   23.0121
    4.140   21.1901
    4.170   19.4945
    4.200   18.3570
    4.230   16.9984
    4.260   15.3870
    4.290   14.3655
    4.320   13.7019
    4.350   12.2801
    4.380   11.8905
    4.410   10.5424
    4.440   10.7952
    4.470    9.7525
    4.500    9.6156
    4.530    8.5729
    4.560    8.3728
    4.590    8.1938
    4.620    7.5829
    4.650    7.6040
    4.680    7.4355
    4.710    7.5092
    4.740    7.2249
    4.770    7.0353
    4.800    6.6983
    4.830    6.4455
    4.860    6.4982
    4.890    6.5298
    4.920    6.6667
    4.950    6.6983
    4.980    6.4982
    5.010    5.9294
    5.040    6.5508
    5.070    6.7509
    5.100    6.4034
    5.130    6.3507
    5.160    6.3191
    5.190    6.4982
    5.220    6.3507
    5.250    7.2143
    5.280    7.0669
    5.310    7.1722
    5.340    7.3618
    5.370    7.8041
    5.400    8.2780
    5.430    8.9837
    5.460   10.5951
    5.490   12.5224
    5.520   12.3749
    5.550    8.7414
    5.580    6.0453
    5.610    5.1606
    5.640    5.3397
    5.670    5.3186
    5.700    5.3186
    5.730    5.2554
    5.760    4.7499
    5.790    4.7709
    5.820    5.1290
    5.850    5.0869
    5.880    4.8657
    5.910    5.0132
    5.940    4.7815
    5.970    5.2238
    6.000    4.8025
    6.030    5.1080
    6.060    5.2765
    6.090    5.1290
    6.120    4.8552
    6.150    4.8236
    6.180    4.9500
    6.210    4.7393
    6.240    5.2343
    6.270    4.9184
    6.300    5.1080
    6.330    5.3923
    6.360    5.4555
    6.390    5.3607
    6.420    5.3607
    6.450    5.7083
    6.480    5.2027
    6.510    5.4871
    6.540    5.7715
    6.570    6.0348
    6.600    6.2138
    6.630    6.2349
    6.660    6.8457
    6.690    7.5513
    6.720    8.0463
    6.750    8.2464
    6.780    8.4887
    6.810    7.7409
    6.840    8.2464
    6.870    8.7098
    6.900    9.3102
    6.930   10.1738
    6.960    9.8157
    6.990    9.5419
    7.020    9.3312
    7.050    8.1833
    7.080    7.4355
    7.110    6.8562
    7.140    6.2033
    7.170    5.7715
    7.200    5.8662
    7.230    5.6451
    7.260    5.4871
    7.290    5.5082
    7.320    5.4766
    7.350    5.5187
    7.380    5.2449
    7.410    5.6977
    7.440    5.5082
    7.470    5.4555
    7.500    5.4555
    7.530    5.2659
    7.560    5.0553
    7.590    6.0664
    7.620    6.0137
    7.650    6.0348
    7.680    6.3402
    7.710    6.0137
    7.740    6.4560
    7.770    7.0985
    7.800    7.5408
    7.830    7.1827
    7.860    6.0769
    7.890    6.2559
    7.920    6.2349
    7.950    6.2349
    7.980    6.1401
    8.010    6.0769
    8.040    6.2981
    8.070    5.9189
    8.100    6.3823
    8.130    6.3296
    8.160    6.0979
    8.190    6.0558
    8.220    6.2559
    8.250    5.6661
    8.280    5.9505
    8.310    5.9294
    8.340    5.9821
    8.370    5.5082
    8.400    5.3081
    8.430    5.7820
    8.460    5.4134
    8.490    5.3291
    8.520    5.5187
    8.550    5.5714
    8.580    5.2554
    8.610    5.1606
    8.640    5.2027
    8.670    5.1711
    8.700    5.1395
    8.730    5.4344
    8.760    4.9184
    8.790    4.8131
    8.820    4.7288
    8.850    4.8763
    8.880    4.8657
    8.910    4.7920
    8.940    4.4550
    8.970    4.8552
    9.000    4.5392
    9.030    4.4023
    9.060    4.7183
    9.090    4.6130
    9.120    4.6024
    9.150    4.7183
    9.180    4.4234
    9.210    4.8552
    9.240    4.8447
    9.270    4.8552
    9.300    4.7604
    9.330    4.6867
    9.360    5.2343
    9.390    5.0448
    9.420    5.3397
    9.450    5.4555
    9.480    5.3923
    9.510    6.3928
    9.540    7.2249
    9.570    7.8778
    9.600    7.3618
    9.630    5.1606
    9.660    4.6867
    9.690    4.5919
    9.720    4.2759
    9.750    4.3602
    9.780    4.1706
    9.810    4.4655
    9.840    4.4234
    9.870    4.2865
    9.900    4.1811
    9.930    4.2759
    9.960    4.1390
    9.990    4.1285
   10.020    4.4760
   10.050    4.4023
   10.080    4.5392
   10.110    4.5287
   10.140    4.6761
   10.170    4.5287
   10.200    4.6551
   10.230    4.7183
   10.260    4.8447
   10.290    5.0553
   10.320    5.5819
   10.350    5.6240
   10.380    5.4976
   10.410    5.1290
   10.440    4.5708
   10.470    4.7815
   10.500    4.4339
   10.530    4.7288
   10.560    4.4760
   10.590    4.3707
   10.620    4.2759
   10.650    4.4655
   10.680    4.4760
   10.710    4.3181
   10.740    4.0126
   10.770    4.7815
   10.800    4.2022
   10.830    4.4550
   10.860    4.2338
   10.890    4.4760
   10.920    4.4023
   10.950    4.2338
   10.980    4.8657
   11.010    4.7709
   11.040    5.5082
   11.070    5.1922
   11.100    5.1395
   11.130    4.4339
   11.160    4.2233
   11.190    4.2654
   11.220    4.1811
   11.250    4.4971
   11.280    4.3602
   11.310    4.2865
   11.340    4.6867
   11.370    4.3602
   11.400    4.0021
   11.430    4.5814
   11.460    4.4760
   11.490    4.5076
   11.520    4.1601
   11.550    4.7815
   11.580    4.1601
   11.610    4.3707
   11.640    4.7288
   11.670    4.8973
   11.700    5.4450
   11.730    5.3502
   11.760    5.4239
   11.790    4.9078
   11.820    4.3813
   11.850    4.7288
   11.880    4.2759
   11.910    4.3918
   11.940    4.2865
   11.970    4.7077
   12.000    4.5287
   12.030    4.3075
   12.060    4.3181
   12.090    4.7183
   12.120    4.7393
   12.150    4.3707
   12.180    4.3391
   12.210    4.4866
   12.240    4.4339
   12.270    4.5814
   12.300    4.5708
   12.330    4.8131
   12.360    4.5708
   12.390    4.7604
   12.420    4.3918
   12.450    4.3602
   12.480    4.4655
   12.510    4.4760
   12.540    4.5498
   12.570    4.4339
   12.600    4.3918
   12.630    4.5603
   12.660    4.6761
   12.690    4.5814
   12.720    4.6445
   12.750    4.4444
   12.780    4.7604
   12.810    4.6024
   12.840    4.6761
   12.870    4.8447
   12.900    4.9921
   12.930    4.9500
   12.960    5.1817
   12.990    5.1606
   13.020    5.0237
   13.050    4.3497
   13.080    4.1074
   13.110    4.2443
   13.140    4.3391
   13.170    4.2654
   13.200    4.2865
   13.230    4.2338
   13.260    4.4550
   13.290    4.3391
   13.320    4.9921
   13.350    4.5392
   13.380    4.4444
   13.410    4.0021
   13.440    4.6445
   13.470    4.2443
   13.500    4.1706
   13.530    4.5603
   13.560    4.6024
   13.590    4.5919
   13.620    4.4550
   13.650    4.4550
   13.680    4.2970
   13.710    4.3286
   13.740    4.2443
   13.770    4.4128
   13.800    4.1074
   13.830    4.3813
   13.860    4.2127
   13.890    4.4444
   13.920    4.2759
   13.950    4.3497
   13.980    4.2759
   14.010    4.1180
   14.040    4.6024
   14.070    4.6130
   14.100    4.9500
   14.130    5.1606
   14.160    4.6972
   14.190    4.5603
   14.220    4.5392
   14.250    4.2970
   14.280    4.1496
   14.310    4.2338
   14.340    4.3707
   14.370    4.1917
   14.400    4.1180
   14.430    4.2443
   14.460    4.2865
   14.490    3.9810
   14.520    4.1074
   14.550    4.3075
   14.580    4.1074
   14.610    4.3075
   14.640    4.0442
   14.670    4.0653
   14.700    4.0337
   14.730    4.1706
   14.760    4.2654
   14.790    4.1917
   14.820    4.1496
   14.850    4.0021
   14.880    4.3602
   14.910    4.2233
   14.940    4.2970
   14.970    3.9073
   15.000    4.1390
   15.030    4.2443
   15.060    4.0758
   15.090    4.2654
   15.120    4.0548
   15.150    4.1706
   15.180    4.2233
   15.210    4.4023
   15.240    4.4023
   15.270    4.0126
   15.300    4.3075
   15.330    3.7809
   15.360    4.2549
   15.390    3.9916
   15.420    3.9600
   15.450    4.4971
   15.480    4.2338
   15.510    4.0864
   15.540    4.1706
   15.570    4.4128
   15.600    4.3497
   15.630    4.2759
   15.660    4.1390
   15.690    4.1601
   15.720    4.1917
   15.750    4.3075
   15.780    4.1706
   15.810    4.0969
   15.840    4.0021
   15.870    3.9810
   15.900    4.1917
   15.930    4.2443
   15.960    4.0442
   15.990    4.1706
   16.020    3.8547
   16.050    4.0653
   16.080    4.0337
   16.110    4.7393
   16.140    4.3707
   16.170    4.0548
   16.200    4.4234
   16.230    4.0758
   16.260    4.4444
   16.290    3.9705
   16.320    4.1074
   16.350    4.2233
   16.380    3.9916
   16.410    4.5498
   16.440    4.3497
   16.470    4.1285
   16.500    4.3813
   16.530    4.1601
   16.560    4.2127
   16.590    4.1917
   16.620    4.2549
   16.650    4.2759
   16.680    4.2338
   16.710    4.0653
   16.740    4.2127
   16.770    4.1180
   16.800    4.1706
   16.830    3.9916
   16.860    4.2443
   16.890    3.9494
   16.920    4.1180
   16.950    4.1917
   16.980    4.2233
   17.010    4.2338
   17.040    4.6235
   17.070    4.6551
   17.100    4.5182
   17.130    4.3497
   17.160    4.6445
   17.190    4.1601
   17.220    4.2338
   17.250    4.0021
   17.280    4.3075
   17.310    3.9284
   17.340    4.1390
   17.370    4.2338
   17.400    3.8547
   17.430    4.1074
   17.460    4.0021
   17.490    4.0864
   17.520    4.8131
   17.550    4.3075
   17.580    4.1917
   17.610    4.1917
   17.640    4.2549
   17.670    4.3813
   17.700    4.4128
   17.730    4.3181
   17.760    4.3286
   17.790    4.5498
   17.820    4.5603
   17.850    4.2654
   17.880    4.2970
   17.910    4.4128
   17.940    4.2338
   17.970    4.3075
   18.000    4.3497
   18.030    4.1496
   18.060    4.3075
   18.090    4.1706
   18.120    4.6445
   18.150    3.9494
   18.180    4.2759
   18.210    4.2338
   18.240    4.0969
   18.270    4.2865
   18.300    4.4234
   18.330    4.2759
   18.360    4.2970
   18.390    4.4339
   18.420    4.6340
   18.450    4.2127
   18.480    4.1917
   18.510    4.4971
   18.540    4.0864
   18.570    3.9600
   18.600    4.5919
   18.630    3.8336
   18.660    4.1706
   18.690    4.2654
   18.720    4.1706
   18.750    4.3286
   18.780    4.3497
   18.810    4.3075
   18.840    4.1811
   18.870    4.3813
   18.900    4.0864
   18.930    3.9810
   18.960    4.3286
   18.990    4.4760
   19.020    4.3497
   19.050    4.0548
   19.080    4.0442
   19.110    4.1180
   19.140    4.0653
   19.170    4.2865
   19.200    4.6972
   19.230    4.5708
   19.260    4.4444
   19.290    4.2865
   19.320    4.4023
   19.350    4.3707
   19.380    4.3075
   19.410    3.8968
   19.440    4.4023
   19.470    3.9284
   19.500    4.3181
   19.530    4.5919
   19.560    4.6024
   19.590    4.5603
   19.620    4.5287
   19.650    4.6445
   19.680    4.7183
   19.710    4.6656
   19.740    4.3813
   19.770    4.3813
   19.800    4.4339
   19.830    4.4971
   19.860    4.4234
   19.890    4.2338
   19.920    4.4444
   19.950    4.3286
   19.980    4.1285
   20.010    4.4444
   20.040    4.5603
   20.070    4.5498
   20.100    4.4971
   20.130    4.1601
   20.160    4.5814
   20.190    4.3286
   20.220    4.5392
   20.250    4.6972
   20.280    4.6867
   20.310    4.8341
   20.340    4.5708
   20.370    4.8763
   20.400    4.3707
   20.430    4.6130
   20.460    4.7183
   20.490    4.5182
   20.520    4.2865
   20.550    4.4023
   20.580    4.3918
   20.610    4.4655
   20.640    4.2970
   20.670    4.2865
   20.700    4.7920
   20.730    4.7077
   20.760    4.4866
   20.790    4.2654
   20.820    4.6024
   20.850    4.6445
   20.880    4.4760
   20.910    4.5603
   20.940    4.4760
   20.970    4.6235
   21.000    4.5287
   21.030    4.6972
   21.060    4.3813
   21.090    4.6024
   21.120    4.6867
   21.150    4.2233
   21.180    4.4234
   21.210    4.6867
   21.240    3.8652
   21.270    4.2022
   21.300    4.4234
   21.330    4.6761
   21.360    4.4866
   21.390    4.6340
   21.420    4.5814
   21.450    4.6235
   21.480    4.3602
   21.510    4.6024
   21.540    4.4234
   21.570    4.5182
   21.600    4.6445
   21.630    4.4128
   21.660    4.5182
   21.690    4.3181
   21.720    4.4550
   21.750    4.6130
   21.780    4.6656
   21.810    4.1917
   21.840    4.8341
   21.870    4.8447
   21.900    4.2233
   21.930    4.8657
   21.960    4.8341
   21.990    4.8657
   22.020    4.5182
   22.050    4.5392
   22.080    4.4866
   22.110    4.5076
   22.140    4.5392
   22.170    4.4234
   22.200    4.5919
   22.230    4.4550
   22.260    4.6551
   22.290    4.5814
   22.320    4.5919
   22.350    4.3602
   22.380    4.5814
   22.410    4.2022
   22.440    4.4444
   22.470    4.6761
   22.500    4.6235
   22.530    4.7499
   22.560    4.8763
   22.590    5.1395
   22.620    4.9710
   22.650    5.0974
   22.680    4.5498
   22.710    4.2865
   22.740    4.2759
   22.770    4.2549
   22.800    4.7920
   22.830    4.5814
   22.860    4.7183
   22.890    4.9078
   22.920    5.1817
   22.950    5.1817
   22.980    4.7815
   23.010    4.9816
   23.040    4.5603
   23.070    4.6972
   23.100    4.5708
   23.130    4.1074
   23.160    4.5392
   23.190    4.1496
   23.220    4.2338
   23.250    4.8552
   23.280    4.5814
   23.310    5.0869
   23.340    4.7604
   23.370    4.2127
   23.400    4.4339
   23.430    4.2865
   23.460    4.0969
   23.490    4.5076
   23.520    4.5708
   23.550    4.3813
   23.580    4.5182
   23.610    4.3286
   23.640    4.4234
   23.670    4.4128
   23.700    4.4655
   23.730    4.3813
   23.760    4.3391
   23.790    4.7077
   23.820    4.5182
   23.850    4.3918
   23.880    4.6551
   23.910    4.5498
   23.940    4.7499
   23.970    4.7604
   24.000    4.3707
   24.030    4.6024
   24.060    4.3497
   24.090    4.4760
   24.120    4.1601
   24.150    4.6024
   24.180    4.4444
   24.210    4.1285
   24.240    4.4550
   24.270    4.5814
   24.300    4.6024
   24.330    4.3286
   24.360    3.9916
   24.390    4.5076
   24.420    4.3813
   24.450    4.4971
   24.480    4.6130
   24.510    4.4444
   24.540    4.1496
   24.570    4.5392
   24.600    4.2549
   24.630    4.6340
   24.660    4.2443
   24.690    4.5076
   24.720    4.4550
   24.750    4.3602
   24.780    4.4655
   24.810    4.1180
   24.840    4.0864
   24.870    4.0337
   24.900    4.2865
   24.930    3.9705
   24.960    3.9705
   24.990    4.6972
   25.020    4.2233
   25.050    4.2549
   25.080    3.7599
   25.110    4.0126
   25.140    4.1811
   25.170    4.2338
   25.200    4.1917
   25.230    4.4128
   25.260    4.1496
   25.290    4.1706
   25.320    4.3707
   25.350    4.4444
   25.380    3.9600
   25.410    4.1390
   25.440    4.3813
   25.470    3.9916
   25.500    4.0758
   25.530    4.1601
   25.560    4.1285
   25.590    4.5076
   25.620    4.0021
   25.650    4.3286
   25.680    4.0021
   25.710    4.2443
   25.740    4.3391
   25.770    4.0126
   25.800    4.3286
   25.830    4.5498
   25.860    4.5182
   25.890    4.5708
   25.920    4.4128
   25.950    4.3075
   25.980    4.4866
   26.010    4.0337
   26.040    4.1917
   26.070    3.9073
   26.100    3.9916
   26.130    4.1917
   26.160    4.1496
   26.190    4.0337
   26.220    4.2022
   26.250    4.0337
   26.280    4.2654
   26.310    4.3391
   26.340    4.0548
   26.370    4.0232
   26.400    4.2759
   26.430    4.0021
   26.460    4.3181
   26.490    4.3497
   26.520    3.8968
   26.550    4.2022
   26.580    3.8547
   26.610    4.1074
   26.640    3.9179
   26.670    3.6546
   26.700    4.1390
   26.730    3.6651
   26.760    3.9916
   26.790    4.0653
   26.820    3.8757
   26.850    4.1180
   26.880    3.7599
   26.910    4.3497
   26.940    3.8231
   26.970    3.8336
   27.000    3.7915
   27.030    3.8231
   27.060    3.9600
   27.090    4.0653
   27.120    4.0442
   27.150    3.8020
   27.180    3.9705
   27.210    3.9179
   27.240    3.9179
   27.270    3.4544
   27.300    4.1706
   27.330    4.0442
   27.360    3.7177
   27.390    3.8547
   27.420    3.9810
   27.450    3.9073
   27.480    4.1074
   27.510    4.0758
   27.540    3.7915
   27.570    4.0126
   27.600    3.8547
   27.630    4.0653
   27.660    4.0337
   27.690    4.0653
   27.720    3.6440
   27.750    4.0864
   27.780    4.2443
   27.810    3.8863
   27.840    3.9389
   27.870    3.6967
   27.900    3.9179
   27.930    3.7493
   27.960    3.9600
   27.990    4.0126
   28.020    4.0758
   28.050    4.1285
   28.080    4.0864
   28.110    4.0442
   28.140    4.0232
   28.170    4.2127
   28.200    4.0969
   28.230    3.6862
   28.260    3.8968
   28.290    4.2865
   28.320    3.6967
   28.350    3.9073
   28.380    3.7809
   28.410    4.0758
   28.440    3.7915
   28.470    4.0758
   28.500    3.7388
   28.530    4.1706
   28.560    4.0969
   28.590    3.9494
   28.620    3.9494
   28.650    3.7283
   28.680    4.1180
   28.710    3.8441
   28.740    3.8652
   28.770    4.0232
   28.800    3.8547
   28.830    3.8125
   28.860    3.8757
   28.890    3.7915
   28.920    3.9389
   28.950    4.0758
   28.980    3.6756
   29.010    3.5492
   29.040    3.8547
   29.070    3.8125
   29.100    3.9705
   29.130    3.7599
   29.160    3.6335
   29.190    3.7177
   29.220    3.5808
   29.250    3.7915
   29.280    3.7072
   29.310    3.9810
   29.340    4.0653
   29.370    3.5808
   29.400    3.7493
   29.430    3.6440
   29.460    3.7704
   29.490    3.6230
   29.520    3.6967
   29.550    3.5808
   29.580    3.8125
   29.610    3.8441
   29.640    3.7388
   29.670    3.7493
   29.700    3.7493
   29.730    3.5282
   29.760    3.7915
   29.790    3.7493
   29.820    3.6967
   29.850    3.6230
   29.880    3.8863
   29.910    3.9179
   29.940    3.6862
   29.970    3.7072
   30.000    3.8547
   30.030    3.5492
   30.060    3.8125
   30.090    3.7704
   30.120    3.6651
   30.150    3.9705
   30.180    4.0758
   30.210    3.7283
   30.240    3.4018
   30.270    3.6967
   30.300    3.8336
   30.330    3.7388
   30.360    3.5598
   30.390    3.6756
   30.420    3.8336
   30.450    3.6862
   30.480    3.8336
   30.510    3.5598
   30.540    3.6230
   30.570    4.0126
   30.600    3.8441
   30.630    3.6440
   30.660    3.5598
   30.690    3.8863
   30.720    3.4966
   30.750    3.7388
   30.780    3.7704
   30.810    3.7388
   30.840    3.6651
   30.870    3.6335
   30.900    3.7388
   30.930    3.5387
   30.960    3.7493
   30.990    3.4334
   31.020    3.4966
   31.050    3.4229
   31.080    3.6335
   31.110    3.5598
   31.140    3.6967
   31.170    3.7177
   31.200    3.5703
   31.230    3.6124
   31.260    3.4650
   31.290    3.4123
   31.320    3.4544
   31.350    3.6440
   31.380    3.9179
   31.410    3.7283
   31.440    3.7493
   31.470    3.6967
   31.500    3.2649
   31.530    3.5071
   31.560    3.4439
   31.590    3.5282
   31.620    3.6651
   31.650    3.6862
   31.680    3.6440
   31.710    3.6862
   31.740    3.5282
   31.770    3.6230
   31.800    3.8652
   31.830    3.4966
   31.860    3.7493
   31.890    3.7915
   31.920    3.5387
   31.950    3.2649
   31.980    3.6546
   32.010    3.5387
   32.040    3.5598
   32.070    3.5914
   32.100    4.1285
   32.130    3.6230
   32.160    3.6862
   32.190    3.6546
   32.220    3.6862
   32.250    3.3070
   32.280    3.4439
   32.310    3.4229
   32.340    3.5598
   32.370    3.3491
   32.400    3.3597
   32.430    3.3597
   32.460    3.5282
   32.490    3.2227
   32.520    3.4439
   32.550    3.4544
   32.580    3.3386
   32.610    3.2859
   32.640    3.5492
   32.670    3.4229
   32.700    3.4123
   32.730    3.5598
   32.760    3.4966
   32.790    3.5071
   32.820    3.1596
   32.850    3.4439
   32.880    3.2438
   32.910    2.9700
   32.940    3.3175
   32.970    3.4650
   33.000    3.4334
   33.030    3.3807
   33.060    3.0542
   33.090    3.2754
   33.120    3.1280
   33.150    3.3491
   33.180    3.4123
   33.210    3.0964
   33.240    3.3070
   33.270    3.1701
   33.300    3.7177
   33.330    3.2438
   33.360    3.2333
   33.390    3.0121
   33.420    3.1490
   33.450    3.4018
   33.480    3.2543
   33.510    3.0858
   33.540    3.4650
   33.570    3.0648
   33.600    3.1069
   33.630    3.2227
   33.660    3.1490
   33.690    3.6546
   33.720    3.2333
   33.750    3.4650
   33.780    3.6440
   33.810    3.4439
   33.840    3.4439
   33.870    3.4229
   33.900    3.3702
   33.930    2.9384
   33.960    3.5492
   33.990    3.2543
   34.020    3.2859
   34.050    2.9489
   34.080    3.1385
   34.110    3.0332
   34.140    3.0437
   34.170    3.2017
   34.200    3.2543
   34.230    3.1280
   34.260    3.1174
   34.290    3.0332
   34.320    3.3070
   34.350    2.9700
   34.380    3.1596
   34.410    3.1280
   34.440    3.0964
   34.470    2.8120
   34.500    3.1069
   34.530    3.1912
   34.560    3.0332
   34.590    3.0858
   34.620    3.0648
   34.650    3.0964
   34.680    2.8541
   34.710    3.2859
   34.740    2.9384
   34.770    2.9700
   34.800    2.8541
   34.830    3.2017
   34.860    2.8963
   34.890    3.0542
   34.920    3.2438
   34.950    3.2438
   34.980    2.7067
   35.010    3.1701
   35.040    3.0964
   35.070    2.7804
   35.100    2.7699
   35.130    2.9700
   35.160    2.9700
   35.190    3.0332
   35.220    2.8963
   35.250    3.0858
   35.280    3.0437
   35.310    3.2227
   35.340    3.2333
   35.370    3.2122
   35.400    3.1280
   35.430    2.8857
   35.460    3.0332
   35.490    3.1490
   35.520    3.0121
   35.550    3.0332
   35.580    2.9489
   35.610    2.7593
   35.640    3.1912
   35.670    2.7488
   35.700    3.0648
   35.730    2.8015
   35.760    2.8752
   35.790    2.9384
   35.820    2.7804
   35.850    3.0964
   35.880    3.2227
   35.910    3.0648
   35.940    2.6751
   35.970    2.6751
   36.000    3.0753
   36.030    2.7383
   36.060    3.0226
   36.090    3.3386
   36.120    2.9910
   36.150    2.6119
   36.180    3.1280
   36.210    3.0226
   36.240    2.9279
   36.270    3.0542
   36.300    2.6119
   36.330    2.8752
   36.360    2.8752
   36.390    3.0121
   36.420    2.7909
   36.450    2.8857
   36.480    2.8331
   36.510    3.0648
   36.540    2.7488
   36.570    3.2965
   36.600    2.9700
   36.630    3.1385
   36.660    2.7804
   36.690    2.7909
   36.720    2.9068
   36.750    3.1490
   36.780    2.8331
   36.810    2.8963
   36.840    2.9805
   36.870    2.8752
   36.900    2.9173
   36.930    2.7804
   36.960    2.7383
   36.990    2.8752
   37.020    2.8647
   37.050    2.9489
   37.080    2.9700
   37.110    2.8541
   37.140    2.7699
   37.170    2.9279
   37.200    3.0648
   37.230    2.7172
   37.260    2.8752
   37.290    2.8225
   37.320    2.8015
   37.350    2.9595
   37.380    2.7699
   37.410    2.8225
   37.440    3.1280
   37.470    2.9384
   37.500    3.0648
   37.530    2.7278
   37.560    2.8225
   37.590    2.7699
   37.620    2.5908
   37.650    2.4645
   37.680    2.7383
   37.710    2.6119
   37.740    2.7909
   37.770    2.7278
   37.800    2.9173
   37.830    2.6119
   37.860    2.5803
   37.890    2.7067
   37.920    2.7909
   37.950    2.8436
   37.980    2.6119
   38.010    2.6119
   38.040    2.6119
   38.070    2.8752
   38.100    2.8015
   38.130    2.8752
   38.160    2.6014
   38.190    2.7593
   38.220    2.8120
   38.250    2.7278
   38.280    2.8752
   38.310    2.7909
   38.340    2.8647
   38.370    2.7172
   38.400    2.7383
   38.430    2.8436
   38.460    2.4645
   38.490    2.5276
   38.520    2.8436
   38.550    2.8752
   38.580    2.6751
   38.610    2.5803
   38.640    2.8963
   38.670    2.6646
   38.700    2.8541
   38.730    2.9805
   38.760    2.7172
   38.790    2.7699
   38.820    2.7067
   38.850    2.7804
   38.880    2.7172
   38.910    2.7172
   38.940    2.8331
   38.970    2.8120
   39.000    2.6014
   39.030    2.9279
   39.060    2.4539
   39.090    2.8752
   39.120    2.4434
   39.150    2.5592
   39.180    2.5066
   39.210    2.7593
   39.240    2.9173
   39.270    2.7383
   39.300    2.9279
   39.330    2.8225
   39.360    2.7067
   39.390    2.7488
   39.420    2.6751
   39.450    2.6751
   39.480    2.8752
   39.510    2.7593
   39.540    2.6224
   39.570    2.6856
   39.600    2.7804
   39.630    2.6962
   39.660    2.7172
   39.690    2.6856
   39.720    2.7383
   39.750    2.9489
   39.780    3.0121
   39.810    2.6540
   39.840    2.8436
   39.870    2.6962
   39.900    2.6856
   39.930    2.6856
   39.960    2.7804
   39.990    2.5592