File: data/MOCOF-1/PXRD/PXRD_KE-061_Cu-Ka1_capillary-1mm_5s-deg.xyd
    1.500   33.1964
    1.530   33.7757
    1.560   32.8173
    1.590   31.2059
    1.620   31.1532
    1.650   30.8162
    1.680   29.8999
    1.710   29.3207
    1.740   28.8468
    1.770   28.5835
    1.800   27.8778
    1.830   26.2665
    1.860   26.6772
    1.890   26.6035
    1.920   25.4450
    1.950   24.7183
    1.980   25.0658
    2.010   23.8231
    2.040   24.6867
    2.070   23.9389
    2.100   22.7699
    2.130   22.8015
    2.160   23.3070
    2.190   22.4539
    2.220   22.4434
    2.250   20.8426
    2.280   21.1796
    2.310   21.5166
    2.340   20.4002
    2.370   21.0111
    2.400   21.1585
    2.430   19.8315
    2.460   20.8636
    2.490   19.9684
    2.520   20.3897
    2.550   20.5055
    2.580   20.7478
    2.610   20.6951
    2.640   20.3581
    2.670   20.4845
    2.700   20.4950
    2.730   21.0743
    2.760   20.4318
    2.790   21.0321
    2.820   20.9163
    2.850   21.3270
    2.880   20.9268
    2.910   21.3586
    2.940   21.9168
    2.970   22.1485
    3.000   21.8431
    3.030   22.8015
    3.060   23.4123
    3.090   23.9600
    3.120   24.6024
    3.150   24.9184
    3.180   25.9610
    3.210   26.6245
    3.240   27.7199
    3.270   28.0463
    3.300   30.1211
    3.330   30.6266
    3.360   31.9747
    3.390   33.4176
    3.420   34.8078
    3.450   37.3881
    3.480   39.6840
    3.510   41.0743
    3.540   42.9384
    3.570   47.6567
    3.600   50.1211
    3.630   54.6182
    3.660   59.4629
    3.690   66.1611
    3.720   70.7530
    3.750   78.6730
    3.780   87.5935
    3.810  102.3486
    3.840  120.4529
    3.870  148.0464
    3.900  176.0506
    3.930  162.2012
    3.960  101.3376
    3.990   43.8125
    4.020   24.9184
    4.050   18.5255
    4.080   15.7135
    4.110   13.4176
    4.140   13.3228
    4.170   11.7641
    4.200   12.0379
    4.230   11.3007
    4.260   11.0585
    4.290   11.1216
    4.320    9.9315
    4.350   10.0053
    4.380    9.8157
    4.410   10.0895
    4.440    9.7525
    4.470   10.0369
    4.500    9.9631
    4.530   10.4055
    4.560    9.9421
    4.590   10.4371
    4.620   10.1316
    4.650   10.3107
    4.680   10.8162
    4.710   10.3002
    4.740   10.4581
    4.770   10.3633
    4.800   10.9005
    4.830   10.6688
    4.860   11.6272
    4.890   11.1743
    4.920   11.6272
    4.950   12.0484
    4.980   12.1116
    5.010   12.2275
    5.040   12.5329
    5.070   13.5334
    5.100   13.8705
    5.130   14.8605
    5.160   15.1343
    5.190   16.0821
    5.220   16.4086
    5.250   18.2938
    5.280   19.4313
    5.310   21.1058
    5.340   23.3597
    5.370   25.1817
    5.400   29.2891
    5.430   32.3117
    5.460   38.5571
    5.490   47.7725
    5.520   55.5766
    5.550   52.3749
    5.580   34.6498
    5.610   18.3149
    5.640   12.4171
    5.670   10.2475
    5.700    9.3312
    5.730    9.4576
    5.760    8.6361
    5.790    8.4044
    5.820    8.4255
    5.850    7.8252
    5.880    8.1411
    5.910    8.1833
    5.940    7.9410
    5.970    7.8146
    6.000    8.0358
    6.030    8.3096
    6.060    7.7304
    6.090    7.6145
    6.120    8.2149
    6.150    7.8568
    6.180    8.1517
    6.210    8.1938
    6.240    7.7620
    6.270    7.8252
    6.300    7.8357
    6.330    8.7098
    6.360    8.7204
    6.390    8.6361
    6.420    8.7204
    6.450    8.8994
    6.480    9.0153
    6.510    9.5313
    6.540   10.0053
    6.570   10.6161
    6.600   11.4587
    6.630   11.2796
    6.660   12.2170
    6.690   14.1548
    6.720   16.5034
    6.750   18.4308
    6.780   19.3576
    6.810   17.7778
    6.840   12.2696
    6.870    9.3418
    6.900    7.9831
    6.930    8.1833
    6.960    7.6777
    6.990    7.8884
    7.020    7.3934
    7.050    7.6461
    7.080    7.6356
    7.110    7.7304
    7.140    7.2670
    7.170    7.6883
    7.200    7.6251
    7.230    7.9200
    7.260    7.5619
    7.290    7.7936
    7.320    7.7830
    7.350    7.7093
    7.380    7.8989
    7.410    7.9937
    7.440    8.4781
    7.470    8.6993
    7.500    8.6783
    7.530    9.0363
    7.560    9.0679
    7.590    9.1943
    7.620    9.6367
    7.650   10.4581
    7.680   11.0585
    7.710   11.9537
    7.740   12.7541
    7.770   14.1969
    7.800   16.4192
    7.830   17.5145
    7.860   15.5029
    7.890   11.7430
    7.920    9.1732
    7.950    8.0674
    7.980    7.9410
    8.010    7.3091
    8.040    7.5092
    8.070    7.3302
    8.100    7.3512
    8.130    7.4250
    8.160    7.3828
    8.190    7.1722
    8.220    7.2880
    8.250    7.4250
    8.280    7.6145
    8.310    7.4144
    8.340    7.6251
    8.370    7.4882
    8.400    7.4144
    8.430    7.2459
    8.460    7.5619
    8.490    7.5619
    8.520    6.9826
    8.550    7.3934
    8.580    7.5619
    8.610    7.8357
    8.640    7.7830
    8.670    7.5829
    8.700    7.9937
    8.730    8.0569
    8.760    8.4887
    8.790    8.3834
    8.820    8.2675
    8.850    7.4776
    8.880    7.6251
    8.910    7.0774
    8.940    7.5724
    8.970    7.5619
    9.000    7.4882
    9.030    7.4882
    9.060    7.4566
    9.090    7.9410
    9.120    8.2149
    9.150    8.2570
    9.180    8.1622
    9.210    8.4255
    9.240    9.0785
    9.270    9.0258
    9.300    9.1943
    9.330    9.8473
    9.360   10.4055
    9.390   11.5113
    9.420   12.0484
    9.450   13.0806
    9.480   15.2817
    9.510   17.8410
    9.540   21.1480
    9.570   26.1822
    9.600   26.1717
    9.630   22.0853
    9.660   14.6709
    9.690   10.0263
    9.720    8.7204
    9.750    8.8152
    9.780    8.1727
    9.810    7.6988
    9.840    8.0147
    9.870    7.9621
    9.900    7.0248
    9.930    7.5935
    9.960    7.7409
    9.990    7.3091
   10.020    7.8041
   10.050    7.4882
   10.080    8.1517
   10.110    8.3728
   10.140    8.5097
   10.170    8.4887
   10.200    8.8257
   10.230    9.3102
   10.260   10.4792
   10.290   11.3217
   10.320   12.3117
   10.350   14.0074
   10.380   13.3017
   10.410   11.5113
   10.440    9.4471
   10.470    7.7199
   10.500    7.6567
   10.530    7.7725
   10.560    7.3512
   10.590    7.0248
   10.620    7.2249
   10.650    7.1722
   10.680    7.0142
   10.710    7.4776
   10.740    7.1195
   10.770    7.4460
   10.800    7.7936
   10.830    7.8252
   10.860    8.1938
   10.890    8.6677
   10.920    8.5624
   10.950    8.9731
   10.980   10.0895
   11.010   11.0479
   11.040   12.1327
   11.070   12.9015
   11.100   13.1016
   11.130   10.7320
   11.160    8.5835
   11.190    7.8568
   11.220    7.0037
   11.250    6.4982
   11.280    7.0353
   11.310    6.8878
   11.340    7.1617
   11.370    7.5513
   11.400    7.0774
   11.430    7.2354
   11.460    7.2459
   11.490    7.6461
   11.520    8.0463
   11.550    8.1095
   11.580    8.4150
   11.610    9.0469
   11.640    9.0995
   11.670   10.1211
   11.700   11.9431
   11.730   12.9015
   11.760   13.7967
   11.790   12.0800
   11.820    9.7314
   11.850    7.8462
   11.880    7.6356
   11.910    7.2459
   11.940    6.5613
   11.970    6.6351
   12.000    6.7509
   12.030    6.5087
   12.060    6.8246
   12.090    6.9510
   12.120    6.3823
   12.150    6.6667
   12.180    6.7299
   12.210    7.0669
   12.240    6.8668
   12.270    6.8352
   12.300    6.9089
   12.330    6.8246
   12.360    7.1195
   12.390    7.6145
   12.420    7.4039
   12.450    6.9826
   12.480    6.6772
   12.510    6.7299
   12.540    6.5298
   12.570    6.1085
   12.600    7.0985
   12.630    6.3402
   12.660    6.9300
   12.690    6.6877
   12.720    7.0037
   12.750    6.8246
   12.780    7.0037
   12.810    7.1617
   12.840    6.9405
   12.870    7.4566
   12.900    7.6567
   12.930    8.9415
   12.960    9.6367
   12.990   11.2270
   13.020   10.2370
   13.050    9.3312
   13.080    7.8462
   13.110    7.4355
   13.140    6.8141
   13.170    6.6035
   13.200    6.9089
   13.230    6.7720
   13.260    6.5824
   13.290    6.2875
   13.320    6.5403
   13.350    6.8246
   13.380    6.6245
   13.410    6.8457
   13.440    7.1301
   13.470    7.1511
   13.500    7.2670
   13.530    7.6777
   13.560    8.2570
   13.590    8.9100
   13.620    7.4987
   13.650    7.4355
   13.680    6.9300
   13.710    6.3928
   13.740    6.7509
   13.770    6.1927
   13.800    6.4982
   13.830    6.5192
   13.860    6.7825
   13.890    6.5403
   13.920    6.9616
   13.950    6.9616
   13.980    7.2775
   14.010    7.3512
   14.040    7.9726
   14.070    8.3939
   14.100    9.1732
   14.130   10.5845
   14.160    9.6261
   14.190    8.5624
   14.220    7.6251
   14.250    6.8668
   14.280    6.7193
   14.310    6.7088
   14.340    6.5087
   14.370    6.3086
   14.400    6.2875
   14.430    6.1717
   14.460    6.3296
   14.490    6.1401
   14.520    5.9084
   14.550    6.6561
   14.580    6.2138
   14.610    6.2349
   14.640    5.9189
   14.670    6.4350
   14.700    6.1927
   14.730    6.2033
   14.760    6.5087
   14.790    6.3402
   14.820    6.0348
   14.850    6.5508
   14.880    6.4034
   14.910    6.3718
   14.940    5.9821
   14.970    6.1822
   15.000    6.3823
   15.030    6.2770
   15.060    6.4982
   15.090    6.5613
   15.120    6.8036
   15.150    7.1617
   15.180    6.4455
   15.210    7.6988
   15.240    6.8457
   15.270    6.4771
   15.300    6.3086
   15.330    6.2454
   15.360    6.3402
   15.390    6.5087
   15.420    6.1295
   15.450    6.1295
   15.480    6.1717
   15.510    5.9821
   15.540    6.3823
   15.570    6.3086
   15.600    6.2138
   15.630    6.1717
   15.660    5.9716
   15.690    6.2243
   15.720    6.0874
   15.750    6.4244
   15.780    6.3718
   15.810    6.2138
   15.840    5.9400
   15.870    6.5403
   15.900    6.2559
   15.930    6.2559
   15.960    6.4034
   15.990    6.3612
   16.020    6.4876
   16.050    6.7193
   16.080    6.6140
   16.110    6.8457
   16.140    6.8036
   16.170    7.2354
   16.200    7.2775
   16.230    6.6456
   16.260    6.7720
   16.290    6.9616
   16.320    6.2770
   16.350    6.2875
   16.380    6.6351
   16.410    6.2033
   16.440    6.4244
   16.470    6.8457
   16.500    6.0769
   16.530    7.0248
   16.560    6.2875
   16.590    7.2775
   16.620    7.7304
   16.650    7.8778
   16.680    7.0563
   16.710    7.1301
   16.740    6.8246
   16.770    6.5508
   16.800    6.5192
   16.830    6.5403
   16.860    6.6351
   16.890    6.8668
   16.920    6.5929
   16.950    7.0985
   16.980    6.7930
   17.010    7.5829
   17.040    8.2570
   17.070    9.0469
   17.100    9.6577
   17.130    9.7209
   17.160    8.7625
   17.190    7.8357
   17.220    6.8562
   17.250    7.0142
   17.280    6.4455
   17.310    6.6351
   17.340    6.5508
   17.370    6.4560
   17.400    6.3296
   17.430    6.4350
   17.460    6.6667
   17.490    6.8562
   17.520    7.1406
   17.550    7.0669
   17.580    6.7615
   17.610    6.5613
   17.640    6.6140
   17.670    6.3718
   17.700    6.3612
   17.730    6.4139
   17.760    6.5087
   17.790    6.8773
   17.820    6.4560
   17.850    6.4771
   17.880    6.2349
   17.910    7.0353
   17.940    6.5824
   17.970    6.6456
   18.000    6.9405
   18.030    6.4350
   18.060    6.7720
   18.090    6.3507
   18.120    5.9400
   18.150    6.5613
   18.180    6.7088
   18.210    6.0242
   18.240    6.3507
   18.270    7.1406
   18.300    6.3296
   18.330    6.8246
   18.360    7.0879
   18.390    7.0353
   18.420    7.0774
   18.450    7.1195
   18.480    7.3618
   18.510    6.7193
   18.540    6.7088
   18.570    6.1085
   18.600    6.6140
   18.630    6.2981
   18.660    6.8246
   18.690    6.5929
   18.720    6.8457
   18.750    6.5824
   18.780    6.6877
   18.810    6.5824
   18.840    7.3091
   18.870    6.7404
   18.900    6.6667
   18.930    7.0458
   18.960    7.1195
   18.990    7.2565
   19.020    7.6672
   19.050    7.7199
   19.080    7.5092
   19.110    6.8457
   19.140    6.5192
   19.170    6.0664
   19.200    6.4876
   19.230    6.4455
   19.260    6.6140
   19.290    6.4560
   19.320    6.3507
   19.350    6.3928
   19.380    6.5929
   19.410    6.5192
   19.440    6.4455
   19.470    6.4244
   19.500    6.6561
   19.530    6.3823
   19.560    6.6772
   19.590    6.9089
   19.620    7.1722
   19.650    7.5303
   19.680    7.1511
   19.710    6.9300
   19.740    6.6140
   19.770    6.5508
   19.800    6.6140
   19.830    6.3402
   19.860    6.2770
   19.890    6.5824
   19.920    6.7193
   19.950    6.2665
   19.980    6.8457
   20.010    6.4455
   20.040    6.4666
   20.070    6.6140
   20.100    6.4034
   20.130    6.8562
   20.160    6.1085
   20.190    6.5192
   20.220    6.7193
   20.250    6.7615
   20.280    6.8878
   20.310    6.8878
   20.340    7.5303
   20.370    7.6145
   20.400    8.1095
   20.430    8.9310
   20.460    8.3412
   20.490    8.6045
   20.520    7.4355
   20.550    6.6245
   20.580    6.7825
   20.610    6.8668
   20.640    6.6035
   20.670    6.3718
   20.700    6.6772
   20.730    6.3086
   20.760    6.4244
   20.790    6.5719
   20.820    6.4666
   20.850    6.7299
   20.880    6.4771
   20.910    6.5719
   20.940    6.4560
   20.970    6.5087
   21.000    6.2981
   21.030    6.8141
   21.060    6.3507
   21.090    6.4666
   21.120    6.4034
   21.150    6.5719
   21.180    6.6140
   21.210    6.6667
   21.240    6.6877
   21.270    6.7930
   21.300    6.8668
   21.330    6.4876
   21.360    6.4876
   21.390    6.4560
   21.420    7.0353
   21.450    6.4666
   21.480    6.4982
   21.510    6.7509
   21.540    6.6877
   21.570    6.7299
   21.600    6.3823
   21.630    6.6245
   21.660    6.6983
   21.690    6.5087
   21.720    6.8457
   21.750    6.4982
   21.780    6.7930
   21.810    6.7404
   21.840    7.1195
   21.870    7.2249
   21.900    7.4250
   21.930    7.5829
   21.960    7.0458
   21.990    7.0563
   22.020    7.0248
   22.050    7.0037
   22.080    7.0353
   22.110    6.6667
   22.140    6.7299
   22.170    6.8141
   22.200    7.2565
   22.230    7.0037
   22.260    7.1722
   22.290    7.2354
   22.320    7.2565
   22.350    7.2565
   22.380    7.0985
   22.410    6.7299
   22.440    7.1301
   22.470    7.4882
   22.500    7.6040
   22.530    7.9094
   22.560    8.6256
   22.590    9.1522
   22.620    9.4260
   22.650    8.7204
   22.680    8.5519
   22.710    7.7936
   22.740    7.0458
   22.770    7.1301
   22.800    7.4776
   22.830    7.1511
   22.860    7.5197
   22.890    8.3202
   22.920    8.8573
   22.950    9.2575
   22.980    9.0469
   23.010    8.8994
   23.040    8.4887
   23.070    7.6777
   23.100    7.2986
   23.130    7.0353
   23.160    6.8457
   23.190    7.2670
   23.220    7.6672
   23.250    7.1933
   23.280    6.9721
   23.310    7.7514
   23.340    7.2459
   23.370    6.7615
   23.400    7.0248
   23.430    6.6561
   23.460    6.4666
   23.490    6.8562
   23.520    6.4244
   23.550    6.6772
   23.580    6.4560
   23.610    7.1722
   23.640    6.5929
   23.670    7.0774
   23.700    6.4139
   23.730    6.7299
   23.760    6.4034
   23.790    6.7088
   23.820    6.6667
   23.850    6.9405
   23.880    6.8773
   23.910    7.2354
   23.940    7.2459
   23.970    7.5724
   24.000    7.3723
   24.030    7.2038
   24.060    6.6140
   24.090    7.0037
   24.120    6.6877
   24.150    6.4560
   24.180    6.4244
   24.210    6.4666
   24.240    6.2770
   24.270    6.4455
   24.300    6.4982
   24.330    6.3507
   24.360    6.5929
   24.390    6.1717
   24.420    6.4666
   24.450    6.5824
   24.480    6.6245
   24.510    6.4034
   24.540    6.4350
   24.570    6.7193
   24.600    7.1406
   24.630    6.6983
   24.660    6.2875
   24.690    6.3718
   24.720    6.4876
   24.750    6.5508
   24.780    6.5087
   24.810    6.5824
   24.840    6.4139
   24.870    6.5192
   24.900    6.2665
   24.930    7.0458
   24.960    6.1401
   24.990    6.4560
   25.020    6.3612
   25.050    6.3823
   25.080    6.1611
   25.110    6.3612
   25.140    6.6245
   25.170    6.7088
   25.200    6.5824
   25.230    6.5824
   25.260    7.0458
   25.290    6.5929
   25.320    6.4560
   25.350    6.2243
   25.380    6.0453
   25.410    7.1195
   25.440    6.8352
   25.470    6.7720
   25.500    6.8457
   25.530    6.6456
   25.560    6.7299
   25.590    6.6983
   25.620    6.6035
   25.650    6.6667
   25.680    6.7193
   25.710    7.0669
   25.740    6.9826
   25.770    6.7404
   25.800    7.1617
   25.830    7.9831
   25.860    8.2570
   25.890    8.2464
   25.920    7.7304
   25.950    7.7725
   25.980    6.9510
   26.010    6.5929
   26.040    6.2349
   26.070    6.3718
   26.100    6.2875
   26.130    6.2243
   26.160    6.4455
   26.190    6.4771
   26.220    6.2349
   26.250    6.4034
   26.280    6.2665
   26.310    6.3191
   26.340    6.3823
   26.370    6.0242
   26.400    6.8773
   26.430    6.8562
   26.460    6.8984
   26.490    6.9616
   26.520    6.6456
   26.550    6.7404
   26.580    6.4455
   26.610    6.1295
   26.640    6.7088
   26.670    5.8347
   26.700    6.6351
   26.730    6.3928
   26.760    6.2981
   26.790    5.8768
   26.820    6.3296
   26.850    6.3086
   26.880    6.4034
   26.910    6.2770
   26.940    6.6351
   26.970    6.3507
   27.000    6.7825
   27.030    6.6877
   27.060    6.9826
   27.090    6.5613
   27.120    6.8984
   27.150    6.6772
   27.180    6.7720
   27.210    6.4244
   27.240    5.9716
   27.270    6.0979
   27.300    6.4455
   27.330    6.2349
   27.360    6.0032
   27.390    5.9189
   27.420    6.2243
   27.450    6.1822
   27.480    6.6035
   27.510    6.2033
   27.540    5.9716
   27.570    6.2665
   27.600    6.3507
   27.630    6.5403
   27.660    6.7825
   27.690    6.7825
   27.720    6.3507
   27.750    6.2349
   27.780    6.3296
   27.810    6.1506
   27.840    6.1822
   27.870    6.4244
   27.900    6.2243
   27.930    6.5613
   27.960    7.0037
   27.990    7.1933
   28.020    7.3828
   28.050    7.6461
   28.080    6.9405
   28.110    7.1722
   28.140    7.2038
   28.170    6.8984
   28.200    6.4034
   28.230    6.9721
   28.260    6.6667
   28.290    6.6140
   28.320    6.2033
   28.350    6.4771
   28.380    6.4244
   28.410    6.5824
   28.440    6.3402
   28.470    6.8246
   28.500    6.8352
   28.530    6.6667
   28.560    6.5508
   28.590    6.1295
   28.620    6.4034
   28.650    6.1927
   28.680    6.2875
   28.710    6.2665
   28.740    6.2981
   28.770    6.5087
   28.800    6.0137
   28.830    6.0664
   28.860    6.4139
   28.890    5.9505
   28.920    6.4876
   28.950    6.8773
   28.980    6.9194
   29.010    6.8878
   29.040    6.8036
   29.070    6.6351
   29.100    6.2243
   29.130    6.2349
   29.160    6.4455
   29.190    6.0874
   29.220    5.6872
   29.250    6.3086
   29.280    5.9610
   29.310    6.6561
   29.340    6.3086
   29.370    6.9089
   29.400    6.2665
   29.430    5.9294
   29.460    5.9926
   29.490    5.7188
   29.520    5.9610
   29.550    5.6661
   29.580    5.8768
   29.610    5.8557
   29.640    6.0032
   29.670    6.0874
   29.700    6.0348
   29.730    6.0137
   29.760    5.9294
   29.790    5.8768
   29.820    6.0242
   29.850    6.3086
   29.880    5.9505
   29.910    5.9400
   29.940    5.7083
   29.970    6.1927
   30.000    6.3086
   30.030    5.7925
   30.060    6.2665
   30.090    5.9294
   30.120    5.6029
   30.150    6.1927
   30.180    5.9505
   30.210    6.0769
   30.240    5.4766
   30.270    5.8347
   30.300    5.7715
   30.330    5.6872
   30.360    6.1822
   30.390    5.6135
   30.420    5.6345
   30.450    5.7715
   30.480    6.0664
   30.510    5.8136
   30.540    6.0558
   30.570    5.9505
   30.600    6.0874
   30.630    6.0664
   30.660    5.8768
   30.690    5.9610
   30.720    5.7083
   30.750    5.8452
   30.780    5.6661
   30.810    5.7293
   30.840    5.4871
   30.870    5.8031
   30.900    6.0664
   30.930    5.6977
   30.960    5.7925
   30.990    5.5819
   31.020    5.7399
   31.050    5.5503
   31.080    5.4660
   31.110    5.7188
   31.140    5.6767
   31.170    5.8557
   31.200    5.6029
   31.230    5.3397
   31.260    5.5292
   31.290    5.6556
   31.320    5.9400
   31.350    5.8662
   31.380    5.9821
   31.410    5.7925
   31.440    6.1611
   31.470    5.6872
   31.500    6.1085
   31.530    5.7188
   31.560    5.3923
   31.590    5.5714
   31.620    5.5503
   31.650    5.7925
   31.680    5.5714
   31.710    5.8978
   31.740    5.8557
   31.770    5.9084
   31.800    5.8873
   31.830    6.5613
   31.860    6.4876
   31.890    5.9189
   31.920    6.0664
   31.950    6.1085
   31.980    6.1822
   32.010    5.9189
   32.040    6.8984
   32.070    7.2354
   32.100    7.3618
   32.130    7.4882
   32.160    7.7514
   32.190    7.2880
   32.220    6.4244
   32.250    5.9821
   32.280    5.9821
   32.310    5.5714
   32.340    5.5608
   32.370    5.3818
   32.400    5.3291
   32.430    5.4028
   32.460    4.9394
   32.490    5.2343
   32.520    5.4660
   32.550    5.5608
   32.580    5.6767
   32.610    5.0658
   32.640    5.3186
   32.670    5.6872
   32.700    5.3502
   32.730    5.4871
   32.760    5.3818
   32.790    5.0974
   32.820    5.0869
   32.850    5.1395
   32.880    5.6872
   32.910    5.5187
   32.940    5.4028
   32.970    5.5398
   33.000    5.6240
   33.030    5.5503
   33.060    5.4976
   33.090    5.1817
   33.120    5.6451
   33.150    5.2659
   33.180    5.4028
   33.210    5.2343
   33.240    5.0764
   33.270    4.9921
   33.300    5.1395
   33.330    5.0974
   33.360    5.4134
   33.390    5.1395
   33.420    5.5082
   33.450    5.1922
   33.480    5.3081
   33.510    5.3818
   33.540    5.4344
   33.570    4.9921
   33.600    5.1080
   33.630    5.5398
   33.660    5.6767
   33.690    5.3291
   33.720    5.6556
   33.750    5.8452
   33.780    5.4239
   33.810    6.4350
   33.840    6.4139
   33.870    6.9089
   33.900    6.0664
   33.930    6.2454
   33.960    6.0348
   33.990    6.5508
   34.020    6.0032
   34.050    5.7609
   34.080    5.7083
   34.110    5.2133
   34.140    5.2027
   34.170    5.2449
   34.200    5.1185
   34.230    5.4555
   34.260    5.5608
   34.290    5.2343
   34.320    5.3607
   34.350    5.2659
   34.380    5.4239
   34.410    5.5924
   34.440    5.1606
   34.470    5.1185
   34.500    5.3502
   34.530    4.8552
   34.560    5.0658
   34.590    5.0869
   34.620    5.1711
   34.650    5.2027
   34.680    4.9816
   34.710    5.3818
   34.740    5.0026
   34.770    4.9816
   34.800    5.2870
   34.830    5.2975
   34.860    5.3081
   34.890    5.4871
   34.920    5.4028
   34.950    5.1395
   34.980    4.9710
   35.010    5.0237
   35.040    5.0553
   35.070    5.0237
   35.100    5.0869
   35.130    4.9921
   35.160    4.9500
   35.190    5.0237
   35.220    4.7815
   35.250    4.8657
   35.280    5.1501
   35.310    4.9605
   35.340    5.0237
   35.370    5.5398
   35.400    5.1606
   35.430    5.0553
   35.460    4.9921
   35.490    4.8657
   35.520    5.0974
   35.550    4.6551
   35.580    5.1711
   35.610    5.0237
   35.640    4.9500
   35.670    4.7920
   35.700    4.7604
   35.730    5.1395
   35.760    5.1922
   35.790    4.9289
   35.820    5.3607
   35.850    4.9605
   35.880    5.2238
   35.910    5.1711
   35.940    5.1395
   35.970    5.1711
   36.000    4.9816
   36.030    5.0448
   36.060    4.9394
   36.090    4.8236
   36.120    5.1501
   36.150    5.2343
   36.180    5.0658
   36.210    5.0764
   36.240    5.0553
   36.270    5.1922
   36.300    5.4344
   36.330    4.6761
   36.360    4.7499
   36.390    5.1922
   36.420    4.8341
   36.450    4.9816
   36.480    5.1080
   36.510    4.9921
   36.540    5.0237
   36.570    5.0974
   36.600    5.0658
   36.630    5.3923
   36.660    5.2133
   36.690    4.9605
   36.720    4.9605
   36.750    5.4660
   36.780    5.0026
   36.810    5.0132
   36.840    4.6340
   36.870    4.7288
   36.900    5.1606
   36.930    5.0553
   36.960    5.0869
   36.990    4.8763
   37.020    5.3818
   37.050    5.2133
   37.080    4.7604
   37.110    5.1395
   37.140    5.3081
   37.170    5.3607
   37.200    5.2870
   37.230    5.1501
   37.260    4.9500
   37.290    4.7183
   37.320    5.0764
   37.350    4.7288
   37.380    4.8341
   37.410    5.0026
   37.440    4.6340
   37.470    5.1606
   37.500    5.0132
   37.530    4.9710
   37.560    5.0132
   37.590    5.0658
   37.620    5.1185
   37.650    4.9605
   37.680    4.8341
   37.710    5.1501
   37.740    4.8868
   37.770    4.9394
   37.800    5.1185
   37.830    4.7393
   37.860    4.8341
   37.890    5.2133
   37.920    5.0553
   37.950    5.1606
   37.980    4.9921
   38.010    4.9184
   38.040    4.9816
   38.070    4.8973
   38.100    5.1290
   38.130    4.8341
   38.160    4.8973
   38.190    4.8763
   38.220    5.0764
   38.250    4.8236
   38.280    4.9078
   38.310    4.7288
   38.340    4.8868
   38.370    5.2343
   38.400    4.9500
   38.430    5.2870
   38.460    5.3186
   38.490    4.9289
   38.520    4.9078
   38.550    4.9078
   38.580    5.2133
   38.610    4.8447
   38.640    5.1501
   38.670    5.1606
   38.700    4.9289
   38.730    5.0764
   38.760    4.7393
   38.790    4.7709
   38.820    4.9605
   38.850    4.7393
   38.880    4.9078
   38.910    4.4655
   38.940    4.5603
   38.970    4.6024
   39.000    4.7288
   39.030    4.6130
   39.060    4.8341
   39.090    4.7393
   39.120    4.8341
   39.150    5.0448
   39.180    4.7815
   39.210    4.7393
   39.240    4.8131
   39.270    4.6761
   39.300    4.9500
   39.330    4.7920
   39.360    4.6867
   39.390    4.7709
   39.420    5.2870
   39.450    4.7183
   39.480    4.7499
   39.510    4.9710
   39.540    4.6445
   39.570    4.6761
   39.600    4.9289
   39.630    4.5603
   39.660    4.9184
   39.690    5.0764
   39.720    4.9710
   39.750    4.9184
   39.780    4.9184
   39.810    4.8341
   39.840    4.8868
   39.870    4.5814
   39.900    4.5919
   39.930    4.7499
   39.960    4.8657
   39.990    4.6235