File: data/MOCOF-1/PXRD/PXRD_KE-085_Cu-Ka1_capillary-1mm_5s-deg.xyd
    1.500   43.1280
    1.530   43.0437
    1.560   42.3486
    1.590   42.4223
    1.620   40.2949
    1.650   39.5261
    1.680   38.5571
    1.710   37.2407
    1.740   37.0932
    1.770   36.1137
    1.800   36.3244
    1.830   34.5866
    1.860   34.0074
    1.890   33.2175
    1.920   33.1332
    1.950   32.0695
    1.980   32.6382
    2.010   30.9637
    2.040   30.6582
    2.070   30.5635
    2.100   30.2159
    2.130   29.8473
    2.160   28.7309
    2.190   28.7204
    2.220   28.1727
    2.250   28.2886
    2.280   27.0985
    2.310   28.0463
    2.340   26.9616
    2.370   27.1933
    2.400   27.4987
    2.430   27.1406
    2.460   25.3186
    2.490   26.4876
    2.520   25.7715
    2.550   25.8136
    2.580   25.4660
    2.610   26.3086
    2.640   26.5508
    2.670   27.0248
    2.700   27.7093
    2.730   26.9721
    2.760   27.6672
    2.790   26.7615
    2.820   27.5513
    2.850   27.7093
    2.880   28.3728
    2.910   29.3734
    2.940   28.8678
    2.970   30.0053
    3.000   30.3739
    3.030   30.8162
    3.060   31.4692
    3.090   32.5961
    3.120   32.7014
    3.150   34.7025
    3.180   37.2933
    3.210   37.6303
    3.240   39.3786
    3.270   41.2428
    3.300   43.2649
    3.330   44.7815
    3.360   47.1933
    3.390   51.1638
    3.420   53.6914
    3.450   57.0721
    3.480   58.3465
    3.510   61.8957
    3.540   64.3497
    3.570   69.4576
    3.600   75.2396
    3.630   80.7372
    3.660   88.7099
    3.690   97.4197
    3.720  110.1633
    3.750  123.4545
    3.780  143.6335
    3.810  171.8273
    3.840  223.8547
    3.870  270.4371
    3.900  242.3276
    3.930  129.6893
    3.960   42.4013
    3.990   25.4239
    4.020   21.3270
    4.050   18.3360
    4.080   17.1037
    4.110   16.1769
    4.140   15.7662
    4.170   14.6288
    4.200   14.0284
    4.230   13.5861
    4.260   13.5229
    4.290   12.7646
    4.320   13.0384
    4.350   12.9753
    4.380   12.1432
    4.410   12.6172
    4.440   12.2801
    4.470   12.1748
    4.500   12.5118
    4.530   12.2801
    4.560   12.0800
    4.590   12.0906
    4.620   12.7014
    4.650   12.4381
    4.680   12.5856
    4.710   12.8489
    4.740   13.3755
    4.770   12.9858
    4.800   13.0384
    4.830   13.0806
    4.860   12.9858
    4.890   13.2070
    4.920   14.1127
    4.950   14.2707
    4.980   14.8815
    5.010   15.0290
    5.040   15.8189
    5.070   15.8610
    5.100   17.4513
    5.130   17.6619
    5.160   18.6414
    5.190   19.2733
    5.220   21.8220
    5.250   22.5908
    5.280   24.8552
    5.310   26.5929
    5.340   28.8678
    5.370   32.1011
    5.400   37.1248
    5.430   43.9705
    5.460   56.4613
    5.490   68.0779
    5.520   64.1496
    5.550   38.6940
    5.580   17.1669
    5.610   12.7751
    5.640   10.9426
    5.670   10.6266
    5.700   11.0163
    5.730   10.2686
    5.760    9.9105
    5.790   10.3107
    5.820    9.7314
    5.850   10.0053
    5.880    9.9737
    5.910    9.9421
    5.940    9.9526
    5.970    9.4576
    6.000    9.9842
    6.030    9.6472
    6.060    9.6998
    6.090    9.8999
    6.120   10.1422
    6.150    9.8789
    6.180    9.9526
    6.210   10.1843
    6.240   10.1948
    6.270   10.3633
    6.300   10.2370
    6.330    9.9421
    6.360   10.4792
    6.390   10.3528
    6.420   11.0374
    6.450   11.8483
    6.480   11.5113
    6.510   11.6693
    6.540   11.9958
    6.570   12.1116
    6.600   13.2701
    6.630   14.4181
    6.660   15.2080
    6.690   17.7146
    6.720   19.8526
    6.750   22.1169
    6.780   18.3254
    6.810   13.7967
    6.840   10.6793
    6.870   10.5951
    6.900   10.1843
    6.930    9.4365
    6.960    9.4787
    6.990    9.7946
    7.020    9.4892
    7.050    9.5524
    7.080    9.0574
    7.110    9.7314
    7.140    9.3628
    7.170    9.6893
    7.200    9.7420
    7.230    9.4365
    7.260    9.2996
    7.290    9.6261
    7.320   10.1211
    7.350   10.0895
    7.380    9.7209
    7.410   10.3739
    7.440   10.5740
    7.470   10.4265
    7.500   10.8268
    7.530   11.4797
    7.560   11.6061
    7.590   12.2591
    7.620   13.1332
    7.650   13.7335
    7.680   14.5972
    7.710   16.5456
    7.740   19.4102
    7.770   22.8541
    7.800   23.8968
    7.830   20.1685
    7.860   14.0390
    7.890   11.1532
    7.920    9.8684
    7.950    9.9105
    7.980    9.3207
    8.010    9.7630
    8.040    8.9415
    8.070    8.9942
    8.100    9.1838
    8.130    9.8894
    8.160    9.0047
    8.190    9.2575
    8.220    9.1732
    8.250    9.3839
    8.280    9.7420
    8.310    9.2891
    8.340    8.9731
    8.370    9.4155
    8.400    9.1627
    8.430    9.7525
    8.460    9.6156
    8.490    9.4260
    8.520    9.7946
    8.550    9.6893
    8.580    9.5103
    8.610    9.8684
    8.640    9.6682
    8.670   10.2264
    8.700   10.9531
    8.730   10.6793
    8.760   10.5424
    8.790    9.8578
    8.820    9.2680
    8.850    9.2575
    8.880    9.0995
    8.910    9.2154
    8.940    9.4787
    8.970    9.0679
    9.000    9.5629
    9.030    9.7104
    9.060    9.4681
    9.090   10.0579
    9.120    9.5629
    9.150   10.3002
    9.180   10.0158
    9.210   10.7004
    9.240   10.9215
    9.270   11.5113
    9.300   11.8378
    9.330   12.7120
    9.360   13.9758
    9.390   15.2607
    9.420   17.1564
    9.450   19.0311
    9.480   22.4750
    9.510   27.2143
    9.540   32.1748
    9.570   33.7125
    9.600   27.4355
    9.630   16.6403
    9.660   10.9531
    9.690   10.0053
    9.720   10.1422
    9.750    9.3207
    9.780    9.3523
    9.810    9.0363
    9.840    9.4050
    9.870    9.9526
    9.900    9.4892
    9.930    9.8894
    9.960    9.4365
    9.990    9.5208
   10.020    9.6788
   10.050    9.9421
   10.080    9.9947
   10.110   10.5845
   10.140   10.9426
   10.170   10.6688
   10.200   11.8799
   10.230   11.6588
   10.260   13.6072
   10.290   15.9136
   10.320   16.7035
   10.350   16.4613
   10.380   14.4181
   10.410   10.9531
   10.440    9.4576
   10.470    9.3734
   10.500    9.0153
   10.530    9.1522
   10.560    9.6156
   10.590    9.1311
   10.620    9.3312
   10.650    8.7098
   10.680    8.7941
   10.710    9.3734
   10.740    9.5103
   10.770    9.8368
   10.800    9.2786
   10.830   10.2370
   10.860   10.0685
   10.890   10.6161
   10.920   11.5956
   10.950   11.9115
   10.980   13.8283
   11.010   15.9979
   11.040   17.0300
   11.070   16.7246
   11.100   13.8389
   11.130   10.7004
   11.160    9.5419
   11.190    9.2891
   11.220    9.0995
   11.250    8.8257
   11.280    9.1206
   11.310    9.2364
   11.340    9.1417
   11.370    9.1838
   11.400    9.1417
   11.430    9.3734
   11.460    9.1101
   11.490   10.5108
   11.520    9.9526
   11.550   10.5003
   11.580   10.8794
   11.610   12.1643
   11.640   13.2385
   11.670   15.4292
   11.700   17.5040
   11.730   18.2938
   11.760   16.1769
   11.790   11.8483
   11.820    9.9421
   11.850    9.8157
   11.880    8.7520
   11.910    8.3623
   11.940    8.3728
   11.970    8.5308
   12.000    8.9521
   12.030    8.5519
   12.060    8.3202
   12.090    8.3623
   12.120    8.4992
   12.150    8.5729
   12.180    8.5940
   12.210    8.5940
   12.240    8.8362
   12.270    9.2048
   12.300    9.6788
   12.330    9.0785
   12.360    9.8789
   12.390    9.6788
   12.420    8.8468
   12.450    9.1206
   12.480    8.4360
   12.510    8.2254
   12.540    8.2254
   12.570    8.5624
   12.600    8.3202
   12.630    8.5835
   12.660    8.5203
   12.690    8.8889
   12.720    8.7204
   12.750    8.3834
   12.780    9.1311
   12.810    9.6051
   12.840    9.4365
   12.870   10.4265
   12.900   11.7852
   12.930   13.1227
   12.960   14.0495
   12.990   13.6914
   13.020   11.5429
   13.050    9.6788
   13.080    9.0679
   13.110    8.2464
   13.140    8.1306
   13.170    8.1306
   13.200    8.1833
   13.230    8.0569
   13.260    8.3623
   13.290    8.8889
   13.320    8.4360
   13.350    8.2570
   13.380    8.7204
   13.410    8.5519
   13.440    8.9205
   13.470    9.5208
   13.500   10.2791
   13.530   10.9637
   13.560   11.1006
   13.590    9.9210
   13.620    9.4471
   13.650    8.7204
   13.680    8.2149
   13.710    8.5624
   13.740    7.7936
   13.770    8.5203
   13.800    7.8989
   13.830    8.1095
   13.860    8.8257
   13.890    8.6256
   13.920    8.7941
   13.950    9.2891
   13.980    9.3207
   14.010    9.8473
   14.040   11.3639
   14.070   12.7751
   14.100   13.7019
   14.130   13.0806
   14.160   10.8899
   14.190    9.5735
   14.220    8.5203
   14.250    8.0990
   14.280    7.9200
   14.310    7.8252
   14.340    8.3623
   14.370    8.1411
   14.400    7.8568
   14.430    8.3412
   14.460    7.9410
   14.490    7.6461
   14.520    8.0990
   14.550    7.9937
   14.580    8.2780
   14.610    7.8041
   14.640    7.8778
   14.670    7.6145
   14.700    7.8462
   14.730    7.7936
   14.760    8.2359
   14.790    8.0147
   14.820    8.1201
   14.850    8.4676
   14.880    8.0042
   14.910    8.1201
   14.940    8.2359
   14.970    7.8989
   15.000    8.3623
   15.030    8.7414
   15.060    8.6783
   15.090    8.6677
   15.120    8.9205
   15.150    9.6893
   15.180    9.3418
   15.210    9.3628
   15.240    8.9626
   15.270    7.9516
   15.300    7.9726
   15.330    8.1411
   15.360    8.1306
   15.390    7.9516
   15.420    7.9516
   15.450    7.8462
   15.480    8.0569
   15.510    8.1411
   15.540    8.1517
   15.570    8.1517
   15.600    7.3934
   15.630    8.1095
   15.660    7.7936
   15.690    7.7830
   15.720    7.7409
   15.750    8.0674
   15.780    7.9621
   15.810    8.0253
   15.840    7.8778
   15.870    8.4044
   15.900    8.3307
   15.930    7.7514
   15.960    7.6145
   15.990    8.0463
   16.020    8.3939
   16.050    8.4571
   16.080    8.8152
   16.110    8.8046
   16.140    9.2575
   16.170    9.8894
   16.200    9.3734
   16.230    8.4571
   16.260    8.0042
   16.290    8.1727
   16.320    7.9094
   16.350    8.2886
   16.380    8.0779
   16.410    8.2991
   16.440    8.1938
   16.470    8.0358
   16.500    8.1833
   16.530    8.7098
   16.560    9.5208
   16.590    9.5419
   16.620    9.9842
   16.650    9.4681
   16.680    9.6261
   16.710    8.5203
   16.740    8.2780
   16.770    8.4255
   16.800    8.4150
   16.830    8.3728
   16.860    8.8678
   16.890    8.8678
   16.920    8.8468
   16.950    9.0047
   16.980    9.8578
   17.010   10.5740
   17.040   11.4587
   17.070   11.9431
   17.100   12.5329
   17.130   11.6377
   17.160    9.5945
   17.190    9.0469
   17.220    8.7625
   17.250    8.5308
   17.280    7.9831
   17.310    8.3307
   17.340    8.1938
   17.370    8.2570
   17.400    8.2886
   17.430    8.2043
   17.460    8.3939
   17.490    8.8784
   17.520    9.1943
   17.550    8.6151
   17.580    8.1938
   17.610    8.3939
   17.640    8.3412
   17.670    8.0674
   17.700    8.1411
   17.730    8.4466
   17.760    8.5308
   17.790    8.1201
   17.820    8.2886
   17.850    8.0990
   17.880    8.1411
   17.910    8.7836
   17.940    9.0785
   17.970    8.8573
   18.000    8.6993
   18.030    8.2570
   18.060    8.2359
   18.090    8.0042
   18.120    7.8041
   18.150    8.3939
   18.180    7.5935
   18.210    8.2254
   18.240    8.2359
   18.270    8.4044
   18.300    8.7520
   18.330    8.4781
   18.360    8.9837
   18.390    8.8257
   18.420    9.4892
   18.450    8.6783
   18.480    8.3307
   18.510    8.6572
   18.540    7.8146
   18.570    8.5413
   18.600    8.0253
   18.630    8.6572
   18.660    8.4360
   18.690    8.2043
   18.720    8.4676
   18.750    8.2886
   18.780    8.8257
   18.810    8.9521
   18.840    8.7625
   18.870    8.5940
   18.900    8.4781
   18.930    7.8884
   18.960    8.1833
   18.990    7.9621
   19.020    8.0990
   19.050    8.6045
   19.080    7.8989
   19.110    8.2780
   19.140    8.1201
   19.170    8.1727
   19.200    8.3728
   19.230    8.7941
   19.260    8.1938
   19.290    7.8568
   19.320    8.1622
   19.350    8.1727
   19.380    8.4255
   19.410    8.0990
   19.440    8.1727
   19.470    8.3518
   19.500    8.2886
   19.530    9.3102
   19.560    9.5735
   19.590    9.3312
   19.620   10.1001
   19.650    9.6472
   19.680    9.7946
   19.710    8.9521
   19.740    8.1833
   19.770    8.0674
   19.800    8.2570
   19.830    8.3623
   19.860    8.0147
   19.890    8.5835
   19.920    8.0042
   19.950    8.0990
   19.980    8.4676
   20.010    7.9937
   20.040    8.5729
   20.070    8.2886
   20.100    7.8884
   20.130    8.1095
   20.160    8.5835
   20.190    8.6993
   20.220    8.6151
   20.250    8.9837
   20.280    8.7836
   20.310    9.3628
   20.340   10.3528
   20.370   11.2480
   20.400   11.4376
   20.430   11.1532
   20.460   10.7214
   20.490    9.3102
   20.520    8.8889
   20.550    8.5729
   20.580    8.4360
   20.610    8.3096
   20.640    8.1622
   20.670    8.1938
   20.700    8.3412
   20.730    8.1306
   20.760    8.2886
   20.790    8.2675
   20.820    8.2886
   20.850    8.3307
   20.880    8.3202
   20.910    8.4255
   20.940    8.2780
   20.970    7.9516
   21.000    8.1411
   21.030    8.2780
   21.060    8.1833
   21.090    8.1727
   21.120    7.9831
   21.150    8.7204
   21.180    8.3728
   21.210    8.4887
   21.240    8.5308
   21.270    8.3834
   21.300    8.3202
   21.330    8.1517
   21.360    7.9937
   21.390    8.1938
   21.420    8.3518
   21.450    8.3623
   21.480    8.2991
   21.510    8.0674
   21.540    8.3096
   21.570    8.1201
   21.600    8.3412
   21.630    8.4360
   21.660    8.2886
   21.690    8.5835
   21.720    8.6361
   21.750    8.4150
   21.780    8.8362
   21.810    9.1732
   21.840    9.4892
   21.870    9.3734
   21.900   10.0158
   21.930    9.8894
   21.960    9.1101
   21.990    8.1938
   22.020    8.1622
   22.050    8.6256
   22.080    8.3096
   22.110    9.1943
   22.140    8.7309
   22.170    8.9100
   22.200    8.8784
   22.230    9.1101
   22.260    9.1627
   22.290    9.2996
   22.320    8.2254
   22.350    8.6677
   22.380    8.6256
   22.410    9.1311
   22.440    9.3207
   22.470    9.5313
   22.500   10.1211
   22.530   10.6372
   22.560   11.3007
   22.590   12.3328
   22.620   11.7852
   22.650   11.1111
   22.680   10.4265
   22.710    9.5840
   22.740    9.4576
   22.770    9.5629
   22.800    9.1838
   22.830    9.9526
   22.860   10.6793
   22.890   11.2375
   22.920   12.2591
   22.950   12.2801
   22.980   11.8799
   23.010   10.7320
   23.040   10.0158
   23.070    8.8257
   23.100    8.9521
   23.130    8.7730
   23.160    8.8889
   23.190    9.1311
   23.220    9.2786
   23.250    9.6472
   23.280    9.5103
   23.310    8.8362
   23.340    9.5103
   23.370    9.4787
   23.400    8.5835
   23.430    8.5835
   23.460    8.1306
   23.490    8.8257
   23.520    8.9837
   23.550    8.6467
   23.580    8.4992
   23.610    8.6677
   23.640    9.0995
   23.670    8.6993
   23.700    8.6361
   23.730    8.8362
   23.760    8.5097
   23.790    8.8468
   23.820    8.8994
   23.850    8.6151
   23.880    9.1101
   23.910    9.1522
   23.940    9.0469
   23.970    8.9731
   24.000    8.9310
   24.030    8.8889
   24.060    8.8678
   24.090    8.4150
   24.120    7.9305
   24.150    8.2991
   24.180    8.3834
   24.210    7.8673
   24.240    8.5203
   24.270    8.5308
   24.300    8.7730
   24.330    8.1938
   24.360    8.2149
   24.390    8.0674
   24.420    7.7620
   24.450    8.2780
   24.480    8.2570
   24.510    8.4255
   24.540    8.8889
   24.570    8.8257
   24.600    8.7625
   24.630    8.5097
   24.660    8.1938
   24.690    8.0569
   24.720    7.9726
   24.750    8.2886
   24.780    8.2254
   24.810    7.9094
   24.840    8.2886
   24.870    8.1095
   24.900    8.2991
   24.930    8.1938
   24.960    8.5519
   24.990    8.3939
   25.020    7.9937
   25.050    8.7730
   25.080    7.9305
   25.110    7.7620
   25.140    8.3939
   25.170    8.0990
   25.200    8.6256
   25.230    8.7309
   25.260    8.2780
   25.290    8.2464
   25.320    8.3202
   25.350    7.8462
   25.380    8.1517
   25.410    8.5308
   25.440    8.5519
   25.470    8.8784
   25.500    8.8468
   25.530    8.8152
   25.560    8.7730
   25.590    8.8468
   25.620    8.2675
   25.650    8.4571
   25.680    8.2886
   25.710    8.8678
   25.740    9.5419
   25.770    9.3102
   25.800    9.4787
   25.830   10.5003
   25.860   10.8478
   25.890   10.4371
   25.920    9.4365
   25.950    9.5945
   25.980    8.8573
   26.010    8.2675
   26.040    8.3623
   26.070    8.1411
   26.100    8.0885
   26.130    8.3412
   26.160    7.9621
   26.190    8.5729
   26.220    8.6151
   26.250    8.1095
   26.280    7.8989
   26.310    7.9200
   26.340    8.3939
   26.370    8.4781
   26.400    8.6361
   26.430    8.9942
   26.460    8.7836
   26.490    8.3518
   26.520    8.5624
   26.550    8.2886
   26.580    8.2675
   26.610    8.1201
   26.640    8.1306
   26.670    8.1517
   26.700    7.5619
   26.730    8.1833
   26.760    8.2464
   26.790    7.8252
   26.820    8.3834
   26.850    7.6040
   26.880    7.9937
   26.910    8.1517
   26.940    8.8152
   26.970    8.3939
   27.000    8.7941
   27.030    9.1627
   27.060    9.6577
   27.090    9.2154
   27.120    8.4044
   27.150    8.5940
   27.180    8.1306
   27.210    8.2675
   27.240    7.8568
   27.270    7.9094
   27.300    7.6251
   27.330    7.6145
   27.360    8.1411
   27.390    8.1306
   27.420    7.5619
   27.450    8.1622
   27.480    8.0779
   27.510    8.0463
   27.540    7.9305
   27.570    8.0253
   27.600    8.4676
   27.630    8.2991
   27.660    8.4676
   27.690    8.2464
   27.720    8.2780
   27.750    7.5619
   27.780    7.7409
   27.810    8.5203
   27.840    8.1411
   27.870    8.0990
   27.900    8.0253
   27.930    8.1201
   27.960    7.8568
   27.990    8.2464
   28.020    7.8673
   28.050    8.1622
   28.080    7.9621
   28.110    8.1727
   28.140    8.4571
   28.170    8.8362
   28.200    8.2464
   28.230    9.1101
   28.260    8.8362
   28.290    8.5729
   28.320    8.5940
   28.350    7.7620
   28.380    8.2254
   28.410    8.1727
   28.440    8.4255
   28.470    8.4360
   28.500    8.3412
   28.530    8.3834
   28.560    8.2359
   28.590    8.0358
   28.620    8.0990
   28.650    7.9410
   28.680    8.0253
   28.710    8.0990
   28.740    7.4355
   28.770    7.5197
   28.800    8.3307
   28.830    7.7409
   28.860    8.1095
   28.890    8.0147
   28.920    7.6777
   28.950    7.8462
   28.980    7.5513
   29.010    7.5935
   29.040    7.6988
   29.070    7.4250
   29.100    7.6356
   29.130    7.5513
   29.160    7.6356
   29.190    7.8146
   29.220    8.1833
   29.250    7.9937
   29.280    8.1411
   29.310    8.2359
   29.340    8.1517
   29.370    8.4781
   29.400    7.9726
   29.430    7.8884
   29.460    7.3512
   29.490    7.8146
   29.520    8.0147
   29.550    7.7304
   29.580    7.2459
   29.610    7.7620
   29.640    7.5935
   29.670    6.9932
   29.700    7.5513
   29.730    7.8041
   29.760    7.7093
   29.790    7.8252
   29.820    7.8673
   29.850    7.7830
   29.880    7.9726
   29.910    7.4460
   29.940    7.8041
   29.970    7.6040
   30.000    7.5935
   30.030    7.8673
   30.060    7.6988
   30.090    7.7304
   30.120    7.6040
   30.150    7.4671
   30.180    7.7725
   30.210    7.3091
   30.240    7.5513
   30.270    7.8673
   30.300    7.2459
   30.330    7.6777
   30.360    7.7199
   30.390    7.2986
   30.420    6.9089
   30.450    7.4460
   30.480    7.6040
   30.510    7.9200
   30.540    7.5092
   30.570    7.6672
   30.600    7.8041
   30.630    7.7936
   30.660    7.6145
   30.690    7.4987
   30.720    7.9937
   30.750    7.9410
   30.780    7.4250
   30.810    7.3302
   30.840    7.4355
   30.870    7.7093
   30.900    7.2986
   30.930    7.5619
   30.960    7.4882
   30.990    7.5935
   31.020    6.9194
   31.050    7.1933
   31.080    6.9826
   31.110    7.4144
   31.140    7.2459
   31.170    7.5092
   31.200    7.0248
   31.230    6.9300
   31.260    7.4355
   31.290    7.3302
   31.320    7.2670
   31.350    7.6251
   31.380    7.7936
   31.410    7.9831
   31.440    7.8462
   31.470    7.4566
   31.500    7.0879
   31.530    7.9200
   31.560    7.4566
   31.590    7.8357
   31.620    7.0879
   31.650    7.5197
   31.680    7.6988
   31.710    7.6777
   31.740    7.8989
   31.770    7.9200
   31.800    8.3834
   31.830    8.7098
   31.860    8.1095
   31.890    7.7093
   31.920    7.4566
   31.950    7.7514
   31.980    7.5303
   32.010    7.7830
   32.040    7.5724
   32.070    7.6251
   32.100    7.2565
   32.130    7.2670
   32.160    7.2565
   32.190    7.5829
   32.220    7.6672
   32.250    7.2038
   32.280    7.4566
   32.310    6.8457
   32.340    6.9510
   32.370    7.6883
   32.400    7.2038
   32.430    7.3618
   32.460    7.0458
   32.490    7.1301
   32.520    7.2354
   32.550    7.1827
   32.580    7.1933
   32.610    6.9194
   32.640    7.3723
   32.670    7.1827
   32.700    6.8457
   32.730    6.6140
   32.760    7.1933
   32.790    7.4987
   32.820    7.2038
   32.850    7.6883
   32.880    7.7514
   32.910    7.2038
   32.940    7.4039
   32.970    7.4039
   33.000    7.1933
   33.030    7.5513
   33.060    7.5724
   33.090    7.0879
   33.120    6.9300
   33.150    7.2354
   33.180    6.8246
   33.210    6.9721
   33.240    6.5929
   33.270    7.0985
   33.300    7.3091
   33.330    7.0248
   33.360    6.7720
   33.390    7.4671
   33.420    6.8141
   33.450    7.0774
   33.480    6.9616
   33.510    7.0774
   33.540    7.2459
   33.570    7.1617
   33.600    7.1827
   33.630    7.2880
   33.660    7.0037
   33.690    7.2354
   33.720    6.8036
   33.750    7.0037
   33.780    7.1827
   33.810    7.5619
   33.840    7.5513
   33.870    7.5197
   33.900    8.0990
   33.930    7.8989
   33.960    7.8252
   33.990    7.5724
   34.020    7.6672
   34.050    7.1406
   34.080    7.3512
   34.110    7.2986
   34.140    6.6877
   34.170    7.2038
   34.200    7.2249
   34.230    7.0037
   34.260    7.0248
   34.290    7.0037
   34.320    7.2249
   34.350    7.0353
   34.380    7.6988
   34.410    7.1722
   34.440    6.7615
   34.470    7.0458
   34.500    7.1617
   34.530    6.7615
   34.560    7.1195
   34.590    6.8457
   34.620    6.7930
   34.650    6.9300
   34.680    7.0774
   34.710    7.2249
   34.740    7.1195
   34.770    7.0985
   34.800    7.2354
   34.830    6.8457
   34.860    6.9616
   34.890    6.8141
   34.920    7.0248
   34.950    6.8562
   34.980    7.2565
   35.010    7.0985
   35.040    7.0669
   35.070    7.1406
   35.100    6.8773
   35.130    6.9194
   35.160    6.6877
   35.190    7.1301
   35.220    7.1406
   35.250    7.0142
   35.280    6.9826
   35.310    6.8773
   35.340    6.8036
   35.370    7.0248
   35.400    6.8984
   35.430    6.6140
   35.460    6.8457
   35.490    6.4139
   35.520    6.7299
   35.550    6.7404
   35.580    6.7509
   35.610    6.7615
   35.640    6.6245
   35.670    6.8562
   35.700    6.7615
   35.730    7.1406
   35.760    7.6145
   35.790    6.8562
   35.820    6.7193
   35.850    6.9721
   35.880    7.1617
   35.910    6.7615
   35.940    7.0563
   35.970    6.8984
   36.000    7.0563
   36.030    6.9721
   36.060    6.7088
   36.090    6.5508
   36.120    6.7193
   36.150    7.0353
   36.180    6.5087
   36.210    6.8141
   36.240    7.0774
   36.270    7.0248
   36.300    6.8141
   36.330    7.0774
   36.360    6.9721
   36.390    6.7193
   36.420    6.9616
   36.450    7.0248
   36.480    6.4876
   36.510    6.8246
   36.540    6.8878
   36.570    6.8036
   36.600    6.8352
   36.630    6.7720
   36.660    7.0458
   36.690    7.1090
   36.720    6.9826
   36.750    6.9721
   36.780    7.0774
   36.810    7.2143
   36.840    6.6877
   36.870    6.5613
   36.900    7.1090
   36.930    6.2033
   36.960    7.1617
   36.990    6.9510
   37.020    6.6772
   37.050    7.3723
   37.080    6.8352
   37.110    7.6672
   37.140    7.1301
   37.170    7.2459
   37.200    7.4250
   37.230    6.9405
   37.260    6.6140
   37.290    6.6667
   37.320    6.9826
   37.350    6.4350
   37.380    6.8984
   37.410    6.9300
   37.440    6.8668
   37.470    6.3507
   37.500    6.7509
   37.530    7.0037
   37.560    7.1511
   37.590    7.0353
   37.620    6.5613
   37.650    6.6561
   37.680    6.9194
   37.710    6.9089
   37.740    7.0458
   37.770    6.2559
   37.800    6.4876
   37.830    6.7509
   37.860    7.2038
   37.890    6.7720
   37.920    7.0353
   37.950    6.7404
   37.980    6.6667
   38.010    6.2349
   38.040    6.8984
   38.070    6.7509
   38.100    7.0774
   38.130    7.0669
   38.160    7.1722
   38.190    6.7299
   38.220    6.8668
   38.250    6.8562
   38.280    6.4244
   38.310    6.4666
   38.340    6.5508
   38.370    6.9616
   38.400    6.4771
   38.430    6.4139
   38.460    7.0669
   38.490    6.6245
   38.520    6.4350
   38.550    6.7088
   38.580    6.7825
   38.610    6.4982
   38.640    6.8773
   38.670    6.5508
   38.700    6.4666
   38.730    7.0353
   38.760    6.6035
   38.790    6.5192
   38.820    6.6561
   38.850    6.5298
   38.880    6.8562
   38.910    6.6456
   38.940    6.2875
   38.970    6.6140
   39.000    6.3823
   39.030    6.9721
   39.060    6.8036
   39.090    6.5298
   39.120    6.4876
   39.150    6.8141
   39.180    6.4455
   39.210    7.2880
   39.240    7.0774
   39.270    6.7299
   39.300    6.7720
   39.330    6.6351
   39.360    6.6667
   39.390    7.1722
   39.420    6.8036
   39.450    6.5403
   39.480    6.6561
   39.510    6.4982
   39.540    6.4560
   39.570    6.1085
   39.600    6.9089
   39.630    6.2454
   39.660    6.6772
   39.690    6.7509
   39.720    6.6772
   39.750    6.8984
   39.780    6.7404
   39.810    6.8036
   39.840    6.9510
   39.870    6.6772
   39.900    6.6351
   39.930    6.6035
   39.960    6.8246
   39.990    6.8246