File: data/MOCOF-1/PXRD/PXRD_KE-212_Co-Ka1_film-3mm_5s-deg.xyd
    1.500    6.4419
    1.530    6.2493
    1.560    5.9283
    1.590    5.7678
    1.620    5.5859
    1.650    5.2006
    1.680    4.9010
    1.710    4.9973
    1.740    4.7833
    1.770    4.5907
    1.800    4.5372
    1.830    4.4944
    1.860    4.0556
    1.890    4.2483
    1.920    3.8737
    1.950    4.0770
    1.980    3.8630
    2.010    3.7025
    2.040    3.4029
    2.070    3.7239
    2.100    3.3173
    2.130    3.5420
    2.160    3.1033
    2.190    3.2317
    2.220    3.1996
    2.250    3.1461
    2.280    3.0926
    2.310    3.0926
    2.340    3.1675
    2.370    2.9642
    2.400    2.7501
    2.430    2.7073
    2.460    2.7501
    2.490    2.9642
    2.520    2.6003
    2.550    2.5789
    2.580    2.6538
    2.610    2.6859
    2.640    2.5789
    2.670    2.8785
    2.700    2.8036
    2.730    2.4826
    2.760    2.4826
    2.790    2.6110
    2.820    2.4612
    2.850    2.4077
    2.880    2.5789
    2.910    2.7073
    2.940    2.2258
    2.970    2.4077
    3.000    2.4291
    3.030    2.3328
    3.060    2.3221
    3.090    2.1295
    3.120    2.2793
    3.150    2.0760
    3.180    2.8571
    3.210    2.5040
    3.240    2.3007
    3.270    2.5040
    3.300    2.1830
    3.330    2.5896
    3.360    2.6217
    3.390    2.7394
    3.420    2.6538
    3.450    2.7715
    3.480    2.7394
    3.510    3.0605
    3.540    3.0819
    3.570    3.3922
    3.600    3.4564
    3.630    4.0235
    3.660    3.7774
    3.690    4.2376
    3.720    4.6121
    3.750    5.2970
    3.780    5.7999
    3.810    6.5918
    3.840    7.0198
    3.870    8.4216
    3.900    9.2884
    3.930   11.1396
    3.960   13.0658
    3.990   14.2750
    4.020   15.7517
    4.050   15.5056
    4.080   13.1407
    4.110   10.5511
    4.140    8.1327
    4.170    7.4799
    4.200    6.1316
    4.230    6.0246
    4.260    5.5217
    4.290    5.4575
    4.320    5.5324
    4.350    5.3398
    4.380    5.7250
    4.410    6.4205
    4.440    6.6025
    4.470    8.0578
    4.500    9.4489
    4.530    9.6201
    4.560    6.2921
    4.590    6.3135
    4.620    6.0139
    4.650    5.8320
    4.680    5.8855
    4.710    5.9283
    4.740    5.9283
    4.770    5.5324
    4.800    5.4682
    4.830    5.2541
    4.860    4.9973
    4.890    4.8047
    4.920    4.6656
    4.950    4.3874
    4.980    4.1199
    5.010    3.7346
    5.040    3.3494
    5.070    3.2959
    5.100    2.9106
    5.130    2.9106
    5.160    2.6431
    5.190    2.5361
    5.220    2.7929
    5.250    2.4184
    5.280    2.3542
    5.310    2.3542
    5.340    2.1830
    5.370    2.4077
    5.400    2.2686
    5.430    2.2579
    5.460    1.8620
    5.490    2.1402
    5.520    2.0974
    5.550    2.0546
    5.580    1.7549
    5.610    2.2472
    5.640    1.8941
    5.670    1.8085
    5.700    1.9583
    5.730    2.0332
    5.760    1.7442
    5.790    2.0867
    5.820    1.9690
    5.850    2.1081
    5.880    1.9155
    5.910    1.9583
    5.940    2.0011
    5.970    1.9048
    6.000    2.0439
    6.030    2.0118
    6.060    2.0118
    6.090    1.9476
    6.120    2.2365
    6.150    2.1295
    6.180    2.2365
    6.210    2.0760
    6.240    2.4184
    6.270    2.4398
    6.300    2.3970
    6.330    2.4505
    6.360    3.0284
    6.390    3.4350
    6.420    3.0712
    6.450    2.0974
    6.480    2.2900
    6.510    2.3970
    6.540    2.0011
    6.570    2.2044
    6.600    2.0653
    6.630    2.1509
    6.660    2.0011
    6.690    2.0653
    6.720    1.9797
    6.750    2.0867
    6.780    1.9369
    6.810    1.9583
    6.840    1.8192
    6.870    1.7549
    6.900    1.8299
    6.930    1.6372
    6.960    1.7121
    6.990    1.5302
    7.020    1.9048
    7.050    1.7121
    7.080    1.6800
    7.110    1.8085
    7.140    1.5516
    7.170    1.6479
    7.200    1.3911
    7.230    1.6907
    7.260    1.4553
    7.290    1.4232
    7.320    1.6586
    7.350    1.4446
    7.380    1.3911
    7.410    1.6907
    7.440    1.6479
    7.470    1.5837
    7.500    1.3483
    7.530    1.6372
    7.560    1.4446
    7.590    1.6051
    7.620    1.4981
    7.650    1.4553
    7.680    1.5944
    7.710    1.6800
    7.740    1.3697
    7.770    1.4660
    7.800    1.4446
    7.830    1.9797
    7.860    1.9369
    7.890    1.6265
    7.920    1.7764
    7.950    1.6800
    7.980    1.9048
    8.010    2.0546
    8.040    2.1616
    8.070    2.5575
    8.100    2.4719
    8.130    2.4933
    8.160    2.0760
    8.190    1.9369
    8.220    2.0760
    8.250    1.5623
    8.280    1.5088
    8.310    1.3697
    8.340    1.5302
    8.370    1.4660
    8.400    1.4553
    8.430    1.3804
    8.460    1.2092
    8.490    1.3590
    8.520    1.3269
    8.550    1.1771
    8.580    1.1664
    8.610    1.2948
    8.640    1.2520
    8.670    1.4125
    8.700    1.3697
    8.730    1.2306
    8.760    1.2948
    8.790    1.2948
    8.820    1.2520
    8.850    1.4660
    8.880    1.1557
    8.910    1.2092
    8.940    1.1557
    8.970    1.0915
    9.000    1.3376
    9.030    1.4232
    9.060    1.6265
    9.090    1.6265
    9.120    1.2413
    9.150    1.2627
    9.180    1.4553
    9.210    1.2306
    9.240    1.2520
    9.270    1.4232
    9.300    1.2734
    9.330    1.2306
    9.360    1.3055
    9.390    1.2520
    9.420    1.2734
    9.450    1.1450
    9.480    1.2413
    9.510    1.1878
    9.540    1.2734
    9.570    1.1450
    9.600    1.2734
    9.630    1.4232
    9.660    1.5088
    9.690    1.2948
    9.720    1.2734
    9.750    1.1771
    9.780    1.3162
    9.810    1.1985
    9.840    1.3269
    9.870    1.2520
    9.900    1.0915
    9.930    1.1343
    9.960    1.0166
    9.990    1.1236
   10.020    1.1664
   10.050    0.9952
   10.080    1.0594
   10.110    1.1450
   10.140    1.1129
   10.170    1.1022
   10.200    1.1022
   10.230    0.9096
   10.260    0.8561
   10.290    1.1557
   10.320    1.0701
   10.350    0.9524
   10.380    0.9524
   10.410    1.0059
   10.440    0.9203
   10.470    0.9631
   10.500    0.8775
   10.530    0.9845
   10.560    1.1129
   10.590    0.9631
   10.620    0.8454
   10.650    1.1022
   10.680    0.8775
   10.710    0.8668
   10.740    0.8240
   10.770    0.9845
   10.800    0.9524
   10.830    0.7812
   10.860    0.8775
   10.890    1.0166
   10.920    0.9952
   10.950    0.9417
   10.980    0.8240
   11.010    0.9631
   11.040    1.0166
   11.070    1.1129
   11.100    1.4232
   11.130    1.3269
   11.160    0.9310
   11.190    1.0166
   11.220    0.9203
   11.250    0.8026
   11.280    1.1022
   11.310    0.9096
   11.340    0.8882
   11.370    0.7170
   11.400    0.8454
   11.430    0.9310
   11.460    0.8989
   11.490    0.9203
   11.520    0.9524
   11.550    1.0059
   11.580    1.0915
   11.610    1.0273
   11.640    0.9524
   11.670    0.7170
   11.700    0.8133
   11.730    0.9738
   11.760    0.8989
   11.790    0.8240
   11.820    0.9310
   11.850    0.8668
   11.880    0.9631
   11.910    0.6849
   11.940    0.9738
   11.970    1.1343
   12.000    1.0915
   12.030    0.9631
   12.060    0.9310
   12.090    0.9738
   12.120    0.9524
   12.150    1.0380
   12.180    0.8989
   12.210    0.8775
   12.240    1.0594
   12.270    0.8668
   12.300    0.8775
   12.330    1.1129
   12.360    1.0273
   12.390    0.9203
   12.420    1.0166
   12.450    1.0701
   12.480    0.8989
   12.510    0.8668
   12.540    0.8989
   12.570    0.8240
   12.600    1.0594
   12.630    0.9631
   12.660    0.9310
   12.690    0.9845
   12.720    0.8989
   12.750    0.8668
   12.780    0.9631
   12.810    1.1236
   12.840    1.0915
   12.870    1.2520
   12.900    0.9524
   12.930    1.0808
   12.960    1.0808
   12.990    1.0594
   13.020    0.9524
   13.050    0.8989
   13.080    1.0808
   13.110    1.0059
   13.140    0.9738
   13.170    1.1450
   13.200    1.0701
   13.230    0.8989
   13.260    0.9096
   13.290    1.0059
   13.320    0.9738
   13.350    0.8454
   13.380    0.9310
   13.410    0.8989
   13.440    0.8561
   13.470    0.8454
   13.500    0.8882
   13.530    1.0915
   13.560    0.9096
   13.590    1.0166
   13.620    1.1343
   13.650    0.9631
   13.680    0.8454
   13.710    0.9631
   13.740    0.9417
   13.770    0.9631
   13.800    0.9524
   13.830    1.0594
   13.860    0.9845
   13.890    0.8240
   13.920    0.8347
   13.950    0.8989
   13.980    1.0273
   14.010    0.8668
   14.040    0.9096
   14.070    1.0059
   14.100    0.8989
   14.130    0.9952
   14.160    0.9417
   14.190    1.0166
   14.220    0.7812
   14.250    1.1129
   14.280    1.0380
   14.310    1.0166
   14.340    0.8882
   14.370    0.9631
   14.400    0.9738
   14.430    0.8775
   14.460    0.9096
   14.490    0.9096
   14.520    0.9203
   14.550    1.0487
   14.580    1.0594
   14.610    0.8775
   14.640    0.9310
   14.670    0.9096
   14.700    0.7919
   14.730    1.0380
   14.760    0.9631
   14.790    1.0059
   14.820    0.7705
   14.850    0.9096
   14.880    1.0380
   14.910    0.8775
   14.940    0.9203
   14.970    0.8240
   15.000    1.0059
   15.030    0.8240
   15.060    1.1236
   15.090    1.0166
   15.120    0.9738
   15.150    0.8668
   15.180    1.0059
   15.210    0.8347
   15.240    0.8133
   15.270    0.8668
   15.300    0.8561
   15.330    0.8133
   15.360    0.9845
   15.390    0.8775
   15.420    0.9203
   15.450    0.9417
   15.480    0.9203
   15.510    0.8347
   15.540    0.7919
   15.570    0.9310
   15.600    0.8454
   15.630    0.9417
   15.660    1.0273
   15.690    0.8240
   15.720    0.7919
   15.750    1.0487
   15.780    0.8240
   15.810    0.8989
   15.840    0.8026
   15.870    0.8026
   15.900    0.8989
   15.930    0.7063
   15.960    0.8561
   15.990    0.9203
   16.020    0.7598
   16.050    0.8775
   16.080    0.9738
   16.110    0.9952
   16.140    0.8240
   16.170    0.8775
   16.200    0.9952
   16.230    0.9631
   16.260    0.9310
   16.290    0.7384
   16.320    0.9845
   16.350    1.0594
   16.380    1.0273
   16.410    0.8882
   16.440    0.9524
   16.470    0.9096
   16.500    0.9631
   16.530    0.9845
   16.560    0.9096
   16.590    0.9845
   16.620    0.8989
   16.650    1.0166
   16.680    0.9096
   16.710    0.8775
   16.740    0.8454
   16.770    0.8989
   16.800    1.0594
   16.830    1.0380
   16.860    0.9738
   16.890    1.0701
   16.920    0.9845
   16.950    0.8989
   16.980    0.9952
   17.010    0.8775
   17.040    0.9096
   17.070    0.9096
   17.100    0.9096
   17.130    0.8561
   17.160    0.8668
   17.190    0.9096
   17.220    1.0166
   17.250    0.9845
   17.280    0.8561
   17.310    0.8454
   17.340    0.8454
   17.370    0.7170
   17.400    0.7384
   17.430    0.8668
   17.460    0.8133
   17.490    0.9203
   17.520    0.8882
   17.550    0.7491
   17.580    0.7705
   17.610    0.9524
   17.640    0.9524
   17.670    0.7705
   17.700    0.8454
   17.730    0.7384
   17.760    0.8347
   17.790    0.7170
   17.820    0.9738
   17.850    0.8989
   17.880    0.7919
   17.910    0.8668
   17.940    0.7705
   17.970    0.9096
   18.000    0.8882
   18.030    0.9738
   18.060    0.7919
   18.090    0.8989
   18.120    1.0701
   18.150    0.9203
   18.180    0.8882
   18.210    0.9524
   18.240    0.7598
   18.270    0.7491
   18.300    0.9631
   18.330    0.9631
   18.360    0.8989
   18.390    0.7919
   18.420    0.8989
   18.450    0.9096
   18.480    0.8454
   18.510    0.7063
   18.540    0.8133
   18.570    0.9310
   18.600    1.0487
   18.630    0.8561
   18.660    0.8775
   18.690    0.9203
   18.720    0.8668
   18.750    0.8133
   18.780    0.9524
   18.810    0.8240
   18.840    0.9631
   18.870    0.8347
   18.900    0.8668
   18.930    0.9845
   18.960    0.7491
   18.990    0.8240
   19.020    0.8561
   19.050    0.7812
   19.080    0.7705
   19.110    0.7491
   19.140    0.9524
   19.170    0.7491
   19.200    0.8561
   19.230    0.7919
   19.260    0.7919
   19.290    0.7705
   19.320    0.9631
   19.350    0.8133
   19.380    0.7705
   19.410    0.8454
   19.440    0.7277
   19.470    0.7384
   19.500    0.8240
   19.530    0.7063
   19.560    0.8668
   19.590    0.8668
   19.620    1.0059
   19.650    0.9417
   19.680    0.7812
   19.710    0.8775
   19.740    0.8775
   19.770    0.8454
   19.800    0.7919
   19.830    1.0594
   19.860    0.8668
   19.890    0.8133
   19.920    0.8775
   19.950    0.5671
   19.980    0.8561
   20.010    0.8240
   20.040    0.8561
   20.070    0.8561
   20.100    0.7491
   20.130    0.7812
   20.160    0.9096
   20.190    0.8026
   20.220    0.7919
   20.250    0.7705
   20.280    0.8454
   20.310    0.8668
   20.340    0.8882
   20.370    0.8026
   20.400    0.7491
   20.430    0.8133
   20.460    0.7705
   20.490    0.7812
   20.520    0.9631
   20.550    0.8561
   20.580    0.7598
   20.610    0.8133
   20.640    0.9096
   20.670    0.8347
   20.700    0.9203
   20.730    0.7919
   20.760    0.7170
   20.790    0.7384
   20.820    0.8347
   20.850    0.7063
   20.880    0.8240
   20.910    0.8133
   20.940    0.8454
   20.970    0.9310
   21.000    0.8668
   21.030    0.7170
   21.060    0.7491
   21.090    0.6635
   21.120    0.8561
   21.150    0.8240
   21.180    0.9310
   21.210    0.7812
   21.240    0.8026
   21.270    0.7919
   21.300    0.9203
   21.330    0.8989
   21.360    0.8882
   21.390    1.0380
   21.420    0.9096
   21.450    0.7812
   21.480    0.8989
   21.510    0.8133
   21.540    0.9310
   21.570    0.8133
   21.600    0.8775
   21.630    0.9310
   21.660    0.6100
   21.690    0.9203
   21.720    0.8561
   21.750    0.8454
   21.780    0.7812
   21.810    0.8561
   21.840    0.8989
   21.870    0.8026
   21.900    0.7919
   21.930    0.8882
   21.960    0.8133
   21.990    0.8026
   22.020    0.8026
   22.050    0.8133
   22.080    0.6421
   22.110    0.9203
   22.140    0.8882
   22.170    0.8775
   22.200    0.8561
   22.230    0.6849
   22.260    0.8989
   22.290    0.7812
   22.320    0.6421
   22.350    0.7384
   22.380    0.8240
   22.410    0.7705
   22.440    0.9310
   22.470    0.7384
   22.500    0.7384
   22.530    0.8668
   22.560    0.8026
   22.590    0.6956
   22.620    0.8026
   22.650    0.8775
   22.680    0.7812
   22.710    0.8240
   22.740    0.7919
   22.770    0.8668
   22.800    0.7812
   22.830    0.8240
   22.860    0.8133
   22.890    0.7705
   22.920    0.6956
   22.950    0.8240
   22.980    0.9203
   23.010    0.8668
   23.040    0.7170
   23.070    1.0059
   23.100    0.7491
   23.130    0.7598
   23.160    0.8775
   23.190    0.7170
   23.220    0.6956
   23.250    0.8026
   23.280    0.7063
   23.310    0.8026
   23.340    0.7063
   23.370    0.9203
   23.400    0.6528
   23.430    0.8026
   23.460    0.7384
   23.490    0.8775
   23.520    0.7598
   23.550    0.8347
   23.580    0.6421
   23.610    0.8561
   23.640    0.7919
   23.670    0.8240
   23.700    0.7705
   23.730    0.9738
   23.760    0.7491
   23.790    0.8240
   23.820    0.7705
   23.850    0.7705
   23.880    0.8668
   23.910    0.8454
   23.940    0.7277
   23.970    0.8026
   24.000    0.7812
   24.030    0.7063
   24.060    0.6635
   24.090    0.6742
   24.120    0.7063
   24.150    0.8561
   24.180    0.7277
   24.210    0.9203
   24.240    0.6849
   24.270    0.7598
   24.300    0.5886
   24.330    0.7384
   24.360    0.9203
   24.390    0.9417
   24.420    0.8240
   24.450    0.5671
   24.480    0.6956
   24.510    0.8240
   24.540    0.8133
   24.570    0.7598
   24.600    0.7170
   24.630    0.7705
   24.660    0.5350
   24.690    0.7063
   24.720    0.7063
   24.750    0.7812
   24.780    0.8454
   24.810    0.8668
   24.840    0.6742
   24.870    0.6635
   24.900    0.6528
   24.930    0.8454
   24.960    0.7491
   24.990    0.7277
   25.020    0.6100
   25.050    0.6742
   25.080    0.7384
   25.110    0.7063
   25.140    0.7919
   25.170    0.7384
   25.200    0.7170
   25.230    0.8026
   25.260    0.7170
   25.290    0.7812
   25.320    0.6100
   25.350    0.8989
   25.380    0.8668
   25.410    0.9096
   25.440    0.7384
   25.470    0.7063
   25.500    0.8668
   25.530    0.7919
   25.560    0.7170
   25.590    0.6956
   25.620    0.7812
   25.650    0.8561
   25.680    0.7812
   25.710    0.7705
   25.740    0.7598
   25.770    0.7170
   25.800    0.7705
   25.830    0.8347
   25.860    0.8989
   25.890    0.7598
   25.920    0.7277
   25.950    0.6528
   25.980    0.7063
   26.010    0.6207
   26.040    0.8133
   26.070    0.6635
   26.100    0.5029
   26.130    0.6100
   26.160    0.5350
   26.190    0.7277
   26.220    0.7384
   26.250    0.6314
   26.280    0.7384
   26.310    0.7063
   26.340    0.7491
   26.370    0.6207
   26.400    0.7063
   26.430    0.6207
   26.460    0.6528
   26.490    0.6849
   26.520    0.5993
   26.550    0.7384
   26.580    0.5564
   26.610    0.7277
   26.640    0.6528
   26.670    0.7063
   26.700    0.7491
   26.730    0.7812
   26.760    0.8347
   26.790    0.6207
   26.820    0.6421
   26.850    0.6849
   26.880    0.6528
   26.910    0.6956
   26.940    0.7705
   26.970    0.6207
   27.000    0.7063
   27.030    0.5350
   27.060    0.5671
   27.090    0.6956
   27.120    0.6421
   27.150    0.7277
   27.180    0.6742
   27.210    0.6100
   27.240    0.7384
   27.270    0.7277
   27.300    0.7384
   27.330    0.5671
   27.360    0.6421
   27.390    0.7812
   27.420    0.5886
   27.450    0.5886
   27.480    0.6742
   27.510    0.7170
   27.540    0.5886
   27.570    0.6207
   27.600    0.6849
   27.630    0.6742
   27.660    0.6635
   27.690    0.5350
   27.720    0.6956
   27.750    0.5457
   27.780    0.5350
   27.810    0.7598
   27.840    0.5993
   27.870    0.5029
   27.900    0.6207
   27.930    0.5564
   27.960    0.5350
   27.990    0.6421
   28.020    0.6849
   28.050    0.6207
   28.080    0.6100
   28.110    0.7705
   28.140    0.5350
   28.170    0.6635
   28.200    0.4494
   28.230    0.6314
   28.260    0.6956
   28.290    0.6742
   28.320    0.5993
   28.350    0.5564
   28.380    0.6956
   28.410    0.5029
   28.440    0.5886
   28.470    0.5564
   28.500    0.6100
   28.530    0.6207
   28.560    0.6956
   28.590    0.6314
   28.620    0.5886
   28.650    0.6635
   28.680    0.5243
   28.710    0.5564
   28.740    0.6207
   28.770    0.5671
   28.800    0.6421
   28.830    0.5993
   28.860    0.6314
   28.890    0.6314
   28.920    0.6421
   28.950    0.5029
   28.980    0.4494
   29.010    0.5778
   29.040    0.7063
   29.070    0.4494
   29.100    0.6849
   29.130    0.6314
   29.160    0.5136
   29.190    0.5457
   29.220    0.5136
   29.250    0.7170
   29.280    0.5136
   29.310    0.5671
   29.340    0.6100
   29.370    0.5778
   29.400    0.6421
   29.430    0.5564
   29.460    0.6100
   29.490    0.5778
   29.520    0.5457
   29.550    0.6314
   29.580    0.5243
   29.610    0.5564
   29.640    0.6742
   29.670    0.5243
   29.700    0.7063
   29.730    0.6100
   29.760    0.6100
   29.790    0.5350
   29.820    0.5136
   29.850    0.5029
   29.880    0.4494
   29.910    0.5886
   29.940    0.5457
   29.970    0.7598
   30.000    0.6742
   30.030    0.4494
   30.060    0.6314
   30.090    0.4922
   30.120    0.5243
   30.150    0.5564
   30.180    0.5457
   30.210    0.5243
   30.240    0.6635
   30.270    0.6421
   30.300    0.4173
   30.330    0.6100
   30.360    0.5778
   30.390    0.4280
   30.420    0.6528
   30.450    0.6635
   30.480    0.5564
   30.510    0.4922
   30.540    0.4708
   30.570    0.5564
   30.600    0.5671
   30.630    0.5136
   30.660    0.5993
   30.690    0.5778
   30.720    0.5778
   30.750    0.4601
   30.780    0.6207
   30.810    0.4601
   30.840    0.5136
   30.870    0.3852
   30.900    0.5457
   30.930    0.4708
   30.960    0.4922
   30.990    0.5564
   31.020    0.5243
   31.050    0.6314
   31.080    0.6421
   31.110    0.5457
   31.140    0.5243
   31.170    0.5886
   31.200    0.5136
   31.230    0.4494
   31.260    0.4922
   31.290    0.6100
   31.320    0.5564
   31.350    0.3531
   31.380    0.6956
   31.410    0.5136
   31.440    0.5671
   31.470    0.5350
   31.500    0.5564
   31.530    0.5564
   31.560    0.4173
   31.590    0.5136
   31.620    0.4708
   31.650    0.4173
   31.680    0.3745
   31.710    0.5136
   31.740    0.4173
   31.770    0.5136
   31.800    0.5350
   31.830    0.5243
   31.860    0.4494
   31.890    0.5564
   31.920    0.4494
   31.950    0.5136
   31.980    0.3959
   32.010    0.4173
   32.040    0.5350
   32.070    0.4494
   32.100    0.5350
   32.130    0.3852
   32.160    0.5243
   32.190    0.3638
   32.220    0.4708
   32.250    0.4922
   32.280    0.5564
   32.310    0.4815
   32.340    0.4173
   32.370    0.4815
   32.400    0.4601
   32.430    0.4173
   32.460    0.5350
   32.490    0.3852
   32.520    0.4708
   32.550    0.4173
   32.580    0.4815
   32.610    0.5671
   32.640    0.5029
   32.670    0.4708
   32.700    0.4387
   32.730    0.4601
   32.760    0.4173
   32.790    0.4708
   32.820    0.4601
   32.850    0.6421
   32.880    0.4494
   32.910    0.4708
   32.940    0.5136
   32.970    0.3959
   33.000    0.4387
   33.030    0.4280
   33.060    0.4922
   33.090    0.5243
   33.120    0.4173
   33.150    0.5671
   33.180    0.4815
   33.210    0.3424
   33.240    0.5564
   33.270    0.4708
   33.300    0.4601
   33.330    0.5243
   33.360    0.4387
   33.390    0.3852
   33.420    0.5136
   33.450    0.5136
   33.480    0.4494
   33.510    0.4922
   33.540    0.5671
   33.570    0.5243
   33.600    0.4173
   33.630    0.4601
   33.660    0.4708
   33.690    0.4280
   33.720    0.3210
   33.750    0.5671
   33.780    0.5029
   33.810    0.3317
   33.840    0.5136
   33.870    0.3852
   33.900    0.4387
   33.930    0.4601
   33.960    0.5136
   33.990    0.4280
   34.020    0.3103
   34.050    0.5136
   34.080    0.4815
   34.110    0.4708
   34.140    0.3531
   34.170    0.4387
   34.200    0.4601
   34.230    0.3745
   34.260    0.4066
   34.290    0.4173
   34.320    0.4066
   34.350    0.4280
   34.380    0.3745
   34.410    0.4601
   34.440    0.3210
   34.470    0.5029
   34.500    0.4280
   34.530    0.4066
   34.560    0.3531
   34.590    0.3959
   34.620    0.3210
   34.650    0.4601
   34.680    0.3424
   34.710    0.3638
   34.740    0.4708
   34.770    0.4280
   34.800    0.4173
   34.830    0.5564
   34.860    0.3531
   34.890    0.3531
   34.920    0.3959
   34.950    0.3317
   34.980    0.4922
   35.010    0.3103
   35.040    0.3210
   35.070    0.3959
   35.100    0.2996
   35.130    0.3638
   35.160    0.3424
   35.190    0.4494
   35.220    0.3531
   35.250    0.3424
   35.280    0.3959
   35.310    0.3852
   35.340    0.3852
   35.370    0.3103
   35.400    0.3745
   35.430    0.4815
   35.460    0.3424
   35.490    0.3638
   35.520    0.3317
   35.550    0.4173
   35.580    0.3424
   35.610    0.3852
   35.640    0.4280
   35.670    0.3317
   35.700    0.4173
   35.730    0.4708
   35.760    0.4280
   35.790    0.4173
   35.820    0.4601
   35.850    0.4387
   35.880    0.3959
   35.910    0.4066
   35.940    0.3210
   35.970    0.3317
   36.000    0.3424
   36.030    0.4173
   36.060    0.3531
   36.090    0.3638
   36.120    0.3852
   36.150    0.3103
   36.180    0.3317
   36.210    0.3638
   36.240    0.3210
   36.270    0.4494
   36.300    0.3210
   36.330    0.3638
   36.360    0.3424
   36.390    0.3638
   36.420    0.4066
   36.450    0.2889
   36.480    0.4173
   36.510    0.4173
   36.540    0.2996
   36.570    0.2675
   36.600    0.3638
   36.630    0.3317
   36.660    0.3210
   36.690    0.4173
   36.720    0.3103
   36.750    0.3745
   36.780    0.3424
   36.810    0.3531
   36.840    0.3424
   36.870    0.2996
   36.900    0.3210
   36.930    0.2996
   36.960    0.2889
   36.990    0.4173
   37.020    0.5457
   37.050    0.3103
   37.080    0.3531
   37.110    0.3424
   37.140    0.2782
   37.170    0.2889
   37.200    0.3852
   37.230    0.3210
   37.260    0.2996
   37.290    0.3745
   37.320    0.2996
   37.350    0.2782
   37.380    0.2675
   37.410    0.3103
   37.440    0.5029
   37.470    0.4066
   37.500    0.2889
   37.530    0.3424
   37.560    0.2996
   37.590    0.2675
   37.620    0.3638
   37.650    0.2996
   37.680    0.2568
   37.710    0.3745
   37.740    0.3638
   37.770    0.3103
   37.800    0.2996
   37.830    0.2889
   37.860    0.3638
   37.890    0.3317
   37.920    0.3103
   37.950    0.2996
   37.980    0.3424
   38.010    0.3638
   38.040    0.3210
   38.070    0.3103
   38.100    0.3959
   38.130    0.3317
   38.160    0.3103
   38.190    0.2782
   38.220    0.2247
   38.250    0.3210
   38.280    0.3317
   38.310    0.3424
   38.340    0.2461
   38.370    0.3531
   38.400    0.2889
   38.430    0.3210
   38.460    0.2996
   38.490    0.3424
   38.520    0.3210
   38.550    0.3210
   38.580    0.3103
   38.610    0.2996
   38.640    0.2675
   38.670    0.4066
   38.700    0.2354
   38.730    0.3103
   38.760    0.2675
   38.790    0.2996
   38.820    0.2996
   38.850    0.3210
   38.880    0.3424
   38.910    0.3210
   38.940    0.2675
   38.970    0.3210
   39.000    0.2996
   39.030    0.2996
   39.060    0.1926
   39.090    0.2782
   39.120    0.3424
   39.150    0.2568
   39.180    0.2140
   39.210    0.3210
   39.240    0.2675
   39.270    0.3103
   39.300    0.2889
   39.330    0.3103
   39.360    0.2140
   39.390    0.3852
   39.420    0.2996
   39.450    0.3531
   39.480    0.2889
   39.510    0.2568
   39.540    0.2354
   39.570    0.3103
   39.600    0.2247
   39.630    0.1819
   39.660    0.2568
   39.690    0.2140
   39.720    0.1926
   39.750    0.2675
   39.780    0.1819
   39.810    0.2889
   39.840    0.2140
   39.870    0.2461
   39.900    0.2782
   39.930    0.2675
   39.960    0.3103
   39.990    0.2568