File: data/MOCOF-1/PXRD/PXRD_KE-274-2_Cu-Ka1_film-3mm_3s-deg.xyd
    1.500   12.6909
    1.530   12.8840
    1.560   12.4627
    1.590   12.9893
    1.620   11.9537
    1.650   11.6904
    1.680   11.9010
    1.710   11.2691
    1.740   10.8829
    1.770   10.7249
    1.800   10.3739
    1.830   11.0585
    1.860   10.4265
    1.890   10.3739
    1.920   10.9531
    1.950    9.8999
    1.980   10.3739
    2.010   10.1106
    2.040    9.8473
    2.070    9.8122
    2.100    9.3382
    2.130    9.4085
    2.160    9.2154
    2.190    9.2154
    2.220    9.1101
    2.250    9.3558
    2.280    8.6537
    2.310    8.9872
    2.340    8.5484
    2.370    8.5308
    2.400    8.6186
    2.430    8.9170
    2.460    8.9696
    2.490    8.2500
    2.520    8.6361
    2.550    8.5133
    2.580    8.1797
    2.610    8.7414
    2.640    8.4430
    2.670    8.2851
    2.700    8.5835
    2.730    8.1797
    2.760    8.5484
    2.790    7.6356
    2.820    8.0218
    2.850    7.7409
    2.880    7.5303
    2.910    7.4952
    2.940    7.6883
    2.970    8.0393
    3.000    7.8638
    3.030    7.9340
    3.060    7.7058
    3.090    7.2670
    3.120    7.9691
    3.150    7.7409
    3.180    7.4074
    3.210    7.2494
    3.240    7.7760
    3.270    7.9340
    3.300    7.3547
    3.330    7.5303
    3.360    7.3021
    3.390    8.0393
    3.420    7.6356
    3.450    7.9867
    3.480    8.3202
    3.510    8.0042
    3.540    7.0563
    3.570    7.5478
    3.600    8.2675
    3.630    7.6180
    3.660    7.7760
    3.690    7.9691
    3.720    8.4079
    3.750    8.9521
    3.780    8.4430
    3.810    8.9345
    3.840    8.6010
    3.870    8.9170
    3.900    8.5133
    3.930    8.1973
    3.960    7.7058
    3.990    8.3377
    4.020    7.9691
    4.050    7.9340
    4.080    8.3026
    4.110    8.0218
    4.140    7.9516
    4.170    7.5303
    4.200    8.0744
    4.230    8.0393
    4.260    7.3021
    4.290    7.8462
    4.320    8.3377
    4.350    7.5303
    4.380    8.1797
    4.410    7.6005
    4.440    7.9164
    4.470    7.6005
    4.500    8.2149
    4.530    8.1797
    4.560    8.5835
    4.590    8.6537
    4.620    8.0920
    4.650    8.3728
    4.680    8.6712
    4.710    7.5829
    4.740    7.7936
    4.770    8.7941
    4.800    7.9867
    4.830    8.5659
    4.860    8.2851
    4.890    7.7234
    4.920    9.0574
    4.950    9.0223
    4.980    8.0042
    5.010    8.7941
    5.040    9.3558
    5.070    9.3734
    5.100    8.7590
    5.130    9.7595
    5.160    9.0574
    5.190    9.6367
    5.220    9.2154
    5.250    9.3909
    5.280    9.3734
    5.310    9.8122
    5.340   10.4792
    5.370   10.6547
    5.400   10.0053
    5.430   10.4090
    5.460   11.0409
    5.490   10.5494
    5.520   10.4968
    5.550   11.5148
    5.580   10.6372
    5.610   10.3212
    5.640    9.9175
    5.670    9.6542
    5.700    9.8824
    5.730    9.9877
    5.760    9.8999
    5.790    9.3382
    5.820    9.4260
    5.850    8.6186
    5.880    9.1276
    5.910    8.8994
    5.940    8.1095
    5.970    8.3026
    6.000    8.0920
    6.030    8.1271
    6.060    8.1973
    6.090    8.4255
    6.120    7.4074
    6.150    8.4255
    6.180    8.4957
    6.210    7.7058
    6.240    7.9340
    6.270    8.2851
    6.300    7.4952
    6.330    8.1271
    6.360    7.6707
    6.390    8.0744
    6.420    7.7760
    6.450    7.4776
    6.480    7.1090
    6.510    7.3547
    6.540    7.7234
    6.570    7.2494
    6.600    7.2670
    6.630    7.8638
    6.660    7.6707
    6.690    7.5303
    6.720    7.2319
    6.750    7.7058
    6.780    7.2319
    6.810    7.1792
    6.840    6.4771
    6.870    7.1441
    6.900    6.7579
    6.930    7.1792
    6.960    6.5473
    6.990    6.9861
    7.020    6.6000
    7.050    6.6526
    7.080    6.5122
    7.110    6.4595
    7.140    6.7404
    7.170    7.0915
    7.200    6.7228
    7.230    6.7053
    7.260    6.8808
    7.290    6.7053
    7.320    6.0558
    7.350    6.3191
    7.380    6.3367
    7.410    6.3367
    7.440    5.8276
    7.470    6.3191
    7.500    5.7223
    7.530    6.1085
    7.560    6.2665
    7.590    6.1436
    7.620    5.7399
    7.650    5.8978
    7.680    6.0909
    7.710    5.8101
    7.740    6.4946
    7.770    6.0558
    7.800    5.9329
    7.830    6.1260
    7.860    5.7223
    7.890    6.0207
    7.920    6.3367
    7.950    5.8627
    7.980    5.9505
    8.010    5.2835
    8.040    5.8803
    8.070    5.4415
    8.100    5.6170
    8.130    5.9856
    8.160    6.0909
    8.190    5.3186
    8.220    5.6697
    8.250    5.2133
    8.280    5.8101
    8.310    5.7574
    8.340    5.6697
    8.370    5.3361
    8.400    5.4064
    8.430    6.1962
    8.460    5.7223
    8.490    5.6697
    8.520    5.7399
    8.550    5.6697
    8.580    5.8452
    8.610    5.6697
    8.640    5.3010
    8.670    5.7399
    8.700    5.2835
    8.730    5.6521
    8.760    5.6170
    8.790    5.5292
    8.820    5.5468
    8.850    5.4590
    8.880    5.7399
    8.910    5.0377
    8.940    5.7925
    8.970    5.6521
    9.000    5.3888
    9.030    5.3361
    9.060    5.7574
    9.090    5.3537
    9.120    5.2659
    9.150    4.9851
    9.180    5.5819
    9.210    5.2659
    9.240    5.8978
    9.270    5.2835
    9.300    5.2308
    9.330    5.9505
    9.360    5.3537
    9.390    5.6697
    9.420    5.7925
    9.450    5.4766
    9.480    5.7223
    9.510    5.6345
    9.540    6.1085
    9.570    5.7925
    9.600    5.3888
    9.630    5.9681
    9.660    5.3537
    9.690    5.3537
    9.720    5.4941
    9.750    5.3361
    9.780    5.5292
    9.810    5.6697
    9.840    5.2484
    9.870    5.7574
    9.900    5.8452
    9.930    5.5117
    9.960    6.1962
    9.990    5.6170
   10.020    5.8276
   10.050    5.8101
   10.080    5.8452
   10.110    5.7048
   10.140    5.8276
   10.170    5.8627
   10.200    5.3361
   10.230    5.7750
   10.260    5.8803
   10.290    6.0909
   10.320    5.5994
   10.350    5.6521
   10.380    5.6345
   10.410    5.7750
   10.440    5.7574
   10.470    5.6345
   10.500    6.2138
   10.530    5.8276
   10.560    5.5117
   10.590    5.8627
   10.620    5.6170
   10.650    5.6170
   10.680    5.8627
   10.710    5.8803
   10.740    5.4766
   10.770    6.0909
   10.800    5.7574
   10.830    6.3191
   10.860    6.3191
   10.890    5.6345
   10.920    6.3542
   10.950    6.3191
   10.980    6.1611
   11.010    6.0032
   11.040    5.8627
   11.070    5.7574
   11.100    5.7925
   11.130    5.5994
   11.160    5.6697
   11.190    5.7223
   11.220    5.7574
   11.250    6.1611
   11.280    5.7223
   11.310    5.8276
   11.340    5.5117
   11.370    5.3888
   11.400    5.5468
   11.430    5.3888
   11.460    5.8627
   11.490    5.5292
   11.520    5.8452
   11.550    6.2489
   11.580    5.7925
   11.610    5.7399
   11.640    5.2308
   11.670    6.0383
   11.700    5.7750
   11.730    6.0032
   11.760    6.2313
   11.790    5.5819
   11.820    5.6170
   11.850    5.1782
   11.880    5.4415
   11.910    5.4766
   11.940    5.7223
   11.970    5.0728
   12.000    5.4941
   12.030    5.2133
   12.060    5.5292
   12.090    5.7223
   12.120    5.2835
   12.150    5.6345
   12.180    5.6345
   12.210    5.4064
   12.240    6.2840
   12.270    5.4239
   12.300    5.4941
   12.330    5.4941
   12.360    5.3186
   12.390    5.6170
   12.420    5.4941
   12.450    5.1782
   12.480    4.9324
   12.510    4.7569
   12.540    5.2308
   12.570    5.0202
   12.600    5.2484
   12.630    5.5643
   12.660    5.2133
   12.690    5.6170
   12.720    5.0553
   12.750    5.1080
   12.780    4.6516
   12.810    5.2835
   12.840    5.7750
   12.870    5.3712
   12.900    5.5117
   12.930    4.8622
   12.960    5.8803
   12.990    5.2484
   13.020    5.1606
   13.050    4.7744
   13.080    5.1431
   13.110    5.2484
   13.140    5.0553
   13.170    5.0202
   13.200    5.2484
   13.230    4.8095
   13.260    5.6345
   13.290    5.2133
   13.320    5.6521
   13.350    5.4590
   13.380    5.4590
   13.410    5.6521
   13.440    5.5468
   13.470    4.9851
   13.500    5.8627
   13.530    5.1255
   13.560    5.3712
   13.590    4.8447
   13.620    5.1431
   13.650    5.0026
   13.680    5.3010
   13.710    5.8276
   13.740    5.4064
   13.770    5.7048
   13.800    5.2484
   13.830    5.5643
   13.860    5.6521
   13.890    5.3361
   13.920    5.0377
   13.950    5.7399
   13.980    5.1255
   14.010    5.6697
   14.040    5.8452
   14.070    5.6170
   14.100    5.1255
   14.130    5.4064
   14.160    5.5117
   14.190    5.7574
   14.220    5.4590
   14.250    5.3712
   14.280    5.6697
   14.310    5.0904
   14.340    6.0734
   14.370    5.7223
   14.400    6.0909
   14.430    5.5819
   14.460    6.1436
   14.490    5.6872
   14.520    5.9681
   14.550    5.2308
   14.580    6.1787
   14.610    5.6345
   14.640    5.6521
   14.670    5.3712
   14.700    5.7223
   14.730    5.1080
   14.760    5.3712
   14.790    6.0207
   14.820    5.1606
   14.850    5.3537
   14.880    5.2308
   14.910    5.2659
   14.940    5.3888
   14.970    5.4239
   15.000    5.5292
   15.030    5.6345
   15.060    5.2133
   15.090    5.6521
   15.120    5.4766
   15.150    5.4766
   15.180    5.5292
   15.210    5.1431
   15.240    4.8447
   15.270    5.4941
   15.300    5.0728
   15.330    5.2308
   15.360    4.8973
   15.390    5.3537
   15.420    5.5994
   15.450    5.0026
   15.480    5.5468
   15.510    5.5468
   15.540    5.4415
   15.570    5.1782
   15.600    4.7393
   15.630    5.3712
   15.660    5.0026
   15.690    5.2659
   15.720    5.1431
   15.750    5.4590
   15.780    4.4234
   15.810    5.3010
   15.840    5.0553
   15.870    5.5117
   15.900    4.9500
   15.930    4.8973
   15.960    4.8973
   15.990    5.0728
   16.020    5.0026
   16.050    5.5819
   16.080    5.2308
   16.110    5.0553
   16.140    5.2659
   16.170    5.5117
   16.200    5.1782
   16.230    4.9324
   16.260    5.2659
   16.290    5.0026
   16.320    5.4941
   16.350    5.0728
   16.380    4.8095
   16.410    5.1255
   16.440    4.9851
   16.470    4.7920
   16.500    5.0026
   16.530    5.2484
   16.560    4.7744
   16.590    5.3712
   16.620    5.1782
   16.650    5.0202
   16.680    5.1606
   16.710    5.1782
   16.740    5.0026
   16.770    5.0202
   16.800    5.1606
   16.830    5.0202
   16.860    5.1957
   16.890    4.7920
   16.920    5.1782
   16.950    5.1080
   16.980    4.9675
   17.010    5.2484
   17.040    5.4064
   17.070    5.3888
   17.100    5.4766
   17.130    5.4590
   17.160    4.9675
   17.190    4.9675
   17.220    5.0904
   17.250    5.0728
   17.280    4.9851
   17.310    5.0553
   17.340    5.3361
   17.370    4.9851
   17.400    5.2133
   17.430    4.8798
   17.460    5.0026
   17.490    5.3186
   17.520    4.9500
   17.550    4.8622
   17.580    4.8973
   17.610    5.2835
   17.640    4.9324
   17.670    4.8447
   17.700    4.9675
   17.730    5.4766
   17.760    5.1957
   17.790    5.1782
   17.820    5.2133
   17.850    5.4415
   17.880    5.4590
   17.910    5.2133
   17.940    4.9149
   17.970    5.0553
   18.000    5.1782
   18.030    5.6345
   18.060    5.3010
   18.090    5.0553
   18.120    5.3186
   18.150    5.4415
   18.180    5.0553
   18.210    4.8622
   18.240    4.9500
   18.270    5.5117
   18.300    5.2308
   18.330    5.1080
   18.360    5.1606
   18.390    5.1606
   18.420    5.0026
   18.450    4.7042
   18.480    4.5814
   18.510    4.9324
   18.540    4.8622
   18.570    5.0553
   18.600    5.1080
   18.630    5.4239
   18.660    5.1606
   18.690    4.8447
   18.720    4.8095
   18.750    4.8622
   18.780    5.0377
   18.810    5.2133
   18.840    5.1080
   18.870    5.3712
   18.900    4.7920
   18.930    5.3010
   18.960    4.5814
   18.990    4.6867
   19.020    4.6516
   19.050    4.7744
   19.080    4.8798
   19.110    5.2835
   19.140    4.9324
   19.170    5.0202
   19.200    4.7744
   19.230    4.8973
   19.260    4.9149
   19.290    4.7218
   19.320    4.7569
   19.350    5.1431
   19.380    4.9149
   19.410    4.9851
   19.440    4.9324
   19.470    4.8095
   19.500    4.4058
   19.530    5.0377
   19.560    5.0728
   19.590    4.8271
   19.620    4.7042
   19.650    4.8447
   19.680    4.8447
   19.710    4.5638
   19.740    4.7393
   19.770    4.7920
   19.800    4.7569
   19.830    4.7218
   19.860    4.4058
   19.890    4.6691
   19.920    4.9675
   19.950    4.6691
   19.980    4.8622
   20.010    4.9149
   20.040    4.4760
   20.070    5.4064
   20.100    4.6516
   20.130    4.8973
   20.160    4.7218
   20.190    5.3537
   20.220    4.9851
   20.250    4.7744
   20.280    4.8095
   20.310    4.7744
   20.340    4.9675
   20.370    4.5287
   20.400    4.9324
   20.430    4.6867
   20.460    4.3883
   20.490    4.7218
   20.520    4.9324
   20.550    4.8271
   20.580    5.0904
   20.610    4.6340
   20.640    4.6340
   20.670    4.9324
   20.700    4.7920
   20.730    4.7744
   20.760    5.1606
   20.790    4.7920
   20.820    4.1425
   20.850    4.5814
   20.880    5.3361
   20.910    5.3537
   20.940    5.0553
   20.970    4.6516
   21.000    4.4058
   21.030    4.2127
   21.060    4.3181
   21.090    4.8447
   21.120    5.1431
   21.150    5.2308
   21.180    4.5814
   21.210    4.5463
   21.240    4.7569
   21.270    4.7218
   21.300    4.6165
   21.330    4.8973
   21.360    4.6340
   21.390    4.9324
   21.420    4.9675
   21.450    4.5989
   21.480    4.6691
   21.510    4.6867
   21.540    4.9324
   21.570    4.8447
   21.600    4.7218
   21.630    4.3181
   21.660    4.8447
   21.690    4.6340
   21.720    5.0553
   21.750    4.8622
   21.780    5.0026
   21.810    4.2654
   21.840    4.2830
   21.870    4.9675
   21.900    4.9500
   21.930    4.8095
   21.960    4.7218
   21.990    4.7920
   22.020    4.8798
   22.050    4.6340
   22.080    4.6516
   22.110    4.5463
   22.140    4.9324
   22.170    4.7042
   22.200    4.6867
   22.230    4.7569
   22.260    4.4409
   22.290    4.5287
   22.320    4.1250
   22.350    4.5111
   22.380    4.5638
   22.410    4.2478
   22.440    4.8447
   22.470    4.1776
   22.500    4.2654
   22.530    4.8095
   22.560    4.8271
   22.590    4.2654
   22.620    4.7393
   22.650    4.6165
   22.680    4.6340
   22.710    4.4234
   22.740    4.5463
   22.770    4.4760
   22.800    4.5638
   22.830    4.7042
   22.860    4.4585
   22.890    4.7218
   22.920    4.3005
   22.950    4.6691
   22.980    4.7218
   23.010    4.5989
   23.040    4.6340
   23.070    4.0548
   23.100    4.3883
   23.130    4.1074
   23.160    4.3707
   23.190    4.7920
   23.220    4.2303
   23.250    4.3181
   23.280    4.4234
   23.310    4.6516
   23.340    4.5989
   23.370    4.2303
   23.400    3.9494
   23.430    4.5463
   23.460    4.3005
   23.490    4.2303
   23.520    4.3356
   23.550    4.4585
   23.580    4.8447
   23.610    4.8447
   23.640    4.1776
   23.670    4.4409
   23.700    4.0021
   23.730    4.0723
   23.760    4.0899
   23.790    4.2830
   23.820    4.5111
   23.850    4.0372
   23.880    4.6340
   23.910    4.1776
   23.940    4.2478
   23.970    4.4760
   24.000    4.0372
   24.030    4.0197
   24.060    4.0899
   24.090    3.8441
   24.120    4.2654
   24.150    4.4058
   24.180    3.8968
   24.210    4.3532
   24.240    4.1776
   24.270    4.3883
   24.300    3.8090
   24.330    4.1601
   24.360    4.3883
   24.390    3.6686
   24.420    4.1074
   24.450    4.0197
   24.480    4.1425
   24.510    4.3356
   24.540    4.2127
   24.570    4.3532
   24.600    4.3005
   24.630    4.7920
   24.660    3.9670
   24.690    3.8090
   24.720    4.1601
   24.750    3.6510
   24.780    4.1074
   24.810    4.0372
   24.840    3.9143
   24.870    4.1074
   24.900    3.8617
   24.930    4.0899
   24.960    3.8441
   24.990    3.8266
   25.020    4.4760
   25.050    4.5287
   25.080    3.9670
   25.110    4.0197
   25.140    4.2303
   25.170    4.1425
   25.200    4.1250
   25.230    4.3356
   25.260    3.8090
   25.290    3.9494
   25.320    3.8617
   25.350    3.8968
   25.380    3.8792
   25.410    4.1776
   25.440    3.7564
   25.470    4.0723
   25.500    4.2830
   25.530    4.0723
   25.560    4.1425
   25.590    4.0197
   25.620    3.9494
   25.650    3.9846
   25.680    3.7915
   25.710    4.0723
   25.740    3.6862
   25.770    4.2654
   25.800    4.3532
   25.830    4.1074
   25.860    3.9319
   25.890    3.5633
   25.920    3.5457
   25.950    4.3883
   25.980    4.2654
   26.010    3.9319
   26.040    4.2127
   26.070    3.8968
   26.100    4.0197
   26.130    4.0372
   26.160    4.1952
   26.190    4.0021
   26.220    3.7564
   26.250    3.9143
   26.280    4.3707
   26.310    3.7564
   26.340    4.1250
   26.370    3.7564
   26.400    4.2127
   26.430    3.5633
   26.460    3.9319
   26.490    4.2478
   26.520    3.8090
   26.550    3.6862
   26.580    4.0197
   26.610    4.0899
   26.640    3.7388
   26.670    3.8792
   26.700    3.9143
   26.730    3.8090
   26.760    3.6862
   26.790    3.5633
   26.820    3.6686
   26.850    3.6159
   26.880    4.1776
   26.910    3.8090
   26.940    3.5282
   26.970    4.1776
   27.000    3.7037
   27.030    3.6159
   27.060    3.8617
   27.090    3.7915
   27.120    3.7915
   27.150    3.6686
   27.180    3.5633
   27.210    3.6686
   27.240    4.1250
   27.270    3.8441
   27.300    3.4931
   27.330    3.8792
   27.360    3.6335
   27.390    3.6686
   27.420    3.7739
   27.450    4.1776
   27.480    3.3702
   27.510    3.8968
   27.540    4.1250
   27.570    3.8090
   27.600    3.6510
   27.630    3.8968
   27.660    3.4580
   27.690    3.5457
   27.720    3.7213
   27.750    3.8090
   27.780    3.7739
   27.810    3.4931
   27.840    3.5457
   27.870    3.3000
   27.900    3.7564
   27.930    3.8266
   27.960    3.6335
   27.990    3.2122
   28.020    3.4053
   28.050    3.9319
   28.080    3.5282
   28.110    3.5282
   28.140    3.4404
   28.170    3.8617
   28.200    3.4931
   28.230    3.5984
   28.260    3.6686
   28.290    3.7564
   28.320    3.7037
   28.350    3.3526
   28.380    3.6510
   28.410    3.4404
   28.440    3.4931
   28.470    3.4229
   28.500    3.4931
   28.530    3.4755
   28.560    3.6862
   28.590    3.3175
   28.620    3.4229
   28.650    3.5282
   28.680    3.5457
   28.710    3.5457
   28.740    3.4931
   28.770    3.9143
   28.800    3.4580
   28.830    3.5633
   28.860    3.8441
   28.890    3.4755
   28.920    3.3702
   28.950    3.8441
   28.980    3.4755
   29.010    3.6510
   29.040    3.4931
   29.070    3.5808
   29.100    3.5633
   29.130    3.4229
   29.160    3.4404
   29.190    3.4755
   29.220    3.5282
   29.250    3.3702
   29.280    3.4053
   29.310    3.3000
   29.340    3.3351
   29.370    3.4229
   29.400    3.1596
   29.430    3.4580
   29.460    3.3877
   29.490    3.2649
   29.520    2.9665
   29.550    3.0718
   29.580    3.2473
   29.610    3.3877
   29.640    3.3000
   29.670    3.0542
   29.700    3.3877
   29.730    3.2824
   29.760    2.9665
   29.790    3.0893
   29.820    3.3351
   29.850    3.0718
   29.880    3.2298
   29.910    3.3175
   29.940    3.0718
   29.970    3.0191
   30.000    3.2298
   30.030    3.1596
   30.060    3.5106
   30.090    3.1596
   30.120    3.1069
   30.150    3.1596
   30.180    3.1947
   30.210    3.1245
   30.240    3.1771
   30.270    3.6862
   30.300    3.4053
   30.330    3.1420
   30.360    3.0542
   30.390    3.0191
   30.420    3.1947
   30.450    3.1596
   30.480    3.0016
   30.510    3.3000
   30.540    3.0016
   30.570    3.0893
   30.600    2.9314
   30.630    3.3877
   30.660    3.0893
   30.690    3.0016
   30.720    3.0016
   30.750    3.0367
   30.780    3.4404
   30.810    3.0893
   30.840    2.7558
   30.870    2.8963
   30.900    2.6856
   30.930    3.1947
   30.960    2.9138
   30.990    3.1596
   31.020    2.7909
   31.050    3.0542
   31.080    3.2122
   31.110    3.0718
   31.140    2.8787
   31.170    3.0016
   31.200    2.9665
   31.230    3.1069
   31.260    2.8436
   31.290    3.3175
   31.320    2.9840
   31.350    2.8436
   31.380    2.8085
   31.410    3.0542
   31.440    3.0718
   31.470    3.0542
   31.500    2.9665
   31.530    3.0718
   31.560    3.1420
   31.590    2.9489
   31.620    2.9314
   31.650    2.7558
   31.680    2.9665
   31.710    2.8260
   31.740    3.1771
   31.770    3.0542
   31.800    3.2649
   31.830    2.8612
   31.860    2.4750
   31.890    3.0016
   31.920    2.7383
   31.950    2.8260
   31.980    2.7734
   32.010    2.9489
   32.040    2.6330
   32.070    2.5803
   32.100    2.5803
   32.130    2.9138
   32.160    2.5979
   32.190    2.5628
   32.220    2.6681
   32.250    2.9138
   32.280    2.8085
   32.310    2.5628
   32.340    2.7909
   32.370    2.9138
   32.400    2.7207
   32.430    3.1069
   32.460    2.7909
   32.490    2.7734
   32.520    3.0016
   32.550    2.6505
   32.580    2.6154
   32.610    2.9665
   32.640    2.7734
   32.670    2.6856
   32.700    2.6154
   32.730    2.8963
   32.760    2.9665
   32.790    2.7207
   32.820    2.7207
   32.850    2.7734
   32.880    2.5979
   32.910    2.7207
   32.940    2.4925
   32.970    3.0191
   33.000    2.5803
   33.030    2.6681
   33.060    2.9840
   33.090    2.7032
   33.120    2.4574
   33.150    2.5452
   33.180    2.6681
   33.210    2.7032
   33.240    2.6856
   33.270    2.4750
   33.300    2.5628
   33.330    2.6154
   33.360    2.6154
   33.390    2.4048
   33.420    2.4223
   33.450    2.3346
   33.480    2.5803
   33.510    2.9665
   33.540    2.6681
   33.570    2.5803
   33.600    2.6330
   33.630    2.6154
   33.660    2.5101
   33.690    2.7909
   33.720    2.8787
   33.750    2.6330
   33.780    2.9665
   33.810    2.5276
   33.840    2.2292
   33.870    2.7734
   33.900    2.5452
   33.930    2.7383
   33.960    3.0191
   33.990    2.5803
   34.020    2.6505
   34.050    2.4399
   34.080    2.7032
   34.110    2.5803
   34.140    2.8260
   34.170    2.7909
   34.200    2.7207
   34.230    2.7734
   34.260    2.5452
   34.290    2.6505
   34.320    2.8612
   34.350    2.5628
   34.380    2.4399
   34.410    2.5979
   34.440    2.9314
   34.470    2.4750
   34.500    2.3521
   34.530    2.7207
   34.560    2.7734
   34.590    2.4925
   34.620    2.5628
   34.650    2.2117
   34.680    2.7207
   34.710    2.4399
   34.740    2.5628
   34.770    2.2643
   34.800    2.3872
   34.830    2.3346
   34.860    2.3521
   34.890    2.8436
   34.920    2.8085
   34.950    2.3346
   34.980    3.0542
   35.010    2.7032
   35.040    2.6154
   35.070    2.8436
   35.100    2.3697
   35.130    2.5452
   35.160    2.7383
   35.190    2.6681
   35.220    2.4574
   35.250    2.5803
   35.280    2.8085
   35.310    2.4750
   35.340    2.5101
   35.370    2.4574
   35.400    2.5452
   35.430    2.4925
   35.460    2.7734
   35.490    2.3697
   35.520    2.2292
   35.550    2.5101
   35.580    2.5803
   35.610    2.5803
   35.640    2.4750
   35.670    2.4223
   35.700    2.7734
   35.730    2.9138
   35.760    2.4574
   35.790    2.7207
   35.820    2.3872
   35.850    2.7032
   35.880    2.5101
   35.910    2.7383
   35.940    2.8612
   35.970    2.4399
   36.000    2.5101
   36.030    2.7207
   36.060    2.7909
   36.090    2.7558
   36.120    2.5276
   36.150    2.2292
   36.180    2.6330
   36.210    2.6330
   36.240    2.5101
   36.270    2.4750
   36.300    2.6681
   36.330    2.2643
   36.360    2.4223
   36.390    2.2468
   36.420    2.6154
   36.450    2.6154
   36.480    2.6330
   36.510    2.3521
   36.540    2.6505
   36.570    2.7207
   36.600    2.8085
   36.630    2.7032
   36.660    2.4223
   36.690    2.6330
   36.720    2.4925
   36.750    2.4048
   36.780    2.4750
   36.810    2.3697
   36.840    2.1941
   36.870    2.4750
   36.900    2.3697
   36.930    2.5628
   36.960    2.7734
   36.990    2.5979
   37.020    2.1415
   37.050    2.3872
   37.080    2.4750
   37.110    2.0888
   37.140    2.7032
   37.170    2.2995
   37.200    2.2819
   37.230    2.5803
   37.260    2.6330
   37.290    2.4574
   37.320    2.6154
   37.350    2.5276
   37.380    2.3697
   37.410    2.2468
   37.440    2.6330
   37.470    2.3697
   37.500    2.2117
   37.530    2.6330
   37.560    2.4048
   37.590    2.4223
   37.620    2.3697
   37.650    2.3872
   37.680    2.3872
   37.710    2.2819
   37.740    2.6856
   37.770    2.4925
   37.800    2.7207
   37.830    2.4223
   37.860    2.4048
   37.890    2.3170
   37.920    1.9484
   37.950    2.3170
   37.980    2.5803
   38.010    2.4048
   38.040    2.4750
   38.070    2.1941
   38.100    2.3346
   38.130    2.4574
   38.160    2.3872
   38.190    2.5628
   38.220    2.3697
   38.250    2.6681
   38.280    2.6330
   38.310    2.4574
   38.340    2.5276
   38.370    2.3346
   38.400    2.2292
   38.430    2.3170
   38.460    2.5452
   38.490    2.3521
   38.520    2.6330
   38.550    2.1415
   38.580    2.3872
   38.610    2.7909
   38.640    2.3170
   38.670    2.6681
   38.700    2.2819
   38.730    2.5276
   38.760    2.4048
   38.790    2.5628
   38.820    2.3697
   38.850    2.0888
   38.880    2.7032
   38.910    2.6856
   38.940    2.4223
   38.970    2.5276
   39.000    2.2643
   39.030    2.3346
   39.060    2.0888
   39.090    2.4750
   39.120    2.3346
   39.150    2.3521
   39.180    2.5803
   39.210    2.3170
   39.240    2.2995
   39.270    2.2468
   39.300    2.6505
   39.330    2.2643
   39.360    2.4399
   39.390    2.3697
   39.420    2.2468
   39.450    2.5628
   39.480    2.1590
   39.510    2.5101
   39.540    2.4399
   39.570    2.4048
   39.600    2.4223
   39.630    2.5979
   39.660    2.4223
   39.690    2.5101
   39.720    2.3346
   39.750    2.0888
   39.780    2.4048
   39.810    2.1064
   39.840    2.3346
   39.870    2.5276
   39.900    2.2819
   39.930    2.2819
   39.960    2.2819
   39.990    2.2643