File: data/MOCOF-1/PXRD/PXRD_KE-082_Cu-Ka1_film-3mm_5s-deg.xyd
    1.500   14.9763
    1.530   14.8815
    1.560   14.0074
    1.590   13.7546
    1.620   13.2385
    1.650   13.3333
    1.680   12.5434
    1.710   12.2064
    1.740   11.5640
    1.770   11.9221
    1.800   11.3639
    1.830   11.5324
    1.860   11.1427
    1.890   10.7952
    1.920   10.4265
    1.950   10.2264
    1.980   10.2054
    2.010   10.0369
    2.040    9.7736
    2.070    9.7420
    2.100    9.7841
    2.130    9.4155
    2.160    9.1311
    2.190    9.2891
    2.220    9.0469
    2.250    8.5940
    2.280    8.2991
    2.310    8.8257
    2.340    8.1727
    2.370    8.0990
    2.400    8.5097
    2.430    7.6672
    2.460    7.6356
    2.490    7.6251
    2.520    7.7620
    2.550    7.7093
    2.580    7.1617
    2.610    7.4882
    2.640    7.1722
    2.670    7.3196
    2.700    7.1722
    2.730    7.3934
    2.760    6.9194
    2.790    6.9721
    2.820    6.7088
    2.850    6.9510
    2.880    7.3618
    2.910    6.9932
    2.940    7.3091
    2.970    7.2038
    3.000    6.8141
    3.030    7.0458
    3.060    7.0669
    3.090    7.2143
    3.120    6.8562
    3.150    6.8878
    3.180    7.5724
    3.210    7.1406
    3.240    7.4566
    3.270    7.9831
    3.300    7.8989
    3.330    7.9831
    3.360    8.6677
    3.390    8.7309
    3.420    9.6577
    3.450    9.8262
    3.480   10.4792
    3.510   10.9847
    3.540   11.6166
    3.570   12.5013
    3.600   14.0916
    3.630   14.8183
    3.660   17.3144
    3.690   19.5471
    3.720   22.7593
    3.750   26.0348
    3.780   30.6056
    3.810   38.8204
    3.840   54.5129
    3.870   68.1938
    3.900   59.6209
    3.930   24.6972
    3.960    7.9621
    3.990    6.4771
    4.020    6.4560
    4.050    6.4244
    4.080    6.1611
    4.110    6.5508
    4.140    5.9294
    4.170    6.6140
    4.200    6.2665
    4.230    6.1190
    4.260    6.0348
    4.290    6.0453
    4.320    6.0453
    4.350    5.8662
    4.380    6.2981
    4.410    6.0348
    4.440    6.3507
    4.470    6.1401
    4.500    6.0348
    4.530    6.0453
    4.560    6.2349
    4.590    5.9505
    4.620    6.2770
    4.650    5.9294
    4.680    6.1295
    4.710    6.2138
    4.740    5.7188
    4.770    6.2665
    4.800    6.2875
    4.830    6.2033
    4.860    6.5192
    4.890    6.2875
    4.920    6.3823
    4.950    6.2138
    4.980    6.4350
    5.010    6.8141
    5.040    6.8984
    5.070    6.7720
    5.100    7.3407
    5.130    7.6988
    5.160    7.8568
    5.190    8.3412
    5.220    8.9626
    5.250    9.3312
    5.280   10.0685
    5.310   10.4476
    5.340   11.9958
    5.370   13.5545
    5.400   15.0079
    5.430   19.0627
    5.460   24.4444
    5.490   29.1733
    5.520   26.8562
    5.550   14.6814
    5.580    8.2675
    5.610    7.9516
    5.640    7.3934
    5.670    7.5513
    5.700    7.2880
    5.730    7.2354
    5.760    6.9721
    5.790    6.9089
    5.820    7.1722
    5.850    6.6877
    5.880    6.1717
    5.910    6.4455
    5.940    6.3296
    5.970    6.2349
    6.000    5.8768
    6.030    6.2454
    6.060    6.0874
    6.090    5.9084
    6.120    6.1927
    6.150    5.7188
    6.180    5.8978
    6.210    6.0242
    6.240    5.4450
    6.270    5.9189
    6.300    5.4555
    6.330    5.9716
    6.360    5.2238
    6.390    5.6872
    6.420    5.5924
    6.450    6.0137
    6.480    5.8452
    6.510    6.1611
    6.540    6.0137
    6.570    7.0458
    6.600    6.9510
    6.630    7.4882
    6.660    8.5835
    6.690    9.7420
    6.720   13.1438
    6.750   13.3965
    6.780   10.3528
    6.810    6.0137
    6.840    5.1080
    6.870    5.2975
    6.900    4.8868
    6.930    5.1395
    6.960    5.2554
    6.990    4.8868
    7.020    5.1922
    7.050    4.8447
    7.080    4.8236
    7.110    4.7499
    7.140    4.8341
    7.170    4.9816
    7.200    5.1290
    7.230    4.7815
    7.260    5.1606
    7.290    4.3497
    7.320    4.6130
    7.350    4.5814
    7.380    4.3181
    7.410    4.3602
    7.440    4.7077
    7.470    4.5603
    7.500    4.5708
    7.530    4.7393
    7.560    4.6761
    7.590    4.5498
    7.620    5.3186
    7.650    5.2449
    7.680    5.1711
    7.710    6.0137
    7.740    6.6983
    7.770    8.0463
    7.800    9.0363
    7.830    6.8878
    7.860    4.4444
    7.890    4.3286
    7.920    4.3286
    7.950    4.0337
    7.980    4.1496
    8.010    4.2549
    8.040    4.0442
    8.070    4.2970
    8.100    3.8968
    8.130    4.0021
    8.160    4.0337
    8.190    3.8231
    8.220    4.2970
    8.250    4.0758
    8.280    4.0021
    8.310    4.1074
    8.340    4.0232
    8.370    3.9705
    8.400    3.9389
    8.430    4.0758
    8.460    4.0758
    8.490    3.7283
    8.520    4.1390
    8.550    4.1496
    8.580    4.0021
    8.610    4.2338
    8.640    4.3602
    8.670    4.2865
    8.700    4.6761
    8.730    4.4971
    8.760    4.0548
    8.790    3.6862
    8.820    3.4334
    8.850    3.9600
    8.880    4.2654
    8.910    3.8757
    8.940    3.9705
    8.970    3.6335
    9.000    3.6651
    9.030    3.8125
    9.060    3.9810
    9.090    3.7493
    9.120    4.0442
    9.150    3.7704
    9.180    3.6335
    9.210    3.7072
    9.240    3.7704
    9.270    4.1285
    9.300    4.0232
    9.330    4.0969
    9.360    4.2970
    9.390    4.5287
    9.420    5.2554
    9.450    6.3086
    9.480    7.5829
    9.510   10.5845
    9.540   14.4076
    9.570   13.5545
    9.600    8.9205
    9.630    3.9600
    9.660    3.6019
    9.690    3.8020
    9.720    3.7283
    9.750    3.5914
    9.780    3.8231
    9.810    3.6756
    9.840    3.5282
    9.870    3.7388
    9.900    3.7599
    9.930    3.5071
    9.960    4.0232
    9.990    3.5387
   10.020    3.6546
   10.050    4.0864
   10.080    3.8231
   10.110    3.7493
   10.140    4.2338
   10.170    4.2549
   10.200    4.3181
   10.230    4.6235
   10.260    5.4660
   10.290    6.5613
   10.320    7.3618
   10.350    6.8878
   10.380    4.6024
   10.410    3.8125
   10.440    3.6651
   10.470    3.6967
   10.500    3.4860
   10.530    3.9494
   10.560    4.0021
   10.590    3.7388
   10.620    3.8652
   10.650    3.9810
   10.680    3.7072
   10.710    3.7388
   10.740    3.9073
   10.770    4.0337
   10.800    3.8757
   10.830    4.0653
   10.860    4.2443
   10.890    4.0969
   10.920    4.6024
   10.950    4.6130
   10.980    5.4766
   11.010    7.0563
   11.040    7.6883
   11.070    6.8141
   11.100    4.8552
   11.130    3.9810
   11.160    4.2127
   11.190    3.9073
   11.220    4.0126
   11.250    3.7599
   11.280    4.0864
   11.310    4.0337
   11.340    4.0126
   11.370    4.0126
   11.400    4.1074
   11.430    4.0126
   11.460    3.9073
   11.490    4.2022
   11.520    4.2338
   11.550    4.1601
   11.580    4.3286
   11.610    4.7709
   11.640    4.9605
   11.670    6.4244
   11.700    7.8884
   11.730    7.4987
   11.760    5.7083
   11.790    4.0864
   11.820    3.8547
   11.850    4.4234
   11.880    3.9073
   11.910    3.7072
   11.940    3.7283
   11.970    3.6967
   12.000    3.9284
   12.030    3.5808
   12.060    3.7388
   12.090    3.7177
   12.120    3.5598
   12.150    3.9073
   12.180    3.6967
   12.210    3.5176
   12.240    3.6862
   12.270    3.8336
   12.300    4.1390
   12.330    4.4866
   12.360    4.4444
   12.390    3.6019
   12.420    3.7072
   12.450    3.7283
   12.480    3.6019
   12.510    3.6546
   12.540    3.6230
   12.570    3.6230
   12.600    4.0548
   12.630    3.6019
   12.660    3.6019
   12.690    3.5808
   12.720    3.8757
   12.750    3.5703
   12.780    3.5176
   12.810    4.0021
   12.840    3.8863
   12.870    4.4760
   12.900    4.8341
   12.930    5.8031
   12.960    6.5298
   12.990    5.5608
   13.020    4.2443
   13.050    3.5492
   13.080    3.4860
   13.110    3.7493
   13.140    3.7283
   13.170    3.7388
   13.200    3.6440
   13.230    3.6440
   13.260    3.4966
   13.290    3.5914
   13.320    3.6756
   13.350    3.6756
   13.380    3.6651
   13.410    4.3075
   13.440    3.9705
   13.470    3.7599
   13.500    4.3181
   13.530    4.7499
   13.560    4.7815
   13.590    3.5703
   13.620    3.4544
   13.650    3.6335
   13.680    3.5808
   13.710    3.8757
   13.740    3.6335
   13.770    3.6756
   13.800    3.7177
   13.830    3.5808
   13.860    3.4755
   13.890    3.7388
   13.920    3.9179
   13.950    3.8441
   13.980    4.0758
   14.010    4.1074
   14.040    4.6445
   14.070    5.3291
   14.100    5.8768
   14.130    5.5082
   14.160    4.2549
   14.190    4.0758
   14.220    3.6651
   14.250    3.8125
   14.280    3.7809
   14.310    3.8863
   14.340    4.1601
   14.370    3.6546
   14.400    3.8652
   14.430    3.9179
   14.460    3.9179
   14.490    3.8547
   14.520    3.9179
   14.550    3.7493
   14.580    3.7704
   14.610    4.0126
   14.640    4.0232
   14.670    3.9916
   14.700    3.7493
   14.730    4.1285
   14.760    3.8968
   14.790    3.9916
   14.820    3.8863
   14.850    3.7283
   14.880    3.5703
   14.910    3.6124
   14.940    3.8547
   14.970    3.8336
   15.000    3.7493
   15.030    3.5176
   15.060    4.1601
   15.090    4.0442
   15.120    4.2865
   15.150    4.0864
   15.180    4.2759
   15.210    4.1180
   15.240    3.5914
   15.270    3.8125
   15.300    3.6651
   15.330    3.4860
   15.360    3.4018
   15.390    3.7599
   15.420    3.8231
   15.450    3.8231
   15.480    3.5703
   15.510    3.3281
   15.540    3.7283
   15.570    3.5914
   15.600    3.6124
   15.630    3.7388
   15.660    3.6019
   15.690    3.4544
   15.720    3.6651
   15.750    3.7072
   15.780    3.3702
   15.810    3.7704
   15.840    3.5808
   15.870    3.5914
   15.900    3.6019
   15.930    3.5598
   15.960    3.4334
   15.990    3.5492
   16.020    3.8652
   16.050    3.7493
   16.080    3.9389
   16.110    3.8441
   16.140    3.8652
   16.170    4.0232
   16.200    3.4123
   16.230    3.7599
   16.260    3.4755
   16.290    3.9494
   16.320    3.7493
   16.350    3.5282
   16.380    3.5071
   16.410    3.7388
   16.440    3.6546
   16.470    3.6440
   16.500    3.6756
   16.530    3.8547
   16.560    3.9284
   16.590    4.0864
   16.620    3.9916
   16.650    3.5071
   16.680    3.8652
   16.710    3.7177
   16.740    3.4439
   16.770    3.5387
   16.800    3.4123
   16.830    3.4860
   16.860    3.5282
   16.890    3.6651
   16.920    3.7915
   16.950    3.6019
   16.980    4.0653
   17.010    4.4128
   17.040    4.7604
   17.070    5.4028
   17.100    4.9816
   17.130    4.3286
   17.160    3.6440
   17.190    3.7072
   17.220    3.3913
   17.250    3.8968
   17.280    3.5071
   17.310    3.5071
   17.340    3.8125
   17.370    3.5808
   17.400    3.6230
   17.430    3.8757
   17.460    3.8336
   17.490    4.0126
   17.520    3.9705
   17.550    4.1601
   17.580    3.8968
   17.610    3.6546
   17.640    3.7177
   17.670    3.4439
   17.700    3.5282
   17.730    3.4334
   17.760    3.7599
   17.790    3.2543
   17.820    3.5914
   17.850    3.5703
   17.880    3.5176
   17.910    3.6756
   17.940    3.6862
   17.970    4.2233
   18.000    3.6862
   18.030    3.2965
   18.060    3.6651
   18.090    3.8968
   18.120    3.4966
   18.150    3.8652
   18.180    3.8020
   18.210    3.5808
   18.240    3.5176
   18.270    3.6019
   18.300    3.8547
   18.330    3.9494
   18.360    4.3391
   18.390    3.9179
   18.420    3.6651
   18.450    3.6440
   18.480    3.6230
   18.510    3.2649
   18.540    3.1069
   18.570    3.5598
   18.600    3.8020
   18.630    3.6230
   18.660    3.3491
   18.690    3.9494
   18.720    3.6019
   18.750    3.6230
   18.780    3.8757
   18.810    3.3807
   18.840    3.8125
   18.870    3.6440
   18.900    3.3175
   18.930    3.4334
   18.960    3.5492
   18.990    3.6124
   19.020    3.3386
   19.050    3.4860
   19.080    3.3491
   19.110    3.3597
   19.140    3.4334
   19.170    3.5071
   19.200    3.7072
   19.230    3.3175
   19.260    3.6335
   19.290    3.2333
   19.320    3.3491
   19.350    3.5598
   19.380    3.2859
   19.410    3.4755
   19.440    3.2122
   19.470    3.3807
   19.500    3.4755
   19.530    3.3175
   19.560    3.8547
   19.590    3.5492
   19.620    4.1390
   19.650    3.5282
   19.680    3.4334
   19.710    3.3175
   19.740    3.3702
   19.770    3.6546
   19.800    3.1280
   19.830    3.3491
   19.860    3.5808
   19.890    3.3070
   19.920    3.3702
   19.950    3.5282
   19.980    3.3070
   20.010    3.4860
   20.040    3.2965
   20.070    3.4123
   20.100    2.8541
   20.130    3.5808
   20.160    3.3386
   20.190    3.3597
   20.220    3.4966
   20.250    3.5387
   20.280    3.7915
   20.310    3.4334
   20.340    3.9600
   20.370    4.4760
   20.400    4.3181
   20.430    3.8757
   20.460    3.5492
   20.490    3.2754
   20.520    3.1069
   20.550    3.2122
   20.580    3.3386
   20.610    3.1596
   20.640    3.2649
   20.670    3.4755
   20.700    3.4966
   20.730    3.1069
   20.760    3.4544
   20.790    2.9489
   20.820    3.3386
   20.850    3.0226
   20.880    3.3386
   20.910    3.5703
   20.940    3.1806
   20.970    3.1280
   21.000    3.2227
   21.030    3.3281
   21.060    3.5282
   21.090    3.0332
   21.120    3.1490
   21.150    3.2017
   21.180    3.3070
   21.210    3.4544
   21.240    3.1280
   21.270    3.2122
   21.300    3.2227
   21.330    3.4650
   21.360    3.2965
   21.390    3.2122
   21.420    3.5492
   21.450    3.2017
   21.480    2.9805
   21.510    3.3281
   21.540    3.2438
   21.570    3.3597
   21.600    3.3913
   21.630    3.5282
   21.660    3.2859
   21.690    3.1385
   21.720    3.5176
   21.750    3.1280
   21.780    3.2649
   21.810    3.3070
   21.840    3.7283
   21.870    3.6230
   21.900    3.7177
   21.930    3.2859
   21.960    3.2333
   21.990    3.1174
   22.020    3.2227
   22.050    3.1280
   22.080    3.1280
   22.110    3.3913
   22.140    3.2122
   22.170    3.6967
   22.200    3.8652
   22.230    3.6124
   22.260    3.0858
   22.290    3.2017
   22.320    3.1174
   22.350    3.1174
   22.380    3.0648
   22.410    3.2438
   22.440    3.2438
   22.470    3.0542
   22.500    3.5914
   22.530    4.2338
   22.560    4.3602
   22.590    4.5392
   22.620    3.7493
   22.650    3.3807
   22.680    3.1069
   22.710    3.4123
   22.740    3.3386
   22.770    3.2649
   22.800    3.3386
   22.830    3.2543
   22.860    3.7809
   22.890    4.0337
   22.920    4.3286
   22.950    3.9494
   22.980    3.5808
   23.010    3.2543
   23.040    3.1596
   23.070    2.7593
   23.100    3.0542
   23.130    3.3175
   23.160    3.2754
   23.190    3.1069
   23.220    3.4229
   23.250    3.6756
   23.280    3.5176
   23.310    3.0964
   23.340    2.9173
   23.370    3.1069
   23.400    3.3281
   23.430    3.1701
   23.460    3.1701
   23.490    3.0648
   23.520    3.1174
   23.550    3.0121
   23.580    3.1912
   23.610    3.1280
   23.640    2.9384
   23.670    2.9595
   23.700    3.0858
   23.730    2.9489
   23.760    2.6856
   23.790    3.1385
   23.820    3.1490
   23.850    2.9489
   23.880    3.1385
   23.910    3.4334
   23.940    3.0964
   23.970    3.1069
   24.000    2.9068
   24.030    3.1174
   24.060    2.9068
   24.090    3.0437
   24.120    3.2438
   24.150    2.8857
   24.180    3.0648
   24.210    3.0964
   24.240    3.0226
   24.270    2.8647
   24.300    2.8857
   24.330    2.9489
   24.360    2.7067
   24.390    2.9910
   24.420    2.9279
   24.450    2.8120
   24.480    3.1806
   24.510    2.7488
   24.540    2.8541
   24.570    3.0437
   24.600    2.7804
   24.630    2.8436
   24.660    2.7278
   24.690    2.8541
   24.720    2.7804
   24.750    3.0121
   24.780    2.8647
   24.810    2.8647
   24.840    2.9279
   24.870    2.9173
   24.900    3.2227
   24.930    2.7278
   24.960    2.8541
   24.990    2.5276
   25.020    3.0121
   25.050    2.7593
   25.080    3.1701
   25.110    2.6540
   25.140    2.8647
   25.170    3.0648
   25.200    2.8436
   25.230    2.8541
   25.260    2.8120
   25.290    3.3597
   25.320    2.9384
   25.350    2.7699
   25.380    2.8963
   25.410    2.6224
   25.440    2.9173
   25.470    3.1490
   25.500    3.1385
   25.530    2.9279
   25.560    2.8436
   25.590    2.9595
   25.620    2.6751
   25.650    3.0121
   25.680    2.7804
   25.710    2.9700
   25.740    2.9068
   25.770    3.2438
   25.800    3.8125
   25.830    4.1285
   25.860    3.4544
   25.890    2.9384
   25.920    3.0226
   25.950    2.7278
   25.980    2.9068
   26.010    2.8015
   26.040    2.9489
   26.070    3.0332
   26.100    3.0332
   26.130    2.7909
   26.160    2.9173
   26.190    2.6330
   26.220    2.6646
   26.250    2.8225
   26.280    2.6014
   26.310    2.6856
   26.340    2.8647
   26.370    3.1490
   26.400    2.9279
   26.430    3.3070
   26.460    2.7172
   26.490    3.2122
   26.520    2.7593
   26.550    2.8015
   26.580    2.8331
   26.610    2.6540
   26.640    2.7383
   26.670    2.7172
   26.700    2.6856
   26.730    2.6435
   26.760    2.6224
   26.790    2.5803
   26.820    2.5698
   26.850    2.8015
   26.880    2.5066
   26.910    2.7909
   26.940    2.7699
   26.970    2.8436
   27.000    3.1701
   27.030    2.9595
   27.060    2.9279
   27.090    2.7804
   27.120    2.4645
   27.150    2.6224
   27.180    2.4855
   27.210    2.6014
   27.240    2.4118
   27.270    2.6856
   27.300    2.5066
   27.330    2.5066
   27.360    2.5382
   27.390    2.6540
   27.420    2.6330
   27.450    2.7383
   27.480    2.5803
   27.510    2.6646
   27.540    2.7172
   27.570    2.9068
   27.600    3.0121
   27.630    3.0858
   27.660    2.7383
   27.690    2.5908
   27.720    2.5487
   27.750    2.7278
   27.780    2.5908
   27.810    2.6856
   27.840    2.6330
   27.870    2.8331
   27.900    2.8541
   27.930    2.6540
   27.960    2.6119
   27.990    2.6119
   28.020    2.4961
   28.050    2.3486
   28.080    2.5592
   28.110    2.6646
   28.140    2.7278
   28.170    2.7067
   28.200    2.8963
   28.230    2.7804
   28.260    2.5171
   28.290    2.5276
   28.320    2.5592
   28.350    2.8541
   28.380    2.7172
   28.410    2.7172
   28.440    2.6540
   28.470    2.7278
   28.500    2.4855
   28.530    2.5803
   28.560    2.4329
   28.590    2.4223
   28.620    2.7067
   28.650    2.5382
   28.680    2.4855
   28.710    2.4539
   28.740    2.7278
   28.770    2.6751
   28.800    2.4539
   28.830    2.4645
   28.860    2.4118
   28.890    2.6224
   28.920    2.7278
   28.950    2.5592
   28.980    2.9489
   29.010    2.8647
   29.040    2.5803
   29.070    2.5698
   29.100    2.5382
   29.130    2.4645
   29.160    2.6540
   29.190    2.4961
   29.220    2.5592
   29.250    2.7804
   29.280    2.9279
   29.310    2.6646
   29.340    2.2959
   29.370    2.4223
   29.400    2.4961
   29.430    2.5487
   29.460    2.2959
   29.490    2.2854
   29.520    2.3275
   29.550    2.1064
   29.580    2.0853
   29.610    2.5803
   29.640    2.4013
   29.670    2.4539
   29.700    2.3802
   29.730    2.3802
   29.760    2.2117
   29.790    2.4645
   29.820    2.3907
   29.850    2.4645
   29.880    2.4539
   29.910    2.1906
   29.940    2.1696
   29.970    2.3802
   30.000    2.1801
   30.030    2.2643
   30.060    2.4118
   30.090    2.4645
   30.120    2.3697
   30.150    2.1274
   30.180    2.4539
   30.210    2.3802
   30.240    2.2959
   30.270    2.1380
   30.300    2.1064
   30.330    2.2538
   30.360    2.0326
   30.390    2.0221
   30.420    2.1485
   30.450    2.0221
   30.480    2.3065
   30.510    2.3170
   30.540    2.2433
   30.570    2.3907
   30.600    2.3802
   30.630    2.2222
   30.660    2.1485
   30.690    2.2643
   30.720    2.2012
   30.750    2.3065
   30.780    2.1696
   30.810    2.2643
   30.840    2.3275
   30.870    2.0011
   30.900    2.1380
   30.930    2.1064
   30.960    2.2222
   30.990    2.3275
   31.020    2.0853
   31.050    2.0116
   31.080    2.1696
   31.110    2.2117
   31.140    2.2117
   31.170    2.1590
   31.200    1.9063
   31.230    2.0116
   31.260    2.0537
   31.290    2.1906
   31.320    2.3065
   31.350    2.2538
   31.380    2.3802
   31.410    2.1801
   31.440    2.0642
   31.470    2.0958
   31.500    2.2328
   31.530    1.9379
   31.560    2.0221
   31.590    2.1064
   31.620    2.0432
   31.650    2.3486
   31.680    2.1169
   31.710    2.2117
   31.740    2.4013
   31.770    2.2328
   31.800    2.0958
   31.830    2.2959
   31.860    2.2538
   31.890    2.1380
   31.920    2.2749
   31.950    1.9905
   31.980    2.2959
   32.010    2.0537
   32.040    1.9484
   32.070    2.4434
   32.100    2.5908
   32.130    2.4329
   32.160    2.1380
   32.190    2.1064
   32.220    1.7483
   32.250    2.1064
   32.280    2.0011
   32.310    1.8852
   32.340    2.0432
   32.370    2.0011
   32.400    2.0958
   32.430    1.9589
   32.460    2.1064
   32.490    1.9800
   32.520    1.9063
   32.550    1.9379
   32.580    1.8852
   32.610    1.9273
   32.640    1.9905
   32.670    2.0642
   32.700    2.0326
   32.730    2.2012
   32.760    2.2117
   32.790    1.8852
   32.820    2.1696
   32.850    2.2959
   32.880    2.0748
   32.910    2.1801
   32.940    2.1590
   32.970    1.9589
   33.000    1.9379
   33.030    2.1801
   33.060    1.9589
   33.090    1.9063
   33.120    2.0011
   33.150    1.8325
   33.180    1.9484
   33.210    1.9168
   33.240    1.9273
   33.270    1.8957
   33.300    2.1380
   33.330    1.9273
   33.360    2.0537
   33.390    2.0958
   33.420    1.8220
   33.450    1.9063
   33.480    2.0116
   33.510    2.0326
   33.540    1.9063
   33.570    1.9905
   33.600    2.0642
   33.630    2.1590
   33.660    2.0011
   33.690    1.6640
   33.720    1.9695
   33.750    1.8220
   33.780    1.9800
   33.810    2.1380
   33.840    2.2749
   33.870    2.1169
   33.900    2.3486
   33.930    2.1485
   33.960    2.1696
   33.990    2.0748
   34.020    2.0221
   34.050    1.9800
   34.080    1.8641
   34.110    2.0642
   34.140    2.1801
   34.170    1.9695
   34.200    2.0326
   34.230    1.9273
   34.260    2.2538
   34.290    1.7904
   34.320    2.0011
   34.350    1.7588
   34.380    1.9589
   34.410    2.0221
   34.440    1.7062
   34.470    1.8536
   34.500    1.8431
   34.530    1.6640
   34.560    1.9589
   34.590    1.8431
   34.620    1.8325
   34.650    1.7272
   34.680    1.8220
   34.710    1.9800
   34.740    2.1801
   34.770    2.1590
   34.800    1.8325
   34.830    2.0116
   34.860    1.9379
   34.890    2.0326
   34.920    1.7167
   34.950    1.7799
   34.980    2.0432
   35.010    1.9484
   35.040    1.7588
   35.070    1.7694
   35.100    1.8115
   35.130    1.8009
   35.160    1.7378
   35.190    1.8852
   35.220    1.9168
   35.250    1.7378
   35.280    1.8009
   35.310    1.7588
   35.340    1.8009
   35.370    1.8852
   35.400    1.9800
   35.430    1.6746
   35.460    1.9379
   35.490    1.8641
   35.520    1.8009
   35.550    1.7588
   35.580    1.9484
   35.610    1.7904
   35.640    1.6640
   35.670    1.9063
   35.700    2.0326
   35.730    2.0432
   35.760    1.8009
   35.790    1.9589
   35.820    1.9695
   35.850    1.8852
   35.880    1.8325
   35.910    1.8852
   35.940    1.8747
   35.970    1.9063
   36.000    1.8431
   36.030    2.0537
   36.060    2.0221
   36.090    1.7062
   36.120    2.0853
   36.150    1.8325
   36.180    1.9589
   36.210    1.9273
   36.240    1.9695
   36.270    1.8325
   36.300    1.7272
   36.330    1.9168
   36.360    1.9063
   36.390    1.7378
   36.420    1.7904
   36.450    2.0537
   36.480    1.9063
   36.510    2.0116
   36.540    2.1801
   36.570    2.0642
   36.600    1.9379
   36.630    1.9589
   36.660    1.9063
   36.690    1.8431
   36.720    1.8220
   36.750    1.8747
   36.780    2.0432
   36.810    1.6430
   36.840    2.0537
   36.870    1.8536
   36.900    1.6640
   36.930    1.7483
   36.960    2.0326
   36.990    1.8009
   37.020    1.7799
   37.050    1.9695
   37.080    2.0221
   37.110    1.8009
   37.140    1.9484
   37.170    1.9905
   37.200    1.8115
   37.230    1.8747
   37.260    1.7062
   37.290    1.9589
   37.320    1.8325
   37.350    1.9379
   37.380    1.6956
   37.410    1.9589
   37.440    1.7799
   37.470    1.8957
   37.500    1.7904
   37.530    1.9168
   37.560    1.7272
   37.590    1.7904
   37.620    1.7588
   37.650    1.8641
   37.680    1.8747
   37.710    1.9168
   37.740    1.8115
   37.770    1.7799
   37.800    1.8852
   37.830    2.0326
   37.860    1.6535
   37.890    1.9168
   37.920    1.9273
   37.950    1.9273
   37.980    1.8220
   38.010    2.1696
   38.040    1.7483
   38.070    1.9379
   38.100    1.8115
   38.130    1.8009
   38.160    1.9379
   38.190    1.7272
   38.220    1.6851
   38.250    1.5482
   38.280    1.9273
   38.310    1.6956
   38.340    1.9379
   38.370    1.6956
   38.400    1.8852
   38.430    1.9589
   38.460    1.7272
   38.490    1.8325
   38.520    1.9589
   38.550    1.8641
   38.580    1.5903
   38.610    1.7378
   38.640    1.7272
   38.670    1.9905
   38.700    1.6219
   38.730    1.7904
   38.760    1.9589
   38.790    1.8641
   38.820    1.7799
   38.850    1.7272
   38.880    1.7483
   38.910    1.7588
   38.940    1.8325
   38.970    1.8325
   39.000    1.7062
   39.030    1.7272
   39.060    1.5692
   39.090    1.7483
   39.120    1.8325
   39.150    1.6324
   39.180    1.8957
   39.210    1.7588
   39.240    1.8536
   39.270    1.6640
   39.300    1.5903
   39.330    1.8852
   39.360    1.8009
   39.390    1.8115
   39.420    1.5798
   39.450    1.7483
   39.480    1.6851
   39.510    1.8115
   39.540    1.7904
   39.570    1.6746
   39.600    1.7799
   39.630    1.8009
   39.660    1.8957
   39.690    1.8852
   39.720    1.8536
   39.750    1.7694
   39.780    1.7378
   39.810    1.8325
   39.840    1.6535
   39.870    1.7062
   39.900    1.7483
   39.930    1.8325
   39.960    1.7378
   39.990    1.6535