File: data/MOCOF-1/PXRD/PXRD_KE-195_Cu-Ka1_capillary-1mm_5s-deg.xyd
    1.500   16.7562
    1.530   16.9668
    1.560   16.0084
    1.590   15.2501
    1.620   15.1869
    1.650   13.9442
    1.680   13.7651
    1.710   14.1232
    1.740   13.1016
    1.770   13.3755
    1.800   12.5118
    1.830   11.7114
    1.860   11.5640
    1.890   11.0163
    1.920   10.6056
    1.950   10.7109
    1.980   10.2054
    2.010   10.8478
    2.040    9.9315
    2.070    9.4681
    2.100    9.3523
    2.130    9.1101
    2.160    8.9942
    2.190    8.4571
    2.220    8.6572
    2.250    8.3412
    2.280    7.9094
    2.310    8.1622
    2.340    7.7620
    2.370    7.7093
    2.400    7.4144
    2.430    7.0458
    2.460    7.0774
    2.490    6.9616
    2.520    7.2565
    2.550    6.8141
    2.580    6.9826
    2.610    6.6035
    2.640    6.2559
    2.670    6.3823
    2.700    6.2770
    2.730    6.0558
    2.760    6.1085
    2.790    5.7925
    2.820    5.9505
    2.850    5.6767
    2.880    5.8136
    2.910    5.6135
    2.940    5.4766
    2.970    5.3186
    3.000    5.3186
    3.030    4.9605
    3.060    5.3502
    3.090    5.2133
    3.120    4.8447
    3.150    5.2659
    3.180    4.8763
    3.210    5.1395
    3.240    4.8447
    3.270    4.7499
    3.300    4.6656
    3.330    4.8131
    3.360    4.5919
    3.390    4.6445
    3.420    4.6445
    3.450    4.6445
    3.480    4.5708
    3.510    4.2865
    3.540    4.3602
    3.570    4.5392
    3.600    4.3181
    3.630    4.2759
    3.660    4.4128
    3.690    4.4866
    3.720    4.1180
    3.750    4.1811
    3.780    4.1074
    3.810    4.0758
    3.840    4.0337
    3.870    3.9179
    3.900    3.9705
    3.930    3.6862
    3.960    4.1811
    3.990    4.0969
    4.020    4.2549
    4.050    4.1285
    4.080    4.1390
    4.110    4.0232
    4.140    4.0337
    4.170    4.2233
    4.200    3.7915
    4.230    4.0232
    4.260    3.9284
    4.290    3.7704
    4.320    3.9073
    4.350    3.9600
    4.380    4.1390
    4.410    3.8441
    4.440    4.1390
    4.470    4.2127
    4.500    3.8020
    4.530    4.0548
    4.560    3.9179
    4.590    4.1601
    4.620    3.5387
    4.650    3.9284
    4.680    3.3386
    4.710    3.5387
    4.740    3.4650
    4.770    3.5176
    4.800    3.3491
    4.830    3.6967
    4.860    3.5914
    4.890    3.6440
    4.920    3.3281
    4.950    3.6019
    4.980    3.4650
    5.010    3.4544
    5.040    3.5176
    5.070    3.3491
    5.100    3.4334
    5.130    3.1806
    5.160    3.6335
    5.190    3.2227
    5.220    3.4860
    5.250    3.3807
    5.280    3.3913
    5.310    3.4650
    5.340    3.4544
    5.370    3.4018
    5.400    3.2333
    5.430    3.2965
    5.460    3.3070
    5.490    3.2017
    5.520    2.8436
    5.550    3.2017
    5.580    2.9805
    5.610    3.3281
    5.640    3.2017
    5.670    3.0542
    5.700    3.2438
    5.730    3.1174
    5.760    3.0542
    5.790    3.2543
    5.820    3.1069
    5.850    3.3386
    5.880    2.8647
    5.910    2.9595
    5.940    3.0016
    5.970    3.3491
    6.000    3.0648
    6.030    3.0858
    6.060    3.2333
    6.090    2.8647
    6.120    3.1912
    6.150    3.1174
    6.180    3.0332
    6.210    2.9805
    6.240    3.0121
    6.270    2.7172
    6.300    3.3175
    6.330    3.1385
    6.360    3.1280
    6.390    3.0332
    6.420    3.0753
    6.450    2.9279
    6.480    2.8752
    6.510    2.8752
    6.540    2.9595
    6.570    2.8331
    6.600    3.1280
    6.630    2.9489
    6.660    3.2227
    6.690    3.1912
    6.720    2.9489
    6.750    2.9384
    6.780    3.0753
    6.810    3.0332
    6.840    2.8857
    6.870    2.9595
    6.900    3.0226
    6.930    2.7699
    6.960    2.8963
    6.990    2.9489
    7.020    3.2965
    7.050    3.1069
    7.080    2.7804
    7.110    3.1280
    7.140    3.0648
    7.170    3.1280
    7.200    3.0121
    7.230    2.9700
    7.260    2.9805
    7.290    3.0858
    7.320    2.8225
    7.350    2.9068
    7.380    2.9279
    7.410    3.0226
    7.440    3.3070
    7.470    3.0858
    7.500    3.0648
    7.530    3.2017
    7.560    3.0226
    7.590    2.9068
    7.620    3.1701
    7.650    2.9805
    7.680    3.1385
    7.710    2.9595
    7.740    2.9068
    7.770    2.8331
    7.800    2.9700
    7.830    3.0964
    7.860    3.1069
    7.890    3.1701
    7.920    3.2859
    7.950    3.0016
    7.980    2.8857
    8.010    2.8436
    8.040    3.0016
    8.070    2.8857
    8.100    2.9489
    8.130    2.8225
    8.160    2.7172
    8.190    3.0016
    8.220    3.0016
    8.250    2.8436
    8.280    2.8963
    8.310    2.8436
    8.340    2.9068
    8.370    3.0437
    8.400    2.9279
    8.430    3.0332
    8.460    2.7699
    8.490    2.8857
    8.520    2.9805
    8.550    2.9489
    8.580    2.9910
    8.610    2.7699
    8.640    3.0648
    8.670    3.0648
    8.700    2.8120
    8.730    3.0648
    8.760    2.8436
    8.790    3.0332
    8.820    3.0332
    8.850    2.8120
    8.880    2.6962
    8.910    3.0437
    8.940    3.0121
    8.970    2.6962
    9.000    2.9489
    9.030    2.8436
    9.060    2.9595
    9.090    2.9489
    9.120    2.7172
    9.150    2.8857
    9.180    2.8752
    9.210    2.8436
    9.240    2.7067
    9.270    2.8120
    9.300    2.8541
    9.330    2.7488
    9.360    2.8436
    9.390    2.9595
    9.420    2.8541
    9.450    2.8541
    9.480    2.8857
    9.510    2.9173
    9.540    2.7278
    9.570    2.6751
    9.600    2.9068
    9.630    2.6962
    9.660    2.6751
    9.690    2.6751
    9.720    2.6540
    9.750    2.5382
    9.780    2.8015
    9.810    2.6224
    9.840    2.7067
    9.870    2.7278
    9.900    2.7593
    9.930    2.5382
    9.960    2.6224
    9.990    2.5276
   10.020    2.7804
   10.050    2.8436
   10.080    2.6224
   10.110    2.5066
   10.140    2.8120
   10.170    2.5171
   10.200    2.9384
   10.230    3.0437
   10.260    2.9384
   10.290    2.7172
   10.320    2.6224
   10.350    2.8015
   10.380    2.9595
   10.410    2.5382
   10.440    2.5803
   10.470    2.6646
   10.500    2.7593
   10.530    2.8015
   10.560    2.6856
   10.590    2.8331
   10.620    2.8225
   10.650    2.8857
   10.680    3.0121
   10.710    2.4961
   10.740    2.6435
   10.770    2.7488
   10.800    2.7909
   10.830    2.9910
   10.860    2.8963
   10.890    2.6646
   10.920    2.6646
   10.950    2.8331
   10.980    2.8120
   11.010    2.6540
   11.040    2.9279
   11.070    2.4539
   11.100    2.8331
   11.130    2.8541
   11.160    2.8225
   11.190    2.5382
   11.220    2.7383
   11.250    2.9068
   11.280    2.5382
   11.310    2.9173
   11.340    2.7278
   11.370    2.7593
   11.400    3.0016
   11.430    2.7172
   11.460    2.9279
   11.490    2.6330
   11.520    2.7593
   11.550    2.7699
   11.580    2.7278
   11.610    2.4329
   11.640    2.8120
   11.670    2.5803
   11.700    2.6435
   11.730    2.7278
   11.760    2.5276
   11.790    2.8752
   11.820    2.7488
   11.850    2.6014
   11.880    2.5803
   11.910    2.6014
   11.940    2.6014
   11.970    2.4223
   12.000    2.6119
   12.030    2.7593
   12.060    2.9068
   12.090    2.4750
   12.120    2.7593
   12.150    3.0121
   12.180    2.5803
   12.210    2.6540
   12.240    2.8015
   12.270    2.4645
   12.300    2.4750
   12.330    2.6435
   12.360    2.4118
   12.390    2.6856
   12.420    2.7593
   12.450    2.6014
   12.480    2.3907
   12.510    2.6540
   12.540    2.6014
   12.570    2.4539
   12.600    2.7067
   12.630    2.4645
   12.660    2.8225
   12.690    2.6962
   12.720    2.5382
   12.750    2.5276
   12.780    2.6751
   12.810    2.8331
   12.840    2.5803
   12.870    2.7593
   12.900    2.7172
   12.930    2.5803
   12.960    2.6224
   12.990    2.7593
   13.020    2.6435
   13.050    2.5171
   13.080    2.6224
   13.110    2.6014
   13.140    2.6751
   13.170    2.5276
   13.200    2.3065
   13.230    2.5803
   13.260    2.8015
   13.290    2.6751
   13.320    2.8963
   13.350    2.2643
   13.380    2.5698
   13.410    2.5066
   13.440    2.4539
   13.470    2.6330
   13.500    2.5592
   13.530    2.6435
   13.560    2.4539
   13.590    2.6119
   13.620    2.5592
   13.650    2.5066
   13.680    2.6751
   13.710    2.5382
   13.740    2.5382
   13.770    2.4645
   13.800    2.7067
   13.830    2.5698
   13.860    2.5066
   13.890    2.4961
   13.920    2.5276
   13.950    2.5171
   13.980    2.5171
   14.010    2.2749
   14.040    2.5803
   14.070    2.0011
   14.100    2.5487
   14.130    2.7067
   14.160    2.6224
   14.190    2.7909
   14.220    2.5592
   14.250    2.5171
   14.280    2.5487
   14.310    2.6014
   14.340    2.5908
   14.370    2.2643
   14.400    2.6119
   14.430    2.4118
   14.460    2.3591
   14.490    2.4539
   14.520    2.5487
   14.550    2.3697
   14.580    2.6014
   14.610    2.2959
   14.640    2.4329
   14.670    2.6646
   14.700    2.4750
   14.730    2.8963
   14.760    2.5066
   14.790    2.6646
   14.820    2.7278
   14.850    2.4329
   14.880    2.3275
   14.910    2.6119
   14.940    2.5276
   14.970    2.4645
   15.000    2.6751
   15.030    2.1590
   15.060    2.5382
   15.090    2.7383
   15.120    2.4750
   15.150    2.7488
   15.180    2.5698
   15.210    2.6751
   15.240    2.3170
   15.270    2.3486
   15.300    2.7172
   15.330    2.5171
   15.360    2.6224
   15.390    2.4329
   15.420    2.6014
   15.450    2.7488
   15.480    2.6330
   15.510    2.5171
   15.540    2.5066
   15.570    2.5487
   15.600    2.7067
   15.630    2.5382
   15.660    2.5066
   15.690    2.5066
   15.720    2.5382
   15.750    2.4855
   15.780    2.7593
   15.810    2.5171
   15.840    2.4855
   15.870    2.4434
   15.900    2.4223
   15.930    2.5487
   15.960    2.5276
   15.990    2.6014
   16.020    2.5171
   16.050    2.3591
   16.080    2.5066
   16.110    2.3907
   16.140    2.5698
   16.170    2.8857
   16.200    2.4645
   16.230    2.2117
   16.260    2.2012
   16.290    2.5171
   16.320    2.6330
   16.350    2.6646
   16.380    2.5382
   16.410    2.6540
   16.440    2.6540
   16.470    2.5171
   16.500    2.5276
   16.530    2.5066
   16.560    2.4434
   16.590    2.5698
   16.620    2.3697
   16.650    2.5698
   16.680    2.5487
   16.710    2.5908
   16.740    2.7593
   16.770    2.6962
   16.800    2.6751
   16.830    2.5066
   16.860    2.5382
   16.890    2.6119
   16.920    2.5592
   16.950    2.6014
   16.980    2.4645
   17.010    2.6330
   17.040    2.5698
   17.070    2.6119
   17.100    2.7699
   17.130    2.8331
   17.160    2.5698
   17.190    2.5592
   17.220    2.5382
   17.250    2.4539
   17.280    2.4539
   17.310    2.4223
   17.340    2.4434
   17.370    2.5487
   17.400    2.4223
   17.430    2.7172
   17.460    2.4539
   17.490    2.4329
   17.520    2.6540
   17.550    2.6856
   17.580    2.8120
   17.610    2.5171
   17.640    2.6856
   17.670    2.6751
   17.700    2.5487
   17.730    2.4961
   17.760    2.4118
   17.790    2.5698
   17.820    2.5171
   17.850    2.6540
   17.880    2.4329
   17.910    2.6119
   17.940    2.6224
   17.970    2.8015
   18.000    2.5382
   18.030    2.7278
   18.060    2.5487
   18.090    2.6856
   18.120    2.6435
   18.150    2.8120
   18.180    2.7067
   18.210    2.4855
   18.240    2.9489
   18.270    2.4961
   18.300    2.5487
   18.330    2.6962
   18.360    2.4855
   18.390    2.8752
   18.420    2.5066
   18.450    2.6224
   18.480    2.8963
   18.510    2.6435
   18.540    2.5171
   18.570    2.6435
   18.600    2.5487
   18.630    2.5698
   18.660    2.2222
   18.690    2.7804
   18.720    2.5382
   18.750    2.8647
   18.780    2.8015
   18.810    2.5487
   18.840    2.9068
   18.870    2.5171
   18.900    2.4961
   18.930    2.5382
   18.960    2.4329
   18.990    2.4118
   19.020    2.7172
   19.050    2.4434
   19.080    2.6330
   19.110    2.7488
   19.140    2.8225
   19.170    2.4750
   19.200    2.6330
   19.230    2.4013
   19.260    2.4645
   19.290    2.5803
   19.320    2.6330
   19.350    2.5066
   19.380    2.7067
   19.410    2.5171
   19.440    2.5276
   19.470    2.8436
   19.500    2.6014
   19.530    2.5171
   19.560    2.6751
   19.590    2.6330
   19.620    2.9700
   19.650    2.7383
   19.680    2.7067
   19.710    2.7383
   19.740    2.8015
   19.770    2.6224
   19.800    2.6014
   19.830    2.4118
   19.860    2.8752
   19.890    2.7699
   19.920    2.5382
   19.950    2.8015
   19.980    2.4539
   20.010    2.8015
   20.040    2.4750
   20.070    2.5908
   20.100    2.5487
   20.130    2.6224
   20.160    2.6330
   20.190    2.4329
   20.220    2.4855
   20.250    2.7488
   20.280    2.6540
   20.310    2.5698
   20.340    2.7383
   20.370    2.7593
   20.400    2.7909
   20.430    2.6014
   20.460    2.5066
   20.490    2.6014
   20.520    2.4750
   20.550    2.5066
   20.580    2.5276
   20.610    2.4961
   20.640    2.6119
   20.670    2.4434
   20.700    2.7067
   20.730    2.5382
   20.760    2.6751
   20.790    2.4645
   20.820    2.5382
   20.850    2.4329
   20.880    2.5382
   20.910    2.7383
   20.940    2.7383
   20.970    2.7067
   21.000    2.4434
   21.030    2.4855
   21.060    2.5803
   21.090    2.8331
   21.120    2.6646
   21.150    2.6540
   21.180    2.7488
   21.210    2.4961
   21.240    2.8120
   21.270    2.7172
   21.300    2.6330
   21.330    2.7488
   21.360    2.5487
   21.390    2.5698
   21.420    2.5382
   21.450    2.6751
   21.480    2.7488
   21.510    2.5487
   21.540    2.6330
   21.570    2.6856
   21.600    2.8225
   21.630    3.0226
   21.660    2.7593
   21.690    2.7067
   21.720    2.8225
   21.750    2.7383
   21.780    2.4434
   21.810    2.7488
   21.840    2.7909
   21.870    2.5803
   21.900    2.4961
   21.930    2.4223
   21.960    2.5908
   21.990    2.6751
   22.020    2.5592
   22.050    2.8436
   22.080    2.8120
   22.110    2.6962
   22.140    2.9068
   22.170    2.7278
   22.200    2.3697
   22.230    2.7383
   22.260    2.5276
   22.290    2.6646
   22.320    2.5382
   22.350    2.7699
   22.380    2.4961
   22.410    2.5487
   22.440    2.4329
   22.470    2.6540
   22.500    2.3697
   22.530    2.5382
   22.560    2.7172
   22.590    2.5066
   22.620    2.6014
   22.650    2.8647
   22.680    2.6540
   22.710    2.7383
   22.740    2.6330
   22.770    2.6224
   22.800    2.4329
   22.830    2.3591
   22.860    2.7172
   22.890    2.3802
   22.920    2.5487
   22.950    2.6646
   22.980    2.7699
   23.010    2.6856
   23.040    2.6962
   23.070    2.5487
   23.100    2.4118
   23.130    2.4961
   23.160    2.5487
   23.190    2.8436
   23.220    2.4223
   23.250    2.7067
   23.280    2.5066
   23.310    2.5908
   23.340    2.7067
   23.370    2.5382
   23.400    2.6014
   23.430    2.6119
   23.460    2.5066
   23.490    2.4118
   23.520    2.5487
   23.550    2.3907
   23.580    2.6540
   23.610    2.4539
   23.640    2.5908
   23.670    2.4855
   23.700    2.4855
   23.730    2.5276
   23.760    2.4223
   23.790    2.4118
   23.820    2.3697
   23.850    2.6224
   23.880    2.8225
   23.910    2.6646
   23.940    2.5276
   23.970    2.7909
   24.000    2.7172
   24.030    2.4118
   24.060    2.4645
   24.090    2.5698
   24.120    2.4855
   24.150    2.7488
   24.180    2.2643
   24.210    2.5066
   24.240    2.5276
   24.270    2.3170
   24.300    2.7593
   24.330    2.5382
   24.360    2.7593
   24.390    2.8331
   24.420    2.3697
   24.450    2.5698
   24.480    2.5698
   24.510    2.5066
   24.540    2.5066
   24.570    2.5382
   24.600    2.4645
   24.630    2.7383
   24.660    2.6330
   24.690    2.4118
   24.720    2.6014
   24.750    2.4855
   24.780    2.4750
   24.810    2.5171
   24.840    2.4434
   24.870    2.5171
   24.900    2.6119
   24.930    2.5803
   24.960    2.3697
   24.990    2.5382
   25.020    2.3697
   25.050    2.4118
   25.080    2.5382
   25.110    2.3381
   25.140    2.2117
   25.170    2.4961
   25.200    2.2749
   25.230    2.4961
   25.260    2.5908
   25.290    2.3802
   25.320    2.6014
   25.350    2.4539
   25.380    2.5698
   25.410    2.1590
   25.440    2.4013
   25.470    2.4013
   25.500    2.3486
   25.530    2.4750
   25.560    2.3907
   25.590    2.3697
   25.620    2.3486
   25.650    2.6646
   25.680    2.5487
   25.710    2.3697
   25.740    2.4434
   25.770    2.1274
   25.800    2.4961
   25.830    2.6224
   25.860    2.3065
   25.890    2.3697
   25.920    2.3065
   25.950    2.3275
   25.980    2.2328
   26.010    2.3170
   26.040    2.4223
   26.070    2.4434
   26.100    2.7278
   26.130    2.2222
   26.160    2.5066
   26.190    2.3907
   26.220    2.6330
   26.250    2.5592
   26.280    2.4118
   26.310    2.3275
   26.340    2.2854
   26.370    2.5487
   26.400    2.3907
   26.430    2.5908
   26.460    2.2749
   26.490    2.5171
   26.520    2.4434
   26.550    2.5276
   26.580    2.4750
   26.610    2.1485
   26.640    2.4434
   26.670    2.1590
   26.700    2.2854
   26.730    2.4118
   26.760    2.3907
   26.790    2.3170
   26.820    2.2538
   26.850    2.5803
   26.880    2.5276
   26.910    2.2538
   26.940    2.3170
   26.970    2.1906
   27.000    2.2117
   27.030    2.3065
   27.060    2.2643
   27.090    2.1274
   27.120    2.0958
   27.150    2.4118
   27.180    2.3697
   27.210    2.3907
   27.240    2.4645
   27.270    2.4013
   27.300    2.2222
   27.330    2.4539
   27.360    2.3065
   27.390    2.3486
   27.420    2.5171
   27.450    2.3907
   27.480    2.3591
   27.510    2.3486
   27.540    2.4118
   27.570    1.9695
   27.600    2.1696
   27.630    2.1906
   27.660    2.4223
   27.690    2.2328
   27.720    2.2854
   27.750    2.2959
   27.780    2.1380
   27.810    2.2854
   27.840    2.4434
   27.870    2.2749
   27.900    2.3170
   27.930    2.2854
   27.960    2.3907
   27.990    2.1801
   28.020    2.2222
   28.050    2.2328
   28.080    2.3802
   28.110    2.1696
   28.140    2.3802
   28.170    2.4013
   28.200    2.3065
   28.230    2.2643
   28.260    2.2749
   28.290    2.4329
   28.320    2.2749
   28.350    2.0853
   28.380    2.2854
   28.410    2.3486
   28.440    2.2643
   28.470    2.0537
   28.500    2.1906
   28.530    2.3486
   28.560    2.3591
   28.590    2.2959
   28.620    2.1274
   28.650    2.0642
   28.680    2.0432
   28.710    2.2643
   28.740    2.0537
   28.770    2.0853
   28.800    2.2222
   28.830    2.1801
   28.860    2.2959
   28.890    2.2643
   28.920    2.2222
   28.950    2.2538
   28.980    2.3275
   29.010    2.3697
   29.040    2.1485
   29.070    2.2012
   29.100    2.2117
   29.130    2.1696
   29.160    2.1801
   29.190    2.1274
   29.220    2.1169
   29.250    2.2222
   29.280    1.9484
   29.310    2.0642
   29.340    2.3697
   29.370    2.2433
   29.400    2.1590
   29.430    2.0958
   29.460    2.0432
   29.490    2.2328
   29.520    2.2117
   29.550    1.9379
   29.580    2.2854
   29.610    2.0642
   29.640    2.0642
   29.670    2.2117
   29.700    2.0432
   29.730    1.8641
   29.760    2.0958
   29.790    2.2643
   29.820    2.2012
   29.850    2.1064
   29.880    2.1274
   29.910    2.0326
   29.940    1.9695
   29.970    1.9800
   30.000    1.9905
   30.030    2.2643
   30.060    2.1169
   30.090    2.2012
   30.120    2.2117
   30.150    2.2749
   30.180    2.2433
   30.210    2.2959
   30.240    2.0748
   30.270    2.1906
   30.300    1.9800
   30.330    2.0748
   30.360    2.1169
   30.390    1.7694
   30.420    1.9484
   30.450    2.2222
   30.480    2.0221
   30.510    2.0011
   30.540    2.2749
   30.570    1.8325
   30.600    2.0748
   30.630    1.8431
   30.660    1.9589
   30.690    2.1064
   30.720    1.9484
   30.750    2.0537
   30.780    2.2538
   30.810    1.8852
   30.840    1.9905
   30.870    2.0432
   30.900    1.9905
   30.930    1.7272
   30.960    2.0221
   30.990    1.7694
   31.020    2.1274
   31.050    2.0642
   31.080    2.1696
   31.110    1.9168
   31.140    2.2222
   31.170    2.1485
   31.200    1.9695
   31.230    2.1696
   31.260    2.0537
   31.290    2.0537
   31.320    2.0748
   31.350    2.0326
   31.380    1.9273
   31.410    2.1380
   31.440    1.9800
   31.470    2.0642
   31.500    1.8325
   31.530    1.8325
   31.560    1.8957
   31.590    2.0958
   31.620    1.7799
   31.650    1.9695
   31.680    1.9695
   31.710    2.0221
   31.740    2.1801
   31.770    2.1064
   31.800    1.9905
   31.830    1.9379
   31.860    2.0221
   31.890    1.9589
   31.920    1.9273
   31.950    1.8431
   31.980    1.8115
   32.010    2.0011
   32.040    1.8536
   32.070    1.5903
   32.100    2.0432
   32.130    1.8115
   32.160    1.8641
   32.190    1.8115
   32.220    1.8747
   32.250    2.0642
   32.280    2.0432
   32.310    1.9063
   32.340    2.0011
   32.370    1.9273
   32.400    1.8641
   32.430    2.0326
   32.460    1.8009
   32.490    1.7483
   32.520    2.0432
   32.550    1.7904
   32.580    1.6535
   32.610    1.8957
   32.640    1.8852
   32.670    1.6746
   32.700    1.6956
   32.730    1.8536
   32.760    1.7483
   32.790    1.8009
   32.820    1.8325
   32.850    1.7167
   32.880    1.8536
   32.910    1.8957
   32.940    1.7588
   32.970    1.8852
   33.000    1.9800
   33.030    1.8220
   33.060    1.8009
   33.090    1.7378
   33.120    1.7272
   33.150    1.8747
   33.180    1.9063
   33.210    1.9063
   33.240    1.9695
   33.270    1.8536
   33.300    1.5377
   33.330    1.6746
   33.360    1.7378
   33.390    2.0748
   33.420    1.8957
   33.450    1.8431
   33.480    1.6746
   33.510    1.7694
   33.540    1.6746
   33.570    1.7378
   33.600    1.8852
   33.630    1.8009
   33.660    1.6956
   33.690    2.0221
   33.720    1.5587
   33.750    1.7167
   33.780    1.7588
   33.810    1.5903
   33.840    1.7904
   33.870    1.8431
   33.900    1.7272
   33.930    1.6746
   33.960    1.7694
   33.990    1.8115
   34.020    1.9063
   34.050    1.6535
   34.080    1.8747
   34.110    1.6956
   34.140    1.7904
   34.170    1.6956
   34.200    1.8115
   34.230    1.6851
   34.260    1.9484
   34.290    1.9379
   34.320    1.7062
   34.350    1.7062
   34.380    2.0221
   34.410    1.8431
   34.440    1.7588
   34.470    1.6219
   34.500    1.7694
   34.530    1.6956
   34.560    1.8115
   34.590    1.9589
   34.620    1.7378
   34.650    1.7062
   34.680    1.7483
   34.710    1.5377
   34.740    1.6640
   34.770    1.6219
   34.800    1.6535
   34.830    1.6535
   34.860    1.7483
   34.890    1.7904
   34.920    1.4218
   34.950    1.6430
   34.980    1.6640
   35.010    1.7378
   35.040    1.5482
   35.070    1.5692
   35.100    1.6114
   35.130    1.7272
   35.160    1.6746
   35.190    1.6324
   35.220    1.6114
   35.250    1.5377
   35.280    1.5482
   35.310    1.5271
   35.340    1.7483
   35.370    1.7062
   35.400    1.5587
   35.430    1.7483
   35.460    1.5271
   35.490    1.4218
   35.520    1.7062
   35.550    1.7062
   35.580    1.7799
   35.610    1.5061
   35.640    1.6114
   35.670    1.6114
   35.700    1.7062
   35.730    1.5798
   35.760    1.4113
   35.790    1.5271
   35.820    1.5692
   35.850    1.5692
   35.880    1.7799
   35.910    1.5377
   35.940    1.6535
   35.970    1.5798
   36.000    1.7272
   36.030    1.5903
   36.060    1.6114
   36.090    1.7799
   36.120    1.7799
   36.150    1.3270
   36.180    1.6008
   36.210    1.6640
   36.240    1.3797
   36.270    1.6535
   36.300    1.7167
   36.330    1.6008
   36.360    1.3691
   36.390    1.4745
   36.420    1.4850
   36.450    1.7694
   36.480    1.5798
   36.510    1.4850
   36.540    1.5377
   36.570    1.6746
   36.600    1.4850
   36.630    1.7378
   36.660    1.5482
   36.690    1.4007
   36.720    1.4429
   36.750    1.6640
   36.780    1.8641
   36.810    1.6008
   36.840    1.5061
   36.870    1.5482
   36.900    1.4429
   36.930    1.7272
   36.960    1.4113
   36.990    1.5271
   37.020    1.4113
   37.050    1.5903
   37.080    1.4850
   37.110    1.5903
   37.140    1.6114
   37.170    1.4850
   37.200    1.5692
   37.230    1.4113
   37.260    1.7272
   37.290    1.5798
   37.320    1.6219
   37.350    1.6956
   37.380    1.4745
   37.410    1.6956
   37.440    1.5271
   37.470    1.4955
   37.500    1.6219
   37.530    1.5482
   37.560    1.5798
   37.590    1.4639
   37.620    1.4429
   37.650    1.4745
   37.680    1.6430
   37.710    1.4007
   37.740    1.6640
   37.770    1.6746
   37.800    1.5587
   37.830    1.5061
   37.860    1.5903
   37.890    1.4639
   37.920    1.5482
   37.950    1.5271
   37.980    1.4534
   38.010    1.5798
   38.040    1.4007
   38.070    1.6324
   38.100    1.4955
   38.130    1.5903
   38.160    1.5482
   38.190    1.5482
   38.220    1.4955
   38.250    1.3797
   38.280    1.3797
   38.310    1.5061
   38.340    1.7167
   38.370    1.2849
   38.400    1.4218
   38.430    1.4639
   38.460    1.5377
   38.490    1.6535
   38.520    1.5798
   38.550    1.2954
   38.580    1.4429
   38.610    1.6114
   38.640    1.6008
   38.670    1.5166
   38.700    1.3270
   38.730    1.5271
   38.760    1.5798
   38.790    1.7272
   38.820    1.7272
   38.850    1.4218
   38.880    1.6219
   38.910    1.4745
   38.940    1.6535
   38.970    1.4323
   39.000    1.4955
   39.030    1.4955
   39.060    1.6008
   39.090    1.3902
   39.120    1.5271
   39.150    1.5482
   39.180    1.3481
   39.210    1.4429
   39.240    1.5482
   39.270    1.6640
   39.300    1.5271
   39.330    1.5587
   39.360    1.5798
   39.390    1.3691
   39.420    1.2954
   39.450    1.4745
   39.480    1.5692
   39.510    1.4218
   39.540    1.5166
   39.570    1.4429
   39.600    1.5271
   39.630    1.4639
   39.660    1.3797
   39.690    1.5798
   39.720    1.5271
   39.750    1.5903
   39.780    1.5271
   39.810    1.5061
   39.840    1.5482
   39.870    1.5587
   39.900    1.3691
   39.930    1.6114
   39.960    1.2849
   39.990    1.4955