File: data/MOCOF-1/PXRD/PXRD_KE-157_Cu-Ka1_capillary-1mm_5s-deg.xyd
    1.500   14.2391
    1.530   14.3128
    1.560   14.3023
    1.590   14.1443
    1.620   13.4913
    1.650   13.5229
    1.680   12.8067
    1.710   13.0700
    1.740   12.6172
    1.770   12.3855
    1.800   12.8805
    1.830   11.6166
    1.860   11.9642
    1.890   12.2170
    1.920   11.0374
    1.950   11.5219
    1.980   11.6272
    2.010   11.3639
    2.040   10.8689
    2.070   11.3955
    2.100   10.8899
    2.130   10.9637
    2.160   10.7741
    2.190   10.4897
    2.220   10.4581
    2.250   10.5003
    2.280   10.2896
    2.310   10.5213
    2.340   10.1106
    2.370   10.6477
    2.400   10.0579
    2.430   10.4476
    2.460   10.1948
    2.490   10.2580
    2.520    9.9947
    2.550   10.1843
    2.580   10.3844
    2.610   10.4265
    2.640   10.5003
    2.670   10.3633
    2.700   10.6793
    2.730   10.4476
    2.760   10.7952
    2.790   10.3844
    2.820   10.6056
    2.850   10.3212
    2.880   11.2480
    2.910   11.0163
    2.940   10.9426
    2.970   10.5424
    3.000   11.5850
    3.030   11.6061
    3.060   11.7957
    3.090   11.6166
    3.120   12.5856
    3.150   12.2696
    3.180   12.2907
    3.210   13.0700
    3.240   13.0911
    3.270   13.4702
    3.300   13.4702
    3.330   14.5340
    3.360   14.5234
    3.390   15.3028
    3.420   15.5134
    3.450   16.0611
    3.480   16.2191
    3.510   17.6935
    3.540   18.0411
    3.570   18.8099
    3.600   19.8842
    3.630   21.2849
    3.660   22.7067
    3.690   24.2970
    3.720   25.5187
    3.750   27.7830
    3.780   31.1638
    3.810   34.2496
    3.840   39.7578
    3.870   42.3591
    3.900   39.4313
    3.930   29.1206
    3.960   19.2944
    3.990   14.7867
    4.020   13.2596
    4.050   12.0274
    4.080   10.9531
    4.110   10.3002
    4.140   10.1422
    4.170    9.6472
    4.200    9.0679
    4.230    9.6472
    4.260    9.0679
    4.290    8.9100
    4.320    8.7941
    4.350    8.6256
    4.380    8.8046
    4.410    8.7625
    4.440    8.7098
    4.470    9.0995
    4.500    8.8257
    4.530    8.6361
    4.560    7.9831
    4.590    8.5519
    4.620    8.2675
    4.650    8.4887
    4.680    8.3728
    4.710    8.8152
    4.740    8.2254
    4.770    8.6888
    4.800    8.6993
    4.830    8.3834
    4.860    9.1522
    4.890    8.9942
    4.920    8.5729
    4.950    8.8678
    4.980    8.5729
    5.010    9.3523
    5.040    8.4676
    5.070    9.0469
    5.100    8.8678
    5.130    9.2575
    5.160    9.3523
    5.190    9.3207
    5.220    9.3839
    5.250   10.0790
    5.280    9.7630
    5.310    9.7420
    5.340    9.9631
    5.370   10.3423
    5.400   10.8268
    5.430   11.6693
    5.460   12.1748
    5.490   12.8594
    5.520   12.1538
    5.550   10.6582
    5.580    9.7420
    5.610    8.7414
    5.640    8.6572
    5.670    8.2464
    5.700    8.6572
    5.730    8.2149
    5.760    8.0253
    5.790    8.0674
    5.820    8.2780
    5.850    7.8146
    5.880    8.0779
    5.910    8.0253
    5.940    7.9094
    5.970    7.7409
    6.000    8.0885
    6.030    7.6356
    6.060    8.1411
    6.090    7.9410
    6.120    7.9726
    6.150    8.1727
    6.180    8.0990
    6.210    7.9937
    6.240    7.9621
    6.270    8.1517
    6.300    8.1622
    6.330    8.1622
    6.360    7.8462
    6.390    8.2570
    6.420    8.4992
    6.450    8.0990
    6.480    8.1833
    6.510    8.1411
    6.540    7.9937
    6.570    8.1938
    6.600    8.2886
    6.630    8.4150
    6.660    8.2359
    6.690    8.3202
    6.720    8.1833
    6.750    7.9726
    6.780    8.1411
    6.810    8.3307
    6.840    8.2886
    6.870    7.9200
    6.900    7.9200
    6.930    7.5619
    6.960    7.9726
    6.990    8.2149
    7.020    8.1727
    7.050    7.7725
    7.080    8.1517
    7.110    8.4887
    7.140    7.8462
    7.170    8.2886
    7.200    7.9726
    7.230    7.7936
    7.260    8.2886
    7.290    8.0569
    7.320    7.8146
    7.350    8.4150
    7.380    8.1727
    7.410    7.6988
    7.440    8.7625
    7.470    8.2991
    7.500    8.3202
    7.530    8.5097
    7.560    9.0469
    7.590    8.6677
    7.620    8.8362
    7.650    8.6467
    7.680    8.8468
    7.710    8.8994
    7.740    8.9521
    7.770    9.7104
    7.800    9.2786
    7.830    9.6788
    7.860    9.0258
    7.890    8.6151
    7.920    8.7520
    7.950    8.0463
    7.980    8.5097
    8.010    9.3418
    8.040    8.3834
    8.070    8.3939
    8.100    8.1727
    8.130    8.2991
    8.160    8.3518
    8.190    8.7836
    8.220    7.8673
    8.250    8.6151
    8.280    8.4781
    8.310    8.3307
    8.340    8.4360
    8.370    7.9831
    8.400    8.6361
    8.430    8.5519
    8.460    8.8889
    8.490    8.2570
    8.520    8.6256
    8.550    8.9731
    8.580    8.1201
    8.610    8.5097
    8.640    8.7520
    8.670    8.3728
    8.700    8.9626
    8.730    8.6151
    8.760    8.3307
    8.790    8.3623
    8.820    8.3307
    8.850    8.4887
    8.880    8.5729
    8.910    8.5097
    8.940    8.5729
    8.970    9.0785
    9.000    8.6888
    9.030    8.0885
    9.060    8.5097
    9.090    8.8257
    9.120    8.9626
    9.150    9.0995
    9.180    8.7941
    9.210    9.4576
    9.240    8.8678
    9.270    9.0890
    9.300    8.7414
    9.330    9.4576
    9.360    9.1101
    9.390    9.3734
    9.420    9.3102
    9.450    9.8368
    9.480   10.4160
    9.510   10.7636
    9.540   10.2896
    9.570   10.9110
    9.600   10.5319
    9.630    9.6367
    9.660    9.2364
    9.690    9.4365
    9.720    8.6993
    9.750    9.4576
    9.780    8.9205
    9.810    8.9626
    9.840    8.8784
    9.870    9.2364
    9.900    8.8468
    9.930    8.5624
    9.960    8.5097
    9.990    9.0153
   10.020    9.1627
   10.050    8.9100
   10.080    8.8784
   10.110    9.1838
   10.140    9.0363
   10.170    9.2259
   10.200    8.9521
   10.230    9.1311
   10.260    8.8257
   10.290    9.2048
   10.320    9.3944
   10.350    9.3418
   10.380    9.1838
   10.410    9.0363
   10.440    8.8573
   10.470    8.8889
   10.500    8.8784
   10.530    8.2464
   10.560    8.9626
   10.590    8.5203
   10.620    8.5835
   10.650    8.9100
   10.680    8.7836
   10.710    8.8362
   10.740    8.4360
   10.770    8.6993
   10.800    8.6888
   10.830    8.7309
   10.860    8.9205
   10.890    8.4466
   10.920    8.6256
   10.950    9.2575
   10.980    8.7098
   11.010    9.0047
   11.040    8.7309
   11.070    9.3102
   11.100    8.9626
   11.130    8.6361
   11.160    8.8468
   11.190    8.1411
   11.220    8.2780
   11.250    8.2570
   11.280    8.6677
   11.310    8.7414
   11.340    7.7725
   11.370    8.4360
   11.400    8.3834
   11.430    8.6361
   11.460    8.3096
   11.490    8.5413
   11.520    8.0674
   11.550    8.0569
   11.580    8.0358
   11.610    8.0990
   11.640    8.3202
   11.670    8.3834
   11.700    8.7730
   11.730    8.9521
   11.760    8.3518
   11.790    8.0042
   11.820    8.1095
   11.850    8.0674
   11.880    8.2570
   11.910    7.8146
   11.940    7.7409
   11.970    7.9726
   12.000    7.8568
   12.030    7.8462
   12.060    8.3728
   12.090    8.0463
   12.120    7.8041
   12.150    7.5724
   12.180    7.7093
   12.210    8.0990
   12.240    8.1411
   12.270    8.2570
   12.300    7.6567
   12.330    8.1517
   12.360    8.0147
   12.390    7.6040
   12.420    8.2675
   12.450    7.7409
   12.480    8.1622
   12.510    7.7620
   12.540    7.4671
   12.570    7.8673
   12.600    7.6672
   12.630    8.1622
   12.660    7.7620
   12.690    7.6883
   12.720    7.7936
   12.750    7.7093
   12.780    7.8673
   12.810    7.7304
   12.840    7.6356
   12.870    7.7514
   12.900    7.9094
   12.930    7.9410
   12.960    8.4887
   12.990    8.2675
   13.020    7.8778
   13.050    7.7093
   13.080    7.7199
   13.110    8.1095
   13.140    7.4987
   13.170    7.2249
   13.200    7.3196
   13.230    7.7936
   13.260    7.4250
   13.290    7.3828
   13.320    7.4250
   13.350    7.3618
   13.380    7.6356
   13.410    8.0990
   13.440    7.4987
   13.470    7.5935
   13.500    7.5408
   13.530    7.7093
   13.560    7.4987
   13.590    7.6461
   13.620    7.7409
   13.650    7.5197
   13.680    7.6040
   13.710    7.4566
   13.740    7.3091
   13.770    7.3934
   13.800    7.4671
   13.830    8.0885
   13.860    7.1195
   13.890    7.2143
   13.920    7.0563
   13.950    7.3196
   13.980    7.8146
   14.010    7.6777
   14.040    7.5303
   14.070    7.5935
   14.100    7.9516
   14.130    7.5408
   14.160    7.8778
   14.190    7.5303
   14.220    7.3512
   14.250    7.7514
   14.280    6.9616
   14.310    7.5829
   14.340    7.2354
   14.370    7.5724
   14.400    7.5619
   14.430    7.0458
   14.460    7.8568
   14.490    7.6251
   14.520    7.5829
   14.550    7.1406
   14.580    7.4987
   14.610    7.5197
   14.640    7.1511
   14.670    7.1827
   14.700    7.1827
   14.730    7.1195
   14.760    7.2143
   14.790    7.7725
   14.820    7.1301
   14.850    7.7409
   14.880    7.6040
   14.910    7.5092
   14.940    7.6145
   14.970    7.3302
   15.000    7.5197
   15.030    7.5408
   15.060    7.6145
   15.090    7.7514
   15.120    6.9826
   15.150    7.8252
   15.180    7.6145
   15.210    7.3828
   15.240    7.8462
   15.270    7.6251
   15.300    7.9200
   15.330    7.4460
   15.360    7.8252
   15.390    7.1301
   15.420    7.5724
   15.450    6.9510
   15.480    7.5829
   15.510    7.8041
   15.540    7.9305
   15.570    7.8146
   15.600    7.3091
   15.630    7.6988
   15.660    7.4776
   15.690    7.5303
   15.720    7.9094
   15.750    7.5408
   15.780    7.6883
   15.810    7.2775
   15.840    7.7199
   15.870    7.7620
   15.900    7.6988
   15.930    7.8778
   15.960    8.2991
   15.990    7.9937
   16.020    8.0358
   16.050    8.0885
   16.080    8.3412
   16.110    7.7620
   16.140    8.2675
   16.170    8.6783
   16.200    7.9410
   16.230    7.8884
   16.260    8.5940
   16.290    7.8884
   16.320    7.5935
   16.350    8.2991
   16.380    8.1095
   16.410    7.8989
   16.440    7.9621
   16.470    7.7725
   16.500    8.2991
   16.530    7.7830
   16.560    7.5197
   16.590    7.7620
   16.620    8.2991
   16.650    7.6567
   16.680    7.6777
   16.710    7.6461
   16.740    7.7304
   16.770    7.9305
   16.800    8.1938
   16.830    7.4776
   16.860    7.8989
   16.890    7.4039
   16.920    7.8357
   16.950    7.4039
   16.980    7.5513
   17.010    7.8146
   17.040    7.9621
   17.070    8.2043
   17.100    7.8568
   17.130    7.5197
   17.160    7.5513
   17.190    7.6672
   17.220    7.4776
   17.250    7.7830
   17.280    7.9305
   17.310    7.3934
   17.340    7.2670
   17.370    7.5303
   17.400    7.9410
   17.430    7.5408
   17.460    7.4882
   17.490    7.6777
   17.520    7.7936
   17.550    7.6461
   17.580    7.9621
   17.610    7.5408
   17.640    7.4566
   17.670    7.4250
   17.700    7.3407
   17.730    7.6883
   17.760    7.8146
   17.790    7.4671
   17.820    7.4987
   17.850    7.6567
   17.880    7.2986
   17.910    8.0358
   17.940    7.3512
   17.970    7.7199
   18.000    8.0358
   18.030    7.7830
   18.060    7.6672
   18.090    7.4882
   18.120    7.6777
   18.150    7.8568
   18.180    7.6040
   18.210    7.7830
   18.240    7.3196
   18.270    7.3618
   18.300    7.4355
   18.330    7.7725
   18.360    7.7199
   18.390    7.7620
   18.420    7.9410
   18.450    7.4671
   18.480    7.8989
   18.510    7.8462
   18.540    7.4250
   18.570    7.6040
   18.600    7.7199
   18.630    7.7409
   18.660    7.7514
   18.690    7.3618
   18.720    7.6040
   18.750    7.5092
   18.780    7.7409
   18.810    7.8568
   18.840    7.9305
   18.870    7.5513
   18.900    7.4250
   18.930    7.6777
   18.960    7.3302
   18.990    7.6672
   19.020    8.0674
   19.050    7.7199
   19.080    7.6567
   19.110    7.4144
   19.140    7.4566
   19.170    7.6567
   19.200    7.6567
   19.230    7.4144
   19.260    7.6356
   19.290    7.4987
   19.320    7.4987
   19.350    7.7620
   19.380    7.7514
   19.410    7.9305
   19.440    7.6461
   19.470    7.7304
   19.500    7.6145
   19.530    7.6777
   19.560    7.6672
   19.590    7.8252
   19.620    7.6251
   19.650    7.5092
   19.680    8.3412
   19.710    7.7409
   19.740    7.9937
   19.770    7.8357
   19.800    7.7199
   19.830    7.7620
   19.860    7.4250
   19.890    7.6883
   19.920    7.7725
   19.950    7.7725
   19.980    7.6145
   20.010    7.6883
   20.040    7.8778
   20.070    7.8462
   20.100    7.7093
   20.130    7.8252
   20.160    7.9516
   20.190    7.8462
   20.220    7.5935
   20.250    8.1201
   20.280    8.0569
   20.310    8.0990
   20.340    7.8673
   20.370    8.3307
   20.400    8.1411
   20.430    7.8041
   20.460    8.0990
   20.490    8.1517
   20.520    8.1306
   20.550    7.4250
   20.580    7.5513
   20.610    7.8041
   20.640    7.7830
   20.670    7.7936
   20.700    7.7936
   20.730    7.4776
   20.760    7.8146
   20.790    7.7199
   20.820    7.7830
   20.850    8.1622
   20.880    7.9410
   20.910    7.6777
   20.940    7.3934
   20.970    7.8568
   21.000    7.8462
   21.030    7.9200
   21.060    7.9937
   21.090    7.4144
   21.120    7.8146
   21.150    8.3202
   21.180    7.7304
   21.210    8.0674
   21.240    8.3307
   21.270    7.9305
   21.300    7.8673
   21.330    7.8462
   21.360    8.1095
   21.390    7.7725
   21.420    8.2675
   21.450    7.3618
   21.480    7.6988
   21.510    7.5408
   21.540    7.4039
   21.570    7.9621
   21.600    7.8673
   21.630    7.9094
   21.660    7.9200
   21.690    7.5829
   21.720    8.1201
   21.750    7.8041
   21.780    8.1411
   21.810    7.9094
   21.840    7.9305
   21.870    7.6883
   21.900    8.7414
   21.930    8.1411
   21.960    7.8884
   21.990    7.9726
   22.020    8.0463
   22.050    8.3939
   22.080    8.1517
   22.110    7.9516
   22.140    7.9516
   22.170    7.7936
   22.200    7.8252
   22.230    8.0569
   22.260    7.9094
   22.290    8.0569
   22.320    8.0358
   22.350    7.8673
   22.380    8.2464
   22.410    8.0990
   22.440    8.2780
   22.470    8.4360
   22.500    8.4255
   22.530    8.2149
   22.560    7.9516
   22.590    8.3623
   22.620    8.3834
   22.650    8.2043
   22.680    8.3623
   22.710    8.3834
   22.740    8.0253
   22.770    8.0042
   22.800    7.9200
   22.830    8.4044
   22.860    8.1622
   22.890    8.0569
   22.920    7.9831
   22.950    8.2149
   22.980    8.5519
   23.010    8.5624
   23.040    8.4571
   23.070    7.9621
   23.100    8.0358
   23.130    8.2254
   23.160    7.7936
   23.190    8.2464
   23.220    8.0358
   23.250    8.2149
   23.280    7.9094
   23.310    7.9831
   23.340    8.2886
   23.370    8.0253
   23.400    7.9726
   23.430    7.6461
   23.460    8.0885
   23.490    8.1095
   23.520    7.8884
   23.550    7.8778
   23.580    8.0885
   23.610    7.7620
   23.640    8.2675
   23.670    7.8357
   23.700    7.6883
   23.730    7.8778
   23.760    7.6883
   23.790    7.8778
   23.820    7.8778
   23.850    7.8568
   23.880    8.2149
   23.910    8.1727
   23.940    7.7830
   23.970    8.0885
   24.000    7.6040
   24.030    7.2565
   24.060    8.1938
   24.090    8.1411
   24.120    7.8989
   24.150    7.7830
   24.180    7.5303
   24.210    7.6672
   24.240    7.7093
   24.270    7.9305
   24.300    7.8568
   24.330    7.5197
   24.360    7.5829
   24.390    7.7093
   24.420    8.0042
   24.450    7.8146
   24.480    8.0147
   24.510    7.8357
   24.540    7.6251
   24.570    7.6883
   24.600    7.4776
   24.630    8.1411
   24.660    7.7409
   24.690    7.9410
   24.720    7.6251
   24.750    7.5303
   24.780    8.1306
   24.810    7.7409
   24.840    7.4039
   24.870    7.7199
   24.900    7.1827
   24.930    7.4987
   24.960    7.8357
   24.990    7.8568
   25.020    7.7830
   25.050    8.0253
   25.080    7.3512
   25.110    7.3196
   25.140    7.9094
   25.170    7.9410
   25.200    7.6988
   25.230    7.7936
   25.260    7.7199
   25.290    7.4355
   25.320    7.9410
   25.350    7.9726
   25.380    7.9937
   25.410    7.6356
   25.440    7.6672
   25.470    7.6777
   25.500    8.2675
   25.530    8.0569
   25.560    7.8884
   25.590    7.9621
   25.620    7.5829
   25.650    8.1622
   25.680    7.6356
   25.710    7.3723
   25.740    7.9305
   25.770    7.3934
   25.800    7.4776
   25.830    7.6777
   25.860    7.6251
   25.890    7.6251
   25.920    7.6988
   25.950    7.8252
   25.980    7.7093
   26.010    7.3302
   26.040    7.7093
   26.070    7.2880
   26.100    7.7093
   26.130    7.1406
   26.160    7.6672
   26.190    7.2143
   26.220    7.5092
   26.250    7.7936
   26.280    7.4460
   26.310    7.3723
   26.340    7.5092
   26.370    7.4460
   26.400    7.7409
   26.430    7.9410
   26.460    7.1722
   26.490    7.2565
   26.520    7.1933
   26.550    7.0037
   26.580    7.3828
   26.610    7.9305
   26.640    7.4882
   26.670    7.5197
   26.700    7.3828
   26.730    7.6672
   26.760    7.3302
   26.790    7.3618
   26.820    7.0458
   26.850    7.7304
   26.880    7.2670
   26.910    7.3512
   26.940    7.1090
   26.970    7.6040
   27.000    7.4882
   27.030    7.5619
   27.060    7.2880
   27.090    7.1827
   27.120    7.6040
   27.150    7.2143
   27.180    7.5829
   27.210    7.4144
   27.240    7.8462
   27.270    7.3091
   27.300    7.3723
   27.330    7.4039
   27.360    7.3512
   27.390    7.4882
   27.420    7.1406
   27.450    7.9937
   27.480    7.3723
   27.510    7.4460
   27.540    7.4144
   27.570    7.2986
   27.600    7.4566
   27.630    7.4987
   27.660    7.3723
   27.690    7.2775
   27.720    7.3302
   27.750    7.2986
   27.780    6.9616
   27.810    7.5197
   27.840    7.3723
   27.870    7.6567
   27.900    7.5829
   27.930    7.3723
   27.960    7.6777
   27.990    7.5092
   28.020    7.3407
   28.050    7.4355
   28.080    7.5619
   28.110    7.2986
   28.140    6.9721
   28.170    7.5303
   28.200    7.1511
   28.230    7.5829
   28.260    7.4250
   28.290    7.3723
   28.320    7.6251
   28.350    7.4566
   28.380    7.5197
   28.410    7.2038
   28.440    7.4776
   28.470    7.4144
   28.500    6.9089
   28.530    7.3618
   28.560    7.2354
   28.590    7.3407
   28.620    7.2670
   28.650    6.8141
   28.680    6.9721
   28.710    7.0774
   28.740    7.0774
   28.770    6.8352
   28.800    6.8036
   28.830    6.9405
   28.860    7.2565
   28.890    7.5935
   28.920    6.9616
   28.950    7.0669
   28.980    7.0669
   29.010    7.7304
   29.040    7.0248
   29.070    7.1827
   29.100    7.0879
   29.130    7.3196
   29.160    6.9194
   29.190    7.1511
   29.220    7.0353
   29.250    7.4882
   29.280    6.8878
   29.310    7.2038
   29.340    6.7088
   29.370    6.7088
   29.400    7.0563
   29.430    6.9932
   29.460    6.7720
   29.490    7.1933
   29.520    6.6983
   29.550    7.2670
   29.580    6.8984
   29.610    7.3302
   29.640    6.8668
   29.670    6.6245
   29.700    6.7930
   29.730    7.2565
   29.760    7.0669
   29.790    6.9932
   29.820    6.6561
   29.850    7.0142
   29.880    7.1511
   29.910    7.1301
   29.940    6.8562
   29.970    6.9932
   30.000    6.8562
   30.030    6.6667
   30.060    6.6772
   30.090    7.4039
   30.120    6.7825
   30.150    6.8668
   30.180    6.5192
   30.210    7.1406
   30.240    7.0248
   30.270    6.9194
   30.300    7.4039
   30.330    7.1090
   30.360    6.9826
   30.390    7.2670
   30.420    7.2670
   30.450    7.3618
   30.480    6.7299
   30.510    6.9089
   30.540    6.7509
   30.570    6.8773
   30.600    7.0037
   30.630    6.8773
   30.660    6.9826
   30.690    6.5192
   30.720    6.8141
   30.750    6.9932
   30.780    6.9510
   30.810    7.0774
   30.840    6.9826
   30.870    7.2459
   30.900    6.8773
   30.930    6.9721
   30.960    6.4666
   30.990    6.8246
   31.020    6.6456
   31.050    6.6456
   31.080    6.7088
   31.110    6.9616
   31.140    6.5929
   31.170    7.0879
   31.200    6.8352
   31.230    7.0669
   31.260    6.6772
   31.290    6.8352
   31.320    7.0248
   31.350    6.8668
   31.380    7.3091
   31.410    6.8036
   31.440    6.8562
   31.470    7.2775
   31.500    6.9405
   31.530    6.6983
   31.560    6.9510
   31.590    7.2249
   31.620    7.3302
   31.650    7.3091
   31.680    7.0774
   31.710    7.0353
   31.740    6.9826
   31.770    6.6667
   31.800    7.0774
   31.830    7.2143
   31.860    7.3196
   31.890    7.0563
   31.920    7.0037
   31.950    6.9932
   31.980    6.6140
   32.010    7.3828
   32.040    7.0563
   32.070    7.3302
   32.100    7.0774
   32.130    7.4566
   32.160    7.0879
   32.190    7.1195
   32.220    6.9194
   32.250    7.0458
   32.280    7.1301
   32.310    6.9721
   32.340    6.5403
   32.370    6.7404
   32.400    6.5613
   32.430    6.8246
   32.460    6.9300
   32.490    6.7299
   32.520    6.5192
   32.550    6.9932
   32.580    7.0037
   32.610    7.0458
   32.640    6.8246
   32.670    6.3823
   32.700    6.6772
   32.730    6.5298
   32.760    6.4982
   32.790    6.6245
   32.820    6.2875
   32.850    6.8562
   32.880    6.6351
   32.910    6.2454
   32.940    6.2875
   32.970    6.2243
   33.000    6.5298
   33.030    6.9300
   33.060    6.6983
   33.090    6.5508
   33.120    6.6456
   33.150    6.5403
   33.180    6.5192
   33.210    6.7299
   33.240    6.3718
   33.270    6.5929
   33.300    6.5824
   33.330    6.3402
   33.360    6.3928
   33.390    6.6877
   33.420    6.5508
   33.450    6.7088
   33.480    6.2981
   33.510    6.5508
   33.540    6.9405
   33.570    6.3928
   33.600    6.4139
   33.630    6.2665
   33.660    6.6456
   33.690    6.8246
   33.720    6.4244
   33.750    6.4350
   33.780    6.2559
   33.810    6.3718
   33.840    6.6035
   33.870    6.4982
   33.900    6.6245
   33.930    6.7825
   33.960    6.2349
   33.990    6.8141
   34.020    6.5298
   34.050    6.4560
   34.080    6.7193
   34.110    6.6667
   34.140    6.6983
   34.170    6.0769
   34.200    6.2770
   34.230    6.0558
   34.260    6.4139
   34.290    6.7193
   34.320    6.1717
   34.350    6.2665
   34.380    6.5087
   34.410    6.1717
   34.440    6.0979
   34.470    6.5087
   34.500    6.1085
   34.530    6.3612
   34.560    6.1822
   34.590    6.2559
   34.620    6.0032
   34.650    6.2349
   34.680    6.1611
   34.710    6.3718
   34.740    6.4876
   34.770    6.3191
   34.800    6.5719
   34.830    6.4771
   34.860    5.9084
   34.890    6.0979
   34.920    6.3718
   34.950    6.3718
   34.980    6.4139
   35.010    6.3823
   35.040    6.3086
   35.070    6.2033
   35.100    6.1401
   35.130    6.6035
   35.160    6.6456
   35.190    6.5298
   35.220    6.0874
   35.250    6.1717
   35.280    6.2665
   35.310    6.4560
   35.340    6.1717
   35.370    6.0453
   35.400    6.3402
   35.430    6.5403
   35.460    6.5508
   35.490    6.0032
   35.520    6.2665
   35.550    6.1927
   35.580    6.1927
   35.610    5.9926
   35.640    6.2349
   35.670    6.3823
   35.700    6.3507
   35.730    6.0032
   35.760    6.3086
   35.790    6.4455
   35.820    6.6351
   35.850    6.2770
   35.880    5.8662
   35.910    6.1611
   35.940    6.7404
   35.970    6.1085
   36.000    6.0769
   36.030    6.4350
   36.060    6.2875
   36.090    6.1506
   36.120    5.9400
   36.150    6.1822
   36.180    6.3507
   36.210    6.3823
   36.240    6.4455
   36.270    6.0769
   36.300    6.4350
   36.330    6.4876
   36.360    6.3191
   36.390    6.8457
   36.420    6.0769
   36.450    6.4139
   36.480    6.3402
   36.510    6.4244
   36.540    5.9821
   36.570    6.0242
   36.600    5.9821
   36.630    6.2981
   36.660    5.9926
   36.690    6.2138
   36.720    5.8241
   36.750    6.3823
   36.780    6.4666
   36.810    6.0979
   36.840    5.8978
   36.870    6.1506
   36.900    6.4455
   36.930    5.7504
   36.960    5.8768
   36.990    6.2875
   37.020    6.0137
   37.050    6.0348
   37.080    6.1717
   37.110    6.1295
   37.140    6.4560
   37.170    6.0453
   37.200    6.2875
   37.230    6.1506
   37.260    5.7715
   37.290    6.2243
   37.320    5.9189
   37.350    5.7820
   37.380    6.2454
   37.410    5.9610
   37.440    6.2875
   37.470    6.1611
   37.500    6.2243
   37.530    6.0664
   37.560    6.1822
   37.590    6.0558
   37.620    5.8557
   37.650    6.2349
   37.680    6.1085
   37.710    6.3507
   37.740    6.2875
   37.770    5.8452
   37.800    6.5508
   37.830    6.2875
   37.860    6.2559
   37.890    6.2981
   37.920    6.2349
   37.950    6.4139
   37.980    6.1401
   38.010    6.0137
   38.040    5.8136
   38.070    6.2138
   38.100    6.5087
   38.130    6.3402
   38.160    6.0769
   38.190    6.0979
   38.220    5.8452
   38.250    6.0979
   38.280    5.9400
   38.310    6.2138
   38.340    6.2454
   38.370    6.2454
   38.400    6.1611
   38.430    6.1717
   38.460    5.8662
   38.490    6.1927
   38.520    6.3296
   38.550    6.1717
   38.580    6.1506
   38.610    6.3612
   38.640    6.3507
   38.670    6.5298
   38.700    6.2665
   38.730    6.6983
   38.760    6.0242
   38.790    6.3191
   38.820    6.0453
   38.850    6.4034
   38.880    6.5929
   38.910    6.3191
   38.940    6.4034
   38.970    5.9821
   39.000    6.2981
   39.030    6.4455
   39.060    6.3507
   39.090    6.6561
   39.120    6.4139
   39.150    6.6772
   39.180    6.5192
   39.210    6.3928
   39.240    6.2349
   39.270    6.2665
   39.300    6.2033
   39.330    6.9194
   39.360    6.5192
   39.390    6.3718
   39.420    6.2138
   39.450    6.4244
   39.480    6.4982
   39.510    6.3612
   39.540    6.3612
   39.570    6.2454
   39.600    6.4771
   39.630    5.9716
   39.660    6.2138
   39.690    6.0453
   39.720    6.1822
   39.750    6.1085
   39.780    6.1401
   39.810    6.3928
   39.840    6.0979
   39.870    6.2981
   39.900    6.1611
   39.930    6.1401
   39.960    6.0979
   39.990    6.1717