File: data/MOCOF-1/PXRD/PXRD_KE-158_Cu-Ka1_capillary-1mm_5s-deg.xyd
    1.500   22.6224
    1.530   22.2749
    1.560   21.9800
    1.590   21.6746
    1.620   21.6219
    1.650   20.5582
    1.680   20.2106
    1.710   19.8736
    1.740   19.5577
    1.770   19.2101
    1.800   19.1575
    1.830   18.6730
    1.860   17.7146
    1.890   17.7778
    1.920   18.1359
    1.950   17.6093
    1.980   17.7357
    2.010   17.2722
    2.040   17.1669
    2.070   17.3354
    2.100   16.4508
    2.130   16.4297
    2.160   17.5566
    2.190   16.8615
    2.220   16.1348
    2.250   16.1559
    2.280   16.7035
    2.310   15.9242
    2.340   16.0190
    2.370   16.1980
    2.400   15.9558
    2.430   16.5456
    2.460   16.6614
    2.490   16.7562
    2.520   16.9563
    2.550   16.5456
    2.580   16.4086
    2.610   16.6403
    2.640   16.4402
    2.670   16.7562
    2.700   17.0090
    2.730   17.1353
    2.760   17.9042
    2.790   17.7357
    2.820   18.1253
    2.850   18.4834
    2.880   18.8942
    2.910   19.6525
    2.940   19.8420
    2.970   19.2838
    3.000   21.2217
    3.030   21.8325
    3.060   21.4850
    3.090   22.3170
    3.120   23.4229
    3.150   23.5492
    3.180   24.2865
    3.210   25.9084
    3.240   26.3718
    3.270   27.6145
    3.300   29.5103
    3.330   30.9426
    3.360   32.5118
    3.390   33.3544
    3.420   35.9979
    3.450   37.1248
    3.480   39.9263
    3.510   42.4645
    3.540   45.6661
    3.570   48.9416
    3.600   53.4281
    3.630   57.8831
    3.660   63.6756
    3.690   70.4476
    3.720   77.3565
    3.750   87.3618
    3.780  101.9168
    3.810  118.5993
    3.840  151.9537
    3.870  177.0406
    3.900  154.3339
    3.930   88.1095
    3.960   34.4813
    3.990   20.5582
    4.020   16.1348
    4.050   13.0700
    4.080   11.9221
    4.110   11.3007
    4.140   10.9953
    4.170   10.3739
    4.200    9.7525
    4.230    9.6261
    4.260    9.3312
    4.290    9.4576
    4.320    9.5629
    4.350    8.8362
    4.380    8.9942
    4.410    9.3734
    4.440    8.8573
    4.470    9.2364
    4.500    9.1627
    4.530    9.1417
    4.560    9.3418
    4.590    9.1943
    4.620    9.1206
    4.650    9.2891
    4.680    9.1417
    4.710    9.4260
    4.740    9.5524
    4.770   10.1211
    4.800   10.1106
    4.830    9.7525
    4.860    9.6261
    4.890    9.8999
    4.920    9.7104
    4.950   10.4687
    4.980   10.8478
    5.010   10.6161
    5.040   11.0900
    5.070   11.7325
    5.100   11.9431
    5.130   12.1643
    5.160   12.9226
    5.190   13.3649
    5.220   14.1969
    5.250   14.5024
    5.280   15.7241
    5.310   17.2617
    5.340   18.7678
    5.370   20.7478
    5.400   23.6230
    5.430   27.1195
    5.460   31.6693
    5.490   36.5140
    5.520   33.1543
    5.550   22.6014
    5.580   13.3544
    5.610   10.4160
    5.640    8.9837
    5.670    8.8152
    5.700    7.7830
    5.730    8.4571
    5.760    8.0358
    5.790    8.1517
    5.820    7.8568
    5.850    7.9410
    5.880    7.6988
    5.910    7.9305
    5.940    7.7620
    5.970    7.6040
    6.000    7.7725
    6.030    7.9726
    6.060    7.9726
    6.090    8.2254
    6.120    7.6145
    6.150    7.6567
    6.180    8.3728
    6.210    7.6777
    6.240    7.8989
    6.270    8.0885
    6.300    8.0779
    6.330    8.1517
    6.360    7.8252
    6.390    8.2149
    6.420    8.2570
    6.450    8.2149
    6.480    8.3728
    6.510    8.8889
    6.540    8.7941
    6.570    8.9415
    6.600    8.8784
    6.630    9.6156
    6.660   10.1001
    6.690   10.4265
    6.720   12.1011
    6.750   12.1222
    6.780   10.6266
    6.810    9.1206
    6.840    8.2043
    6.870    7.7936
    6.900    7.8462
    6.930    7.8568
    6.960    7.7620
    6.990    7.2459
    7.020    7.4039
    7.050    7.6461
    7.080    7.2354
    7.110    7.5619
    7.140    7.8146
    7.170    7.7409
    7.200    7.2249
    7.230    7.6251
    7.260    8.0042
    7.290    7.7725
    7.320    8.5097
    7.350    7.8041
    7.380    8.0569
    7.410    8.6783
    7.440    8.0253
    7.470    8.3518
    7.500    8.6467
    7.530    8.6467
    7.560    8.3202
    7.590    9.0890
    7.620    9.5945
    7.650   10.2475
    7.680   10.4687
    7.710   11.2691
    7.740   12.5856
    7.770   14.1864
    7.800   14.8920
    7.830   12.3539
    7.860   10.0685
    7.890    7.9305
    7.920    7.6883
    7.950    7.6672
    7.980    7.6356
    8.010    7.8989
    8.040    7.9726
    8.070    7.4039
    8.100    7.4144
    8.130    7.4882
    8.160    7.7304
    8.190    7.4566
    8.220    7.4776
    8.250    7.3618
    8.280    7.7620
    8.310    7.5303
    8.340    7.5724
    8.370    7.5408
    8.400    7.7304
    8.430    7.2459
    8.460    7.5724
    8.490    8.0569
    8.520    7.7199
    8.550    7.5408
    8.580    8.0358
    8.610    7.6040
    8.640    7.7936
    8.670    7.9937
    8.700    8.4887
    8.730    8.0463
    8.760    7.4566
    8.790    7.8357
    8.820    7.9094
    8.850    8.2780
    8.880    8.1201
    8.910    7.5303
    8.940    8.0042
    8.970    7.6988
    9.000    7.6988
    9.030    7.4250
    9.060    7.6777
    9.090    7.8568
    9.120    7.7725
    9.150    8.3728
    9.180    8.6361
    9.210    8.4360
    9.240    8.8362
    9.270    9.0363
    9.300    9.0363
    9.330    9.4681
    9.360   10.1632
    9.390   11.5429
    9.420   11.9221
    9.450   13.4597
    9.480   14.8710
    9.510   17.6830
    9.540   20.0632
    9.570   20.7162
    9.600   16.6403
    9.630   12.3012
    9.660    9.0153
    9.690    8.2359
    9.720    8.1622
    9.750    8.0463
    9.780    8.0358
    9.810    7.7409
    9.840    7.7093
    9.870    7.4882
    9.900    8.0674
    9.930    7.9305
    9.960    7.7409
    9.990    7.7199
   10.020    7.9516
   10.050    8.0463
   10.080    8.3834
   10.110    8.3202
   10.140    8.7414
   10.170    9.0258
   10.200    9.4155
   10.230    9.8473
   10.260   10.4371
   10.290   11.0374
   10.320   11.9958
   10.350   12.2486
   10.380   10.7741
   10.410    8.5203
   10.440    7.8357
   10.470    7.7620
   10.500    7.7725
   10.530    7.6988
   10.560    7.8252
   10.590    7.4671
   10.620    7.5619
   10.650    7.6883
   10.680    7.4144
   10.710    7.4882
   10.740    7.7936
   10.770    7.8252
   10.800    8.1411
   10.830    8.1095
   10.860    7.7514
   10.890    8.5203
   10.920    8.7098
   10.950    9.4787
   10.980    9.0363
   11.010   10.4581
   11.040   10.8268
   11.070   10.3423
   11.100   10.4476
   11.130    8.5624
   11.160    7.5408
   11.190    7.4144
   11.220    7.7409
   11.250    7.0879
   11.280    7.2880
   11.310    7.4671
   11.340    7.3723
   11.370    7.5619
   11.400    7.2986
   11.430    7.7409
   11.460    7.8989
   11.490    8.2043
   11.520    7.8884
   11.550    8.1411
   11.580    8.6045
   11.610    9.2259
   11.640    9.6998
   11.670   10.5213
   11.700   10.9637
   11.730   11.2586
   11.760   10.4371
   11.790    8.4676
   11.820    8.0253
   11.850    7.6883
   11.880    7.6461
   11.910    7.1722
   11.940    7.4460
   11.970    7.2565
   12.000    7.2038
   12.030    7.1195
   12.060    7.3723
   12.090    6.6983
   12.120    6.9826
   12.150    6.8141
   12.180    7.0879
   12.210    7.4039
   12.240    7.0879
   12.270    6.9826
   12.300    7.4987
   12.330    7.5619
   12.360    7.8357
   12.390    7.7093
   12.420    7.3512
   12.450    7.0458
   12.480    6.9510
   12.510    6.7404
   12.540    7.0774
   12.570    6.9510
   12.600    6.9616
   12.630    7.3934
   12.660    6.9932
   12.690    7.2249
   12.720    6.9089
   12.750    7.0353
   12.780    7.3618
   12.810    7.7936
   12.840    8.0253
   12.870    8.0885
   12.900    8.5519
   12.930    9.4787
   12.960    9.8262
   12.990    9.4892
   13.020    8.4571
   13.050    7.5513
   13.080    7.3407
   13.110    7.3618
   13.140    6.7299
   13.170    7.1406
   13.200    6.8878
   13.230    7.0458
   13.260    7.2143
   13.290    7.1301
   13.320    6.7930
   13.350    6.9510
   13.380    7.6461
   13.410    7.6251
   13.440    7.5829
   13.470    8.0990
   13.500    8.1095
   13.530    8.6677
   13.560    8.0674
   13.590    7.8357
   13.620    7.4039
   13.650    6.9721
   13.680    6.8984
   13.710    6.8036
   13.740    6.8668
   13.770    7.0563
   13.800    6.9510
   13.830    6.9089
   13.860    6.7825
   13.890    7.0774
   13.920    7.4460
   13.950    7.3618
   13.980    7.6883
   14.010    7.6567
   14.040    8.0042
   14.070    8.7836
   14.100    9.0363
   14.130    8.9626
   14.160    8.1517
   14.190    7.5408
   14.220    7.0563
   14.250    6.8352
   14.280    6.7615
   14.310    6.9932
   14.340    6.6667
   14.370    6.7299
   14.400    6.9721
   14.430    6.8036
   14.460    6.5613
   14.490    6.5929
   14.520    6.7404
   14.550    6.7825
   14.580    6.3296
   14.610    7.1301
   14.640    6.7825
   14.670    6.8141
   14.700    6.4560
   14.730    6.7404
   14.760    6.9300
   14.790    6.9721
   14.820    6.6351
   14.850    6.8984
   14.880    6.7299
   14.910    6.6035
   14.940    6.8562
   14.970    7.0774
   15.000    7.1827
   15.030    6.5508
   15.060    6.9616
   15.090    7.0985
   15.120    6.9721
   15.150    7.2249
   15.180    7.3618
   15.210    7.1406
   15.240    7.2670
   15.270    7.2565
   15.300    6.9194
   15.330    6.8668
   15.360    6.7193
   15.390    6.4244
   15.420    6.8562
   15.450    6.9826
   15.480    6.8457
   15.510    6.8141
   15.540    6.6140
   15.570    7.2354
   15.600    6.5192
   15.630    6.9300
   15.660    7.1827
   15.690    6.9932
   15.720    7.0142
   15.750    7.2038
   15.780    7.0985
   15.810    6.6561
   15.840    7.0248
   15.870    7.2565
   15.900    6.7404
   15.930    7.3828
   15.960    6.9616
   15.990    7.6461
   16.020    7.7725
   16.050    7.4355
   16.080    7.8462
   16.110    8.2780
   16.140    8.5519
   16.170    8.1517
   16.200    8.4466
   16.230    7.6461
   16.260    7.6461
   16.290    7.4776
   16.320    6.8562
   16.350    7.6567
   16.380    7.1722
   16.410    7.7936
   16.440    7.0142
   16.470    7.3618
   16.500    7.6461
   16.530    7.7936
   16.560    7.6040
   16.590    7.9094
   16.620    8.3412
   16.650    7.9094
   16.680    7.8568
   16.710    7.2565
   16.740    7.2459
   16.770    7.0037
   16.800    7.1722
   16.830    7.2775
   16.860    7.6040
   16.890    7.5408
   16.920    7.6251
   16.950    7.5619
   16.980    8.0253
   17.010    8.3623
   17.040    8.5940
   17.070    9.0995
   17.100    9.0469
   17.130    8.7625
   17.160    7.9831
   17.190    7.6145
   17.220    7.1933
   17.250    6.7825
   17.280    6.7509
   17.310    6.8668
   17.340    7.1511
   17.370    6.9826
   17.400    7.0774
   17.430    7.4039
   17.460    7.3512
   17.490    7.3091
   17.520    7.2670
   17.550    6.8036
   17.580    7.0563
   17.610    7.3828
   17.640    7.2038
   17.670    6.4139
   17.700    7.0353
   17.730    6.8562
   17.760    7.0248
   17.790    6.9721
   17.820    7.2143
   17.850    6.8984
   17.880    7.1933
   17.910    7.0458
   17.940    7.4882
   17.970    7.4144
   18.000    7.4776
   18.030    7.2354
   18.060    7.0458
   18.090    6.7404
   18.120    6.9405
   18.150    7.0879
   18.180    7.1933
   18.210    6.9300
   18.240    6.7930
   18.270    6.9616
   18.300    7.3407
   18.330    6.9826
   18.360    7.3618
   18.390    7.4987
   18.420    7.3934
   18.450    7.3828
   18.480    7.1933
   18.510    7.0985
   18.540    7.0458
   18.570    6.8878
   18.600    7.3091
   18.630    7.4671
   18.660    6.4455
   18.690    6.9616
   18.720    6.9510
   18.750    7.0037
   18.780    7.2249
   18.810    7.4882
   18.840    7.3828
   18.870    7.0248
   18.900    7.0248
   18.930    7.6461
   18.960    7.2670
   18.990    7.3512
   19.020    7.1195
   19.050    7.3302
   19.080    7.2670
   19.110    6.7930
   19.140    7.2565
   19.170    7.2565
   19.200    6.9932
   19.230    7.2670
   19.260    6.7615
   19.290    6.9405
   19.320    6.9721
   19.350    6.7615
   19.380    6.5929
   19.410    7.1722
   19.440    6.9721
   19.470    7.1722
   19.500    7.2670
   19.530    7.2775
   19.560    7.3091
   19.590    7.4250
   19.620    7.3618
   19.650    7.6145
   19.680    7.6672
   19.710    7.6251
   19.740    7.0037
   19.770    7.1301
   19.800    7.0669
   19.830    6.8352
   19.860    7.0353
   19.890    7.0248
   19.920    7.2143
   19.950    7.4882
   19.980    6.7930
   20.010    7.2038
   20.040    7.6461
   20.070    6.8352
   20.100    7.4039
   20.130    7.0563
   20.160    7.4671
   20.190    6.7088
   20.220    7.7830
   20.250    7.5724
   20.280    7.8252
   20.310    7.9305
   20.340    8.4360
   20.370    8.4044
   20.400    8.9310
   20.430    8.6256
   20.460    8.2464
   20.490    8.0779
   20.520    7.3934
   20.550    6.9826
   20.580    6.8773
   20.610    7.1195
   20.640    6.7404
   20.670    6.9616
   20.700    7.4144
   20.730    6.9194
   20.760    7.0985
   20.790    6.8457
   20.820    6.6983
   20.850    7.2143
   20.880    7.1511
   20.910    6.9300
   20.940    7.0037
   20.970    6.9089
   21.000    6.6877
   21.030    6.8878
   21.060    6.9089
   21.090    6.7509
   21.120    7.2459
   21.150    7.0774
   21.180    7.2459
   21.210    7.3091
   21.240    7.1722
   21.270    7.0458
   21.300    7.0985
   21.330    7.2986
   21.360    7.0774
   21.390    7.1827
   21.420    6.8878
   21.450    6.6877
   21.480    6.9721
   21.510    7.0142
   21.540    7.3091
   21.570    7.4144
   21.600    6.6877
   21.630    6.6772
   21.660    6.9932
   21.690    7.1617
   21.720    6.8246
   21.750    6.9721
   21.780    7.4566
   21.810    7.6777
   21.840    7.5092
   21.870    7.8041
   21.900    7.7936
   21.930    7.6883
   21.960    7.8146
   21.990    7.4566
   22.020    7.0985
   22.050    6.9405
   22.080    7.2670
   22.110    7.3091
   22.140    7.2249
   22.170    7.1511
   22.200    7.7830
   22.230    7.7409
   22.260    7.7620
   22.290    7.6672
   22.320    7.5303
   22.350    6.9721
   22.380    7.5408
   22.410    7.3723
   22.440    7.6145
   22.470    7.8778
   22.500    8.1095
   22.530    8.4360
   22.560    8.4992
   22.590    8.7625
   22.620    8.8362
   22.650    8.5413
   22.680    8.4992
   22.710    7.7514
   22.740    7.5197
   22.770    7.6356
   22.800    7.7093
   22.830    7.2459
   22.860    8.5203
   22.890    9.1417
   22.920    9.8157
   22.950    9.0469
   22.980    9.0574
   23.010    9.0363
   23.040    7.8357
   23.070    7.3196
   23.100    7.5724
   23.130    7.1511
   23.160    7.4987
   23.190    7.7409
   23.220    7.5513
   23.250    7.7514
   23.280    7.8462
   23.310    8.0569
   23.340    7.6777
   23.370    7.1406
   23.400    7.0985
   23.430    7.2459
   23.460    7.0142
   23.490    7.1195
   23.520    7.5197
   23.550    6.8562
   23.580    6.8036
   23.610    7.1722
   23.640    6.9932
   23.670    7.0353
   23.700    7.5724
   23.730    7.3723
   23.760    7.4250
   23.790    7.1195
   23.820    7.5935
   23.850    7.0669
   23.880    7.8778
   23.910    7.4250
   23.940    7.5829
   23.970    7.3407
   24.000    7.3302
   24.030    7.1511
   24.060    6.6877
   24.090    7.2986
   24.120    7.2249
   24.150    6.9194
   24.180    7.0458
   24.210    7.2249
   24.240    6.9826
   24.270    6.7299
   24.300    7.0985
   24.330    7.0248
   24.360    7.0248
   24.390    6.4876
   24.420    7.1933
   24.450    6.9826
   24.480    6.7404
   24.510    6.9932
   24.540    6.9089
   24.570    7.1933
   24.600    6.7720
   24.630    7.1511
   24.660    6.6351
   24.690    7.0248
   24.720    6.9616
   24.750    6.9721
   24.780    7.0774
   24.810    6.9616
   24.840    6.8773
   24.870    7.1617
   24.900    6.8773
   24.930    7.2249
   24.960    6.8878
   24.990    7.0879
   25.020    6.9510
   25.050    6.9932
   25.080    6.6245
   25.110    6.8141
   25.140    7.0248
   25.170    6.7193
   25.200    7.5303
   25.230    7.2880
   25.260    7.3302
   25.290    7.0458
   25.320    7.1617
   25.350    7.3196
   25.380    7.0669
   25.410    7.4144
   25.440    6.9932
   25.470    7.1195
   25.500    7.4671
   25.530    7.1511
   25.560    6.8246
   25.590    7.2986
   25.620    6.9194
   25.650    7.0248
   25.680    7.2775
   25.710    7.4566
   25.740    7.4882
   25.770    7.7093
   25.800    7.8673
   25.830    8.0569
   25.860    7.9410
   25.890    7.8568
   25.920    7.7409
   25.950    7.4882
   25.980    7.4987
   26.010    7.1933
   26.040    7.1090
   26.070    6.7825
   26.100    7.1090
   26.130    6.7193
   26.160    6.9826
   26.190    7.2459
   26.220    7.1406
   26.250    6.8984
   26.280    6.9932
   26.310    6.9089
   26.340    6.9826
   26.370    7.0563
   26.400    7.4987
   26.430    7.2986
   26.460    7.4882
   26.490    7.0037
   26.520    6.9405
   26.550    6.9932
   26.580    6.3928
   26.610    6.6351
   26.640    6.7193
   26.670    6.6035
   26.700    6.4139
   26.730    6.5508
   26.760    7.2354
   26.790    6.8352
   26.820    6.3191
   26.850    6.7088
   26.880    6.7299
   26.910    6.7930
   26.940    6.5613
   26.970    7.0563
   27.000    7.4250
   27.030    7.6356
   27.060    7.5197
   27.090    7.1301
   27.120    7.0563
   27.150    7.0248
   27.180    6.9510
   27.210    6.4876
   27.240    7.0985
   27.270    6.8984
   27.300    6.8878
   27.330    7.0774
   27.360    6.9510
   27.390    6.9194
   27.420    6.6035
   27.450    6.6245
   27.480    6.4244
   27.510    6.5719
   27.540    7.0879
   27.570    6.7404
   27.600    6.9405
   27.630    7.3512
   27.660    7.1511
   27.690    7.2459
   27.720    6.9300
   27.750    7.1511
   27.780    6.9300
   27.810    6.7509
   27.840    7.0879
   27.870    7.0037
   27.900    7.1511
   27.930    7.2143
   27.960    7.3407
   27.990    7.1511
   28.020    7.0458
   28.050    6.7720
   28.080    6.8246
   28.110    7.0353
   28.140    6.8878
   28.170    6.9616
   28.200    7.3828
   28.230    7.2354
   28.260    7.3723
   28.290    7.0458
   28.320    6.9089
   28.350    6.8141
   28.380    7.2354
   28.410    7.1090
   28.440    7.0458
   28.470    6.9616
   28.500    7.2143
   28.530    6.8878
   28.560    7.2143
   28.590    6.8352
   28.620    6.4982
   28.650    6.7509
   28.680    6.6351
   28.710    6.3296
   28.740    6.6561
   28.770    7.2038
   28.800    6.8036
   28.830    6.6140
   28.860    6.3402
   28.890    6.6667
   28.920    6.5824
   28.950    6.9721
   28.980    6.6983
   29.010    6.9826
   29.040    6.6456
   29.070    6.5719
   29.100    6.6456
   29.130    6.6772
   29.160    7.0563
   29.190    6.7825
   29.220    6.8246
   29.250    6.4244
   29.280    7.0248
   29.310    7.3091
   29.340    6.9194
   29.370    6.9194
   29.400    6.4876
   29.430    6.7088
   29.460    6.9089
   29.490    6.5613
   29.520    6.1401
   29.550    6.1822
   29.580    6.6351
   29.610    6.3928
   29.640    6.6983
   29.670    6.5087
   29.700    6.4876
   29.730    6.2559
   29.760    6.4560
   29.790    6.5192
   29.820    6.8457
   29.850    6.3928
   29.880    6.8984
   29.910    6.9300
   29.940    6.5929
   29.970    6.9405
   30.000    6.9616
   30.030    6.3507
   30.060    6.5087
   30.090    6.6245
   30.120    6.3191
   30.150    6.8141
   30.180    6.7825
   30.210    6.4666
   30.240    6.5824
   30.270    6.5719
   30.300    6.4666
   30.330    6.7088
   30.360    6.5824
   30.390    6.6456
   30.420    6.1927
   30.450    6.4139
   30.480    6.4139
   30.510    6.3823
   30.540    6.3823
   30.570    6.7720
   30.600    6.5719
   30.630    6.8562
   30.660    6.6140
   30.690    6.4666
   30.720    6.5613
   30.750    6.4455
   30.780    6.5087
   30.810    6.6772
   30.840    6.8352
   30.870    6.7930
   30.900    6.4876
   30.930    6.3612
   30.960    6.2665
   30.990    6.2981
   31.020    6.2770
   31.050    6.5508
   31.080    6.6667
   31.110    6.3823
   31.140    6.4139
   31.170    6.1190
   31.200    6.2243
   31.230    6.0558
   31.260    6.7509
   31.290    6.8457
   31.320    6.5087
   31.350    6.5929
   31.380    6.8878
   31.410    6.3507
   31.440    6.6456
   31.470    6.4982
   31.500    6.4982
   31.530    6.3718
   31.560    6.6877
   31.590    6.6245
   31.620    6.3402
   31.650    6.4876
   31.680    6.7825
   31.710    6.7299
   31.740    6.8562
   31.770    7.0774
   31.800    6.5613
   31.830    6.8352
   31.860    7.0774
   31.890    6.7299
   31.920    6.8668
   31.950    6.7930
   31.980    6.9826
   32.010    6.4455
   32.040    6.9932
   32.070    7.1933
   32.100    7.0248
   32.130    7.1406
   32.160    7.1090
   32.190    6.8246
   32.220    6.5719
   32.250    6.4771
   32.280    6.2981
   32.310    6.2665
   32.340    6.2454
   32.370    6.1190
   32.400    6.1717
   32.430    6.3086
   32.460    6.2138
   32.490    6.4244
   32.520    6.0558
   32.550    6.3402
   32.580    6.5298
   32.610    6.5719
   32.640    6.2875
   32.670    6.2138
   32.700    6.3718
   32.730    6.4244
   32.760    6.2349
   32.790    6.5192
   32.820    6.0558
   32.850    6.2875
   32.880    6.0453
   32.910    6.1611
   32.940    6.4982
   32.970    6.2243
   33.000    6.5192
   33.030    6.5824
   33.060    6.1822
   33.090    6.3296
   33.120    5.7293
   33.150    5.9821
   33.180    5.9084
   33.210    5.9294
   33.240    5.8557
   33.270    6.1927
   33.300    6.0664
   33.330    6.1085
   33.360    5.8347
   33.390    5.7715
   33.420    6.0137
   33.450    6.0453
   33.480    5.7715
   33.510    5.9084
   33.540    6.1401
   33.570    5.9610
   33.600    6.0137
   33.630    6.0664
   33.660    6.4350
   33.690    6.0979
   33.720    6.0979
   33.750    6.2559
   33.780    6.5087
   33.810    6.1822
   33.840    6.3086
   33.870    6.5298
   33.900    6.1085
   33.930    6.6035
   33.960    6.0769
   33.990    5.8031
   34.020    6.2454
   34.050    5.9505
   34.080    6.2665
   34.110    6.1190
   34.140    5.6977
   34.170    5.9926
   34.200    6.2981
   34.230    5.8873
   34.260    5.9189
   34.290    5.8241
   34.320    5.6977
   34.350    5.8452
   34.380    5.9610
   34.410    5.8347
   34.440    6.3402
   34.470    6.2665
   34.500    6.0032
   34.530    5.8768
   34.560    5.9716
   34.590    5.9716
   34.620    6.3612
   34.650    5.6767
   34.680    5.8768
   34.710    6.0558
   34.740    5.9400
   34.770    5.7925
   34.800    6.0979
   34.830    6.1822
   34.860    6.0769
   34.890    6.1611
   34.920    5.6451
   34.950    5.9716
   34.980    6.0348
   35.010    5.9505
   35.040    5.8557
   35.070    5.8978
   35.100    5.3818
   35.130    5.7083
   35.160    5.7925
   35.190    5.6556
   35.220    5.7925
   35.250    5.8031
   35.280    5.9084
   35.310    5.4976
   35.340    5.6661
   35.370    5.4976
   35.400    6.2243
   35.430    5.6345
   35.460    5.7609
   35.490    5.7083
   35.520    5.9084
   35.550    5.6872
   35.580    5.9610
   35.610    5.7715
   35.640    5.9189
   35.670    5.6240
   35.700    5.9610
   35.730    5.8873
   35.760    5.8031
   35.790    5.2449
   35.820    6.3296
   35.850    5.6661
   35.880    5.7188
   35.910    5.6240
   35.940    6.2033
   35.970    6.0032
   36.000    5.7504
   36.030    5.6767
   36.060    5.7609
   36.090    5.3712
   36.120    5.7925
   36.150    5.7399
   36.180    5.4134
   36.210    5.7609
   36.240    5.9821
   36.270    5.9821
   36.300    5.7609
   36.330    5.9294
   36.360    5.6345
   36.390    5.8452
   36.420    5.8136
   36.450    5.9821
   36.480    5.9610
   36.510    6.0032
   36.540    5.6872
   36.570    5.6556
   36.600    5.5398
   36.630    6.0453
   36.660    5.6451
   36.690    5.8452
   36.720    5.5292
   36.750    5.7293
   36.780    5.6872
   36.810    5.5608
   36.840    5.9821
   36.870    5.4976
   36.900    5.9821
   36.930    5.2449
   36.960    5.4871
   36.990    5.7293
   37.020    5.8452
   37.050    6.1295
   37.080    5.7609
   37.110    6.1822
   37.140    5.8452
   37.170    6.1506
   37.200    5.6135
   37.230    5.7188
   37.260    5.7083
   37.290    5.8452
   37.320    5.7504
   37.350    5.5924
   37.380    5.8241
   37.410    5.7504
   37.440    5.5503
   37.470    5.5819
   37.500    5.5503
   37.530    5.7715
   37.560    5.6767
   37.590    5.9926
   37.620    6.2033
   37.650    5.5292
   37.680    6.0242
   37.710    5.7609
   37.740    5.7083
   37.770    5.5714
   37.800    5.7925
   37.830    5.9400
   37.860    5.6135
   37.890    5.7504
   37.920    5.8873
   37.950    5.6661
   37.980    5.3397
   38.010    5.9294
   38.040    5.8347
   38.070    5.9189
   38.100    5.7188
   38.130    6.0348
   38.160    5.5398
   38.190    5.4976
   38.220    5.9505
   38.250    5.8136
   38.280    5.6767
   38.310    5.6029
   38.340    5.9505
   38.370    6.0032
   38.400    5.8452
   38.430    5.8768
   38.460    5.4766
   38.490    6.0032
   38.520    5.6029
   38.550    5.9189
   38.580    5.5714
   38.610    5.5924
   38.640    6.2454
   38.670    5.9610
   38.700    5.8452
   38.730    5.8136
   38.760    6.0769
   38.790    5.8768
   38.820    5.6556
   38.850    5.8662
   38.880    5.6029
   38.910    6.1822
   38.940    5.9084
   38.970    5.8662
   39.000    5.8031
   39.030    6.0242
   39.060    5.8873
   39.090    5.8873
   39.120    5.8557
   39.150    6.2243
   39.180    5.9400
   39.210    6.1401
   39.240    6.1822
   39.270    6.1611
   39.300    6.2349
   39.330    6.0979
   39.360    5.9505
   39.390    6.2349
   39.420    6.1927
   39.450    6.1085
   39.480    5.7925
   39.510    6.0558
   39.540    5.9821
   39.570    5.7504
   39.600    5.8241
   39.630    6.0348
   39.660    5.5819
   39.690    5.5714
   39.720    5.8347
   39.750    5.6029
   39.780    5.7188
   39.810    5.6872
   39.840    5.9821
   39.870    5.2870
   39.900    5.4871
   39.930    5.6451
   39.960    5.6977
   39.990    5.8557