File: data/MOCOF-1/PXRD/PXRD_KE-049-5_Cu-Ka1_capillary-1mm_5s-deg.xyd
    1.500    4.4339
    1.515    4.4866
    1.530    4.3918
    1.545    4.4444
    1.560    4.4866
    1.575    4.6235
    1.590    4.5814
    1.605    4.7604
    1.620    4.6867
    1.635    4.3286
    1.650    4.4023
    1.665    4.3707
    1.680    4.1180
    1.695    4.2970
    1.710    4.2338
    1.725    4.5182
    1.740    4.0442
    1.755    3.8020
    1.770    4.2022
    1.785    4.3918
    1.800    4.0864
    1.815    3.9916
    1.830    4.0969
    1.845    4.4550
    1.860    4.1811
    1.875    4.0126
    1.890    3.8231
    1.905    4.0864
    1.920    3.8863
    1.935    3.6335
    1.950    3.6440
    1.965    4.2338
    1.980    3.8020
    1.995    3.7915
    2.010    3.9073
    2.025    3.8125
    2.040    3.9810
    2.055    4.1390
    2.070    3.9810
    2.085    3.6546
    2.100    3.6756
    2.115    3.6335
    2.130    3.6862
    2.145    3.8125
    2.160    3.6335
    2.175    3.5703
    2.190    3.7809
    2.205    4.1390
    2.220    3.9705
    2.235    3.9916
    2.250    3.7809
    2.265    3.7704
    2.280    3.6546
    2.295    3.6230
    2.310    3.8336
    2.325    3.8020
    2.340    3.8231
    2.355    3.8336
    2.370    3.9494
    2.385    4.0548
    2.400    3.9389
    2.415    3.4018
    2.430    3.5914
    2.445    3.8441
    2.460    3.8231
    2.475    3.8863
    2.490    3.8863
    2.505    3.5071
    2.520    3.8441
    2.535    3.8441
    2.550    3.5387
    2.565    3.4439
    2.580    3.6967
    2.595    3.5492
    2.610    3.7704
    2.625    3.7177
    2.640    3.8336
    2.655    3.6651
    2.670    3.5387
    2.685    3.6335
    2.700    3.5176
    2.715    3.7599
    2.730    3.8547
    2.745    3.8231
    2.760    3.6651
    2.775    3.6546
    2.790    3.6019
    2.805    3.6546
    2.820    3.4860
    2.835    3.4544
    2.850    3.4966
    2.865    3.5071
    2.880    3.4966
    2.895    3.5598
    2.910    3.7388
    2.925    4.0337
    2.940    4.0126
    2.955    3.6967
    2.970    3.5808
    2.985    3.7177
    3.000    3.7177
    3.015    3.7493
    3.030    3.4334
    3.045    3.5492
    3.060    3.6862
    3.075    3.6230
    3.090    3.7388
    3.105    3.7599
    3.120    3.8863
    3.135    3.7388
    3.150    3.8863
    3.165    3.9389
    3.180    3.4755
    3.195    3.7599
    3.210    3.9810
    3.225    4.0126
    3.240    3.8968
    3.255    3.7809
    3.270    3.8336
    3.285    3.8547
    3.300    4.0758
    3.315    3.8441
    3.330    3.8757
    3.345    4.2127
    3.360    4.3497
    3.375    4.2759
    3.390    4.6867
    3.405    4.6867
    3.420    4.9078
    3.435    4.6340
    3.450    4.7183
    3.465    4.4550
    3.480    4.2443
    3.495    4.1074
    3.510    4.1706
    3.525    4.1811
    3.540    3.9810
    3.555    3.6756
    3.570    3.4755
    3.585    3.5914
    3.600    3.9600
    3.615    3.6124
    3.630    3.8652
    3.645    3.6230
    3.660    3.5808
    3.675    3.7704
    3.690    3.7072
    3.705    3.7177
    3.720    3.6019
    3.735    3.5914
    3.750    3.5387
    3.765    3.7388
    3.780    3.6440
    3.795    3.6546
    3.810    3.7388
    3.825    4.0021
    3.840    3.6651
    3.855    3.6124
    3.870    3.7177
    3.885    4.1074
    3.900    3.8441
    3.915    4.0864
    3.930    3.6546
    3.945    3.7704
    3.960    3.9284
    3.975    3.8863
    3.990    4.0653
    4.005    4.1601
    4.020    4.1390
    4.035    4.0548
    4.050    3.9284
    4.065    3.8863
    4.080    4.0021
    4.095    4.2338
    4.110    3.8968
    4.125    4.0442
    4.140    4.0021
    4.155    3.9705
    4.170    3.8863
    4.185    3.6124
    4.200    3.7704
    4.215    3.9179
    4.230    3.6124
    4.245    3.7177
    4.260    3.6019
    4.275    3.2333
    4.290    3.4123
    4.305    3.5598
    4.320    3.6335
    4.335    3.2438
    4.350    3.0437
    4.365    3.3175
    4.380    3.5176
    4.395    3.3386
    4.410    3.4018
    4.425    3.3491
    4.440    3.2438
    4.455    3.5387
    4.470    3.2859
    4.485    3.6230
    4.500    3.4123
    4.515    3.2859
    4.530    3.4966
    4.545    3.4018
    4.560    3.4755
    4.575    3.4123
    4.590    3.3281
    4.605    3.4755
    4.620    3.3913
    4.635    3.4755
    4.650    3.1912
    4.665    3.4018
    4.680    3.3175
    4.695    3.4229
    4.710    3.4123
    4.725    3.3913
    4.740    3.5492
    4.755    3.6967
    4.770    3.7072
    4.785    3.4334
    4.800    3.6546
    4.815    3.5071
    4.830    3.7388
    4.845    3.6019
    4.860    3.2965
    4.875    3.4229
    4.890    3.4860
    4.905    3.4650
    4.920    3.7177
    4.935    3.4966
    4.950    3.6546
    4.965    3.3597
    4.980    3.4860
    4.995    3.3597
    5.010    3.4334
    5.025    3.6440
    5.040    3.6124
    5.055    3.3175
    5.070    3.4439
    5.085    3.6440
    5.100    3.7283
    5.115    3.2859
    5.130    3.3281
    5.145    3.4229
    5.160    3.4966
    5.175    3.6019
    5.190    3.4229
    5.205    3.4755
    5.220    3.3913
    5.235    3.4860
    5.250    3.9810
    5.265    4.0337
    5.280    3.7599
    5.295    3.7388
    5.310    3.6967
    5.325    3.6862
    5.340    3.6862
    5.355    3.6230
    5.370    3.4860
    5.385    3.7809
    5.400    3.7704
    5.415    3.7072
    5.430    3.5071
    5.445    3.5703
    5.460    3.2965
    5.475    3.5071
    5.490    3.2754
    5.505    3.4544
    5.520    3.3807
    5.535    3.6230
    5.550    3.3702
    5.565    3.4650
    5.580    3.2965
    5.595    3.2859
    5.610    3.3702
    5.625    3.4123
    5.640    3.5071
    5.655    3.4650
    5.670    3.5914
    5.685    3.6230
    5.700    3.2754
    5.715    3.0964
    5.730    3.1806
    5.745    3.4966
    5.760    3.4860
    5.775    3.5703
    5.790    3.4755
    5.805    3.2122
    5.820    3.1069
    5.835    3.6019
    5.850    3.5071
    5.865    3.4018
    5.880    3.1806
    5.895    3.2333
    5.910    3.2017
    5.925    3.3175
    5.940    3.5176
    5.955    3.5387
    5.970    3.2965
    5.985    3.2965
    6.000    3.4755
    6.015    3.6124
    6.030    3.4334
    6.045    3.2333
    6.060    3.2649
    6.075    3.2649
    6.090    3.2227
    6.105    3.4544
    6.120    3.1912
    6.135    3.4544
    6.150    3.4439
    6.165    3.1596
    6.180    3.4018
    6.195    3.4123
    6.210    3.3913
    6.225    3.2333
    6.240    3.5282
    6.255    3.1912
    6.270    3.4123
    6.285    3.2543
    6.300    3.3386
    6.315    3.3913
    6.330    3.4650
    6.345    3.2754
    6.360    3.3913
    6.375    3.4650
    6.390    3.2122
    6.405    3.5071
    6.420    3.7072
    6.435    3.5598
    6.450    3.5071
    6.465    3.5176
    6.480    3.3702
    6.495    3.6862
    6.510    3.5492
    6.525    3.6862
    6.540    3.4123
    6.555    3.5387
    6.570    3.6335
    6.585    3.6651
    6.600    3.5808
    6.615    3.3913
    6.630    3.5387
    6.645    3.5282
    6.660    3.3491
    6.675    3.2017
    6.690    3.3702
    6.705    3.5282
    6.720    3.7177
    6.735    3.7493
    6.750    3.8336
    6.765    3.6124
    6.780    3.7177
    6.795    3.7388
    6.810    3.7283
    6.825    3.5282
    6.840    3.4755
    6.855    3.9073
    6.870    3.8757
    6.885    3.6862
    6.900    3.5808
    6.915    3.6546
    6.930    3.7704
    6.945    3.5703
    6.960    3.7493
    6.975    3.6756
    6.990    3.7599
    7.005    4.0126
    7.020    3.8231
    7.035    3.4755
    7.050    3.7915
    7.065    3.5492
    7.080    3.4966
    7.095    3.3702
    7.110    3.5598
    7.125    3.4229
    7.140    3.4755
    7.155    3.5492
    7.170    3.6335
    7.185    3.6546
    7.200    3.1912
    7.215    3.7599
    7.230    3.6546
    7.245    3.4860
    7.260    3.4229
    7.275    3.3491
    7.290    3.4229
    7.305    3.6019
    7.320    3.7704
    7.335    3.6124
    7.350    3.7072
    7.365    3.3386
    7.380    3.6335
    7.395    3.6862
    7.410    3.4544
    7.425    3.6019
    7.440    3.2859
    7.455    3.6230
    7.470    3.7493
    7.485    3.5703
    7.500    3.5492
    7.515    3.4860
    7.530    3.5598
    7.545    3.6546
    7.560    3.5071
    7.575    3.7388
    7.590    3.7072
    7.605    3.4860
    7.620    3.6124
    7.635    3.5071
    7.650    3.5808
    7.665    4.0126
    7.680    3.8863
    7.695    3.8757
    7.710    3.8441
    7.725    3.5492
    7.740    3.6124
    7.755    3.6019
    7.770    3.6546
    7.785    3.6440
    7.800    3.5914
    7.815    3.5703
    7.830    3.4650
    7.845    3.4860
    7.860    3.4860
    7.875    3.7493
    7.890    3.6862
    7.905    3.7388
    7.920    3.7388
    7.935    3.5176
    7.950    3.6862
    7.965    3.7704
    7.980    3.6335
    7.995    3.6335
    8.010    3.8968
    8.025    4.0126
    8.040    3.7493
    8.055    3.8441
    8.070    3.9494
    8.085    3.7915
    8.100    3.8125
    8.115    3.8125
    8.130    3.9600
    8.145    3.6335
    8.160    3.9389
    8.175    3.9073
    8.190    3.7599
    8.205    3.7704
    8.220    3.7072
    8.235    3.8336
    8.250    3.8125
    8.265    3.7388
    8.280    3.9073
    8.295    3.6335
    8.310    3.7177
    8.325    3.9389
    8.340    3.6967
    8.355    3.6335
    8.370    3.8757
    8.385    4.0864
    8.400    4.0442
    8.415    3.8547
    8.430    3.8863
    8.445    3.6546
    8.460    3.8968
    8.475    3.8547
    8.490    3.7493
    8.505    3.6967
    8.520    3.7915
    8.535    4.0548
    8.550    3.7704
    8.565    3.7177
    8.580    3.7388
    8.595    3.9284
    8.610    4.2127
    8.625    3.7388
    8.640    3.8231
    8.655    4.0021
    8.670    3.8441
    8.685    3.4966
    8.700    3.7283
    8.715    3.6335
    8.730    4.0758
    8.745    3.8757
    8.760    3.8231
    8.775    3.8863
    8.790    3.9916
    8.805    3.6546
    8.820    3.8968
    8.835    3.9705
    8.850    3.6335
    8.865    4.0126
    8.880    3.9810
    8.895    3.8547
    8.910    3.7283
    8.925    3.9494
    8.940    3.8968
    8.955    3.9705
    8.970    3.8757
    8.985    3.8863
    9.000    3.8125
    9.015    4.0969
    9.030    3.7809
    9.045    3.7599
    9.060    3.6440
    9.075    4.0232
    9.090    4.2970
    9.105    4.0758
    9.120    4.1074
    9.135    4.0653
    9.150    3.9389
    9.165    3.9284
    9.180    3.7599
    9.195    3.7072
    9.210    3.8441
    9.225    4.1074
    9.240    4.1390
    9.255    3.8757
    9.270    3.9284
    9.285    4.2443
    9.300    4.2759
    9.315    4.0337
    9.330    3.9389
    9.345    4.0864
    9.360    3.9073
    9.375    4.0969
    9.390    3.9600
    9.405    3.9284
    9.420    3.7388
    9.435    3.9179
    9.450    3.7177
    9.465    3.9810
    9.480    4.1285
    9.495    3.9284
    9.510    4.2233
    9.525    4.0864
    9.540    3.7283
    9.555    3.6335
    9.570    4.0969
    9.585    4.3075
    9.600    4.1811
    9.615    3.7072
    9.630    4.1074
    9.645    4.2233
    9.660    3.9494
    9.675    4.1706
    9.690    3.8125
    9.705    3.8020
    9.720    3.9600
    9.735    4.1601
    9.750    3.9494
    9.765    4.0021
    9.780    3.8441
    9.795    4.0969
    9.810    3.9284
    9.825    4.2759
    9.840    4.1074
    9.855    4.0969
    9.870    4.0442
    9.885    4.4655
    9.900    4.5182
    9.915    4.4128
    9.930    3.9389
    9.945    4.0758
    9.960    4.1285
    9.975    4.2022
    9.990    4.3286
   10.005    4.1074
   10.020    3.8968
   10.035    3.9810
   10.050    4.2443
   10.065    4.4444
   10.080    4.3497
   10.095    4.0758
   10.110    4.2865
   10.125    4.1074
   10.140    4.1180
   10.155    4.0442
   10.170    4.2443
   10.185    4.0758
   10.200    4.0548
   10.215    4.5814
   10.230    4.1706
   10.245    3.9389
   10.260    4.4128
   10.275    4.3181
   10.290    4.4655
   10.305    4.3075
   10.320    4.0442
   10.335    4.2443
   10.350    4.4760
   10.365    4.1390
   10.380    4.4444
   10.395    4.3918
   10.410    4.0864
   10.425    4.0337
   10.440    4.2654
   10.455    4.4128
   10.470    4.1285
   10.485    4.2022
   10.500    4.6340
   10.515    4.4128
   10.530    4.4866
   10.545    4.5919
   10.560    4.3391
   10.575    4.6761
   10.590    4.4550
   10.605    4.5498
   10.620    4.4023
   10.635    4.3286
   10.650    4.2443
   10.665    4.1285
   10.680    4.2654
   10.695    3.8863
   10.710    4.6445
   10.725    4.2865
   10.740    4.4550
   10.755    4.3286
   10.770    4.5603
   10.785    4.6445
   10.800    4.7288
   10.815    4.5287
   10.830    4.1390
   10.845    4.2654
   10.860    4.3181
   10.875    4.6551
   10.890    4.1917
   10.905    4.2443
   10.920    4.2443
   10.935    4.3918
   10.950    4.4655
   10.965    4.5392
   10.980    4.8447
   10.995    4.0337
   11.010    4.4655
   11.025    4.6130
   11.040    4.5287
   11.055    4.5182
   11.070    4.6235
   11.085    4.6340
   11.100    4.3075
   11.115    4.2654
   11.130    4.3602
   11.145    4.8236
   11.160    4.6130
   11.175    4.3813
   11.190    4.5182
   11.205    4.8763
   11.220    4.5182
   11.235    4.4760
   11.250    4.6340
   11.265    4.2970
   11.280    4.5708
   11.295    4.3497
   11.310    4.4550
   11.325    4.4023
   11.340    4.4655
   11.355    4.4971
   11.370    4.3075
   11.385    4.6235
   11.400    4.7604
   11.415    4.6972
   11.430    4.7604
   11.445    4.7183
   11.460    4.4760
   11.475    4.7815
   11.490    4.6972
   11.505    4.8868
   11.520    4.6130
   11.535    5.0764
   11.550    5.0658
   11.565    4.6867
   11.580    4.6445
   11.595    4.2865
   11.610    4.4234
   11.625    4.6130
   11.640    5.0132
   11.655    4.8447
   11.670    4.6235
   11.685    4.7815
   11.700    4.5603
   11.715    4.8973
   11.730    5.0237
   11.745    4.9605
   11.760    5.0237
   11.775    5.1501
   11.790    4.9816
   11.805    5.0448
   11.820    5.0132
   11.835    4.6130
   11.850    4.8447
   11.865    5.2027
   11.880    5.0026
   11.895    4.9184
   11.910    4.7920
   11.925    4.9816
   11.940    4.5919
   11.955    5.1185
   11.970    5.0658
   11.985    4.7920
   12.000    5.0764
   12.015    5.1395
   12.030    5.1080
   12.045    5.1395
   12.060    4.9710
   12.075    4.9184
   12.090    5.0448
   12.105    4.9394
   12.120    5.1817
   12.135    5.0553
   12.150    4.9605
   12.165    5.0869
   12.180    5.0026
   12.195    4.9605
   12.210    5.0553
   12.225    4.9078
   12.240    4.8447
   12.255    4.9289
   12.270    5.0237
   12.285    4.9500
   12.300    5.3186
   12.315    5.2343
   12.330    4.6972
   12.345    5.0974
   12.360    5.2238
   12.375    4.8552
   12.390    4.8657
   12.405    5.3081
   12.420    5.5608
   12.435    5.6135
   12.450    5.2343
   12.465    5.2027
   12.480    5.2027
   12.495    5.1922
   12.510    4.9816
   12.525    5.3291
   12.540    5.3923
   12.555    5.2449
   12.570    4.9921
   12.585    5.3712
   12.600    5.3712
   12.615    5.4344
   12.630    5.3712
   12.645    5.4555
   12.660    5.4660
   12.675    5.1606
   12.690    5.0342
   12.705    5.3502
   12.720    5.4976
   12.735    5.6451
   12.750    5.5292
   12.765    5.4871
   12.780    5.4344
   12.795    5.3291
   12.810    5.6872
   12.825    5.1817
   12.840    5.2554
   12.855    5.4555
   12.870    5.6029
   12.885    5.7293
   12.900    5.3081
   12.915    5.3502
   12.930    5.5608
   12.945    5.4134
   12.960    5.7715
   12.975    5.3712
   12.990    5.3607
   13.005    5.5714
   13.020    5.4028
   13.035    5.3081
   13.050    5.7925
   13.065    5.9189
   13.080    5.5292
   13.095    5.7083
   13.110    5.9400
   13.125    5.9400
   13.140    5.6135
   13.155    5.7715
   13.170    5.8452
   13.185    5.6451
   13.200    5.8978
   13.215    5.5503
   13.230    5.4028
   13.245    5.9400
   13.260    5.7925
   13.275    5.3397
   13.290    5.8347
   13.305    5.8768
   13.320    5.2765
   13.335    5.9294
   13.350    5.5714
   13.365    5.7504
   13.380    5.6767
   13.395    5.8662
   13.410    5.7504
   13.425    6.0769
   13.440    6.1717
   13.455    5.6872
   13.470    6.0453
   13.485    5.9084
   13.500    6.2559
   13.515    5.9294
   13.530    5.9189
   13.545    6.0348
   13.560    5.8662
   13.575    5.9821
   13.590    6.2559
   13.605    6.4034
   13.620    6.2770
   13.635    6.3507
   13.650    6.2454
   13.665    6.2665
   13.680    6.2138
   13.695    6.2559
   13.710    6.2981
   13.725    5.7715
   13.740    6.1085
   13.755    6.3507
   13.770    5.7609
   13.785    5.8031
   13.800    6.0769
   13.815    6.2349
   13.830    6.3296
   13.845    6.3928
   13.860    6.2770
   13.875    6.3928
   13.890    6.4034
   13.905    6.3507
   13.920    6.1506
   13.935    6.2981
   13.950    6.3296
   13.965    6.3191
   13.980    6.5613
   13.995    6.4350
   14.010    6.0979
   14.025    6.3928
   14.040    6.4139
   14.055    6.2981
   14.070    6.0137
   14.085    6.4034
   14.100    6.4139
   14.115    6.3191
   14.130    6.6035
   14.145    6.6877
   14.160    6.7720
   14.175    6.7825
   14.190    6.6877
   14.205    6.6035
   14.220    6.4876
   14.235    6.4666
   14.250    6.2665
   14.265    6.3191
   14.280    6.5719
   14.295    6.7615
   14.310    6.5929
   14.325    6.8141
   14.340    6.7193
   14.355    6.7088
   14.370    6.5719
   14.385    6.7193
   14.400    6.8773
   14.415    6.7088
   14.430    6.5824
   14.445    6.9089
   14.460    6.9932
   14.475    6.7299
   14.490    7.1195
   14.505    6.9405
   14.520    7.0669
   14.535    6.9405
   14.550    7.1195
   14.565    7.1722
   14.580    7.0774
   14.595    7.2459
   14.610    6.8562
   14.625    6.8668
   14.640    7.2249
   14.655    6.8457
   14.670    7.0248
   14.685    6.8036
   14.700    7.4355
   14.715    7.1301
   14.730    6.9721
   14.745    7.0037
   14.760    7.4460
   14.775    7.2775
   14.790    7.5408
   14.805    7.2459
   14.820    7.1195
   14.835    7.2143
   14.850    7.3723
   14.865    7.0774
   14.880    7.1195
   14.895    7.6356
   14.910    7.4460
   14.925    7.3196
   14.940    7.5935
   14.955    7.3407
   14.970    7.2670
   14.985    7.5724
   15.000    7.5197
   15.015    7.3196
   15.030    7.3828
   15.045    7.6461
   15.060    8.0358
   15.075    7.4566
   15.090    7.6567
   15.105    7.8357
   15.120    8.0885
   15.135    8.1938
   15.150    7.8146
   15.165    7.8673
   15.180    8.0147
   15.195    7.9621
   15.210    8.0990
   15.225    7.8778
   15.240    7.9305
   15.255    8.0779
   15.270    8.1306
   15.285    8.3096
   15.300    8.0463
   15.315    8.0463
   15.330    8.2464
   15.345    7.6988
   15.360    8.3939
   15.375    8.1306
   15.390    8.2991
   15.405    8.4781
   15.420    8.5729
   15.435    8.0147
   15.450    8.4887
   15.465    8.3412
   15.480    8.3939
   15.495    8.0674
   15.510    8.4255
   15.525    8.2780
   15.540    8.4992
   15.555    8.3307
   15.570    8.5413
   15.585    8.6572
   15.600    8.4466
   15.615    8.8362
   15.630    8.7309
   15.645    8.9837
   15.660    8.2675
   15.675    8.9837
   15.690    8.6045
   15.705    8.4466
   15.720    8.6888
   15.735    8.9731
   15.750    8.8678
   15.765    9.0153
   15.780    8.8152
   15.795    9.0047
   15.810    8.5940
   15.825    8.4044
   15.840    8.7625
   15.855    9.2364
   15.870    9.2786
   15.885    9.0047
   15.900    9.0047
   15.915    8.4781
   15.930    8.5940
   15.945    9.0469
   15.960    8.8889
   15.975    9.0785
   15.990    9.2259
   16.005    9.3523
   16.020    9.3839
   16.035    9.4471
   16.050    9.6893
   16.065    9.3628
   16.080    9.1838
   16.095    9.4050
   16.110    9.1101
   16.125    9.5208
   16.140    9.1417
   16.155    9.6367
   16.170    9.3628
   16.185    9.8684
   16.200    9.6367
   16.215    9.4892
   16.230    9.2470
   16.245    9.9842
   16.260    9.7841
   16.275    9.7420
   16.290    9.6682
   16.305   10.2896
   16.320   10.1001
   16.335    9.7420
   16.350   10.0474
   16.365   10.0895
   16.380   10.1632
   16.395   10.7425
   16.410   10.0895
   16.425   10.2896
   16.440    9.9842
   16.455   10.3318
   16.470    9.9631
   16.485   10.3002
   16.500   10.3212
   16.515   10.5213
   16.530   10.6056
   16.545    9.8157
   16.560    9.8894
   16.575   10.4265
   16.590   10.3844
   16.605   10.0158
   16.620   10.3844
   16.635   10.5003
   16.650   10.4476
   16.665   10.7320
   16.680   10.4160
   16.695   10.4476
   16.710   10.4687
   16.725   10.3949
   16.740   10.6056
   16.755   10.7425
   16.770   10.8689
   16.785   10.2686
   16.800   10.4792
   16.815   10.9005
   16.830   10.7320
   16.845   10.5740
   16.860   10.7741
   16.875   11.0058
   16.890   11.2902
   16.905   11.3428
   16.920   11.5850
   16.935   11.2375
   16.950   10.9637
   16.965   11.4376
   16.980   11.5745
   16.995   11.1427
   17.010   11.0058
   17.025   11.2480
   17.040   11.5008
   17.055   11.6798
   17.070   11.1111
   17.085   11.4587
   17.100   11.4481
   17.115   11.2480
   17.130   11.1216
   17.145   11.1638
   17.160   11.3112
   17.175   12.1011
   17.190   11.8378
   17.205   11.7430
   17.220   11.5850
   17.235   11.7325
   17.250   11.6061
   17.265   11.7325
   17.280   12.2064
   17.295   12.3644
   17.310   12.0169
   17.325   12.0590
   17.340   12.1116
   17.355   12.1748
   17.370   12.2696
   17.385   12.3749
   17.400   12.5224
   17.415   12.4381
   17.430   12.4171
   17.445   12.2064
   17.460   12.3855
   17.475   12.6172
   17.490   12.3855
   17.505   12.3012
   17.520   12.5013
   17.535   12.8173
   17.550   13.1543
   17.565   12.8173
   17.580   12.7225
   17.595   12.3117
   17.610   12.8594
   17.625   12.4697
   17.640   12.5118
   17.655   12.7330
   17.670   12.4697
   17.685   13.2280
   17.700   13.1122
   17.715   12.9015
   17.730   12.7330
   17.745   13.1332
   17.760   12.7962
   17.775   12.3960
   17.790   12.5645
   17.805   12.3855
   17.820   13.1016
   17.835   13.0490
   17.850   13.2807
   17.865   12.6277
   17.880   13.5650
   17.895   13.6704
   17.910   13.0068
   17.925   12.9858
   17.940   12.9963
   17.955   13.6282
   17.970   13.4492
   17.985   13.1227
   18.000   13.5756
   18.015   14.0284
   18.030   13.9021
   18.045   13.2912
   18.060   13.5229
   18.075   13.5545
   18.090   13.7862
   18.105   13.7651
   18.120   14.0284
   18.135   13.9758
   18.150   13.8494
   18.165   13.6704
   18.180   14.9974
   18.195   13.9442
   18.210   13.3017
   18.225   14.1338
   18.240   13.7019
   18.255   13.6282
   18.270   14.2496
   18.285   14.1548
   18.300   14.2601
   18.315   13.6598
   18.330   14.0706
   18.345   13.9863
   18.360   13.9652
   18.375   14.2496
   18.390   13.7230
   18.405   14.7025
   18.420   14.3023
   18.435   13.6598
   18.450   13.5756
   18.465   14.5972
   18.480   14.0074
   18.495   13.8705
   18.510   14.3444
   18.525   14.1759
   18.540   13.8705
   18.555   14.3339
   18.570   13.8494
   18.585   14.8289
   18.600   14.8499
   18.615   14.1969
   18.630   14.3128
   18.645   14.9974
   18.660   14.6919
   18.675   14.8710
   18.690   14.7235
   18.705   14.9131
   18.720   14.7446
   18.735   14.1232
   18.750   14.0495
   18.765   14.2285
   18.780   14.1654
   18.795   14.6393
   18.810   14.6919
   18.825   14.8815
   18.840   14.8078
   18.855   15.0711
   18.870   14.4392
   18.885   14.7762
   18.900   14.8920
   18.915   14.7130
   18.930   14.9026
   18.945   14.6603
   18.960   15.1237
   18.975   15.4713
   18.990   15.1764
   19.005   14.7657
   19.020   14.5972
   19.035   14.8815
   19.050   15.0395
   19.065   14.7130
   19.080   15.0500
   19.095   14.7025
   19.110   14.6709
   19.125   15.5134
   19.140   15.2923
   19.155   14.7130
   19.170   14.5866
   19.185   14.9447
   19.200   14.9974
   19.215   14.9658
   19.230   14.7130
   19.245   14.7341
   19.260   14.7235
   19.275   14.7973
   19.290   14.4602
   19.305   14.7341
   19.320   14.9552
   19.335   15.7662
   19.350   15.1659
   19.365   14.9026
   19.380   14.7973
   19.395   14.7867
   19.410   14.4602
   19.425   14.9026
   19.440   15.0922
   19.455   15.6293
   19.470   14.7446
   19.485   14.9868
   19.500   15.1027
   19.515   14.5761
   19.530   14.4497
   19.545   14.7973
   19.560   15.3344
   19.575   15.4081
   19.590   15.5029
   19.605   15.3239
   19.620   15.2501
   19.635   14.6814
   19.650   14.6603
   19.665   15.2396
   19.680   15.3133
   19.695   15.5450
   19.710   14.6603
   19.725   14.5129
   19.740   15.4397
   19.755   15.5029
   19.770   14.9658
   19.785   14.8605
   19.800   15.0606
   19.815   15.2185
   19.830   15.0290
   19.845   15.3555
   19.860   14.9658
   19.875   14.9447
   19.890   15.1132
   19.905   15.3555
   19.920   14.2707
   19.935   14.4392
   19.950   14.4181
   19.965   14.1759
   19.980   14.5129
   19.995   14.9974
   20.010   15.0816
   20.025   14.9974
   20.040   14.8078
   20.055   14.3128
   20.070   14.6077
   20.085   14.8394
   20.100   14.4813
   20.115   14.9974
   20.130   14.5866
   20.145   15.0290
   20.160   14.4076
   20.175   14.7867
   20.190   14.8183
   20.205   14.4497
   20.220   14.6288
   20.235   14.7657
   20.250   14.1969
   20.265   14.3549
   20.280   14.6182
   20.295   15.0290
   20.310   14.8920
   20.325   14.1338
   20.340   14.1127
   20.355   14.7657
   20.370   14.0916
   20.385   14.1127
   20.400   14.7025
   20.415   14.5234
   20.430   14.6288
   20.445   14.0600
   20.460   14.7973
   20.475   14.7867
   20.490   14.6077
   20.505   14.4708
   20.520   14.4181
   20.535   14.8078
   20.550   14.7025
   20.565   14.6603
   20.580   14.8394
   20.595   14.9763
   20.610   14.0390
   20.625   14.0600
   20.640   13.9547
   20.655   14.2812
   20.670   14.5234
   20.685   14.0600
   20.700   13.9968
   20.715   14.0706
   20.730   14.2812
   20.745   14.0706
   20.760   14.1443
   20.775   13.9337
   20.790   14.1548
   20.805   13.6072
   20.820   13.5966
   20.835   13.9863
   20.850   13.9442
   20.865   13.5650
   20.880   13.9231
   20.895   14.2075
   20.910   14.1969
   20.925   14.3233
   20.940   14.0390
   20.955   13.9442
   20.970   14.0495
   20.985   13.8599
   21.000   13.8073
   21.015   14.4181
   21.030   13.8283
   21.045   14.1864
   21.060   14.2496
   21.075   13.5756
   21.090   13.7967
   21.105   13.7546
   21.120   13.4913
   21.135   13.8073
   21.150   13.4913
   21.165   13.7967
   21.180   13.9863
   21.195   14.0600
   21.210   14.1969
   21.225   13.7019
   21.240   13.1438
   21.255   13.6072
   21.270   14.1654
   21.285   13.6598
   21.300   13.4281
   21.315   13.2807
   21.330   13.1438
   21.345   13.4387
   21.360   13.3544
   21.375   13.0174
   21.390   13.2385
   21.405   13.3123
   21.420   13.1543
   21.435   13.3228
   21.450   13.3544
   21.465   13.1859
   21.480   13.3439
   21.495   13.1016
   21.510   13.4702
   21.525   13.9337
   21.540   13.1648
   21.555   13.2701
   21.570   12.7120
   21.585   12.6909
   21.600   13.2596
   21.615   12.9331
   21.630   12.8805
   21.645   12.8699
   21.660   12.6593
   21.675   13.0279
   21.690   13.3965
   21.705   13.5018
   21.720   12.8489
   21.735   12.3328
   21.750   12.6804
   21.765   13.0384
   21.780   13.2070
   21.795   12.9963
   21.810   13.2280
   21.825   13.3123
   21.840   13.1438
   21.855   12.8489
   21.870   12.7962
   21.885   12.5856
   21.900   12.4065
   21.915   12.5540
   21.930   12.7541
   21.945   12.1538
   21.960   12.9121
   21.975   12.5224
   21.990   13.4597
   22.005   12.8699
   22.020   12.6488
   22.035   12.3433
   22.050   12.4697
   22.065   12.4065
   22.080   12.5118
   22.095   12.2380
   22.110   12.0274
   22.125   12.1748
   22.140   13.0068
   22.155   12.4381
   22.170   12.4803
   22.185   12.6066
   22.200   12.6277
   22.215   12.2801
   22.230   12.4803
   22.245   12.3539
   22.260   12.7646
   22.275   11.9853
   22.290   12.0274
   22.305   12.7436
   22.320   12.0169
   22.335   11.8378
   22.350   12.7120
   22.365   12.4697
   22.380   11.7852
   22.395   12.0484
   22.410   12.4487
   22.425   11.8483
   22.440   12.2486
   22.455   12.2486
   22.470   11.7746
   22.485   11.5113
   22.500   12.0906
   22.515   12.2170
   22.530   11.8273
   22.545   11.6061
   22.560   12.1959
   22.575   11.6482
   22.590   12.1011
   22.605   12.2696
   22.620   12.1538
   22.635   12.1327
   22.650   12.3117
   22.665   12.2591
   22.680   12.1011
   22.695   11.9853
   22.710   11.5956
   22.725   11.2902
   22.740   11.7536
   22.755   12.2275
   22.770   11.6588
   22.785   11.9326
   22.800   12.1222
   22.815   11.6272
   22.830   11.2480
   22.845   11.5429
   22.860   11.2059
   22.875   11.4903
   22.890   11.7852
   22.905   11.4692
   22.920   11.4165
   22.935   11.6904
   22.950   11.8062
   22.965   11.7536