File: data/MOCOF-1/PXRD/PXRD_KE-029_Cu-Ka1_capillary-1mm_5s-deg.xyd
    1.500    4.9500
    1.530    4.8411
    1.560    4.7885
    1.590    4.8447
    1.620    4.4725
    1.650    4.5041
    1.680    4.6586
    1.710    4.3953
    1.740    4.0653
    1.770    4.3040
    1.800    3.7634
    1.830    4.2163
    1.860    4.0232
    1.890    3.8547
    1.920    3.8898
    1.950    3.6826
    1.980    3.7318
    2.010    3.7283
    2.040    3.8441
    2.070    3.7213
    2.100    3.4931
    2.130    3.5352
    2.160    3.3351
    2.190    3.3000
    2.220    3.7669
    2.250    3.4860
    2.280    3.4860
    2.310    3.4439
    2.340    3.3281
    2.370    3.2649
    2.400    3.3281
    2.430    3.5457
    2.460    3.3246
    2.490    3.5212
    2.520    3.2684
    2.550    3.2087
    2.580    3.2333
    2.610    3.4615
    2.640    3.3035
    2.670    3.3386
    2.700    3.2649
    2.730    3.6370
    2.760    3.4053
    2.790    3.5106
    2.820    3.5808
    2.850    3.5282
    2.880    3.3877
    2.910    3.5563
    2.940    3.4685
    2.970    3.6932
    3.000    3.7493
    3.030    3.8196
    3.060    3.7915
    3.090    3.8722
    3.120    3.9846
    3.150    4.1039
    3.180    4.4093
    3.210    4.4971
    3.240    4.4831
    3.270    4.6270
    3.300    4.7113
    3.330    4.9465
    3.360    5.3607
    3.390    5.3888
    3.420    5.8276
    3.450    6.1998
    3.480    6.3542
    3.510    6.5227
    3.540    6.5403
    3.570    6.6175
    3.600    6.3332
    3.630    6.2594
    3.660    5.8908
    3.690    5.7048
    3.720    5.5468
    3.750    5.2659
    3.780    4.8798
    3.810    4.9816
    3.840    4.7183
    3.870    4.6481
    3.900    4.4128
    3.930    4.3848
    3.960    4.3707
    3.990    4.2689
    4.020    4.1671
    4.050    4.0477
    4.080    4.0899
    4.110    4.3181
    4.140    4.1109
    4.170    3.9670
    4.200    3.9670
    4.230    3.9249
    4.260    3.9284
    4.290    3.8020
    4.320    3.8617
    4.350    3.9459
    4.380    4.0126
    4.410    3.9108
    4.440    3.7669
    4.470    3.7107
    4.500    3.5738
    4.530    3.7177
    4.560    3.7458
    4.590    3.8547
    4.620    3.8160
    4.650    3.8231
    4.680    3.8476
    4.710    3.6791
    4.740    3.7213
    4.770    3.8336
    4.800    3.8160
    4.830    3.8511
    4.860    3.7844
    4.890    3.7915
    4.920    3.8582
    4.950    3.7880
    4.980    3.9143
    5.010    3.9143
    5.040    3.7950
    5.070    3.6791
    5.100    3.7177
    5.130    3.9284
    5.160    3.8792
    5.190    3.7423
    5.220    3.8547
    5.250    3.7739
    5.280    3.8687
    5.310    3.8371
    5.340    3.8792
    5.370    3.6546
    5.400    3.7248
    5.430    3.6440
    5.460    3.7809
    5.490    3.8090
    5.520    3.7107
    5.550    3.5282
    5.580    3.6826
    5.610    3.7809
    5.640    3.6616
    5.670    3.4790
    5.700    3.6335
    5.730    3.4720
    5.760    3.6230
    5.790    3.6230
    5.820    3.4685
    5.850    3.4580
    5.880    3.4474
    5.910    3.3562
    5.940    3.2579
    5.970    3.4018
    6.000    3.3421
    6.030    3.2368
    6.060    3.2614
    6.090    3.3737
    6.120    3.3386
    6.150    3.2789
    6.180    3.4369
    6.210    3.3386
    6.240    3.1350
    6.270    3.2614
    6.300    3.2649
    6.330    3.2508
    6.360    3.2017
    6.390    3.2368
    6.420    3.2859
    6.450    3.1525
    6.480    3.2579
    6.510    3.3105
    6.540    3.2649
    6.570    3.4053
    6.600    3.2930
    6.630    3.3702
    6.660    3.3105
    6.690    3.2579
    6.720    3.5879
    6.750    3.4299
    6.780    3.3140
    6.810    3.3526
    6.840    3.4334
    6.870    3.6546
    6.900    3.6089
    6.930    3.6651
    6.960    3.7844
    6.990    3.8652
    7.020    3.9459
    7.050    3.8757
    7.080    3.9284
    7.110    4.0302
    7.140    3.9600
    7.170    3.8827
    7.200    3.9284
    7.230    3.7493
    7.260    3.7142
    7.290    3.6265
    7.320    3.4685
    7.350    3.4018
    7.380    3.4825
    7.410    3.3000
    7.440    3.1666
    7.470    3.1245
    7.500    3.4264
    7.530    3.3000
    7.560    3.0999
    7.590    3.2192
    7.620    3.1034
    7.650    3.1315
    7.680    3.0858
    7.710    2.8928
    7.740    2.9910
    7.770    3.0121
    7.800    2.9735
    7.830    2.9735
    7.860    2.8752
    7.890    2.7664
    7.920    2.8541
    7.950    2.9875
    7.980    2.9419
    8.010    2.7067
    8.040    2.8260
    8.070    2.8506
    8.100    2.8331
    8.130    2.7523
    8.160    2.9946
    8.190    2.9524
    8.220    2.8506
    8.250    2.6926
    8.280    2.8506
    8.310    2.8085
    8.340    2.7067
    8.370    2.7945
    8.400    2.7383
    8.430    2.5768
    8.460    2.7980
    8.490    2.7278
    8.520    2.7593
    8.550    2.6926
    8.580    2.7523
    8.610    2.7980
    8.640    2.4645
    8.670    2.6400
    8.700    2.6716
    8.730    2.7383
    8.760    2.6365
    8.790    2.7488
    8.820    2.5698
    8.850    2.7664
    8.880    2.5347
    8.910    2.6610
    8.940    2.6926
    8.970    2.7909
    9.000    2.6786
    9.030    2.5873
    9.060    2.8015
    9.090    2.7102
    9.120    2.6295
    9.150    2.6365
    9.180    2.7102
    9.210    2.4469
    9.240    2.6681
    9.270    2.4855
    9.300    2.6751
    9.330    2.6224
    9.360    2.7032
    9.390    2.6014
    9.420    2.6154
    9.450    2.7102
    9.480    2.7453
    9.510    2.6224
    9.540    2.6189
    9.570    2.7137
    9.600    2.5276
    9.630    2.7348
    9.660    2.5838
    9.690    2.7032
    9.720    2.7242
    9.750    2.7137
    9.780    2.6610
    9.810    2.6330
    9.840    2.6049
    9.870    2.6084
    9.900    2.5452
    9.930    2.6224
    9.960    2.6365
    9.990    2.7418
   10.020    2.6997
   10.050    2.6014
   10.080    2.6505
   10.110    2.7523
   10.140    2.6189
   10.170    2.7453
   10.200    2.6646
   10.230    2.6821
   10.260    2.6926
   10.290    2.6365
   10.320    2.6014
   10.350    2.6154
   10.380    2.6470
   10.410    2.6014
   10.440    2.5943
   10.470    2.7172
   10.500    2.6610
   10.530    2.5382
   10.560    2.8506
   10.590    2.6400
   10.620    2.6365
   10.650    2.6119
   10.680    2.7769
   10.710    2.7172
   10.740    2.7278
   10.770    2.7734
   10.800    2.7313
   10.830    2.7769
   10.860    2.7734
   10.890    2.6891
   10.920    2.8331
   10.950    2.7593
   10.980    2.6189
   11.010    2.6575
   11.040    2.8928
   11.070    2.7734
   11.100    2.7629
   11.130    2.8436
   11.160    2.8260
   11.190    2.6259
   11.220    2.7734
   11.250    2.9910
   11.280    2.8401
   11.310    2.7032
   11.340    2.5452
   11.370    2.7383
   11.400    2.7418
   11.430    2.6154
   11.460    2.6400
   11.490    2.6540
   11.520    2.7839
   11.550    2.7664
   11.580    2.7664
   11.610    2.6856
   11.640    2.7874
   11.670    2.6646
   11.700    2.7032
   11.730    2.6786
   11.760    2.6821
   11.790    2.5417
   11.820    2.8260
   11.850    2.5768
   11.880    2.4925
   11.910    2.5312
   11.940    2.7172
   11.970    2.6014
   12.000    2.6716
   12.030    2.6014
   12.060    2.5838
   12.090    2.7453
   12.120    2.6049
   12.150    2.6049
   12.180    2.6646
   12.210    2.7945
   12.240    2.5838
   12.270    2.6540
   12.300    2.6505
   12.330    2.7734
   12.360    2.6681
   12.390    2.7102
   12.420    2.5663
   12.450    2.6295
   12.480    2.8296
   12.510    2.7980
   12.540    2.6470
   12.570    2.7032
   12.600    2.6435
   12.630    2.6962
   12.660    2.6962
   12.690    2.6119
   12.720    2.8436
   12.750    2.6786
   12.780    2.7137
   12.810    2.5136
   12.840    2.5522
   12.870    2.5698
   12.900    2.6821
   12.930    2.6997
   12.960    2.6330
   12.990    2.4961
   13.020    2.5733
   13.050    2.7558
   13.080    2.6049
   13.110    2.6646
   13.140    2.6295
   13.170    2.5663
   13.200    2.7032
   13.230    2.5382
   13.260    2.5768
   13.290    2.6610
   13.320    2.4925
   13.350    2.6400
   13.380    2.6400
   13.410    2.5276
   13.440    2.6084
   13.470    2.6119
   13.500    2.6435
   13.530    2.5522
   13.560    2.5873
   13.590    2.5768
   13.620    2.8260
   13.650    2.5803
   13.680    2.6224
   13.710    2.6014
   13.740    2.6891
   13.770    2.7523
   13.800    2.6891
   13.830    2.6049
   13.860    2.6014
   13.890    2.5663
   13.920    2.6751
   13.950    2.7593
   13.980    2.5241
   14.010    2.6505
   14.040    2.8225
   14.070    2.6751
   14.100    2.6505
   14.130    2.8928
   14.160    2.5452
   14.190    2.7523
   14.220    2.5206
   14.250    2.6119
   14.280    2.7699
   14.310    2.7383
   14.340    2.7172
   14.370    2.5943
   14.400    2.6119
   14.430    2.7488
   14.460    2.7172
   14.490    2.7418
   14.520    2.7242
   14.550    2.7980
   14.580    2.6856
   14.610    2.8190
   14.640    2.8190
   14.670    2.7242
   14.700    2.7839
   14.730    2.6154
   14.760    2.7558
   14.790    2.6926
   14.820    2.7453
   14.850    2.7383
   14.880    2.6681
   14.910    2.7593
   14.940    2.7558
   14.970    2.7137
   15.000    2.8225
   15.030    2.7032
   15.060    2.7769
   15.090    2.7207
   15.120    2.5838
   15.150    2.8647
   15.180    2.7734
   15.210    2.7593
   15.240    2.6189
   15.270    2.6786
   15.300    2.6575
   15.330    2.6962
   15.360    2.6716
   15.390    2.7945
   15.420    2.7629
   15.450    2.7523
   15.480    2.7629
   15.510    2.6681
   15.540    2.8155
   15.570    2.6154
   15.600    2.8015
   15.630    2.9454
   15.660    2.9243
   15.690    2.7593
   15.720    2.9068
   15.750    2.8892
   15.780    2.8682
   15.810    2.7102
   15.840    2.8892
   15.870    2.8401
   15.900    2.8857
   15.930    2.8963
   15.960    2.7699
   15.990    2.9735
   16.020    2.7488
   16.050    2.8612
   16.080    2.9314
   16.110    2.8471
   16.140    2.9559
   16.170    2.9489
   16.200    2.8892
   16.230    2.9279
   16.260    2.9910
   16.290    3.0121
   16.320    2.8717
   16.350    2.8998
   16.380    2.7804
   16.410    2.9700
   16.440    3.0191
   16.470    3.0191
   16.500    2.9208
   16.530    2.9700
   16.560    2.7909
   16.590    2.9243
   16.620    2.8752
   16.650    2.8682
   16.680    2.8857
   16.710    3.0542
   16.740    3.0156
   16.770    2.8717
   16.800    2.8928
   16.830    2.9524
   16.860    2.8928
   16.890    2.8822
   16.920    2.7383
   16.950    2.8822
   16.980    2.9524
   17.010    2.9279
   17.040    3.0577
   17.070    2.8717
   17.100    2.8963
   17.130    2.8612
   17.160    2.9419
   17.190    2.9068
   17.220    2.8963
   17.250    3.1350
   17.280    3.0332
   17.310    3.0121
   17.340    2.9700
   17.370    3.0858
   17.400    3.0086
   17.430    3.1806
   17.460    2.9595
   17.490    3.0577
   17.520    3.0858
   17.550    3.0191
   17.580    3.1947
   17.610    3.1525
   17.640    3.0297
   17.670    3.0472
   17.700    3.1245
   17.730    3.2789
   17.760    3.1490
   17.790    3.2122
   17.820    3.1841
   17.850    3.3210
   17.880    3.1455
   17.910    3.1455
   17.940    3.3000
   17.970    3.3597
   18.000    3.3807
   18.030    3.3281
   18.060    3.0577
   18.090    3.3772
   18.120    3.2824
   18.150    3.2333
   18.180    3.3983
   18.210    3.3597
   18.240    3.3386
   18.270    3.1139
   18.300    3.3351
   18.330    3.3000
   18.360    3.2789
   18.390    3.3491
   18.420    3.1736
   18.450    3.3526
   18.480    3.3351
   18.510    3.2017
   18.540    3.2543
   18.570    3.3035
   18.600    3.4123
   18.630    3.2052
   18.660    3.2052
   18.690    3.2684
   18.720    3.2789
   18.750    3.3316
   18.780    3.3351
   18.810    3.4053
   18.840    3.2614
   18.870    3.3491
   18.900    3.4580
   18.930    3.2192
   18.960    3.4580
   18.990    3.3000
   19.020    3.3667
   19.050    3.2368
   19.080    3.5247
   19.110    3.2824
   19.140    3.2017
   19.170    3.4193
   19.200    3.3948
   19.230    3.4053
   19.260    3.5984
   19.290    3.4580
   19.320    3.3562
   19.350    3.2824
   19.380    3.3070
   19.410    3.3807
   19.440    3.2754
   19.470    3.2754
   19.500    3.2930
   19.530    3.4123
   19.560    3.4334
   19.590    3.2930
   19.620    3.2298
   19.650    3.4404
   19.680    3.3246
   19.710    3.1245
   19.740    3.2052
   19.770    3.2824
   19.800    3.3667
   19.830    3.5422
   19.860    3.2263
   19.890    3.2122
   19.920    3.2719
   19.950    3.2192
   19.980    3.3983
   20.010    3.3702
   20.040    3.2263
   20.070    3.2684
   20.100    3.3983
   20.130    3.3351
   20.160    3.1806
   20.190    3.3035
   20.220    3.2052
   20.250    3.3000
   20.280    3.3070
   20.310    3.5352
   20.340    3.3597
   20.370    3.3526
   20.400    3.3316
   20.430    3.3105
   20.460    3.4474
   20.490    3.2754
   20.520    3.3210
   20.550    3.1806
   20.580    3.2684
   20.610    3.2895
   20.640    3.4053
   20.670    3.3421
   20.700    3.5282
   20.730    3.2859
   20.760    3.2895
   20.790    3.3386
   20.820    3.3210
   20.850    3.3175
   20.880    3.2614
   20.910    3.4896
   20.940    3.5176
   20.970    3.3702
   21.000    3.4193
   21.030    3.4615
   21.060    3.2473
   21.090    3.3386
   21.120    3.4685
   21.150    3.3667
   21.180    3.3070
   21.210    3.3877
   21.240    3.4123
   21.270    3.5703
   21.300    3.5352
   21.330    3.5036
   21.360    3.3175
   21.390    3.5176
   21.420    3.5633
   21.450    3.5036
   21.480    3.5247
   21.510    3.2543
   21.540    3.5141
   21.570    3.5317
   21.600    3.4580
   21.630    3.4755
   21.660    3.4123
   21.690    3.4404
   21.720    3.5703
   21.750    3.4966
   21.780    3.6019
   21.810    3.4053
   21.840    3.4229
   21.870    3.4088
   21.900    3.4404
   21.930    3.4369
   21.960    3.5527
   21.990    3.5422
   22.020    3.5001
   22.050    3.5492
   22.080    3.4404
   22.110    3.4229
   22.140    3.5914
   22.170    3.4860
   22.200    3.3983
   22.230    3.4439
   22.260    3.5001
   22.290    3.5598
   22.320    3.5843
   22.350    3.4720
   22.380    3.5001
   22.410    3.4334
   22.440    3.5247
   22.470    3.4966
   22.500    3.5317
   22.530    3.5176
   22.560    3.3877
   22.590    3.7388
   22.620    3.3351
   22.650    3.5914
   22.680    3.5563
   22.710    3.3702
   22.740    3.4790
   22.770    3.4404
   22.800    3.5001
   22.830    3.6546
   22.860    3.4334
   22.890    3.4299
   22.920    3.2824
   22.950    3.5036
   22.980    3.5036
   23.010    3.5071
   23.040    3.5352
   23.070    3.4860
   23.100    3.5247
   23.130    3.4720
   23.160    3.6721
   23.190    3.3456
   23.220    3.3877
   23.250    3.5703
   23.280    3.4369
   23.310    3.6054
   23.340    3.4650
   23.370    3.4299
   23.400    3.5879
   23.430    3.4825
   23.460    3.5492
   23.490    3.4896
   23.520    3.5949
   23.550    3.5317
   23.580    3.7107
   23.610    3.3948
   23.640    3.4299
   23.670    3.4334
   23.700    3.4860
   23.730    3.6651
   23.760    3.6124
   23.790    3.3702
   23.820    3.2754
   23.850    3.5106
   23.880    3.3877
   23.910    3.3772
   23.940    3.4088
   23.970    3.4931
   24.000    3.4474
   24.030    3.5492
   24.060    3.5001
   24.090    3.4229
   24.120    3.5914
   24.150    3.6265
   24.180    3.3737
   24.210    3.5247
   24.240    3.4158
   24.270    3.3000
   24.300    3.3526
   24.330    3.5212
   24.360    3.3351
   24.390    3.4053
   24.420    3.4123
   24.450    3.3562
   24.480    3.2227
   24.510    3.3421
   24.540    3.3877
   24.570    3.3913
   24.600    3.3316
   24.630    3.3246
   24.660    3.4018
   24.690    3.4299
   24.720    3.3386
   24.750    3.2333
   24.780    3.4580
   24.810    3.5141
   24.840    3.5071
   24.870    3.3105
   24.900    3.5492
   24.930    3.2719
   24.960    3.2368
   24.990    3.2263
   25.020    3.3597
   25.050    3.2333
   25.080    3.4544
   25.110    3.3281
   25.140    3.3316
   25.170    3.3772
   25.200    3.3562
   25.230    3.3210
   25.260    3.3175
   25.290    3.2824
   25.320    3.1806
   25.350    3.2403
   25.380    3.2368
   25.410    3.3667
   25.440    3.2368
   25.470    3.2719
   25.500    3.3877
   25.530    3.2368
   25.560    3.3562
   25.590    3.3070
   25.620    3.2368
   25.650    3.2403
   25.680    3.2754
   25.710    3.2895
   25.740    3.2263
   25.770    3.1912
   25.800    3.1806
   25.830    3.1876
   25.860    3.2052
   25.890    3.0648
   25.920    3.1490
   25.950    3.2403
   25.980    3.3456
   26.010    3.2227
   26.040    3.3140
   26.070    3.0788
   26.100    3.2965
   26.130    3.1560
   26.160    3.1631
   26.190    2.9314
   26.220    3.2473
   26.250    3.1139
   26.280    3.1736
   26.310    3.1034
   26.340    3.0929
   26.370    3.0472
   26.400    3.3105
   26.430    3.0823
   26.460    3.1455
   26.490    2.9981
   26.520    3.0121
   26.550    3.1771
   26.580    3.1701
   26.610    3.0332
   26.640    3.1947
   26.670    3.0262
   26.700    3.1525
   26.730    3.1701
   26.760    3.1631
   26.790    3.0297
   26.820    2.9840
   26.850    3.1771
   26.880    3.0788
   26.910    3.1209
   26.940    3.0472
   26.970    3.0683
   27.000    3.0858
   27.030    3.0156
   27.060    2.9489
   27.090    3.0542
   27.120    3.0297
   27.150    3.0367
   27.180    2.8541
   27.210    2.9419
   27.240    3.0858
   27.270    3.2438
   27.300    3.0823
   27.330    3.0156
   27.360    2.8892
   27.390    3.0577
   27.420    2.9173
   27.450    2.9595
   27.480    3.1631
   27.510    2.9981
   27.540    2.9033
   27.570    2.9454
   27.600    2.9840
   27.630    3.0332
   27.660    2.8857
   27.690    3.0683
   27.720    3.0121
   27.750    2.9875
   27.780    2.9946
   27.810    2.8541
   27.840    3.0507
   27.870    3.0332
   27.900    2.9243
   27.930    3.2052
   27.960    2.9700
   27.990    3.0332
   28.020    2.9243
   28.050    2.9489
   28.080    2.8331
   28.110    2.8401
   28.140    3.0367
   28.170    2.8928
   28.200    2.7945
   28.230    2.9700
   28.260    2.9489
   28.290    2.8892
   28.320    2.9595
   28.350    2.8085
   28.380    2.9314
   28.410    2.8857
   28.440    3.0718
   28.470    2.8541
   28.500    2.8857
   28.530    2.7418
   28.560    3.0507
   28.590    2.8822
   28.620    2.8296
   28.650    2.8471
   28.680    2.8752
   28.710    2.9033
   28.740    2.7804
   28.770    2.8225
   28.800    2.9243
   28.830    2.7383
   28.860    2.7523
   28.890    2.8120
   28.920    2.9805
   28.950    2.9243
   28.980    2.8998
   29.010    2.7909
   29.040    2.8471
   29.070    2.8787
   29.100    2.8366
   29.130    2.7874
   29.160    2.7383
   29.190    2.7278
   29.220    2.8647
   29.250    2.8120
   29.280    2.7558
   29.310    2.8822
   29.340    2.6400
   29.370    2.8190
   29.400    2.7769
   29.430    2.8155
   29.460    2.7523
   29.490    2.8928
   29.520    2.8401
   29.550    2.7032
   29.580    2.7523
   29.610    2.6716
   29.640    2.6540
   29.670    2.7172
   29.700    2.7593
   29.730    2.7909
   29.760    2.6540
   29.790    2.6540
   29.820    2.7453
   29.850    2.6997
   29.880    2.6997
   29.910    2.7207
   29.940    2.6224
   29.970    2.7558
   30.000    2.7242
   30.030    2.6470
   30.060    2.6435
   30.090    2.8822
   30.120    2.7453
   30.150    2.6084
   30.180    2.6856
   30.210    2.6997
   30.240    2.7488
   30.270    2.6926
   30.300    2.6014
   30.330    2.5838
   30.360    2.6365
   30.390    2.6014
   30.420    2.6575
   30.450    2.6365
   30.480    2.7067
   30.510    2.6681
   30.540    2.7242
   30.570    2.5417
   30.600    2.6084
   30.630    2.6646
   30.660    2.6610
   30.690    2.6575
   30.720    2.5733
   30.750    2.6154
   30.780    2.6049
   30.810    2.4574
   30.840    2.6365
   30.870    2.7453
   30.900    2.5206
   30.930    2.3907
   30.960    2.6224
   30.990    2.6646
   31.020    2.4609
   31.050    2.6014
   31.080    2.6716
   31.110    2.4504
   31.140    2.5417
   31.170    2.5206
   31.200    2.4890
   31.230    2.5347
   31.260    2.5803
   31.290    2.5206
   31.320    2.4083
   31.350    2.4925
   31.380    2.4293
   31.410    2.4434
   31.440    2.5312
   31.470    2.6681
   31.500    2.5276
   31.530    2.4013
   31.560    2.5276
   31.590    2.6154
   31.620    2.6189
   31.650    2.4258
   31.680    2.4645
   31.710    2.5347
   31.740    2.6295
   31.770    2.5031
   31.800    2.4890
   31.830    2.4504
   31.860    2.4680
   31.890    2.3556
   31.920    2.4188
   31.950    2.3205
   31.980    2.3942
   32.010    2.2328
   32.040    2.3416
   32.070    2.4329
   32.100    2.4083
   32.130    2.2328
   32.160    2.4013
   32.190    2.2924
   32.220    2.3556
   32.250    2.2679
   32.280    2.3907
   32.310    2.2328
   32.340    2.4399
   32.370    2.3135
   32.400    2.2889
   32.430    2.3872
   32.460    2.3697
   32.490    2.3275
   32.520    2.2995
   32.550    2.3240
   32.580    2.3240
   32.610    2.3521
   32.640    2.1801
   32.670    2.1836
   32.700    2.1801
   32.730    2.2573
   32.760    2.2047
   32.790    2.3275
   32.820    2.1766
   32.850    2.1485
   32.880    2.1415
   32.910    2.2924
   32.940    2.2573
   32.970    2.1309
   33.000    2.1801
   33.030    2.2995
   33.060    2.1309
   33.090    2.2012
   33.120    2.0502
   33.150    2.1345
   33.180    2.0326
   33.210    2.0397
   33.240    2.1766
   33.270    2.1731
   33.300    2.1064
   33.330    2.1555
   33.360    2.1976
   33.390    2.0432
   33.420    2.1415
   33.450    2.1064
   33.480    2.1309
   33.510    2.1309
   33.540    2.0748
   33.570    2.0958
   33.600    2.0853
   33.630    2.1029
   33.660    2.0572
   33.690    2.0467
   33.720    2.1836
   33.750    2.0326
   33.780    1.9800
   33.810    1.9554
   33.840    1.9414
   33.870    1.9449
   33.900    2.0116
   33.930    1.8325
   33.960    2.0151
   33.990    1.9168
   34.020    1.9344
   34.050    2.0783
   34.080    1.9905
   34.110    1.8571
   34.140    1.8150
   34.170    1.9975
   34.200    1.9554
   34.230    1.8887
   34.260    2.0011
   34.290    1.8817
   34.320    2.0432
   34.350    1.9028
   34.380    1.8782
   34.410    1.9554
   34.440    1.9133
   34.470    1.8957
   34.500    1.9870
   34.530    1.9765
   34.560    1.9203
   34.590    1.8431
   34.620    1.8431
   34.650    1.8817
   34.680    1.9800
   34.710    1.8255
   34.740    1.8922
   34.770    1.9028
   34.800    1.8536
   34.830    1.8501
   34.860    1.8712
   34.890    1.8571
   34.920    1.9168
   34.950    1.7799
   34.980    1.7518
   35.010    1.8606
   35.040    1.8045
   35.070    1.8361
   35.100    1.8045
   35.130    1.7904
   35.160    1.8852
   35.190    1.8115
   35.220    1.7729
   35.250    1.7799
   35.280    1.7834
   35.310    1.7342
   35.340    1.6851
   35.370    1.7799
   35.400    1.6395
   35.430    1.7483
   35.460    1.8957
   35.490    1.7553
   35.520    1.6359
   35.550    1.8396
   35.580    1.8571
   35.610    1.6816
   35.640    1.6114
   35.670    1.7588
   35.700    1.7869
   35.730    1.6886
   35.760    1.7869
   35.790    1.6149
   35.820    1.7167
   35.850    1.6044
   35.880    1.7307
   35.910    1.6991
   35.940    1.6149
   35.970    1.5447
   36.000    1.6289
   36.030    1.6395
   36.060    1.6219
   36.090    1.6781
   36.120    1.5833
   36.150    1.6008
   36.180    1.6675
   36.210    1.6746
   36.240    1.6044
   36.270    1.6079
   36.300    1.6640
   36.330    1.5166
   36.360    1.5377
   36.390    1.5973
   36.420    1.5903
   36.450    1.6114
   36.480    1.6886
   36.510    1.5236
   36.540    1.5341
   36.570    1.6465
   36.600    1.7237
   36.630    1.5587
   36.660    1.6008
   36.690    1.4815
   36.720    1.5728
   36.750    1.5236
   36.780    1.4358
   36.810    1.5868
   36.840    1.5201
   36.870    1.5271
   36.900    1.5833
   36.930    1.4323
   36.960    1.5973
   36.990    1.5903
   37.020    1.5973
   37.050    1.5868
   37.080    1.5341
   37.110    1.4885
   37.140    1.4604
   37.170    1.5412
   37.200    1.4709
   37.230    1.4148
   37.260    1.5412
   37.290    1.4815
   37.320    1.4604
   37.350    1.5447
   37.380    1.5938
   37.410    1.5236
   37.440    1.4464
   37.470    1.4745
   37.500    1.4148
   37.530    1.4674
   37.560    1.4323
   37.590    1.2884
   37.620    1.5131
   37.650    1.4850
   37.680    1.4183
   37.710    1.3797
   37.740    1.4920
   37.770    1.4499
   37.800    1.4780
   37.830    1.4148
   37.860    1.3165
   37.890    1.4534
   37.920    1.5236
   37.950    1.3902
   37.980    1.4815
   38.010    1.4113
   38.040    1.4394
   38.070    1.4394
   38.100    1.4815
   38.130    1.4183
   38.160    1.4323
   38.190    1.5131
   38.220    1.4323
   38.250    1.4042
   38.280    1.3797
   38.310    1.4639
   38.340    1.4218
   38.370    1.4429
   38.400    1.3727
   38.430    1.4358
   38.460    1.4007
   38.490    1.4183
   38.520    1.4745
   38.550    1.4218
   38.580    1.3586
   38.610    1.4113
   38.640    1.3586
   38.670    1.4429
   38.700    1.3867
   38.730    1.3972
   38.760    1.4464
   38.790    1.3305
   38.820    1.4639
   38.850    1.3375
   38.880    1.3586
   38.910    1.3060
   38.940    1.3867
   38.970    1.5271
   39.000    1.4218
   39.030    1.3305
   39.060    1.3481
   39.090    1.4358
   39.120    1.2638
   39.150    1.4358
   39.180    1.2322
   39.210    1.3130
   39.240    1.3937
   39.270    1.3551
   39.300    1.2954
   39.330    1.3656
   39.360    1.3762
   39.390    1.3937
   39.420    1.4148
   39.450    1.4183
   39.480    1.2919
   39.510    1.3621
   39.540    1.3551
   39.570    1.4323
   39.600    1.2568
   39.630    1.2849
   39.660    1.3200
   39.690    1.3551
   39.720    1.4183
   39.750    1.2568
   39.780    1.4464
   39.810    1.3235
   39.840    1.3691
   39.870    1.4253
   39.900    1.3024
   39.930    1.3832
   39.960    1.3095
   39.990    1.1374