File: data/MOCOF-1/PXRD/PXRD_KE-311_Cu-Ka1_capillary-1mm_3s-deg.xyd
    1.500   11.1111
    1.530   11.3393
    1.560   10.8478
    1.590   10.6723
    1.620    9.8473
    1.650   10.1457
    1.680    9.8297
    1.710    9.0574
    1.740    8.5133
    1.770    8.3728
    1.800    8.9345
    1.830    7.8287
    1.860    7.7234
    1.890    7.9867
    1.920    7.3547
    1.950    7.5829
    1.980    7.0563
    2.010    7.1090
    2.040    7.0388
    2.070    6.9686
    2.100    6.6877
    2.130    6.3542
    2.160    6.4946
    2.190    5.7925
    2.220    5.9505
    2.250    5.5643
    2.280    6.1085
    2.310    5.2835
    2.340    5.5643
    2.370    5.2659
    2.400    5.3712
    2.430    5.2133
    2.460    5.2835
    2.490    5.0377
    2.520    5.6872
    2.550    4.8271
    2.580    4.8447
    2.610    5.0904
    2.640    5.0904
    2.670    4.6691
    2.700    4.5638
    2.730    4.4234
    2.760    4.9500
    2.790    4.5814
    2.820    4.8095
    2.850    4.3356
    2.880    4.7744
    2.910    4.5111
    2.940    4.3707
    2.970    4.5111
    3.000    4.3532
    3.030    4.2478
    3.060    4.3532
    3.090    4.5111
    3.120    4.3532
    3.150    4.4585
    3.180    4.2654
    3.210    4.1601
    3.240    3.7213
    3.270    4.1425
    3.300    3.8792
    3.330    4.2303
    3.360    3.8968
    3.390    3.9670
    3.420    3.9670
    3.450    3.7739
    3.480    3.7564
    3.510    3.9143
    3.540    3.9846
    3.570    4.1776
    3.600    3.7037
    3.630    4.1776
    3.660    3.8792
    3.690    4.2830
    3.720    4.0723
    3.750    3.8968
    3.780    4.1601
    3.810    4.2654
    3.840    3.7037
    3.870    3.7915
    3.900    3.5984
    3.930    3.8617
    3.960    3.9494
    3.990    3.8090
    4.020    3.6862
    4.050    3.6335
    4.080    3.6510
    4.110    3.8266
    4.140    3.6686
    4.170    3.8792
    4.200    3.7388
    4.230    3.6159
    4.260    3.7739
    4.290    3.6159
    4.320    3.7739
    4.350    3.4580
    4.380    3.7037
    4.410    3.7037
    4.440    3.5633
    4.470    3.7564
    4.500    3.7739
    4.530    3.8792
    4.560    3.6862
    4.590    3.4580
    4.620    3.3702
    4.650    3.1771
    4.680    3.6510
    4.710    3.8090
    4.740    3.4755
    4.770    3.6159
    4.800    3.5984
    4.830    3.6159
    4.860    3.6335
    4.890    3.3351
    4.920    3.6159
    4.950    3.9670
    4.980    3.2649
    5.010    3.8266
    5.040    3.5457
    5.070    3.5106
    5.100    3.9846
    5.130    3.5106
    5.160    3.6862
    5.190    3.1947
    5.220    3.4229
    5.250    3.5808
    5.280    3.5106
    5.310    3.5457
    5.340    3.6510
    5.370    3.3000
    5.400    3.5808
    5.430    3.4755
    5.460    3.2649
    5.490    3.4404
    5.520    3.6686
    5.550    3.3526
    5.580    3.3702
    5.610    3.5457
    5.640    3.2298
    5.670    3.6510
    5.700    3.7213
    5.730    3.5808
    5.760    3.6159
    5.790    3.3702
    5.820    3.3526
    5.850    3.8792
    5.880    3.7037
    5.910    3.6686
    5.940    3.4580
    5.970    3.6510
    6.000    3.2649
    6.030    3.5457
    6.060    3.7564
    6.090    3.7388
    6.120    3.6510
    6.150    3.6686
    6.180    3.5984
    6.210    3.3351
    6.240    3.7037
    6.270    3.5282
    6.300    3.9319
    6.330    3.5808
    6.360    3.7213
    6.390    3.5457
    6.420    3.6335
    6.450    3.7037
    6.480    3.4580
    6.510    3.6335
    6.540    3.4580
    6.570    3.6159
    6.600    3.6686
    6.630    3.5984
    6.660    3.6862
    6.690    3.5106
    6.720    3.8441
    6.750    4.1250
    6.780    3.4404
    6.810    3.6686
    6.840    3.5633
    6.870    3.2824
    6.900    3.8090
    6.930    3.6335
    6.960    3.5984
    6.990    3.6335
    7.020    3.6510
    7.050    3.6510
    7.080    3.4404
    7.110    3.8090
    7.140    3.8266
    7.170    3.4580
    7.200    3.4931
    7.230    3.5984
    7.260    3.5457
    7.290    3.7388
    7.320    3.5282
    7.350    3.7739
    7.380    3.5633
    7.410    3.8090
    7.440    3.8266
    7.470    3.4229
    7.500    3.3000
    7.530    4.1776
    7.560    3.4931
    7.590    4.1952
    7.620    3.7213
    7.650    3.7915
    7.680    3.5633
    7.710    3.4053
    7.740    3.8266
    7.770    4.0548
    7.800    4.3356
    7.830    4.0723
    7.860    3.8090
    7.890    3.2473
    7.920    4.0723
    7.950    3.8090
    7.980    3.6862
    8.010    4.0548
    8.040    3.6862
    8.070    4.0723
    8.100    3.9319
    8.130    3.9846
    8.160    3.7564
    8.190    3.8617
    8.220    4.0723
    8.250    3.8617
    8.280    3.9494
    8.310    4.4234
    8.340    3.9143
    8.370    3.5106
    8.400    3.9319
    8.430    3.6510
    8.460    4.1250
    8.490    3.8090
    8.520    3.7915
    8.550    4.0548
    8.580    4.1250
    8.610    4.0899
    8.640    3.9494
    8.670    3.6159
    8.700    4.3883
    8.730    3.9143
    8.760    3.7739
    8.790    3.9143
    8.820    4.3707
    8.850    3.8792
    8.880    4.3532
    8.910    4.5638
    8.940    4.1074
    8.970    4.1601
    9.000    3.9846
    9.030    4.1250
    9.060    4.0372
    9.090    3.5457
    9.120    4.3181
    9.150    3.9846
    9.180    4.0372
    9.210    4.1776
    9.240    3.9319
    9.270    4.5287
    9.300    3.9846
    9.330    4.1601
    9.360    4.4936
    9.390    3.9670
    9.420    4.1601
    9.450    4.4585
    9.480    3.8090
    9.510    4.5989
    9.540    3.9494
    9.570    4.3181
    9.600    4.4234
    9.630    4.3532
    9.660    4.5638
    9.690    4.2127
    9.720    4.1952
    9.750    4.1425
    9.780    4.6340
    9.810    4.2654
    9.840    4.2127
    9.870    4.3356
    9.900    4.0899
    9.930    4.6340
    9.960    3.9846
    9.990    4.5638
   10.020    4.3181
   10.050    4.2830
   10.080    4.3883
   10.110    4.1952
   10.140    4.2830
   10.170    3.9670
   10.200    4.0021
   10.230    3.9670
   10.260    4.0899
   10.290    4.1601
   10.320    4.0723
   10.350    4.2478
   10.380    4.0021
   10.410    4.2303
   10.440    4.1776
   10.470    4.1250
   10.500    4.2654
   10.530    4.4058
   10.560    3.7037
   10.590    3.9143
   10.620    4.0899
   10.650    4.1952
   10.680    3.8090
   10.710    4.0372
   10.740    4.4585
   10.770    4.3005
   10.800    4.1425
   10.830    4.0372
   10.860    3.9846
   10.890    4.2127
   10.920    4.5111
   10.950    4.1952
   10.980    4.1074
   11.010    3.9319
   11.040    4.1074
   11.070    4.3181
   11.100    3.7739
   11.130    3.8968
   11.160    3.9143
   11.190    3.9494
   11.220    4.1250
   11.250    3.9143
   11.280    3.8617
   11.310    3.9143
   11.340    3.8441
   11.370    4.2654
   11.400    4.2303
   11.430    3.9846
   11.460    3.6335
   11.490    3.7213
   11.520    3.8441
   11.550    3.8441
   11.580    3.8090
   11.610    3.9319
   11.640    4.1601
   11.670    3.8266
   11.700    3.6510
   11.730    3.9143
   11.760    3.7915
   11.790    4.0899
   11.820    4.2303
   11.850    4.0723
   11.880    3.8441
   11.910    3.6686
   11.940    3.7915
   11.970    3.9494
   12.000    3.9670
   12.030    3.7388
   12.060    3.8792
   12.090    3.7388
   12.120    3.8968
   12.150    3.5633
   12.180    4.0548
   12.210    3.6862
   12.240    3.8090
   12.270    3.3351
   12.300    3.5633
   12.330    3.6862
   12.360    3.7388
   12.390    3.6159
   12.420    3.9319
   12.450    3.8792
   12.480    3.9143
   12.510    3.5106
   12.540    3.5282
   12.570    3.9319
   12.600    3.4229
   12.630    3.3000
   12.660    3.4404
   12.690    3.3877
   12.720    3.3526
   12.750    3.6335
   12.780    3.9143
   12.810    3.6686
   12.840    3.8792
   12.870    3.4931
   12.900    3.5106
   12.930    3.5984
   12.960    3.5457
   12.990    3.7388
   13.020    3.3000
   13.050    3.5633
   13.080    3.5984
   13.110    3.7739
   13.140    3.4404
   13.170    3.5633
   13.200    3.6686
   13.230    3.7388
   13.260    3.3351
   13.290    3.2122
   13.320    3.5106
   13.350    3.6335
   13.380    3.6335
   13.410    3.5984
   13.440    3.2473
   13.470    3.5457
   13.500    3.7915
   13.530    3.1596
   13.560    3.3351
   13.590    3.2649
   13.620    3.3526
   13.650    3.7213
   13.680    3.5984
   13.710    3.5984
   13.740    3.5282
   13.770    3.3877
   13.800    3.2122
   13.830    3.4755
   13.860    2.9840
   13.890    3.2824
   13.920    3.3702
   13.950    3.4755
   13.980    3.5457
   14.010    3.5633
   14.040    4.0548
   14.070    3.4755
   14.100    3.2473
   14.130    3.9143
   14.160    3.4229
   14.190    3.4755
   14.220    3.4229
   14.250    3.2649
   14.280    3.1947
   14.310    3.5106
   14.340    3.7564
   14.370    3.2649
   14.400    3.6335
   14.430    3.2122
   14.460    3.3175
   14.490    3.6686
   14.520    3.4931
   14.550    3.6686
   14.580    3.4229
   14.610    3.3702
   14.640    3.3526
   14.670    3.4229
   14.700    3.3000
   14.730    3.5106
   14.760    3.2824
   14.790    3.0016
   14.820    3.3175
   14.850    3.3000
   14.880    3.2298
   14.910    3.3702
   14.940    3.5808
   14.970    3.3175
   15.000    3.4755
   15.030    3.3351
   15.060    3.4755
   15.090    3.2473
   15.120    3.3175
   15.150    3.5808
   15.180    3.4755
   15.210    3.4755
   15.240    3.7213
   15.270    3.6510
   15.300    3.4053
   15.330    3.3702
   15.360    3.3877
   15.390    3.4229
   15.420    3.6335
   15.450    3.1947
   15.480    3.5984
   15.510    3.5457
   15.540    2.8436
   15.570    3.1069
   15.600    3.1420
   15.630    3.3526
   15.660    3.3000
   15.690    3.3526
   15.720    3.7213
   15.750    3.4755
   15.780    3.4404
   15.810    3.3702
   15.840    3.1420
   15.870    3.5808
   15.900    3.6510
   15.930    3.4404
   15.960    3.0367
   15.990    3.3351
   16.020    3.4755
   16.050    3.3351
   16.080    3.4404
   16.110    3.4755
   16.140    3.5106
   16.170    3.7564
   16.200    3.6862
   16.230    3.5984
   16.260    3.5633
   16.290    3.4229
   16.320    3.2649
   16.350    3.4755
   16.380    3.2122
   16.410    3.1596
   16.440    3.0367
   16.470    3.4580
   16.500    3.6686
   16.530    3.5808
   16.560    3.5282
   16.590    3.5457
   16.620    3.6159
   16.650    3.3000
   16.680    3.1771
   16.710    3.4755
   16.740    3.4229
   16.770    3.0893
   16.800    3.3175
   16.830    3.8441
   16.860    3.4755
   16.890    3.5106
   16.920    3.0016
   16.950    3.7037
   16.980    3.4755
   17.010    3.4755
   17.040    3.2824
   17.070    3.3175
   17.100    3.0718
   17.130    3.3351
   17.160    3.1947
   17.190    3.2649
   17.220    3.3175
   17.250    3.5633
   17.280    3.7739
   17.310    3.4229
   17.340    3.6510
   17.370    3.3702
   17.400    3.0893
   17.430    3.0542
   17.460    3.5984
   17.490    3.6862
   17.520    3.6159
   17.550    3.1420
   17.580    3.4053
   17.610    3.7564
   17.640    3.2473
   17.670    3.3000
   17.700    3.6159
   17.730    3.3175
   17.760    3.2298
   17.790    3.2824
   17.820    3.2649
   17.850    3.5633
   17.880    3.1596
   17.910    3.0367
   17.940    3.7388
   17.970    3.4931
   18.000    3.3702
   18.030    3.4229
   18.060    3.7037
   18.090    3.5984
   18.120    3.1947
   18.150    3.3702
   18.180    3.5457
   18.210    3.6862
   18.240    3.3351
   18.270    3.3175
   18.300    3.6335
   18.330    3.3526
   18.360    3.7739
   18.390    3.4580
   18.420    3.4755
   18.450    3.3175
   18.480    3.6862
   18.510    3.0718
   18.540    3.3526
   18.570    3.5106
   18.600    3.6159
   18.630    3.5633
   18.660    3.3526
   18.690    3.7388
   18.720    3.3526
   18.750    3.4580
   18.780    3.3000
   18.810    3.6159
   18.840    3.5282
   18.870    3.3000
   18.900    3.7564
   18.930    3.5984
   18.960    3.3877
   18.990    3.5808
   19.020    3.8266
   19.050    3.6862
   19.080    3.6510
   19.110    3.3526
   19.140    3.3702
   19.170    3.1947
   19.200    3.4053
   19.230    3.3351
   19.260    3.5282
   19.290    3.2649
   19.320    3.6510
   19.350    3.4580
   19.380    3.4755
   19.410    3.4404
   19.440    3.3526
   19.470    3.3175
   19.500    3.3526
   19.530    3.4931
   19.560    3.7915
   19.590    3.5457
   19.620    3.5282
   19.650    3.2473
   19.680    3.4404
   19.710    3.4053
   19.740    3.3702
   19.770    3.4229
   19.800    3.4404
   19.830    3.3000
   19.860    3.2473
   19.890    3.2473
   19.920    3.2824
   19.950    3.3175
   19.980    3.4404
   20.010    3.3175
   20.040    3.4755
   20.070    3.4755
   20.100    3.3877
   20.130    3.6159
   20.160    3.3175
   20.190    4.1601
   20.220    3.2298
   20.250    3.7213
   20.280    3.4755
   20.310    3.8792
   20.340    3.8441
   20.370    3.5457
   20.400    3.4404
   20.430    3.4755
   20.460    3.6862
   20.490    3.3000
   20.520    3.3175
   20.550    3.4755
   20.580    3.7915
   20.610    3.5106
   20.640    3.7564
   20.670    3.5633
   20.700    3.3702
   20.730    3.4931
   20.760    3.2824
   20.790    3.8968
   20.820    3.4053
   20.850    3.8792
   20.880    3.6862
   20.910    3.5633
   20.940    3.8090
   20.970    3.3175
   21.000    3.5808
   21.030    3.4755
   21.060    3.6335
   21.090    3.6862
   21.120    3.9319
   21.150    3.8266
   21.180    3.2824
   21.210    3.3351
   21.240    3.8441
   21.270    3.7213
   21.300    3.2473
   21.330    3.5808
   21.360    3.5282
   21.390    3.5633
   21.420    3.6159
   21.450    3.7388
   21.480    3.6335
   21.510    3.9494
   21.540    3.5106
   21.570    3.5808
   21.600    3.5808
   21.630    3.8441
   21.660    3.3526
   21.690    3.5808
   21.720    3.5808
   21.750    3.4404
   21.780    3.4580
   21.810    3.6159
   21.840    3.9143
   21.870    3.4931
   21.900    3.6159
   21.930    3.4229
   21.960    3.5808
   21.990    3.9494
   22.020    3.6686
   22.050    3.4229
   22.080    3.4229
   22.110    3.4404
   22.140    3.5984
   22.170    3.7564
   22.200    3.5984
   22.230    3.5457
   22.260    3.9143
   22.290    3.8968
   22.320    3.8266
   22.350    3.3000
   22.380    3.6159
   22.410    3.7388
   22.440    3.4931
   22.470    3.8090
   22.500    3.7739
   22.530    3.6862
   22.560    3.6686
   22.590    3.6159
   22.620    3.6335
   22.650    3.5984
   22.680    3.3000
   22.710    3.9319
   22.740    3.8968
   22.770    3.5808
   22.800    3.4053
   22.830    3.4404
   22.860    3.5282
   22.890    3.5984
   22.920    3.3351
   22.950    3.5808
   22.980    3.6159
   23.010    3.1771
   23.040    3.5282
   23.070    3.6686
   23.100    3.4229
   23.130    3.4229
   23.160    3.5282
   23.190    3.5106
   23.220    3.5633
   23.250    3.6686
   23.280    3.7388
   23.310    3.3877
   23.340    3.8792
   23.370    3.7213
   23.400    3.5808
   23.430    3.7915
   23.460    3.6510
   23.490    3.2473
   23.520    3.8617
   23.550    3.5282
   23.580    3.8090
   23.610    3.3877
   23.640    3.4580
   23.670    3.7739
   23.700    3.1771
   23.730    3.6862
   23.760    3.4755
   23.790    3.5282
   23.820    3.4755
   23.850    3.5984
   23.880    3.5106
   23.910    3.6862
   23.940    3.9494
   23.970    3.3000
   24.000    3.8617
   24.030    3.5633
   24.060    3.6686
   24.090    3.3351
   24.120    3.6510
   24.150    3.2473
   24.180    3.7915
   24.210    3.5457
   24.240    3.4404
   24.270    3.5282
   24.300    3.4755
   24.330    3.1420
   24.360    3.7213
   24.390    3.5282
   24.420    3.6335
   24.450    3.4580
   24.480    3.7915
   24.510    3.5457
   24.540    3.4404
   24.570    3.5808
   24.600    3.6686
   24.630    3.4404
   24.660    3.6510
   24.690    3.3877
   24.720    3.5633
   24.750    3.4053
   24.780    3.2649
   24.810    3.2122
   24.840    3.6510
   24.870    3.5808
   24.900    3.6686
   24.930    3.4229
   24.960    4.0372
   24.990    3.5282
   25.020    3.4580
   25.050    3.5457
   25.080    3.4931
   25.110    3.6862
   25.140    4.0372
   25.170    3.3175
   25.200    3.6510
   25.230    3.6686
   25.260    3.6862
   25.290    3.4931
   25.320    3.4580
   25.350    3.5457
   25.380    3.5633
   25.410    3.6159
   25.440    3.4404
   25.470    3.6686
   25.500    3.5457
   25.530    3.4404
   25.560    3.4053
   25.590    3.4053
   25.620    3.1245
   25.650    3.4404
   25.680    3.5106
   25.710    3.2649
   25.740    3.5457
   25.770    3.3526
   25.800    3.2649
   25.830    3.4931
   25.860    3.2298
   25.890    3.6335
   25.920    3.4755
   25.950    3.4755
   25.980    3.6510
   26.010    3.4580
   26.040    3.3702
   26.070    3.3000
   26.100    3.5282
   26.130    3.3175
   26.160    3.2298
   26.190    3.2473
   26.220    3.4229
   26.250    3.5282
   26.280    3.7213
   26.310    3.0542
   26.340    3.5282
   26.370    3.3351
   26.400    3.5106
   26.430    3.3702
   26.460    3.3526
   26.490    3.2298
   26.520    3.7213
   26.550    3.7037
   26.580    3.2824
   26.610    3.5106
   26.640    3.4404
   26.670    3.5106
   26.700    3.4580
   26.730    3.2824
   26.760    3.3526
   26.790    3.2122
   26.820    3.1245
   26.850    3.6159
   26.880    3.0893
   26.910    3.3175
   26.940    3.4053
   26.970    3.3526
   27.000    3.5106
   27.030    3.3175
   27.060    3.4580
   27.090    3.0191
   27.120    3.6335
   27.150    3.1245
   27.180    3.1771
   27.210    3.1771
   27.240    3.3702
   27.270    3.1245
   27.300    3.2649
   27.330    3.2298
   27.360    3.6159
   27.390    3.0893
   27.420    2.9665
   27.450    3.2122
   27.480    2.9138
   27.510    3.3175
   27.540    3.2649
   27.570    3.1420
   27.600    3.4404
   27.630    3.2122
   27.660    3.3526
   27.690    3.0718
   27.720    2.9489
   27.750    3.1771
   27.780    3.0718
   27.810    3.4404
   27.840    2.9665
   27.870    3.3526
   27.900    3.1771
   27.930    3.2122
   27.960    3.3175
   27.990    3.1947
   28.020    3.4755
   28.050    2.9489
   28.080    3.0718
   28.110    2.9489
   28.140    2.8436
   28.170    3.2473
   28.200    3.1420
   28.230    3.5457
   28.260    3.2122
   28.290    2.8612
   28.320    3.0016
   28.350    3.2473
   28.380    2.8436
   28.410    3.0542
   28.440    3.1947
   28.470    3.0718
   28.500    3.2298
   28.530    2.9489
   28.560    3.3175
   28.590    3.0016
   28.620    3.1069
   28.650    2.9314
   28.680    3.3702
   28.710    3.2473
   28.740    3.2473
   28.770    3.0893
   28.800    3.0542
   28.830    2.8612
   28.860    3.3702
   28.890    3.2122
   28.920    3.4229
   28.950    3.2122
   28.980    3.1420
   29.010    3.3702
   29.040    3.2649
   29.070    3.5457
   29.100    3.5808
   29.130    3.1069
   29.160    3.1069
   29.190    3.0893
   29.220    3.1420
   29.250    3.1947
   29.280    2.8436
   29.310    3.1069
   29.340    3.3526
   29.370    3.1771
   29.400    3.0718
   29.430    3.3702
   29.460    3.2824
   29.490    3.0191
   29.520    3.3000
   29.550    2.9138
   29.580    3.0718
   29.610    3.1947
   29.640    3.3000
   29.670    3.2122
   29.700    3.3000
   29.730    3.0542
   29.760    2.8436
   29.790    2.7909
   29.820    3.0718
   29.850    2.9489
   29.880    3.1245
   29.910    3.1069
   29.940    2.9840
   29.970    3.1947
   30.000    2.9138
   30.030    2.9665
   30.060    3.0191
   30.090    3.1771
   30.120    3.2122
   30.150    3.2824
   30.180    2.8787
   30.210    3.1947
   30.240    2.9840
   30.270    2.8436
   30.300    3.3000
   30.330    3.0367
   30.360    3.0016
   30.390    3.0718
   30.420    3.1069
   30.450    3.2824
   30.480    3.1245
   30.510    3.3351
   30.540    2.8963
   30.570    3.1596
   30.600    3.1947
   30.630    3.1947
   30.660    3.1771
   30.690    3.1596
   30.720    3.0191
   30.750    3.1069
   30.780    3.1069
   30.810    3.0893
   30.840    2.5979
   30.870    2.8085
   30.900    3.1771
   30.930    2.8436
   30.960    3.0367
   30.990    2.7909
   31.020    2.8260
   31.050    2.6681
   31.080    3.0718
   31.110    2.5628
   31.140    2.5452
   31.170    3.0367
   31.200    3.0191
   31.230    3.1069
   31.260    2.8963
   31.290    3.1420
   31.320    2.8787
   31.350    2.8436
   31.380    2.3872
   31.410    2.8436
   31.440    3.1420
   31.470    2.5979
   31.500    3.1420
   31.530    2.8085
   31.560    2.8085
   31.590    2.8963
   31.620    3.1596
   31.650    2.9665
   31.680    3.0016
   31.710    3.0191
   31.740    3.2473
   31.770    2.8787
   31.800    3.0191
   31.830    2.9665
   31.860    2.7909
   31.890    3.1596
   31.920    3.0718
   31.950    2.6681
   31.980    2.7207
   32.010    2.8963
   32.040    2.8085
   32.070    2.9840
   32.100    2.7734
   32.130    2.8787
   32.160    3.1069
   32.190    2.4574
   32.220    2.9314
   32.250    2.8085
   32.280    2.6505
   32.310    2.7558
   32.340    2.7558
   32.370    2.7032
   32.400    2.5803
   32.430    2.6856
   32.460    2.8963
   32.490    2.6330
   32.520    2.7909
   32.550    2.9840
   32.580    2.6505
   32.610    3.1069
   32.640    2.8612
   32.670    2.5452
   32.700    2.6505
   32.730    2.8787
   32.760    3.0191
   32.790    2.7383
   32.820    2.8787
   32.850    3.1947
   32.880    2.7558
   32.910    3.0191
   32.940    2.5979
   32.970    2.7909
   33.000    2.5276
   33.030    2.9665
   33.060    2.8085
   33.090    2.8260
   33.120    2.7558
   33.150    2.7909
   33.180    2.9138
   33.210    2.4750
   33.240    2.5452
   33.270    2.5803
   33.300    2.8787
   33.330    3.0191
   33.360    2.8612
   33.390    2.4399
   33.420    2.8260
   33.450    2.6856
   33.480    2.5276
   33.510    2.9840
   33.540    2.8436
   33.570    2.7207
   33.600    2.4574
   33.630    2.5628
   33.660    2.4925
   33.690    2.8787
   33.720    2.6856
   33.750    2.8612
   33.780    2.6505
   33.810    2.7032
   33.840    3.0016
   33.870    2.5803
   33.900    2.8085
   33.930    2.7383
   33.960    2.7032
   33.990    2.7383
   34.020    2.9314
   34.050    2.8612
   34.080    2.7558
   34.110    2.5803
   34.140    2.7909
   34.170    2.8260
   34.200    2.6154
   34.230    3.0542
   34.260    2.6856
   34.290    2.9314
   34.320    2.5628
   34.350    2.4925
   34.380    2.8963
   34.410    2.7909
   34.440    2.6154
   34.470    2.7909
   34.500    2.5452
   34.530    2.7558
   34.560    2.5452
   34.590    2.6154
   34.620    2.6505
   34.650    3.0367
   34.680    2.4750
   34.710    2.4399
   34.740    2.7734
   34.770    2.8963
   34.800    2.6505
   34.830    3.0016
   34.860    2.5101
   34.890    2.5979
   34.920    2.8260
   34.950    3.0893
   34.980    2.6856
   35.010    2.4750
   35.040    2.7383
   35.070    2.9665
   35.100    2.7207
   35.130    2.6505
   35.160    2.7558
   35.190    2.6681
   35.220    2.3521
   35.250    2.7909
   35.280    2.7207
   35.310    2.7734
   35.340    2.7734
   35.370    2.6681
   35.400    2.5628
   35.430    2.6681
   35.460    2.6505
   35.490    2.7032
   35.520    2.2468
   35.550    2.5452
   35.580    2.5452
   35.610    2.9840
   35.640    2.5276
   35.670    2.6154
   35.700    2.9314
   35.730    2.7383
   35.760    2.8963
   35.790    2.6681
   35.820    2.6681
   35.850    2.5452
   35.880    2.6681
   35.910    2.7558
   35.940    2.4750
   35.970    2.5276
   36.000    2.7032
   36.030    2.4048
   36.060    2.8085
   36.090    2.8787
   36.120    2.5101
   36.150    2.6681
   36.180    2.6856
   36.210    2.7383
   36.240    2.6154
   36.270    2.6681
   36.300    2.4925
   36.330    2.4574
   36.360    2.4399
   36.390    2.5452
   36.420    2.6681
   36.450    2.6856
   36.480    2.7558
   36.510    2.7558
   36.540    2.3872
   36.570    2.8085
   36.600    2.4750
   36.630    2.7383
   36.660    2.6330
   36.690    2.5628
   36.720    2.5628
   36.750    2.5101
   36.780    2.7383
   36.810    2.4925
   36.840    2.2468
   36.870    2.3170
   36.900    2.7032
   36.930    2.7207
   36.960    2.6681
   36.990    2.5101
   37.020    2.5276
   37.050    2.9840
   37.080    2.6330
   37.110    2.6856
   37.140    2.8085
   37.170    2.5276
   37.200    2.4399
   37.230    2.3872
   37.260    2.5803
   37.290    2.8436
   37.320    2.5101
   37.350    2.4399
   37.380    2.4750
   37.410    2.5803
   37.440    2.5101
   37.470    2.1415
   37.500    2.7909
   37.530    2.3697
   37.560    2.3521
   37.590    2.4574
   37.620    2.7909
   37.650    2.5979
   37.680    2.7383
   37.710    2.7734
   37.740    2.2292
   37.770    2.5276
   37.800    2.8963
   37.830    2.4048
   37.860    2.5803
   37.890    2.7032
   37.920    2.4574
   37.950    2.5452
   37.980    2.5803
   38.010    2.6330
   38.040    2.3697
   38.070    2.5628
   38.100    2.3697
   38.130    2.5803
   38.160    2.5628
   38.190    2.5979
   38.220    2.5979
   38.250    2.9314
   38.280    2.4750
   38.310    2.4925
   38.340    3.0191
   38.370    2.4048
   38.400    2.5101
   38.430    2.5628
   38.460    2.6856
   38.490    2.6330
   38.520    2.5452
   38.550    2.2117
   38.580    2.6681
   38.610    2.4574
   38.640    2.1941
   38.670    2.6154
   38.700    2.5101
   38.730    2.5628
   38.760    2.2643
   38.790    2.3697
   38.820    2.3872
   38.850    2.2117
   38.880    2.2819
   38.910    2.2468
   38.940    2.5979
   38.970    2.4574
   39.000    2.5452
   39.030    2.3170
   39.060    2.4925
   39.090    2.4750
   39.120    2.7383
   39.150    2.5276
   39.180    2.5803
   39.210    2.5276
   39.240    2.3697
   39.270    2.5979
   39.300    2.1941
   39.330    2.6856
   39.360    2.3872
   39.390    3.2649
   39.420    2.5101
   39.450    2.7032
   39.480    2.5803
   39.510    2.3521
   39.540    2.4223
   39.570    2.4750
   39.600    2.7032
   39.630    2.5979
   39.660    2.3872
   39.690    2.6154
   39.720    2.5101
   39.750    2.4574
   39.780    2.8787
   39.810    2.6505
   39.840    2.5276
   39.870    2.4223
   39.900    2.6856
   39.930    2.2995
   39.960    2.5803
   39.990    2.4750