File: data/MOCOF-1/PXRD/PXRD_KE-275_Cu-Ka1_film-3mm_60s-deg.xyd
    1.500   13.0999
    1.530   12.9717
    1.560   13.0191
    1.590   12.7602
    1.620   12.5601
    1.650   12.1424
    1.680   12.1792
    1.710   11.7536
    1.740   11.8053
    1.770   11.7193
    1.800   11.3744
    1.830   11.1269
    1.860   11.0391
    1.890   10.9865
    1.920   10.8074
    1.950   10.5714
    1.980   10.5327
    2.010   10.2887
    2.040   10.2694
    2.070   10.1659
    2.100   10.1281
    2.130    9.9394
    2.160   10.0105
    2.190    9.8429
    2.220    9.6726
    2.250    9.5515
    2.280    9.4638
    2.310    9.5226
    2.340    9.4146
    2.370    9.2672
    2.400    9.1250
    2.430    9.1417
    2.460    9.2856
    2.490    9.1285
    2.520    9.0618
    2.550    9.1153
    2.580    8.9459
    2.610    8.9064
    2.640    8.7818
    2.670    8.8196
    2.700    8.8239
    2.730    8.7327
    2.760    8.7590
    2.790    8.6721
    2.820    8.6361
    2.850    8.7318
    2.880    8.5729
    2.910    8.5817
    2.940    8.5993
    2.970    8.7019
    3.000    8.6519
    3.030    8.6098
    3.060    8.6265
    3.090    8.6238
    3.120    8.7467
    3.150    8.6133
    3.180    8.6818
    3.210    8.8204
    3.240    8.7186
    3.270    8.9635
    3.300    8.8511
    3.330    8.9433
    3.360    9.1338
    3.390    9.3795
    3.420    9.5331
    3.450    9.7569
    3.480   10.0395
    3.510   10.3493
    3.540   10.5468
    3.570   10.9988
    3.600   11.5561
    3.630   12.3635
    3.660   13.0814
    3.690   14.4023
    3.720   16.1883
    3.750   18.2824
    3.780   19.5664
    3.810   17.3232
    3.840   13.3105
    3.870   10.1387
    3.900    9.1373
    3.930    8.7783
    3.960    8.5027
    3.990    8.4106
    4.020    8.3254
    4.050    8.3412
    4.080    8.2500
    4.110    8.2579
    4.140    8.2886
    4.170    8.3553
    4.200    8.3184
    4.230    8.3263
    4.260    8.2438
    4.290    8.1683
    4.320    8.1850
    4.350    8.2052
    4.380    8.2421
    4.410    8.2447
    4.440    8.2930
    4.470    8.2833
    4.500    8.2859
    4.530    8.1824
    4.560    8.1885
    4.590    8.2938
    4.620    8.3597
    4.650    8.3851
    4.680    8.3088
    4.710    8.5650
    4.740    8.3869
    4.770    8.5089
    4.800    8.5563
    4.830    8.6238
    4.860    8.6546
    4.890    8.7046
    4.920    8.7441
    4.950    8.8239
    4.980    8.9705
    5.010    8.9521
    5.040    9.1399
    5.070    9.3286
    5.100    9.5164
    5.130    9.5120
    5.160    9.7806
    5.190    9.9254
    5.220   10.1027
    5.250   10.3748
    5.280   10.6082
    5.310   10.7688
    5.340   11.1190
    5.370   11.4095
    5.400   11.4227
    5.430   11.3806
    5.460   11.2199
    5.490   11.1524
    5.520   11.0119
    5.550   10.9163
    5.580   10.8847
    5.610   10.9312
    5.640   10.6714
    5.670   10.6038
    5.700   10.2817
    5.730   10.1869
    5.760   10.1483
    5.790    9.8350
    5.820    9.4989
    5.850    9.4067
    5.880    9.2470
    5.910    9.1092
    5.940    8.9635
    5.970    8.8933
    6.000    8.7994
    6.030    8.5958
    6.060    8.4176
    6.090    8.5396
    6.120    8.3272
    6.150    8.3035
    6.180    8.2605
    6.210    8.1745
    6.240    8.0893
    6.270    8.1438
    6.300    7.9910
    6.330    7.8989
    6.360    7.8770
    6.390    7.9314
    6.420    7.8471
    6.450    7.8296
    6.480    7.8392
    6.510    7.7874
    6.540    7.8076
    6.570    7.7532
    6.600    7.9103
    6.630    7.6303
    6.660    7.5145
    6.690    7.3626
    6.720    7.2643
    6.750    7.2810
    6.780    7.1432
    6.810    7.1108
    6.840    7.1108
    6.870    7.0169
    6.900    7.0730
    6.930    7.1081
    6.960    7.0774
    6.990    6.8352
    7.020    6.8369
    7.050    6.7799
    7.080    6.6649
    7.110    6.6702
    7.140    6.6412
    7.170    6.5517
    7.200    6.5833
    7.230    6.5061
    7.260    6.5148
    7.290    6.4683
    7.320    6.3911
    7.350    6.2954
    7.380    6.3007
    7.410    6.2191
    7.440    6.2673
    7.470    6.2050
    7.500    6.2410
    7.530    6.1778
    7.560    6.2164
    7.590    6.2164
    7.620    6.2577
    7.650    6.1585
    7.680    6.1304
    7.710    5.9022
    7.740    5.8952
    7.770    5.7565
    7.800    5.7644
    7.830    5.7293
    7.860    5.7934
    7.890    5.7083
    7.920    5.7206
    7.950    5.5556
    7.980    5.5994
    8.010    5.6539
    8.040    5.6468
    8.070    5.6591
    8.100    5.6389
    8.130    5.5635
    8.160    5.5336
    8.190    5.5327
    8.220    5.4985
    8.250    5.3704
    8.280    5.4862
    8.310    5.5266
    8.340    5.4186
    8.370    5.4941
    8.400    5.3625
    8.430    5.4616
    8.460    5.4792
    8.490    5.4704
    8.520    5.5477
    8.550    5.6126
    8.580    5.4257
    8.610    5.2519
    8.640    5.2721
    8.670    5.2835
    8.700    5.2414
    8.730    5.3423
    8.760    5.2659
    8.790    5.1176
    8.820    5.2273
    8.850    5.2115
    8.880    5.1957
    8.910    5.0939
    8.940    5.1676
    8.970    5.0851
    9.000    5.1202
    9.030    5.1369
    9.060    5.1115
    9.090    5.1360
    9.120    5.1773
    9.150    5.0623
    9.180    5.0807
    9.210    5.1650
    9.240    5.1790
    9.270    5.2817
    9.300    5.3923
    9.330    5.3695
    9.360    5.3247
    9.390    5.3072
    9.420    5.1940
    9.450    5.2203
    9.480    5.1018
    9.510    5.1624
    9.540    5.0035
    9.570    5.1167
    9.600    5.1018
    9.630    5.0974
    9.660    4.9903
    9.690    5.1036
    9.720    5.1378
    9.750    5.1220
    9.780    5.0649
    9.810    5.1764
    9.840    5.1510
    9.870    5.0702
    9.900    5.0930
    9.930    5.1773
    9.960    5.2194
    9.990    5.1887
   10.020    5.2782
   10.050    5.3133
   10.080    5.4020
   10.110    5.4783
   10.140    5.4344
   10.170    5.3089
   10.200    5.3054
   10.230    5.1413
   10.260    5.2027
   10.290    5.1940
   10.320    5.1641
   10.350    5.0869
   10.380    5.1966
   10.410    5.2510
   10.440    5.2475
   10.470    5.2335
   10.500    5.2940
   10.530    5.3186
   10.560    5.3546
   10.590    5.3423
   10.620    5.3045
   10.650    5.3203
   10.680    5.4467
   10.710    5.3633
   10.740    5.3546
   10.770    5.4748
   10.800    5.5845
   10.830    5.4950
   10.860    5.5714
   10.890    5.4046
   10.920    5.4985
   10.950    5.4695
   10.980    5.5380
   11.010    5.4862
   11.040    5.4160
   11.070    5.5336
   11.100    5.3941
   11.130    5.3993
   11.160    5.4257
   11.190    5.3107
   11.220    5.4669
   11.250    5.3914
   11.280    5.3326
   11.310    5.3221
   11.340    5.4134
   11.370    5.2817
   11.400    5.3519
   11.430    5.4257
   11.460    5.4318
   11.490    5.4283
   11.520    5.3660
   11.550    5.3511
   11.580    5.3081
   11.610    5.2721
   11.640    5.2027
   11.670    5.3002
   11.700    5.2273
   11.730    5.1641
   11.760    5.1931
   11.790    5.2694
   11.820    5.2317
   11.850    5.1457
   11.880    5.1729
   11.910    5.1694
   11.940    5.2177
   11.970    5.2264
   12.000    5.1518
   12.030    5.2352
   12.060    5.2923
   12.090    5.2185
   12.120    5.2923
   12.150    5.1597
   12.180    5.1606
   12.210    5.1053
   12.240    5.0351
   12.270    4.9947
   12.300    4.9807
   12.330    5.0606
   12.360    5.0518
   12.390    5.0790
   12.420    5.0044
   12.450    5.0632
   12.480    4.9403
   12.510    5.0140
   12.540    4.9956
   12.570    5.0614
   12.600    5.0088
   12.630    4.9956
   12.660    5.1141
   12.690    4.9982
   12.720    5.0140
   12.750    4.9956
   12.780    4.9456
   12.810    4.9544
   12.840    4.8569
   12.870    4.8543
   12.900    4.9140
   12.930    4.8113
   12.960    4.7815
   12.990    4.9087
   13.020    4.8833
   13.050    4.8262
   13.080    4.8297
   13.110    4.8359
   13.140    4.9105
   13.170    4.8113
   13.200    4.9710
   13.230    4.8991
   13.260    4.8666
   13.290    4.8534
   13.320    4.9851
   13.350    4.8605
   13.380    4.8411
   13.410    4.8929
   13.440    4.8104
   13.470    4.8912
   13.500    4.9833
   13.530    4.9359
   13.560    4.9175
   13.590    5.0018
   13.620    4.9394
   13.650    4.9535
   13.680    4.9737
   13.710    4.9649
   13.740    5.0237
   13.770    5.0500
   13.800    5.0474
   13.830    5.1869
   13.860    5.0412
   13.890    5.0176
   13.920    5.0895
   13.950    5.1062
   13.980    4.9710
   14.010    5.1668
   14.040    5.0184
   14.070    5.1220
   14.100    5.0641
   14.130    5.2089
   14.160    5.3010
   14.190    5.2545
   14.220    5.2466
   14.250    5.2914
   14.280    5.2826
   14.310    5.3063
   14.340    5.3721
   14.370    5.3300
   14.400    5.2879
   14.430    5.3976
   14.460    5.4230
   14.490    5.3256
   14.520    5.3186
   14.550    5.3326
   14.580    5.3958
   14.610    5.3633
   14.640    5.1878
   14.670    5.2291
   14.700    5.2326
   14.730    5.1843
   14.760    5.2273
   14.790    5.1738
   14.820    5.1668
   14.850    5.2493
   14.880    4.9956
   14.910    5.0149
   14.940    4.9877
   14.970    4.9096
   15.000    4.8859
   15.030    4.9166
   15.060    4.9772
   15.090    4.8315
   15.120    4.8877
   15.150    4.8789
   15.180    4.7973
   15.210    4.8464
   15.240    4.8368
   15.270    4.8104
   15.300    4.8464
   15.330    4.8218
   15.360    4.7876
   15.390    4.8245
   15.420    4.9412
   15.450    4.8201
   15.480    4.7885
   15.510    4.8236
   15.540    4.7867
   15.570    4.7121
   15.600    4.8613
   15.630    4.8411
   15.660    4.7867
   15.690    4.7902
   15.720    4.8736
   15.750    4.8789
   15.780    4.9421
   15.810    4.8192
   15.840    4.8385
   15.870    4.9649
   15.900    4.9061
   15.930    4.8113
   15.960    4.9228
   15.990    4.8034
   16.020    4.8447
   16.050    4.9351
   16.080    4.8587
   16.110    4.8368
   16.140    4.7771
   16.170    4.7973
   16.200    4.7314
   16.230    4.8473
   16.260    4.8508
   16.290    4.8648
   16.320    4.7209
   16.350    4.8253
   16.380    4.8025
   16.410    4.8052
   16.440    4.8148
   16.470    4.8043
   16.500    4.8692
   16.530    4.8201
   16.560    4.8069
   16.590    4.8473
   16.620    4.8262
   16.650    4.7209
   16.680    4.7841
   16.710    4.8122
   16.740    4.7867
   16.770    4.7674
   16.800    4.7183
   16.830    4.7823
   16.860    4.7841
   16.890    4.7543
   16.920    4.7578
   16.950    4.7595
   16.980    4.7894
   17.010    4.7665
   17.040    4.7499
   17.070    4.7218
   17.100    4.6568
   17.130    4.7885
   17.160    4.7376
   17.190    4.7446
   17.220    4.7156
   17.250    4.7639
   17.280    4.6375
   17.310    4.6261
   17.340    4.7867
   17.370    4.7516
   17.400    4.6639
   17.430    4.7209
   17.460    4.6919
   17.490    4.7595
   17.520    4.6665
   17.550    4.7367
   17.580    4.6340
   17.610    4.7525
   17.640    4.7314
   17.670    4.6024
   17.700    4.7393
   17.730    4.6314
   17.760    4.6384
   17.790    4.6867
   17.820    4.5717
   17.850    4.6542
   17.880    4.5735
   17.910    4.7455
   17.940    4.7113
   17.970    4.6384
   18.000    4.7411
   18.030    4.6419
   18.060    4.6235
   18.090    4.6718
   18.120    4.6349
   18.150    4.6928
   18.180    4.6428
   18.210    4.6296
   18.240    4.6323
   18.270    4.6542
   18.300    4.6270
   18.330    4.5682
   18.360    4.6209
   18.390    4.6639
   18.420    4.5840
   18.450    4.7551
   18.480    4.7797
   18.510    4.6586
   18.540    4.7060
   18.570    4.6340
   18.600    4.6647
   18.630    4.6393
   18.660    4.6463
   18.690    4.6410
   18.720    4.6445
   18.750    4.6200
   18.780    4.6867
   18.810    4.6173
   18.840    4.5717
   18.870    4.4769
   18.900    4.4883
   18.930    4.6323
   18.960    4.5542
   18.990    4.6919
   19.020    4.5840
   19.050    4.5384
   19.080    4.5296
   19.110    4.4427
   19.140    4.5893
   19.170    4.6165
   19.200    4.5217
   19.230    4.6402
   19.260    4.6384
   19.290    4.4769
   19.320    4.5155
   19.350    4.5226
   19.380    4.4322
   19.410    4.5208
   19.440    4.4488
   19.470    4.4137
   19.500    4.5331
   19.530    4.4989
   19.560    4.5129
   19.590    4.4559
   19.620    4.4497
   19.650    4.4436
   19.680    4.4629
   19.710    4.4918
   19.740    4.4918
   19.770    4.4927
   19.800    4.3663
   19.830    4.3189
   19.860    4.4032
   19.890    4.4032
   19.920    4.3286
   19.950    4.4409
   19.980    4.3655
   20.010    4.3479
   20.040    4.3453
   20.070    4.3707
   20.100    4.3874
   20.130    4.3303
   20.160    4.3093
   20.190    4.2382
   20.220    4.2707
   20.250    4.2013
   20.280    4.3426
   20.310    4.2435
   20.340    4.2557
   20.370    4.2988
   20.400    4.3453
   20.430    4.2663
   20.460    4.2057
   20.490    4.2768
   20.520    4.2514
   20.550    4.2268
   20.580    4.2312
   20.610    4.2812
   20.640    4.2628
   20.670    4.1811
   20.700    4.2215
   20.730    4.3014
   20.760    4.2584
   20.790    4.2198
   20.820    4.0583
   20.850    4.2847
   20.880    4.2215
   20.910    4.2522
   20.940    4.1969
   20.970    4.2452
   21.000    4.1267
   21.030    4.1162
   21.060    4.1346
   21.090    4.1961
   21.120    4.1267
   21.150    4.2101
   21.180    4.1355
   21.210    4.2522
   21.240    4.0916
   21.270    4.1057
   21.300    4.1776
   21.330    4.1969
   21.360    4.1969
   21.390    4.2487
   21.420    4.1390
   21.450    4.2478
   21.480    4.1847
   21.510    4.2312
   21.540    4.2452
   21.570    4.1522
   21.600    4.0829
   21.630    4.1346
   21.660    4.1153
   21.690    4.1504
   21.720    4.1811
   21.750    4.1750
   21.780    4.2242
   21.810    4.1022
   21.840    4.1627
   21.870    4.0820
   21.900    4.0969
   21.930    4.1715
   21.960    4.0671
   21.990    4.1496
   22.020    4.1065
   22.050    4.1153
   22.080    4.0416
   22.110    4.0758
   22.140    4.1057
   22.170    4.0662
   22.200    3.9889
   22.230    4.0469
   22.260    3.9644
   22.290    4.0091
   22.320    4.0065
   22.350    4.0741
   22.380    4.0328
   22.410    3.9696
   22.440    3.9951
   22.470    4.0126
   22.500    3.9986
   22.530    3.9661
   22.560    3.9275
   22.590    3.9240
   22.620    3.9266
   22.650    3.8889
   22.680    3.8310
   22.710    3.8784
   22.740    3.8634
   22.770    3.8740
   22.800    3.8266
   22.830    3.9451
   22.860    3.8748
   22.890    3.9038
   22.920    3.8038
   22.950    3.8538
   22.980    3.8239
   23.010    3.8064
   23.040    3.9108
   23.070    3.7853
   23.100    3.8538
   23.130    3.7853
   23.160    3.7774
   23.190    3.7511
   23.220    3.7239
   23.250    3.8046
   23.280    3.8459
   23.310    3.7292
   23.340    3.7669
   23.370    3.9187
   23.400    3.8099
   23.430    3.7537
   23.460    3.7388
   23.490    3.7581
   23.520    3.7213
   23.550    3.7722
   23.580    3.8038
   23.610    3.6923
   23.640    3.6581
   23.670    3.7757
   23.700    3.7037
   23.730    3.6440
   23.760    3.6800
   23.790    3.7081
   23.820    3.6923
   23.850    3.6414
   23.880    3.7414
   23.910    3.6510
   23.940    3.7019
   23.970    3.6905
   24.000    3.6475
   24.030    3.6098
   24.060    3.5659
   24.090    3.5843
   24.120    3.5764
   24.150    3.6835
   24.180    3.6115
   24.210    3.6256
   24.240    3.5071
   24.270    3.6230
   24.300    3.5598
   24.330    3.5738
   24.360    3.5448
   24.390    3.6054
   24.420    3.6475
   24.450    3.4904
   24.480    3.5633
   24.510    3.5782
   24.540    3.4694
   24.570    3.5782
   24.600    3.5352
   24.630    3.5317
   24.660    3.5817
   24.690    3.5299
   24.720    3.4869
   24.750    3.4641
   24.780    3.5036
   24.810    3.5633
   24.840    3.6080
   24.870    3.5106
   24.900    3.4966
   24.930    3.4834
   24.960    3.5045
   24.990    3.4790
   25.020    3.4299
   25.050    3.4694
   25.080    3.5089
   25.110    3.6326
   25.140    3.4501
   25.170    3.5510
   25.200    3.4939
   25.230    3.5185
   25.260    3.4825
   25.290    3.5150
   25.320    3.5536
   25.350    3.5001
   25.380    3.4422
   25.410    3.4588
   25.440    3.5624
   25.470    3.5650
   25.500    3.5212
   25.530    3.3509
   25.560    3.4308
   25.590    3.4817
   25.620    3.4027
   25.650    3.4167
   25.680    3.3974
   25.710    3.4615
   25.740    3.3289
   25.770    3.3632
   25.800    3.4158
   25.830    3.4308
   25.860    3.3904
   25.890    3.5080
   25.920    3.4457
   25.950    3.3325
   25.980    3.4509
   26.010    3.4229
   26.040    3.3500
   26.070    3.3237
   26.100    3.3921
   26.130    3.3167
   26.160    3.3746
   26.190    3.3623
   26.220    3.3834
   26.250    3.3210
   26.280    3.2508
   26.310    3.3202
   26.340    3.3325
   26.370    3.2895
   26.400    3.2912
   26.430    3.3281
   26.460    3.2412
   26.490    3.2412
   26.520    3.2798
   26.550    3.1683
   26.580    3.2368
   26.610    3.2385
   26.640    3.2912
   26.670    3.2675
   26.700    3.2096
   26.730    3.1455
   26.760    3.2324
   26.790    3.2210
   26.820    3.2175
   26.850    3.1868
   26.880    3.2148
   26.910    3.1385
   26.940    3.1288
   26.970    3.0700
   27.000    3.1964
   27.030    3.1192
   27.060    3.1587
   27.090    3.1525
   27.120    3.1569
   27.150    3.1402
   27.180    3.1473
   27.210    3.0858
   27.240    3.0964
   27.270    3.0893
   27.300    3.0981
   27.330    3.0481
   27.360    3.0832
   27.390    3.0130
   27.420    3.0033
   27.450    2.9630
   27.480    3.0841
   27.510    3.0595
   27.540    3.0762
   27.570    3.0700
   27.600    3.0235
   27.630    3.0086
   27.660    3.0121
   27.690    2.9472
   27.720    3.0384
   27.750    2.9875
   27.780    2.9735
   27.810    2.9700
   27.840    2.9665
   27.870    3.0060
   27.900    2.9507
   27.930    2.8831
   27.960    2.9998
   27.990    2.9709
   28.020    2.9252
   28.050    2.9595
   28.080    2.9796
   28.110    2.9322
   28.140    2.9314
   28.170    2.9270
   28.200    2.9235
   28.230    2.9919
   28.260    2.8752
   28.290    2.8691
   28.320    2.8770
   28.350    2.8822
   28.380    2.8954
   28.410    2.9463
   28.440    2.8998
   28.470    2.8840
   28.500    2.8620
   28.530    2.8989
   28.560    2.9542
   28.590    2.9173
   28.620    2.8857
   28.650    2.9305
   28.680    2.9410
   28.710    2.9121
   28.740    2.9919
   28.770    2.9129
   28.800    2.8971
   28.830    2.9577
   28.860    2.9937
   28.890    2.9831
   28.920    2.9542
   28.950    2.9595
   28.980    3.0209
   29.010    2.9454
   29.040    2.9112
   29.070    2.9507
   29.100    2.8682
   29.130    2.9129
   29.160    2.9454
   29.190    2.7725
   29.220    2.8945
   29.250    2.8963
   29.280    2.7699
   29.310    2.7936
   29.340    2.7506
   29.370    2.7804
   29.400    2.7313
   29.430    2.7076
   29.460    2.6830
   29.490    2.6891
   29.520    2.6532
   29.550    2.6137
   29.580    2.5996
   29.610    2.6330
   29.640    2.5996
   29.670    2.5821
   29.700    2.5724
   29.730    2.6628
   29.760    2.6207
   29.790    2.6022
   29.820    2.5935
   29.850    2.5557
   29.880    2.5162
   29.910    2.5487
   29.940    2.5364
   29.970    2.5987
   30.000    2.5136
   30.030    2.5118
   30.060    2.4583
   30.090    2.5724
   30.120    2.4882
   30.150    2.4794
   30.180    2.5127
   30.210    2.5724
   30.240    2.5197
   30.270    2.5303
   30.300    2.5022
   30.330    2.4750
   30.360    2.5048
   30.390    2.4136
   30.420    2.5224
   30.450    2.4741
   30.480    2.4724
   30.510    2.4416
   30.540    2.4566
   30.570    2.4776
   30.600    2.4627
   30.630    2.4539
   30.660    2.4697
   30.690    2.4522
   30.720    2.3828
   30.750    2.4785
   30.780    2.4706
   30.810    2.3978
   30.840    2.3732
   30.870    2.4583
   30.900    2.4434
   30.930    2.4021
   30.960    2.4179
   30.990    2.3662
   31.020    2.3556
   31.050    2.4083
   31.080    2.3468
   31.110    2.2907
   31.140    2.3363
   31.170    2.2924
   31.200    2.3214
   31.230    2.2670
   31.260    2.2959
   31.290    2.3311
   31.320    2.2608
   31.350    2.3196
   31.380    2.2749
   31.410    2.2565
   31.440    2.2529
   31.470    2.2740
   31.500    2.2968
   31.530    2.2933
   31.560    2.2442
   31.590    2.2565
   31.620    2.3126
   31.650    2.2565
   31.680    2.3170
   31.710    2.2336
   31.740    2.1968
   31.770    2.2512
   31.800    2.2459
   31.830    2.2529
   31.860    2.1292
   31.890    2.1924
   31.920    2.1959
   31.950    2.2240
   31.980    2.2354
   32.010    2.1617
   32.040    2.1722
   32.070    2.1678
   32.100    2.2038
   32.130    2.1582
   32.160    2.1959
   32.190    2.2082
   32.220    2.1643
   32.250    2.1678
   32.280    2.1476
   32.310    2.1151
   32.340    2.1696
   32.370    2.2020
   32.400    2.1090
   32.430    2.0958
   32.460    2.1371
   32.490    2.1941
   32.520    2.0958
   32.550    2.1669
   32.580    2.1213
   32.610    2.2003
   32.640    2.1283
   32.670    2.1450
   32.700    2.1792
   32.730    2.1301
   32.760    2.1292
   32.790    2.1327
   32.820    2.0844
   32.850    2.0555
   32.880    2.1380
   32.910    2.1792
   32.940    2.1002
   32.970    2.1037
   33.000    2.1345
   33.030    2.0441
   33.060    2.0950
   33.090    2.0748
   33.120    2.1318
   33.150    2.1064
   33.180    2.1055
   33.210    2.0897
   33.240    2.0985
   33.270    2.0651
   33.300    2.0405
   33.330    2.0493
   33.360    2.0265
   33.390    2.0520
   33.420    2.0581
   33.450    2.0090
   33.480    2.0379
   33.510    2.0072
   33.540    2.0484
   33.570    2.0142
   33.600    2.0449
   33.630    2.0660
   33.660    2.0160
   33.690    2.0511
   33.720    1.9747
   33.750    2.0204
   33.780    2.0283
   33.810    2.0142
   33.840    2.0265
   33.870    1.9800
   33.900    2.0335
   33.930    2.0660
   33.960    2.0054
   33.990    2.0704
   34.020    1.9870
   34.050    1.9800
   34.080    1.9335
   34.110    1.9537
   34.140    1.9861
   34.170    2.0555
   34.200    2.0054
   34.230    1.9853
   34.260    1.9826
   34.290    2.0011
   34.320    1.9607
   34.350    1.9659
   34.380    1.9870
   34.410    1.9870
   34.440    2.0414
   34.470    1.9580
   34.500    2.0888
   34.530    1.9071
   34.560    1.9826
   34.590    1.9905
   34.620    1.9730
   34.650    1.9624
   34.680    2.0046
   34.710    1.9317
   34.740    1.9624
   34.770    1.9659
   34.800    2.0098
   34.830    1.9642
   34.860    1.9879
   34.890    1.9466
   34.920    1.9370
   34.950    1.9493
   34.980    1.9563
   35.010    1.9414
   35.040    1.9624
   35.070    1.9458
   35.100    1.9071
   35.130    2.0318
   35.160    1.8975
   35.190    1.9265
   35.220    1.9423
   35.250    1.9212
   35.280    1.9651
   35.310    1.8782
   35.340    1.9265
   35.370    1.9238
   35.400    1.9703
   35.430    1.9440
   35.460    1.8870
   35.490    1.9765
   35.520    1.9019
   35.550    1.9545
   35.580    1.9493
   35.610    1.8878
   35.640    1.9405
   35.670    1.8992
   35.700    1.9554
   35.730    1.9817
   35.760    1.8773
   35.790    1.9071
   35.820    1.9905
   35.850    1.9159
   35.880    1.9001
   35.910    1.9001
   35.940    1.9677
   35.970    1.8913
   36.000    1.9572
   36.030    1.8940
   36.060    1.9431
   36.090    1.9159
   36.120    1.9721
   36.150    1.8878
   36.180    1.9379
   36.210    1.8966
   36.240    1.9273
   36.270    1.9528
   36.300    1.9177
   36.330    1.9554
   36.360    1.8799
   36.390    1.9458
   36.420    1.9159
   36.450    1.9194
   36.480    1.9229
   36.510    1.9352
   36.540    1.8519
   36.570    1.8404
   36.600    1.9607
   36.630    1.9256
   36.660    1.9405
   36.690    1.8878
   36.720    1.8940
   36.750    1.8940
   36.780    1.9221
   36.810    1.9159
   36.840    1.9431
   36.870    1.9115
   36.900    1.8834
   36.930    1.8791
   36.960    1.8255
   36.990    1.8299
   37.020    1.8940
   37.050    1.8185
   37.080    1.8317
   37.110    1.8396
   37.140    1.8712
   37.170    1.7878
   37.200    1.8422
   37.230    1.8817
   37.260    1.8843
   37.290    1.8387
   37.320    1.7957
   37.350    1.8685
   37.380    1.8238
   37.410    1.8404
   37.440    1.7966
   37.470    1.7720
   37.500    1.8124
   37.530    1.8325
   37.560    1.8887
   37.590    1.8325
   37.620    1.8229
   37.650    1.8738
   37.680    1.7755
   37.710    1.8440
   37.740    1.9142
   37.770    1.8396
   37.800    1.8001
   37.830    1.8501
   37.860    1.7746
   37.890    1.8852
   37.920    1.8282
   37.950    1.8036
   37.980    1.8080
   38.010    1.8554
   38.040    1.8176
   38.070    1.8255
   38.100    1.8124
   38.130    1.7623
   38.160    1.7790
   38.190    1.8527
   38.220    1.7764
   38.250    1.7658
   38.280    1.8466
   38.310    1.8492
   38.340    1.7579
   38.370    1.7509
   38.400    1.7860
   38.430    1.7790
   38.460    1.7351
   38.490    1.7623
   38.520    1.8071
   38.550    1.7869
   38.580    1.8009
   38.610    1.7597
   38.640    1.8238
   38.670    1.7483
   38.700    1.8185
   38.730    1.7553
   38.760    1.7948
   38.790    1.8246
   38.820    1.7755
   38.850    1.7562
   38.880    1.8097
   38.910    1.8290
   38.940    1.8106
   38.970    1.7299
   39.000    1.8088
   39.030    1.8001
   39.060    1.8255
   39.090    1.8185
   39.120    1.7448
   39.150    1.7711
   39.180    1.7255
   39.210    1.7281
   39.240    1.7764
   39.270    1.8053
   39.300    1.7571
   39.330    1.7492
   39.360    1.7465
   39.390    1.7615
   39.420    1.8097
   39.450    1.7079
   39.480    1.7062
   39.510    1.7325
   39.540    1.6956
   39.570    1.7474
   39.600    1.7000
   39.630    1.7141
   39.660    1.7211
   39.690    1.6833
   39.720    1.7448
   39.750    1.7421
   39.780    1.7070
   39.810    1.7474
   39.840    1.6816
   39.870    1.7685
   39.900    1.7281
   39.930    1.6702
   39.960    1.7667
   39.990    1.7360