File: data/MOCOF-1/PXRD/PXRD_KE-181_Cu-Ka1_capillary-1mm_5s-deg.xyd
    1.500   19.9789
    1.530   19.7788
    1.560   19.3576
    1.590   18.0516
    1.620   17.1564
    1.650   17.0195
    1.680   16.2401
    1.710   16.0927
    1.740   14.6603
    1.770   15.2291
    1.800   14.2075
    1.830   14.1864
    1.860   14.1127
    1.890   13.1227
    1.920   12.7857
    1.950   13.4492
    1.980   12.0274
    2.010   11.6377
    2.040   11.9221
    2.070   11.6693
    2.100   11.3428
    2.130   10.8794
    2.160   10.7109
    2.190   10.0263
    2.220   10.0895
    2.250    9.8578
    2.280    9.9737
    2.310    9.9947
    2.340    9.1838
    2.370    9.3944
    2.400    9.1732
    2.430    8.8678
    2.460    9.0679
    2.490    8.6467
    2.520    8.4255
    2.550    8.1938
    2.580    8.2254
    2.610    8.1938
    2.640    8.1727
    2.670    7.9410
    2.700    8.3623
    2.730    7.8673
    2.760    8.2991
    2.790    8.3939
    2.820    7.7304
    2.850    7.6988
    2.880    8.2886
    2.910    8.4255
    2.940    8.1201
    2.970    8.4992
    3.000    8.6572
    3.030    9.0153
    3.060    9.2364
    3.090    9.4365
    3.120    9.9947
    3.150   10.5635
    3.180   11.4692
    3.210   11.9326
    3.240   12.8278
    3.270   13.9758
    3.300   15.9874
    3.330   17.1669
    3.360   19.1890
    3.390   21.8536
    3.420   24.5076
    3.450   26.3612
    3.480   30.0158
    3.510   34.5550
    3.540   39.2838
    3.570   44.7077
    3.600   51.3112
    3.630   58.9784
    3.660   68.2359
    3.690   79.6419
    3.720   95.3976
    3.750  115.5134
    3.780  142.0432
    3.810  180.7056
    3.840  246.1822
    3.870  335.1027
    3.900  347.4355
    3.930  228.0569
    3.960   59.5998
    3.990   16.1559
    4.020   11.0585
    4.050    8.9205
    4.080    7.6883
    4.110    7.0774
    4.140    6.7825
    4.170    6.2665
    4.200    5.6451
    4.230    5.8241
    4.260    5.7399
    4.290    6.0874
    4.320    5.6767
    4.350    5.3081
    4.380    5.0658
    4.410    5.0869
    4.440    5.0342
    4.470    4.9816
    4.500    5.0132
    4.530    4.5287
    4.560    5.1922
    4.590    5.1185
    4.620    5.0658
    4.650    5.0658
    4.680    4.7604
    4.710    5.2659
    4.740    5.1501
    4.770    4.7815
    4.800    4.8552
    4.830    5.1395
    4.860    4.9078
    4.890    4.6867
    4.920    4.5287
    4.950    5.0764
    4.980    5.2449
    5.010    5.2659
    5.040    5.2870
    5.070    5.5082
    5.100    6.0874
    5.130    6.1822
    5.160    7.3828
    5.190    7.1406
    5.220    8.3728
    5.250    9.1838
    5.280   10.5108
    5.310   10.9426
    5.340   13.6809
    5.370   16.1348
    5.400   19.7683
    5.430   24.5814
    5.460   32.4065
    5.490   45.2449
    5.520   48.0358
    5.550   34.8710
    5.580   14.0390
    5.610    5.9189
    5.640    5.3712
    5.670    5.0764
    5.700    4.5182
    5.730    4.8341
    5.760    4.5919
    5.790    4.6972
    5.820    4.2022
    5.850    4.2233
    5.880    4.3497
    5.910    4.5076
    5.940    4.2443
    5.970    4.3813
    6.000    4.6656
    6.030    4.3391
    6.060    4.3813
    6.090    4.1074
    6.120    4.3497
    6.150    4.2338
    6.180    4.3286
    6.210    4.1285
    6.240    4.4234
    6.270    4.2759
    6.300    4.1496
    6.330    4.5182
    6.360    4.7604
    6.390    4.3918
    6.420    4.4866
    6.450    4.1917
    6.480    4.1390
    6.510    4.4128
    6.540    4.4023
    6.570    4.5814
    6.600    4.6972
    6.630    4.7499
    6.660    5.0764
    6.690    5.0974
    6.720    5.5503
    6.750    6.3296
    6.780    6.0242
    6.810    5.3607
    6.840    4.8025
    6.870    4.2127
    6.900    4.2654
    6.930    4.4339
    6.960    3.9810
    6.990    4.2654
    7.020    4.4550
    7.050    4.1706
    7.080    4.2443
    7.110    4.3286
    7.140    4.3391
    7.170    4.3497
    7.200    4.3813
    7.230    4.2127
    7.260    4.2865
    7.290    4.0021
    7.320    4.3918
    7.350    4.3497
    7.380    4.4023
    7.410    4.3181
    7.440    4.4234
    7.470    4.4866
    7.500    4.7604
    7.530    5.0658
    7.560    5.3186
    7.590    5.5924
    7.620    5.9505
    7.650    7.1617
    7.680    7.5619
    7.710    9.0995
    7.740   11.8378
    7.770   16.3454
    7.800   19.7578
    7.830   18.7678
    7.860   12.3433
    7.890    6.4350
    7.920    4.6445
    7.950    4.3602
    7.980    4.7604
    8.010    4.1180
    8.040    4.2233
    8.070    3.7072
    8.100    4.1706
    8.130    4.4339
    8.160    4.1811
    8.190    4.0126
    8.220    3.8336
    8.250    4.2338
    8.280    4.0653
    8.310    4.1390
    8.340    4.4234
    8.370    4.0548
    8.400    4.3918
    8.430    4.0758
    8.460    4.0758
    8.490    4.3286
    8.520    4.3181
    8.550    4.5603
    8.580    4.6551
    8.610    4.6235
    8.640    5.1395
    8.670    5.3923
    8.700    5.8452
    8.730    7.4355
    8.760    6.7930
    8.790    5.4450
    8.820    3.9389
    8.850    4.3497
    8.880    4.0969
    8.910    4.4128
    8.940    3.8863
    8.970    3.9179
    9.000    4.1917
    9.030    3.8125
    9.060    4.0548
    9.090    4.3075
    9.120    3.9916
    9.150    4.3813
    9.180    4.0442
    9.210    4.0653
    9.240    4.2654
    9.270    4.3602
    9.300    4.5392
    9.330    4.6130
    9.360    5.1395
    9.390    5.4871
    9.420    5.8031
    9.450    7.4776
    9.480    9.3839
    9.510   12.1538
    9.540   17.1248
    9.570   22.2222
    9.600   20.2633
    9.630   12.9226
    9.660    6.2770
    9.690    4.4339
    9.720    4.4655
    9.750    4.0021
    9.780    4.1285
    9.810    3.8863
    9.840    4.0758
    9.870    3.8547
    9.900    3.9494
    9.930    3.8231
    9.960    4.3075
    9.990    4.2654
   10.020    4.0758
   10.050    4.3181
   10.080    4.1706
   10.110    4.2127
   10.140    4.1706
   10.170    4.5392
   10.200    4.6867
   10.230    5.4344
   10.260    5.7715
   10.290    7.7409
   10.320    9.1838
   10.350   10.7109
   10.380    9.1101
   10.410    6.3191
   10.440    4.6972
   10.470    4.2338
   10.500    4.5708
   10.530    4.1074
   10.560    3.8020
   10.590    4.1706
   10.620    3.8125
   10.650    3.8336
   10.680    4.3391
   10.710    3.6756
   10.740    4.2549
   10.770    4.1180
   10.800    4.0969
   10.830    4.1601
   10.860    4.2443
   10.890    4.5182
   10.920    5.0869
   10.950    5.5398
   10.980    6.3823
   11.010    8.3096
   11.040   10.5951
   11.070   12.2591
   11.100    9.9421
   11.130    6.8246
   11.160    4.5814
   11.190    4.3497
   11.220    3.8863
   11.250    3.8757
   11.280    3.9916
   11.310    3.9179
   11.340    3.9073
   11.370    4.0442
   11.400    3.8336
   11.430    3.3175
   11.460    3.9073
   11.490    4.0653
   11.520    4.1917
   11.550    3.9916
   11.580    4.4550
   11.610    4.8131
   11.640    5.1711
   11.670    7.1511
   11.700    9.0574
   11.730   11.3112
   11.760   11.2796
   11.790    8.2254
   11.820    5.2343
   11.850    4.1496
   11.880    3.9284
   11.910    3.8757
   11.940    4.2865
   11.970    3.9284
   12.000    3.4650
   12.030    3.7599
   12.060    3.8757
   12.090    3.8547
   12.120    3.8547
   12.150    3.8020
   12.180    3.8547
   12.210    3.9916
   12.240    3.9179
   12.270    3.9600
   12.300    4.2759
   12.330    4.6551
   12.360    5.6029
   12.390    5.6240
   12.420    4.5708
   12.450    4.0864
   12.480    3.9494
   12.510    3.8231
   12.540    3.7915
   12.570    3.6124
   12.600    3.6546
   12.630    3.7072
   12.660    4.1601
   12.690    3.8968
   12.720    3.8547
   12.750    3.9916
   12.780    3.8968
   12.810    3.8652
   12.840    3.9073
   12.870    4.3075
   12.900    5.4660
   12.930    6.6245
   12.960    7.9726
   12.990    9.6682
   13.020    8.1727
   13.050    5.9716
   13.080    4.0442
   13.110    3.8757
   13.140    3.7809
   13.170    3.8441
   13.200    3.9179
   13.230    3.4229
   13.260    3.7599
   13.290    3.8020
   13.320    3.7072
   13.350    3.9810
   13.380    3.6967
   13.410    4.2443
   13.440    4.1180
   13.470    4.3181
   13.500    5.1290
   13.530    6.1295
   13.560    6.7404
   13.590    6.8562
   13.620    5.1817
   13.650    4.2970
   13.680    3.5914
   13.710    3.6230
   13.740    3.7177
   13.770    3.8547
   13.800    3.4544
   13.830    3.5387
   13.860    3.9705
   13.890    3.8336
   13.920    3.8757
   13.950    3.8125
   13.980    3.8020
   14.010    4.3497
   14.040    4.7393
   14.070    5.4660
   14.100    6.5929
   14.130    7.9305
   14.160    7.4144
   14.190    5.7609
   14.220    4.1496
   14.250    3.9916
   14.280    3.7388
   14.310    3.8336
   14.340    3.6230
   14.370    3.7177
   14.400    3.6651
   14.430    3.6230
   14.460    3.7809
   14.490    3.9073
   14.520    3.3597
   14.550    3.7704
   14.580    3.8231
   14.610    3.5176
   14.640    3.7493
   14.670    3.4650
   14.700    3.3913
   14.730    3.6967
   14.760    4.0969
   14.790    3.7177
   14.820    3.9705
   14.850    3.5387
   14.880    3.6440
   14.910    3.9073
   14.940    3.6546
   14.970    3.6019
   15.000    4.0232
   15.030    3.7283
   15.060    3.8652
   15.090    3.9389
   15.120    4.6340
   15.150    4.9816
   15.180    5.3923
   15.210    5.4450
   15.240    4.8552
   15.270    4.3707
   15.300    3.7283
   15.330    3.7283
   15.360    3.5808
   15.390    3.3386
   15.420    3.9600
   15.450    3.6756
   15.480    3.7072
   15.510    3.6756
   15.540    3.5703
   15.570    3.6019
   15.600    3.8547
   15.630    3.6440
   15.660    3.7809
   15.690    3.7283
   15.720    3.4650
   15.750    4.0021
   15.780    3.3175
   15.810    3.5808
   15.840    3.6230
   15.870    3.5492
   15.900    3.5071
   15.930    3.8757
   15.960    3.7599
   15.990    3.8336
   16.020    3.6230
   16.050    4.2338
   16.080    4.1811
   16.110    4.5076
   16.140    5.0342
   16.170    5.0869
   16.200    5.0553
   16.230    4.7920
   16.260    3.9600
   16.290    3.5492
   16.320    3.8336
   16.350    3.7809
   16.380    4.1390
   16.410    3.8757
   16.440    3.7388
   16.470    3.8968
   16.500    3.5598
   16.530    3.9179
   16.560    4.2233
   16.590    4.8236
   16.620    5.7925
   16.650    5.9610
   16.680    5.0553
   16.710    4.7815
   16.740    4.2549
   16.770    3.5598
   16.800    3.8863
   16.830    3.7599
   16.860    3.4229
   16.890    4.0548
   16.920    3.8020
   16.950    3.6124
   16.980    4.1180
   17.010    4.3497
   17.040    5.3186
   17.070    5.5608
   17.100    6.9826
   17.130    7.0248
   17.160    5.9610
   17.190    4.6867
   17.220    3.9705
   17.250    3.5176
   17.280    3.6756
   17.310    3.5492
   17.340    3.7388
   17.370    3.4439
   17.400    3.7599
   17.430    3.9073
   17.460    3.8547
   17.490    3.9179
   17.520    4.1811
   17.550    4.1390
   17.580    4.4339
   17.610    4.3181
   17.640    3.7177
   17.670    3.5282
   17.700    3.6862
   17.730    3.5703
   17.760    3.7283
   17.790    3.7177
   17.820    3.6756
   17.850    3.6756
   17.880    3.8336
   17.910    4.0021
   17.940    4.1811
   17.970    4.6972
   18.000    4.6867
   18.030    4.3497
   18.060    4.2549
   18.090    3.5387
   18.120    3.8336
   18.150    3.6124
   18.180    3.7704
   18.210    3.7915
   18.240    3.6440
   18.270    3.3386
   18.300    4.1390
   18.330    3.9389
   18.360    4.2233
   18.390    4.7604
   18.420    5.1606
   18.450    4.6445
   18.480    4.5498
   18.510    3.7599
   18.540    4.0337
   18.570    3.5598
   18.600    3.7915
   18.630    3.7072
   18.660    3.8336
   18.690    3.5071
   18.720    3.6756
   18.750    3.9389
   18.780    4.0442
   18.810    4.3497
   18.840    4.1811
   18.870    4.3813
   18.900    3.9600
   18.930    3.9073
   18.960    3.5808
   18.990    3.7283
   19.020    3.8968
   19.050    3.6862
   19.080    3.4439
   19.110    3.4123
   19.140    3.9494
   19.170    3.7283
   19.200    3.8652
   19.230    3.9494
   19.260    4.0758
   19.290    3.8441
   19.320    4.1074
   19.350    3.7599
   19.380    3.9284
   19.410    3.7809
   19.440    4.0021
   19.470    3.7704
   19.500    3.8757
   19.530    3.5914
   19.560    4.2654
   19.590    5.0026
   19.620    5.4344
   19.650    5.8662
   19.680    5.5187
   19.710    4.7288
   19.740    4.2654
   19.770    3.5492
   19.800    4.0442
   19.830    3.7283
   19.860    3.7177
   19.890    3.7072
   19.920    3.6967
   19.950    3.8231
   19.980    3.8020
   20.010    3.8020
   20.040    4.4128
   20.070    3.7283
   20.100    3.9073
   20.130    3.7283
   20.160    3.7388
   20.190    3.8757
   20.220    3.8020
   20.250    3.6546
   20.280    4.0126
   20.310    4.1496
   20.340    4.8763
   20.370    5.6345
   20.400    6.5929
   20.430    7.4882
   20.460    6.5403
   20.490    5.8241
   20.520    4.7393
   20.550    4.0969
   20.580    3.7283
   20.610    3.5914
   20.640    3.4229
   20.670    3.8336
   20.700    3.6546
   20.730    3.8547
   20.760    3.8863
   20.790    4.1811
   20.820    3.9389
   20.850    4.1706
   20.880    3.6756
   20.910    3.8863
   20.940    3.8020
   20.970    3.7283
   21.000    3.6019
   21.030    3.7072
   21.060    3.5914
   21.090    3.7704
   21.120    3.8863
   21.150    3.6230
   21.180    4.1074
   21.210    3.8231
   21.240    4.1285
   21.270    3.5176
   21.300    3.8231
   21.330    3.6019
   21.360    3.8968
   21.390    3.9600
   21.420    4.0442
   21.450    3.7388
   21.480    3.7388
   21.510    3.6019
   21.540    3.7177
   21.570    4.0021
   21.600    3.8231
   21.630    4.1285
   21.660    3.9810
   21.690    3.5492
   21.720    3.6230
   21.750    4.0548
   21.780    3.7809
   21.810    3.9705
   21.840    4.5182
   21.870    4.9921
   21.900    5.6451
   21.930    5.2554
   21.960    4.5919
   21.990    4.4234
   22.020    4.1390
   22.050    3.9284
   22.080    3.6967
   22.110    4.1285
   22.140    3.7072
   22.170    3.9389
   22.200    4.3602
   22.230    4.2443
   22.260    4.5919
   22.290    4.6761
   22.320    4.2443
   22.350    4.4550
   22.380    4.0548
   22.410    4.0232
   22.440    3.9810
   22.470    4.0337
   22.500    4.2022
   22.530    4.9289
   22.560    5.4871
   22.590    6.3823
   22.620    6.6561
   22.650    6.7193
   22.680    6.0348
   22.710    4.8236
   22.740    4.2865
   22.770    3.9284
   22.800    4.2127
   22.830    4.4760
   22.860    5.0764
   22.890    5.2449
   22.920    6.9826
   22.950    7.6883
   22.980    8.1411
   23.010    7.0142
   23.040    5.8136
   23.070    4.6972
   23.100    4.2443
   23.130    3.9494
   23.160    3.7704
   23.190    4.1811
   23.220    4.2233
   23.250    4.8025
   23.280    4.8657
   23.310    4.8763
   23.340    4.5498
   23.370    4.6551
   23.400    4.1496
   23.430    3.8336
   23.460    3.8441
   23.490    3.8441
   23.520    4.0232
   23.550    3.8125
   23.580    4.2127
   23.610    4.4760
   23.640    3.9916
   23.670    4.0337
   23.700    4.2865
   23.730    3.8441
   23.760    4.1496
   23.790    3.7809
   23.820    3.7599
   23.850    4.2233
   23.880    3.9073
   23.910    4.6761
   23.940    4.7604
   23.970    5.1395
   24.000    5.2343
   24.030    5.0553
   24.060    4.3075
   24.090    4.0548
   24.120    3.6440
   24.150    3.7072
   24.180    3.9073
   24.210    3.7177
   24.240    3.9073
   24.270    3.7704
   24.300    3.9284
   24.330    3.6546
   24.360    3.7704
   24.390    3.8863
   24.420    3.6230
   24.450    3.5492
   24.480    3.7388
   24.510    3.8020
   24.540    4.2233
   24.570    4.2549
   24.600    4.0548
   24.630    4.1074
   24.660    4.3181
   24.690    3.8863
   24.720    3.7177
   24.750    3.7493
   24.780    3.8757
   24.810    3.7283
   24.840    3.6335
   24.870    3.8125
   24.900    4.2443
   24.930    3.8336
   24.960    3.8757
   24.990    4.0021
   25.020    4.1706
   25.050    3.7388
   25.080    3.6335
   25.110    3.7283
   25.140    3.8125
   25.170    3.9073
   25.200    3.9600
   25.230    4.1390
   25.260    4.5287
   25.290    3.8336
   25.320    4.3602
   25.350    3.8336
   25.380    3.5808
   25.410    3.5492
   25.440    3.8968
   25.470    3.9284
   25.500    3.9179
   25.530    4.0337
   25.560    4.4655
   25.590    4.7288
   25.620    4.0232
   25.650    4.1074
   25.680    3.7388
   25.710    3.7388
   25.740    4.2443
   25.770    3.8125
   25.800    4.7288
   25.830    5.6451
   25.860    6.0032
   25.890    5.8241
   25.920    5.9505
   25.950    4.9289
   25.980    4.4339
   26.010    3.8125
   26.040    3.8968
   26.070    3.5703
   26.100    3.7177
   26.130    4.0653
   26.160    4.3391
   26.190    4.0021
   26.220    3.7388
   26.250    3.8863
   26.280    3.7283
   26.310    3.6335
   26.340    3.6862
   26.370    3.9073
   26.400    3.9916
   26.430    4.2865
   26.460    4.7288
   26.490    4.4971
   26.520    4.3497
   26.550    4.3075
   26.580    4.2759
   26.610    3.6967
   26.640    3.8863
   26.670    3.7493
   26.700    3.7388
   26.730    3.7388
   26.760    3.6440
   26.790    3.6335
   26.820    3.6651
   26.850    3.9705
   26.880    3.4439
   26.910    3.3597
   26.940    3.5703
   26.970    3.8441
   27.000    4.3497
   27.030    4.2549
   27.060    4.4655
   27.090    4.7183
   27.120    4.4971
   27.150    4.3918
   27.180    4.0653
   27.210    3.5703
   27.240    3.8336
   27.270    3.4650
   27.300    3.7915
   27.330    3.6862
   27.360    3.6124
   27.390    3.5492
   27.420    3.8863
   27.450    3.7599
   27.480    3.6967
   27.510    3.7388
   27.540    3.5071
   27.570    3.7072
   27.600    3.8125
   27.630    4.3391
   27.660    4.0126
   27.690    4.3918
   27.720    3.9916
   27.750    3.9494
   27.780    3.7388
   27.810    3.3702
   27.840    4.0548
   27.870    3.6967
   27.900    4.0021
   27.930    4.0126
   27.960    4.1180
   27.990    4.0232
   28.020    3.9073
   28.050    3.7493
   28.080    3.4755
   28.110    3.6651
   28.140    3.9284
   28.170    4.2549
   28.200    4.5708
   28.230    4.4128
   28.260    4.6130
   28.290    4.6130
   28.320    4.1496
   28.350    4.1811
   28.380    3.7177
   28.410    3.8441
   28.440    4.0864
   28.470    3.7283
   28.500    4.3707
   28.530    4.4339
   28.560    4.4234
   28.590    3.8336
   28.620    3.9494
   28.650    3.4439
   28.680    3.2859
   28.710    3.3175
   28.740    3.5387
   28.770    3.5808
   28.800    3.6651
   28.830    3.3281
   28.860    3.2543
   28.890    3.4966
   28.920    3.5914
   28.950    3.9073
   28.980    3.5914
   29.010    3.8020
   29.040    3.7809
   29.070    3.6230
   29.100    3.7493
   29.130    3.8441
   29.160    3.7809
   29.190    3.6967
   29.220    3.6124
   29.250    3.7388
   29.280    3.8441
   29.310    4.3286
   29.340    4.1706
   29.370    4.1390
   29.400    4.1390
   29.430    3.9389
   29.460    3.3491
   29.490    3.8968
   29.520    3.5914
   29.550    3.4334
   29.580    3.5492
   29.610    3.2754
   29.640    3.6230
   29.670    3.3702
   29.700    3.4334
   29.730    3.2227
   29.760    3.6335
   29.790    3.4544
   29.820    3.4966
   29.850    3.8125
   29.880    4.3286
   29.910    4.0021
   29.940    4.1180
   29.970    3.6335
   30.000    3.6546
   30.030    3.3702
   30.060    3.6756
   30.090    3.5387
   30.120    3.4755
   30.150    3.5387
   30.180    3.4544
   30.210    3.5492
   30.240    3.1806
   30.270    3.5387
   30.300    3.2965
   30.330    3.4650
   30.360    3.7283
   30.390    3.5176
   30.420    3.3597
   30.450    3.3807
   30.480    3.5598
   30.510    3.6546
   30.540    3.3597
   30.570    3.4966
   30.600    3.6651
   30.630    3.4860
   30.660    3.6967
   30.690    3.7072
   30.720    3.9073
   30.750    3.6862
   30.780    3.6862
   30.810    3.4755
   30.840    3.2333
   30.870    3.6124
   30.900    3.2543
   30.930    3.5071
   30.960    3.0542
   30.990    3.6335
   31.020    3.2017
   31.050    3.5598
   31.080    3.4018
   31.110    3.4123
   31.140    3.1490
   31.170    3.3702
   31.200    3.3070
   31.230    3.2649
   31.260    3.5387
   31.290    3.3175
   31.320    3.4966
   31.350    3.3175
   31.380    3.2438
   31.410    3.2859
   31.440    3.7704
   31.470    3.8441
   31.500    3.5492
   31.530    3.5808
   31.560    3.3386
   31.590    3.5808
   31.620    3.4966
   31.650    3.4229
   31.680    3.3491
   31.710    3.1280
   31.740    3.5387
   31.770    3.3491
   31.800    3.1174
   31.830    3.4334
   31.860    3.3807
   31.890    3.2543
   31.920    3.3175
   31.950    3.3597
   31.980    3.5914
   32.010    3.4018
   32.040    3.4860
   32.070    3.4229
   32.100    3.2543
   32.130    3.1174
   32.160    3.3281
   32.190    3.2649
   32.220    3.6440
   32.250    3.4123
   32.280    3.4439
   32.310    3.4860
   32.340    3.1701
   32.370    3.7493
   32.400    3.2333
   32.430    3.2543
   32.460    3.1069
   32.490    3.1701
   32.520    3.3491
   32.550    3.5387
   32.580    3.0753
   32.610    3.0121
   32.640    3.3070
   32.670    3.2017
   32.700    3.2017
   32.730    3.1280
   32.760    3.5808
   32.790    3.1069
   32.820    3.0964
   32.850    3.2017
   32.880    3.5071
   32.910    3.5071
   32.940    3.5492
   32.970    3.6967
   33.000    3.7493
   33.030    3.7072
   33.060    3.2965
   33.090    3.0858
   33.120    3.1069
   33.150    3.2438
   33.180    3.3597
   33.210    3.4123
   33.240    3.3702
   33.270    3.1912
   33.300    3.2017
   33.330    3.5492
   33.360    3.3070
   33.390    3.4018
   33.420    3.2227
   33.450    3.3175
   33.480    3.4334
   33.510    3.3175
   33.540    3.2227
   33.570    3.3807
   33.600    3.4860
   33.630    3.4123
   33.660    3.3491
   33.690    3.3702
   33.720    3.3070
   33.750    3.2965
   33.780    3.2122
   33.810    3.2438
   33.840    3.6019
   33.870    3.2965
   33.900    3.4966
   33.930    3.5703
   33.960    3.6756
   33.990    3.6862
   34.020    3.3807
   34.050    3.5071
   34.080    3.2649
   34.110    3.2754
   34.140    3.3702
   34.170    3.1596
   34.200    3.0858
   34.230    3.4860
   34.260    3.2965
   34.290    3.6967
   34.320    3.3070
   34.350    3.4018
   34.380    3.0437
   34.410    3.3807
   34.440    3.4334
   34.470    3.5492
   34.500    3.0226
   34.530    3.3281
   34.560    3.2543
   34.590    3.2017
   34.620    3.2017
   34.650    3.0226
   34.680    3.4018
   34.710    3.2543
   34.740    3.3070
   34.770    3.1385
   34.800    2.7909
   34.830    3.2859
   34.860    3.4018
   34.890    3.3597
   34.920    3.3597
   34.950    3.4650
   34.980    3.2227
   35.010    3.0226
   35.040    3.2649
   35.070    3.0753
   35.100    3.1701
   35.130    2.9489
   35.160    2.8541
   35.190    3.0226
   35.220    2.8857
   35.250    3.0332
   35.280    2.8331
   35.310    3.1280
   35.340    3.1174
   35.370    3.0753
   35.400    3.5282
   35.430    3.1912
   35.460    3.0753
   35.490    3.1596
   35.520    3.1701
   35.550    3.2017
   35.580    3.0437
   35.610    3.0964
   35.640    2.8436
   35.670    3.0016
   35.700    3.1596
   35.730    3.0437
   35.760    3.0226
   35.790    3.0964
   35.820    3.1806
   35.850    3.2754
   35.880    2.9068
   35.910    3.3175
   35.940    2.9595
   35.970    3.0332
   36.000    3.5808
   36.030    3.1912
   36.060    3.2754
   36.090    2.9910
   36.120    2.9068
   36.150    3.3491
   36.180    2.9384
   36.210    3.2333
   36.240    2.8436
   36.270    3.2649
   36.300    3.0332
   36.330    3.1806
   36.360    3.0753
   36.390    2.8857
   36.420    2.9805
   36.450    2.9595
   36.480    3.0016
   36.510    3.2017
   36.540    3.1596
   36.570    3.0542
   36.600    3.1280
   36.630    3.2965
   36.660    3.3807
   36.690    3.3175
   36.720    3.4123
   36.750    3.3070
   36.780    3.1912
   36.810    3.0542
   36.840    3.2227
   36.870    2.7488
   36.900    2.9279
   36.930    2.9279
   36.960    2.8752
   36.990    2.9910
   37.020    2.9910
   37.050    3.2333
   37.080    3.4334
   37.110    3.3597
   37.140    3.4229
   37.170    3.2649
   37.200    3.3913
   37.230    3.2333
   37.260    3.1280
   37.290    3.0964
   37.320    3.1069
   37.350    3.0332
   37.380    3.1280
   37.410    3.1174
   37.440    2.8963
   37.470    2.8436
   37.500    3.0332
   37.530    3.3913
   37.560    3.0226
   37.590    2.9489
   37.620    2.9068
   37.650    3.2227
   37.680    2.9805
   37.710    3.1385
   37.740    3.2227
   37.770    2.8225
   37.800    3.3702
   37.830    3.0858
   37.860    3.2649
   37.890    2.8436
   37.920    2.9068
   37.950    3.0437
   37.980    2.9700
   38.010    3.1069
   38.040    3.3070
   38.070    2.9489
   38.100    3.0648
   38.130    3.0542
   38.160    3.1912
   38.190    3.0437
   38.220    3.0437
   38.250    3.0437
   38.280    3.1174
   38.310    2.9173
   38.340    2.8331
   38.370    3.2965
   38.400    3.1806
   38.430    2.8120
   38.460    2.9910
   38.490    3.1174
   38.520    3.0858
   38.550    2.9173
   38.580    2.8541
   38.610    3.0437
   38.640    2.8963
   38.670    2.8963
   38.700    2.9595
   38.730    3.0542
   38.760    2.8331
   38.790    3.0121
   38.820    2.8120
   38.850    3.1596
   38.880    3.0964
   38.910    2.7488
   38.940    3.0964
   38.970    3.0121
   39.000    3.0648
   39.030    3.2227
   39.060    3.0437
   39.090    2.8752
   39.120    3.0121
   39.150    3.1280
   39.180    3.1912
   39.210    2.9384
   39.240    3.2227
   39.270    2.9279
   39.300    2.8541
   39.330    2.9279
   39.360    3.1596
   39.390    2.9595
   39.420    3.2017
   39.450    3.1806
   39.480    3.1385
   39.510    2.9910
   39.540    2.8963
   39.570    3.2333
   39.600    2.9279
   39.630    2.8963
   39.660    2.9910
   39.690    2.8963
   39.720    2.8225
   39.750    3.2333
   39.780    3.0226
   39.810    2.9489
   39.840    2.9910
   39.870    3.1174
   39.900    3.3597
   39.930    2.9173
   39.960    3.1806
   39.990    2.8752