File: data/MOCOF-1/PXRD/PXRD_KE-219_Co-Ka1_film-3mm_5s-deg.xyd
    1.500    2.8785
    1.530    2.9963
    1.560    2.8571
    1.590    2.8999
    1.620    2.6003
    1.650    2.7394
    1.680    2.6431
    1.710    2.4719
    1.740    2.6752
    1.770    2.4077
    1.800    2.3435
    1.830    2.2579
    1.860    2.2472
    1.890    2.2472
    1.920    2.3114
    1.950    2.3114
    1.980    1.9797
    2.010    2.1830
    2.040    2.0546
    2.070    2.1616
    2.100    2.0225
    2.130    2.1402
    2.160    2.0546
    2.190    2.1081
    2.220    2.0760
    2.250    1.7657
    2.280    2.1616
    2.310    1.7764
    2.340    2.0118
    2.370    1.8834
    2.400    1.8406
    2.430    1.8513
    2.460    1.9690
    2.490    1.8727
    2.520    1.7335
    2.550    1.8834
    2.580    1.6372
    2.610    1.7228
    2.640    1.7657
    2.670    1.8941
    2.700    1.8192
    2.730    1.5409
    2.760    1.6800
    2.790    1.7014
    2.820    1.7978
    2.850    1.7335
    2.880    1.5409
    2.910    1.7335
    2.940    1.5623
    2.970    1.5730
    3.000    1.4874
    3.030    1.7978
    3.060    1.5516
    3.090    1.8192
    3.120    1.5088
    3.150    1.4125
    3.180    1.5837
    3.210    1.4232
    3.240    1.5088
    3.270    1.6479
    3.300    1.8085
    3.330    1.4767
    3.360    1.5195
    3.390    1.5623
    3.420    1.5088
    3.450    1.5623
    3.480    1.6051
    3.510    1.5409
    3.540    1.6907
    3.570    1.4660
    3.600    1.4874
    3.630    1.7014
    3.660    1.6158
    3.690    1.6479
    3.720    1.6372
    3.750    1.7978
    3.780    1.7978
    3.810    1.8406
    3.840    1.9048
    3.870    1.7764
    3.900    2.3221
    3.930    2.0867
    3.960    2.0546
    3.990    2.2258
    4.020    2.3114
    4.050    2.3756
    4.080    2.0974
    4.110    1.9048
    4.140    1.9262
    4.170    1.7014
    4.200    1.6693
    4.230    1.7228
    4.260    1.5623
    4.290    1.5730
    4.320    1.5088
    4.350    1.7121
    4.380    1.6372
    4.410    1.6051
    4.440    1.9048
    4.470    1.8085
    4.500    1.5516
    4.530    1.7121
    4.560    1.7014
    4.590    1.6586
    4.620    1.5837
    4.650    1.5730
    4.680    1.7764
    4.710    1.7335
    4.740    1.7978
    4.770    1.8192
    4.800    1.6158
    4.830    1.6693
    4.860    1.7657
    4.890    1.4660
    4.920    1.5944
    4.950    1.8727
    4.980    1.6693
    5.010    1.6800
    5.040    1.7871
    5.070    1.2413
    5.100    1.6372
    5.130    1.6372
    5.160    1.4232
    5.190    1.6907
    5.220    1.5516
    5.250    1.5944
    5.280    1.4660
    5.310    1.5837
    5.340    1.4874
    5.370    1.4660
    5.400    1.5944
    5.430    1.5195
    5.460    1.6265
    5.490    1.4874
    5.520    1.4981
    5.550    1.5409
    5.580    1.6051
    5.610    1.6158
    5.640    1.6051
    5.670    1.6158
    5.700    1.6051
    5.730    1.7657
    5.760    1.5088
    5.790    1.6586
    5.820    1.7657
    5.850    1.5302
    5.880    1.8085
    5.910    1.6158
    5.940    1.7764
    5.970    1.8834
    6.000    1.8406
    6.030    1.8192
    6.060    1.9048
    6.090    1.7549
    6.120    2.0332
    6.150    2.0011
    6.180    1.8727
    6.210    2.1081
    6.240    2.1295
    6.270    2.0867
    6.300    1.9369
    6.330    2.0653
    6.360    2.0332
    6.390    2.0760
    6.420    2.3435
    6.450    2.1937
    6.480    2.2793
    6.510    2.2686
    6.540    2.1295
    6.570    1.9797
    6.600    1.7764
    6.630    2.0439
    6.660    1.9155
    6.690    1.6907
    6.720    1.8941
    6.750    2.0118
    6.780    1.7764
    6.810    1.7335
    6.840    1.8192
    6.870    1.7228
    6.900    1.6800
    6.930    1.6479
    6.960    1.5516
    6.990    1.8192
    7.020    1.6158
    7.050    1.7764
    7.080    1.3483
    7.110    1.6265
    7.140    1.5302
    7.170    1.5837
    7.200    1.4339
    7.230    1.5302
    7.260    1.2948
    7.290    1.4767
    7.320    1.4232
    7.350    1.2520
    7.380    1.4767
    7.410    1.3483
    7.440    1.4232
    7.470    1.3376
    7.500    1.2948
    7.530    1.4125
    7.560    1.3911
    7.590    1.3911
    7.620    1.3697
    7.650    1.2841
    7.680    1.4553
    7.710    1.3483
    7.740    1.3376
    7.770    1.4125
    7.800    1.3269
    7.830    1.3911
    7.860    1.3804
    7.890    1.3590
    7.920    1.3483
    7.950    1.4232
    7.980    1.3911
    8.010    1.2306
    8.040    1.3804
    8.070    1.2413
    8.100    1.3269
    8.130    1.3590
    8.160    1.3055
    8.190    1.2413
    8.220    1.3162
    8.250    1.3269
    8.280    1.2520
    8.310    1.1557
    8.340    1.2734
    8.370    1.1664
    8.400    1.2520
    8.430    1.0380
    8.460    1.0808
    8.490    1.0915
    8.520    1.1236
    8.550    1.2413
    8.580    1.0059
    8.610    1.2092
    8.640    1.1450
    8.670    1.1878
    8.700    1.1450
    8.730    1.0487
    8.760    1.0701
    8.790    1.0594
    8.820    1.0273
    8.850    1.0273
    8.880    1.1557
    8.910    1.0594
    8.940    1.1557
    8.970    1.0594
    9.000    0.8882
    9.030    1.1022
    9.060    1.2092
    9.090    0.9417
    9.120    1.0594
    9.150    0.8026
    9.180    0.9631
    9.210    1.0273
    9.240    1.1450
    9.270    0.8561
    9.300    0.8133
    9.330    0.9096
    9.360    1.0487
    9.390    1.0915
    9.420    1.0487
    9.450    1.1236
    9.480    1.0166
    9.510    0.9096
    9.540    0.8882
    9.570    0.9417
    9.600    0.9417
    9.630    1.1129
    9.660    0.9631
    9.690    1.0380
    9.720    0.8989
    9.750    1.0166
    9.780    0.9845
    9.810    0.8989
    9.840    0.8882
    9.870    0.8989
    9.900    1.0273
    9.930    0.8989
    9.960    0.8882
    9.990    0.8026
   10.020    0.9738
   10.050    0.9738
   10.080    0.9524
   10.110    1.0915
   10.140    0.7170
   10.170    0.7919
   10.200    0.8561
   10.230    0.9203
   10.260    0.8026
   10.290    0.9952
   10.320    0.7919
   10.350    0.7919
   10.380    0.9310
   10.410    0.8775
   10.440    0.9203
   10.470    0.8561
   10.500    0.7919
   10.530    0.7384
   10.560    0.9845
   10.590    0.8454
   10.620    0.8775
   10.650    0.8240
   10.680    0.8561
   10.710    0.8882
   10.740    0.7491
   10.770    0.8240
   10.800    0.8454
   10.830    0.8989
   10.860    0.8240
   10.890    0.9096
   10.920    0.8882
   10.950    0.8989
   10.980    0.7598
   11.010    0.8240
   11.040    0.8240
   11.070    0.9203
   11.100    0.7812
   11.130    0.8989
   11.160    0.7491
   11.190    0.8561
   11.220    0.9203
   11.250    0.7705
   11.280    0.7491
   11.310    0.7491
   11.340    0.9738
   11.370    0.8026
   11.400    0.7919
   11.430    0.8561
   11.460    0.8668
   11.490    0.9631
   11.520    0.9310
   11.550    0.9631
   11.580    0.7705
   11.610    0.7598
   11.640    0.8133
   11.670    0.8347
   11.700    0.6849
   11.730    1.0380
   11.760    0.8561
   11.790    1.0701
   11.820    0.7705
   11.850    0.8240
   11.880    0.9096
   11.910    0.7277
   11.940    0.8026
   11.970    0.8668
   12.000    0.8133
   12.030    0.7919
   12.060    0.9096
   12.090    0.8026
   12.120    0.8882
   12.150    0.9096
   12.180    0.9096
   12.210    0.7705
   12.240    0.8454
   12.270    0.7598
   12.300    0.8347
   12.330    0.6849
   12.360    0.9203
   12.390    0.8775
   12.420    0.8775
   12.450    0.9524
   12.480    0.8882
   12.510    0.8454
   12.540    0.9310
   12.570    0.8775
   12.600    0.9310
   12.630    1.0487
   12.660    0.8026
   12.690    0.9631
   12.720    1.0380
   12.750    0.8347
   12.780    0.8775
   12.810    1.0273
   12.840    1.0059
   12.870    0.8240
   12.900    0.8989
   12.930    0.9524
   12.960    0.9738
   12.990    0.8454
   13.020    0.9738
   13.050    0.7812
   13.080    0.9524
   13.110    0.8668
   13.140    0.9310
   13.170    0.8775
   13.200    0.8775
   13.230    0.7812
   13.260    0.8561
   13.290    0.8775
   13.320    0.8561
   13.350    0.7919
   13.380    0.8668
   13.410    0.9417
   13.440    0.9952
   13.470    0.8668
   13.500    0.8561
   13.530    0.9310
   13.560    0.8775
   13.590    0.8561
   13.620    0.8454
   13.650    0.9310
   13.680    0.9203
   13.710    1.0594
   13.740    0.8240
   13.770    0.8775
   13.800    0.8133
   13.830    0.8454
   13.860    0.9310
   13.890    0.9310
   13.920    0.8882
   13.950    0.8240
   13.980    0.8133
   14.010    1.0380
   14.040    0.8668
   14.070    0.8775
   14.100    0.7812
   14.130    0.8347
   14.160    0.8989
   14.190    0.9952
   14.220    0.8989
   14.250    0.8240
   14.280    0.8347
   14.310    0.8347
   14.340    0.9096
   14.370    0.9417
   14.400    0.8989
   14.430    0.7812
   14.460    0.8561
   14.490    0.8989
   14.520    0.9631
   14.550    0.7277
   14.580    0.8989
   14.610    0.8454
   14.640    0.9631
   14.670    0.8775
   14.700    0.8454
   14.730    0.8989
   14.760    0.8882
   14.790    0.8989
   14.820    0.8668
   14.850    0.8026
   14.880    0.8882
   14.910    0.8026
   14.940    0.9096
   14.970    0.8775
   15.000    0.7705
   15.030    0.7598
   15.060    0.7812
   15.090    0.9524
   15.120    0.5993
   15.150    0.7170
   15.180    0.8240
   15.210    0.8347
   15.240    0.7919
   15.270    0.7705
   15.300    0.8561
   15.330    0.7598
   15.360    0.6421
   15.390    0.8668
   15.420    0.8882
   15.450    0.7812
   15.480    0.8240
   15.510    0.7277
   15.540    0.7491
   15.570    1.0166
   15.600    0.9096
   15.630    0.7705
   15.660    0.8240
   15.690    0.7384
   15.720    0.7705
   15.750    0.7491
   15.780    0.7491
   15.810    0.9203
   15.840    0.9203
   15.870    0.9310
   15.900    0.7170
   15.930    0.9203
   15.960    0.9631
   15.990    0.7277
   16.020    0.7705
   16.050    0.9096
   16.080    0.9631
   16.110    0.8668
   16.140    0.9310
   16.170    0.8561
   16.200    0.9738
   16.230    0.8882
   16.260    0.8026
   16.290    0.7598
   16.320    0.8561
   16.350    0.9096
   16.380    0.8668
   16.410    0.8668
   16.440    0.8561
   16.470    1.0059
   16.500    0.8775
   16.530    1.1129
   16.560    0.9096
   16.590    0.8454
   16.620    0.8026
   16.650    0.9631
   16.680    0.8882
   16.710    0.9417
   16.740    1.0380
   16.770    0.8133
   16.800    0.9310
   16.830    0.9845
   16.860    0.9952
   16.890    0.9417
   16.920    0.8668
   16.950    0.8454
   16.980    0.9631
   17.010    0.9952
   17.040    0.7919
   17.070    0.9845
   17.100    0.7919
   17.130    0.8882
   17.160    0.8454
   17.190    0.7919
   17.220    0.8454
   17.250    0.7812
   17.280    0.7812
   17.310    1.0380
   17.340    0.8989
   17.370    0.9310
   17.400    0.8454
   17.430    0.7598
   17.460    0.8668
   17.490    0.8347
   17.520    0.8882
   17.550    0.8668
   17.580    0.8882
   17.610    0.8026
   17.640    0.8561
   17.670    0.7277
   17.700    0.9631
   17.730    0.7491
   17.760    0.9203
   17.790    0.8668
   17.820    0.7812
   17.850    0.9096
   17.880    0.9203
   17.910    0.8347
   17.940    0.8668
   17.970    0.8454
   18.000    0.9417
   18.030    0.7277
   18.060    0.7812
   18.090    0.9096
   18.120    0.8347
   18.150    0.8989
   18.180    0.8561
   18.210    0.7491
   18.240    0.9310
   18.270    1.0380
   18.300    0.8989
   18.330    0.8133
   18.360    0.8026
   18.390    0.7812
   18.420    0.7598
   18.450    0.6528
   18.480    0.8240
   18.510    0.6956
   18.540    0.6956
   18.570    0.8026
   18.600    0.7705
   18.630    0.6849
   18.660    0.8240
   18.690    0.8668
   18.720    0.7491
   18.750    0.7491
   18.780    0.9738
   18.810    0.6528
   18.840    0.7812
   18.870    0.8454
   18.900    0.7063
   18.930    0.8775
   18.960    0.7491
   18.990    0.7812
   19.020    0.8133
   19.050    0.8454
   19.080    0.7812
   19.110    1.0059
   19.140    0.8882
   19.170    0.7705
   19.200    0.8454
   19.230    0.7598
   19.260    0.7598
   19.290    0.8454
   19.320    0.9096
   19.350    0.5993
   19.380    0.8561
   19.410    0.9096
   19.440    0.7277
   19.470    0.7063
   19.500    0.8347
   19.530    0.7598
   19.560    0.6742
   19.590    0.8775
   19.620    0.8240
   19.650    0.8347
   19.680    0.7384
   19.710    0.7598
   19.740    0.7705
   19.770    0.7598
   19.800    0.7705
   19.830    0.7812
   19.860    0.7812
   19.890    0.6849
   19.920    0.7277
   19.950    0.7705
   19.980    0.8989
   20.010    0.8561
   20.040    0.9310
   20.070    0.7812
   20.100    0.6742
   20.130    0.7812
   20.160    0.8561
   20.190    1.0380
   20.220    0.8561
   20.250    0.8026
   20.280    0.7705
   20.310    0.9845
   20.340    0.7063
   20.370    0.7812
   20.400    0.7170
   20.430    0.6528
   20.460    0.8347
   20.490    0.8240
   20.520    0.7384
   20.550    0.9203
   20.580    0.7170
   20.610    0.7705
   20.640    0.8989
   20.670    0.8882
   20.700    0.8133
   20.730    0.7919
   20.760    0.9417
   20.790    0.7277
   20.820    0.7491
   20.850    0.7705
   20.880    0.7277
   20.910    0.8454
   20.940    0.8026
   20.970    0.7812
   21.000    0.6207
   21.030    0.7491
   21.060    0.9524
   21.090    0.7170
   21.120    0.7063
   21.150    0.7705
   21.180    0.6956
   21.210    0.8133
   21.240    0.9524
   21.270    0.7277
   21.300    0.8240
   21.330    0.6635
   21.360    0.7170
   21.390    0.7491
   21.420    0.6742
   21.450    0.7705
   21.480    0.8882
   21.510    0.8133
   21.540    0.7491
   21.570    0.7170
   21.600    0.7919
   21.630    0.7812
   21.660    0.6956
   21.690    0.8347
   21.720    0.9845
   21.750    0.8026
   21.780    0.7812
   21.810    0.7598
   21.840    0.9203
   21.870    0.8454
   21.900    0.7384
   21.930    0.7919
   21.960    0.8561
   21.990    0.8668
   22.020    0.8454
   22.050    0.6956
   22.080    0.7598
   22.110    0.8454
   22.140    0.7812
   22.170    0.8347
   22.200    0.7277
   22.230    0.8026
   22.260    0.7277
   22.290    0.8454
   22.320    0.9310
   22.350    0.8133
   22.380    0.8026
   22.410    0.7598
   22.440    0.8133
   22.470    0.7491
   22.500    0.8240
   22.530    0.7598
   22.560    0.7491
   22.590    0.8668
   22.620    0.7170
   22.650    0.7491
   22.680    0.5457
   22.710    0.7384
   22.740    0.7063
   22.770    0.8347
   22.800    0.8133
   22.830    0.6421
   22.860    0.8668
   22.890    0.7491
   22.920    0.6528
   22.950    0.8347
   22.980    0.6956
   23.010    0.6742
   23.040    0.7063
   23.070    0.7170
   23.100    0.6956
   23.130    0.6207
   23.160    0.7170
   23.190    0.6635
   23.220    0.6742
   23.250    0.6528
   23.280    0.8454
   23.310    0.5671
   23.340    0.6207
   23.370    0.8347
   23.400    0.7170
   23.430    0.6314
   23.460    0.6956
   23.490    0.7277
   23.520    0.7170
   23.550    0.5778
   23.580    0.7384
   23.610    0.7277
   23.640    0.6742
   23.670    0.9203
   23.700    0.7384
   23.730    0.6100
   23.760    0.6635
   23.790    0.7598
   23.820    0.6956
   23.850    0.5993
   23.880    0.6742
   23.910    0.7491
   23.940    0.6421
   23.970    0.8561
   24.000    0.8240
   24.030    0.5778
   24.060    0.6207
   24.090    0.6742
   24.120    0.5886
   24.150    0.6528
   24.180    0.7812
   24.210    0.7384
   24.240    0.8133
   24.270    0.7598
   24.300    0.7170
   24.330    0.8240
   24.360    0.6956
   24.390    0.5993
   24.420    0.6528
   24.450    0.6849
   24.480    0.7277
   24.510    0.7063
   24.540    0.6849
   24.570    0.6742
   24.600    0.6207
   24.630    0.7277
   24.660    0.7063
   24.690    0.6956
   24.720    0.5886
   24.750    0.6100
   24.780    0.6635
   24.810    0.7598
   24.840    0.7812
   24.870    0.7063
   24.900    0.6421
   24.930    0.6100
   24.960    0.6207
   24.990    0.7491
   25.020    0.7063
   25.050    0.6528
   25.080    0.6207
   25.110    0.6635
   25.140    0.6849
   25.170    0.6742
   25.200    0.6742
   25.230    0.7384
   25.260    0.6956
   25.290    0.7812
   25.320    0.6849
   25.350    0.7170
   25.380    0.6849
   25.410    0.6207
   25.440    0.6742
   25.470    0.6528
   25.500    0.7170
   25.530    0.5778
   25.560    0.6742
   25.590    0.5993
   25.620    0.6528
   25.650    0.6956
   25.680    0.6742
   25.710    0.6635
   25.740    0.7598
   25.770    0.6314
   25.800    0.6635
   25.830    0.6635
   25.860    0.5886
   25.890    0.6742
   25.920    0.7063
   25.950    0.5778
   25.980    0.6742
   26.010    0.6207
   26.040    0.6849
   26.070    0.6956
   26.100    0.6635
   26.130    0.7598
   26.160    0.5993
   26.190    0.4922
   26.220    0.5993
   26.250    0.5457
   26.280    0.5029
   26.310    0.7277
   26.340    0.6742
   26.370    0.6421
   26.400    0.5136
   26.430    0.5993
   26.460    0.5243
   26.490    0.5136
   26.520    0.5564
   26.550    0.5671
   26.580    0.4815
   26.610    0.5136
   26.640    0.7170
   26.670    0.6635
   26.700    0.5136
   26.730    0.5886
   26.760    0.5350
   26.790    0.7277
   26.820    0.5457
   26.850    0.6207
   26.880    0.4922
   26.910    0.5564
   26.940    0.7705
   26.970    0.6314
   27.000    0.5993
   27.030    0.6849
   27.060    0.5243
   27.090    0.6956
   27.120    0.5564
   27.150    0.6207
   27.180    0.6207
   27.210    0.5886
   27.240    0.4815
   27.270    0.5350
   27.300    0.6314
   27.330    0.6742
   27.360    0.6635
   27.390    0.6742
   27.420    0.5886
   27.450    0.6635
   27.480    0.5136
   27.510    0.5350
   27.540    0.5457
   27.570    0.5671
   27.600    0.6207
   27.630    0.6956
   27.660    0.7491
   27.690    0.5778
   27.720    0.5778
   27.750    0.6742
   27.780    0.5671
   27.810    0.3959
   27.840    0.5671
   27.870    0.5457
   27.900    0.5457
   27.930    0.5243
   27.960    0.4494
   27.990    0.5136
   28.020    0.5243
   28.050    0.4922
   28.080    0.5457
   28.110    0.5350
   28.140    0.5564
   28.170    0.3531
   28.200    0.5564
   28.230    0.4922
   28.260    0.4494
   28.290    0.6207
   28.320    0.4815
   28.350    0.5778
   28.380    0.5671
   28.410    0.4494
   28.440    0.6100
   28.470    0.5778
   28.500    0.6100
   28.530    0.5886
   28.560    0.6635
   28.590    0.5457
   28.620    0.5029
   28.650    0.5671
   28.680    0.5564
   28.710    0.5671
   28.740    0.4387
   28.770    0.5993
   28.800    0.4708
   28.830    0.5993
   28.860    0.4922
   28.890    0.6100
   28.920    0.4922
   28.950    0.4922
   28.980    0.5886
   29.010    0.4708
   29.040    0.5029
   29.070    0.4708
   29.100    0.5993
   29.130    0.5564
   29.160    0.6207
   29.190    0.6314
   29.220    0.6849
   29.250    0.5564
   29.280    0.5136
   29.310    0.5136
   29.340    0.4922
   29.370    0.5243
   29.400    0.5029
   29.430    0.6100
   29.460    0.5778
   29.490    0.4815
   29.520    0.5886
   29.550    0.5136
   29.580    0.4601
   29.610    0.4601
   29.640    0.3317
   29.670    0.6207
   29.700    0.5778
   29.730    0.5136
   29.760    0.4708
   29.790    0.5243
   29.820    0.6849
   29.850    0.5029
   29.880    0.4922
   29.910    0.4815
   29.940    0.5136
   29.970    0.5136
   30.000    0.6207
   30.030    0.3638
   30.060    0.4601
   30.090    0.4387
   30.120    0.4922
   30.150    0.7063
   30.180    0.6207
   30.210    0.4708
   30.240    0.5350
   30.270    0.5136
   30.300    0.5029
   30.330    0.4708
   30.360    0.4601
   30.390    0.5457
   30.420    0.4815
   30.450    0.5993
   30.480    0.4494
   30.510    0.5457
   30.540    0.5243
   30.570    0.4601
   30.600    0.4173
   30.630    0.4708
   30.660    0.4815
   30.690    0.5136
   30.720    0.5564
   30.750    0.5350
   30.780    0.4387
   30.810    0.5136
   30.840    0.5243
   30.870    0.4922
   30.900    0.4066
   30.930    0.4708
   30.960    0.4173
   30.990    0.5243
   31.020    0.4280
   31.050    0.5243
   31.080    0.4387
   31.110    0.5564
   31.140    0.5243
   31.170    0.4387
   31.200    0.4387
   31.230    0.4280
   31.260    0.3638
   31.290    0.4815
   31.320    0.3638
   31.350    0.4708
   31.380    0.5350
   31.410    0.4708
   31.440    0.5136
   31.470    0.5350
   31.500    0.3959
   31.530    0.4066
   31.560    0.4815
   31.590    0.5136
   31.620    0.3531
   31.650    0.4280
   31.680    0.4494
   31.710    0.3745
   31.740    0.4494
   31.770    0.4922
   31.800    0.5350
   31.830    0.4494
   31.860    0.5350
   31.890    0.4601
   31.920    0.4708
   31.950    0.5886
   31.980    0.4280
   32.010    0.4173
   32.040    0.4066
   32.070    0.4173
   32.100    0.4708
   32.130    0.4387
   32.160    0.4922
   32.190    0.4280
   32.220    0.4815
   32.250    0.4066
   32.280    0.5136
   32.310    0.3638
   32.340    0.4601
   32.370    0.4066
   32.400    0.4815
   32.430    0.4173
   32.460    0.4708
   32.490    0.4494
   32.520    0.4601
   32.550    0.3317
   32.580    0.4173
   32.610    0.4601
   32.640    0.4922
   32.670    0.3317
   32.700    0.4601
   32.730    0.4922
   32.760    0.4387
   32.790    0.3852
   32.820    0.4387
   32.850    0.4815
   32.880    0.3424
   32.910    0.4173
   32.940    0.3959
   32.970    0.4173
   33.000    0.4387
   33.030    0.3745
   33.060    0.3852
   33.090    0.4280
   33.120    0.5243
   33.150    0.4601
   33.180    0.3103
   33.210    0.5350
   33.240    0.4815
   33.270    0.5243
   33.300    0.4280
   33.330    0.3852
   33.360    0.4280
   33.390    0.3424
   33.420    0.4387
   33.450    0.3959
   33.480    0.3638
   33.510    0.4708
   33.540    0.4922
   33.570    0.4066
   33.600    0.4387
   33.630    0.5243
   33.660    0.4280
   33.690    0.4066
   33.720    0.3103
   33.750    0.3103
   33.780    0.3852
   33.810    0.3531
   33.840    0.4066
   33.870    0.3424
   33.900    0.4815
   33.930    0.4601
   33.960    0.3103
   33.990    0.4708
   34.020    0.4922
   34.050    0.3424
   34.080    0.3959
   34.110    0.3959
   34.140    0.3959
   34.170    0.3424
   34.200    0.3959
   34.230    0.3959
   34.260    0.3745
   34.290    0.3852
   34.320    0.3852
   34.350    0.4066
   34.380    0.5350
   34.410    0.4280
   34.440    0.4173
   34.470    0.3745
   34.500    0.3210
   34.530    0.4387
   34.560    0.4066
   34.590    0.5029
   34.620    0.3424
   34.650    0.3317
   34.680    0.4815
   34.710    0.4173
   34.740    0.3424
   34.770    0.3210
   34.800    0.4601
   34.830    0.3852
   34.860    0.3852
   34.890    0.3638
   34.920    0.4494
   34.950    0.4173
   34.980    0.4173
   35.010    0.2568
   35.040    0.2889
   35.070    0.3638
   35.100    0.3638
   35.130    0.3103
   35.160    0.2461
   35.190    0.4494
   35.220    0.4066
   35.250    0.3638
   35.280    0.3638
   35.310    0.2782
   35.340    0.3424
   35.370    0.2889
   35.400    0.3103
   35.430    0.3317
   35.460    0.3959
   35.490    0.4280
   35.520    0.3424
   35.550    0.2996
   35.580    0.4280
   35.610    0.3531
   35.640    0.4066
   35.670    0.3531
   35.700    0.2889
   35.730    0.3531
   35.760    0.3531
   35.790    0.3745
   35.820    0.2996
   35.850    0.2675
   35.880    0.2996
   35.910    0.3317
   35.940    0.3103
   35.970    0.4387
   36.000    0.3638
   36.030    0.2461
   36.060    0.3424
   36.090    0.3531
   36.120    0.2461
   36.150    0.4173
   36.180    0.3317
   36.210    0.3424
   36.240    0.2889
   36.270    0.3210
   36.300    0.3210
   36.330    0.3317
   36.360    0.3424
   36.390    0.3103
   36.420    0.3531
   36.450    0.3531
   36.480    0.3424
   36.510    0.3103
   36.540    0.2568
   36.570    0.4066
   36.600    0.4173
   36.630    0.4280
   36.660    0.2140
   36.690    0.3852
   36.720    0.3317
   36.750    0.2782
   36.780    0.4280
   36.810    0.2675
   36.840    0.3638
   36.870    0.3103
   36.900    0.2996
   36.930    0.3852
   36.960    0.3638
   36.990    0.2996
   37.020    0.3317
   37.050    0.2996
   37.080    0.3317
   37.110    0.2996
   37.140    0.3317
   37.170    0.3210
   37.200    0.3852
   37.230    0.2889
   37.260    0.3103
   37.290    0.3959
   37.320    0.3317
   37.350    0.2675
   37.380    0.3638
   37.410    0.3210
   37.440    0.2675
   37.470    0.2889
   37.500    0.3103
   37.530    0.2461
   37.560    0.2782
   37.590    0.2354
   37.620    0.1819
   37.650    0.3424
   37.680    0.3103
   37.710    0.3745
   37.740    0.3210
   37.770    0.3210
   37.800    0.3210
   37.830    0.2033
   37.860    0.3317
   37.890    0.2568
   37.920    0.2996
   37.950    0.2889
   37.980    0.2782
   38.010    0.2247
   38.040    0.2889
   38.070    0.3210
   38.100    0.3745
   38.130    0.3103
   38.160    0.3424
   38.190    0.2461
   38.220    0.3210
   38.250    0.2675
   38.280    0.2461
   38.310    0.2889
   38.340    0.2889
   38.370    0.2140
   38.400    0.2568
   38.430    0.2461
   38.460    0.2782
   38.490    0.3424
   38.520    0.2675
   38.550    0.2354
   38.580    0.3745
   38.610    0.2675
   38.640    0.2461
   38.670    0.2996
   38.700    0.3103
   38.730    0.3317
   38.760    0.2247
   38.790    0.2247
   38.820    0.3103
   38.850    0.2782
   38.880    0.2996
   38.910    0.2247
   38.940    0.2996
   38.970    0.2033
   39.000    0.2996
   39.030    0.2354
   39.060    0.2033
   39.090    0.2568
   39.120    0.3317
   39.150    0.2996
   39.180    0.2461
   39.210    0.3317
   39.240    0.2354
   39.270    0.2461
   39.300    0.2675
   39.330    0.2889
   39.360    0.2889
   39.390    0.3317
   39.420    0.2247
   39.450    0.2140
   39.480    0.2140
   39.510    0.3103
   39.540    0.2247
   39.570    0.2889
   39.600    0.3745
   39.630    0.2996
   39.660    0.2568
   39.690    0.1712
   39.720    0.2889
   39.750    0.3210
   39.780    0.2140
   39.810    0.2140
   39.840    0.3317
   39.870    0.2996
   39.900    0.2354
   39.930    0.2140
   39.960    0.2675
   39.990    0.2354