File: data/MOCOF-1/PXRD/PXRD_KE-175_Cu-Ka1_capillary-1mm_5s-deg.xyd
    1.500   14.5445
    1.530   14.6709
    1.560   13.4071
    1.590   12.9331
    1.620   12.7751
    1.650   13.0595
    1.680   12.7014
    1.710   11.6166
    1.740   12.5750
    1.770   11.2902
    1.800   11.7746
    1.830   11.4587
    1.860   11.0269
    1.890   10.5319
    1.920   10.2264
    1.950   10.2580
    1.980   10.3318
    2.010   10.1738
    2.040   10.0158
    2.070    9.6367
    2.100    9.8473
    2.130   10.3318
    2.160   10.0685
    2.190    9.8473
    2.220    9.7630
    2.250    9.8473
    2.280    9.8999
    2.310   10.2896
    2.340    9.8368
    2.370    9.9526
    2.400   10.0790
    2.430    9.9210
    2.460   10.7109
    2.490   10.6688
    2.520   10.2159
    2.550   10.8583
    2.580   11.2270
    2.610   10.9426
    2.640   11.9115
    2.670   12.0274
    2.700   12.2380
    2.730   12.8278
    2.760   12.9542
    2.790   13.8389
    2.820   14.1127
    2.850   14.7551
    2.880   15.0711
    2.910   15.8294
    2.940   17.0090
    2.970   17.1459
    3.000   18.2728
    3.030   19.2522
    3.060   20.0105
    3.090   21.9589
    3.120   23.1806
    3.150   24.2022
    3.180   26.3086
    3.210   27.7199
    3.240   29.7104
    3.270   32.3433
    3.300   35.1659
    3.330   38.9995
    3.360   42.8120
    3.390   47.9516
    3.420   53.4492
    3.450   56.6509
    3.480   55.3976
    3.510   52.3749
    3.540   43.5598
    3.570   36.6403
    3.600   29.7420
    3.630   26.2454
    3.660   23.9179
    3.690   23.1280
    3.720   21.9589
    3.750   22.4434
    3.780   22.6540
    3.810   22.9910
    3.840   23.8336
    3.870   24.7709
    3.900   24.8657
    3.930   24.0126
    3.960   23.6230
    3.990   22.3486
    4.020   22.5592
    4.050   21.9589
    4.080   20.0948
    4.110   19.0311
    4.140   18.3781
    4.170   17.0195
    4.200   15.6503
    4.230   15.0816
    4.260   13.5756
    4.290   11.9326
    4.320   11.0795
    4.350   10.3423
    4.380    9.4576
    4.410    9.2154
    4.440    8.2780
    4.470    7.1617
    4.500    7.0248
    4.530    7.0563
    4.560    6.7404
    4.590    6.1611
    4.620    5.7925
    4.650    5.5714
    4.680    5.5608
    4.710    5.2133
    4.740    5.0026
    4.770    4.9078
    4.800    4.9605
    4.830    4.9394
    4.860    5.4766
    4.890    4.9921
    4.920    4.7393
    4.950    4.5708
    4.980    4.5708
    5.010    4.2654
    5.040    4.7499
    5.070    4.6867
    5.100    4.1811
    5.130    4.2443
    5.160    4.2654
    5.190    4.1074
    5.220    4.5076
    5.250    4.3813
    5.280    4.4760
    5.310    4.1180
    5.340    4.3813
    5.370    4.3918
    5.400    4.0969
    5.430    4.1811
    5.460    4.4760
    5.490    4.7709
    5.520    4.8341
    5.550    4.4234
    5.580    3.9810
    5.610    4.0337
    5.640    3.6967
    5.670    3.8231
    5.700    3.9600
    5.730    3.4018
    5.760    3.8231
    5.790    3.9284
    5.820    3.8125
    5.850    3.6335
    5.880    3.8125
    5.910    3.8757
    5.940    3.8652
    5.970    3.9179
    6.000    3.9810
    6.030    3.8547
    6.060    3.6546
    6.090    3.9705
    6.120    3.7599
    6.150    3.8336
    6.180    3.7493
    6.210    3.7072
    6.240    4.1706
    6.270    4.0548
    6.300    4.1601
    6.330    4.1601
    6.360    4.1074
    6.390    4.1601
    6.420    4.0442
    6.450    4.1390
    6.480    4.1285
    6.510    4.4760
    6.540    4.4550
    6.570    4.3918
    6.600    4.6235
    6.630    4.7499
    6.660    4.8552
    6.690    5.3712
    6.720    5.4660
    6.750    5.5819
    6.780    5.8978
    6.810    6.1190
    6.840    6.7825
    6.870    7.2038
    6.900    7.6461
    6.930    7.7830
    6.960    8.1833
    6.990    8.2149
    7.020    7.5724
    7.050    7.0353
    7.080    5.9610
    7.110    5.2238
    7.140    4.8236
    7.170    4.7499
    7.200    4.3602
    7.230    4.4655
    7.260    4.5182
    7.290    4.1811
    7.320    4.3286
    7.350    4.1180
    7.380    4.1706
    7.410    4.3918
    7.440    4.1917
    7.470    4.0021
    7.500    4.5498
    7.530    4.7920
    7.560    4.0442
    7.590    4.3707
    7.620    4.0548
    7.650    4.3497
    7.680    4.6340
    7.710    4.3707
    7.740    4.5919
    7.770    4.7077
    7.800    4.4128
    7.830    5.0237
    7.860    4.8868
    7.890    4.9921
    7.920    4.5392
    7.950    4.5392
    7.980    4.4550
    8.010    5.0974
    8.040    4.8868
    8.070    4.9605
    8.100    4.8763
    8.130    5.0658
    8.160    5.1606
    8.190    4.9500
    8.220    4.8341
    8.250    5.3291
    8.280    4.8131
    8.310    4.8131
    8.340    4.6972
    8.370    5.1395
    8.400    4.7815
    8.430    4.8447
    8.460    4.4550
    8.490    4.6340
    8.520    4.2127
    8.550    4.3707
    8.580    4.1496
    8.610    4.6024
    8.640    4.4866
    8.670    4.3391
    8.700    4.1706
    8.730    4.0758
    8.760    4.4128
    8.790    3.6546
    8.820    3.8968
    8.850    4.0864
    8.880    3.7177
    8.910    4.1601
    8.940    3.6440
    8.970    3.9284
    9.000    4.0232
    9.030    3.4860
    9.060    3.6335
    9.090    3.7072
    9.120    3.7072
    9.150    3.5808
    9.180    3.7388
    9.210    3.5492
    9.240    3.8020
    9.270    3.6546
    9.300    3.7493
    9.330    3.4650
    9.360    3.5914
    9.390    3.6967
    9.420    3.6440
    9.450    3.7493
    9.480    3.9284
    9.510    3.6967
    9.540    3.8652
    9.570    4.0337
    9.600    4.1917
    9.630    3.6651
    9.660    3.5914
    9.690    3.4966
    9.720    3.6335
    9.750    3.4334
    9.780    3.7283
    9.810    3.6440
    9.840    3.5914
    9.870    3.7072
    9.900    3.2859
    9.930    3.5282
    9.960    3.8125
    9.990    3.6967
   10.020    3.3491
   10.050    3.6862
   10.080    3.7599
   10.110    3.6230
   10.140    3.6335
   10.170    3.5176
   10.200    3.7493
   10.230    3.6124
   10.260    3.8231
   10.290    3.4860
   10.320    3.6230
   10.350    4.0864
   10.380    4.0548
   10.410    4.3602
   10.440    3.5282
   10.470    3.8336
   10.500    3.8968
   10.530    4.0758
   10.560    3.8547
   10.590    3.6546
   10.620    3.5914
   10.650    3.4966
   10.680    3.6335
   10.710    3.5176
   10.740    3.4544
   10.770    3.6440
   10.800    3.6967
   10.830    3.1806
   10.860    3.6967
   10.890    3.2754
   10.920    3.3913
   10.950    3.5703
   10.980    3.7072
   11.010    3.6019
   11.040    3.9284
   11.070    3.5914
   11.100    3.4229
   11.130    3.4439
   11.160    3.6124
   11.190    3.4966
   11.220    3.4123
   11.250    3.4860
   11.280    3.3913
   11.310    3.4860
   11.340    3.4018
   11.370    3.4966
   11.400    3.4439
   11.430    3.3807
   11.460    3.6335
   11.490    3.0858
   11.520    3.4439
   11.550    3.7072
   11.580    3.4650
   11.610    3.6756
   11.640    3.3175
   11.670    3.5598
   11.700    3.6546
   11.730    3.5914
   11.760    3.5914
   11.790    3.7177
   11.820    3.4439
   11.850    3.6756
   11.880    3.6862
   11.910    3.6335
   11.940    3.5914
   11.970    3.6651
   12.000    3.6651
   12.030    3.5176
   12.060    3.5387
   12.090    3.9179
   12.120    3.8757
   12.150    3.5071
   12.180    3.7283
   12.210    3.4755
   12.240    3.4544
   12.270    3.3702
   12.300    3.3807
   12.330    3.8547
   12.360    3.8968
   12.390    3.8757
   12.420    3.5176
   12.450    3.4439
   12.480    3.7388
   12.510    3.6967
   12.540    3.7493
   12.570    3.8020
   12.600    3.8336
   12.630    3.4123
   12.660    3.9179
   12.690    3.3807
   12.720    3.5598
   12.750    3.9179
   12.780    3.5808
   12.810    3.6230
   12.840    3.8125
   12.870    3.4966
   12.900    3.6335
   12.930    3.8968
   12.960    3.7809
   12.990    3.6230
   13.020    3.7704
   13.050    3.7809
   13.080    3.8125
   13.110    3.5808
   13.140    3.4439
   13.170    3.5808
   13.200    3.5703
   13.230    3.3386
   13.260    3.2965
   13.290    3.4018
   13.320    3.3913
   13.350    3.3281
   13.380    3.4439
   13.410    3.6546
   13.440    3.4123
   13.470    3.6756
   13.500    3.6862
   13.530    3.7072
   13.560    3.6335
   13.590    3.5492
   13.620    3.5176
   13.650    3.4123
   13.680    3.6230
   13.710    3.6019
   13.740    3.7388
   13.770    3.5808
   13.800    3.8020
   13.830    3.3913
   13.860    3.2754
   13.890    3.7283
   13.920    3.5387
   13.950    3.5808
   13.980    3.6019
   14.010    3.7493
   14.040    3.4860
   14.070    3.7283
   14.100    3.5492
   14.130    3.0121
   14.160    3.7704
   14.190    3.4334
   14.220    3.5808
   14.250    3.4229
   14.280    3.4334
   14.310    3.1385
   14.340    3.1806
   14.370    3.1280
   14.400    3.2754
   14.430    3.4123
   14.460    3.6335
   14.490    3.1596
   14.520    3.3175
   14.550    3.3491
   14.580    3.3175
   14.610    3.2438
   14.640    3.4439
   14.670    3.3913
   14.700    3.4123
   14.730    3.3807
   14.760    3.5176
   14.790    3.5387
   14.820    3.4650
   14.850    3.5808
   14.880    3.3807
   14.910    3.3070
   14.940    3.3491
   14.970    3.4755
   15.000    3.1912
   15.030    3.0226
   15.060    3.1596
   15.090    3.5914
   15.120    3.3070
   15.150    3.2227
   15.180    3.4650
   15.210    3.4439
   15.240    3.6335
   15.270    3.1385
   15.300    3.3175
   15.330    3.4123
   15.360    3.1701
   15.390    3.1912
   15.420    3.3597
   15.450    3.2122
   15.480    3.2017
   15.510    3.3070
   15.540    3.3281
   15.570    3.4018
   15.600    3.3913
   15.630    3.4439
   15.660    3.6230
   15.690    3.0332
   15.720    3.4439
   15.750    3.4229
   15.780    3.5387
   15.810    3.2543
   15.840    3.3702
   15.870    3.6019
   15.900    3.2227
   15.930    3.5176
   15.960    3.5598
   15.990    3.3702
   16.020    3.3281
   16.050    3.4755
   16.080    3.5492
   16.110    3.5071
   16.140    3.3913
   16.170    3.2859
   16.200    3.5071
   16.230    3.4123
   16.260    3.3913
   16.290    3.4860
   16.320    3.4966
   16.350    3.4439
   16.380    3.5808
   16.410    3.5808
   16.440    3.7809
   16.470    3.5071
   16.500    3.2227
   16.530    3.2649
   16.560    3.2754
   16.590    3.5387
   16.620    3.2859
   16.650    3.5176
   16.680    3.4966
   16.710    3.2754
   16.740    3.4018
   16.770    3.4439
   16.800    3.3491
   16.830    3.2122
   16.860    3.3070
   16.890    3.3386
   16.920    3.2649
   16.950    3.3281
   16.980    3.4123
   17.010    3.4334
   17.040    3.3597
   17.070    3.5071
   17.100    3.4755
   17.130    3.5071
   17.160    3.6019
   17.190    3.6862
   17.220    3.3702
   17.250    3.2859
   17.280    3.4860
   17.310    3.5598
   17.340    3.5071
   17.370    3.1806
   17.400    3.3807
   17.430    3.2965
   17.460    3.1490
   17.490    3.2543
   17.520    3.5282
   17.550    3.6019
   17.580    3.4544
   17.610    3.6440
   17.640    3.3281
   17.670    3.5598
   17.700    3.3070
   17.730    3.5176
   17.760    3.4439
   17.790    3.4334
   17.820    3.3281
   17.850    3.3807
   17.880    3.3491
   17.910    3.7177
   17.940    3.5808
   17.970    3.4123
   18.000    3.5176
   18.030    3.2333
   18.060    3.5492
   18.090    3.8020
   18.120    3.3597
   18.150    3.5176
   18.180    3.6651
   18.210    3.5387
   18.240    3.4544
   18.270    3.3597
   18.300    3.1701
   18.330    3.6546
   18.360    3.4755
   18.390    3.6651
   18.420    3.5176
   18.450    3.0858
   18.480    3.4123
   18.510    3.2438
   18.540    3.5282
   18.570    3.6651
   18.600    3.6651
   18.630    3.7283
   18.660    3.3597
   18.690    3.2754
   18.720    3.2859
   18.750    3.3386
   18.780    3.4966
   18.810    3.4544
   18.840    3.1912
   18.870    3.6546
   18.900    3.4334
   18.930    3.6019
   18.960    3.4229
   18.990    3.8125
   19.020    3.6335
   19.050    3.4544
   19.080    3.4439
   19.110    3.3597
   19.140    3.5598
   19.170    3.4650
   19.200    3.1912
   19.230    3.6440
   19.260    3.8652
   19.290    3.1912
   19.320    3.6651
   19.350    3.4860
   19.380    3.4544
   19.410    3.5282
   19.440    3.7177
   19.470    3.6230
   19.500    3.7072
   19.530    3.4755
   19.560    3.4755
   19.590    3.5808
   19.620    3.7388
   19.650    3.5071
   19.680    3.6440
   19.710    3.7177
   19.740    3.5598
   19.770    3.8231
   19.800    3.5914
   19.830    3.7177
   19.860    3.5914
   19.890    4.0548
   19.920    3.7809
   19.950    3.5387
   19.980    3.8547
   20.010    3.6019
   20.040    3.7809
   20.070    3.7177
   20.100    3.5492
   20.130    3.6967
   20.160    3.8652
   20.190    3.6546
   20.220    3.4966
   20.250    3.6124
   20.280    3.7177
   20.310    3.5282
   20.340    3.9600
   20.370    4.0969
   20.400    3.6019
   20.430    3.6124
   20.460    3.5598
   20.490    3.7388
   20.520    3.7072
   20.550    3.4439
   20.580    3.5808
   20.610    3.6019
   20.640    3.5176
   20.670    3.3807
   20.700    3.9916
   20.730    3.7599
   20.760    3.8125
   20.790    3.7493
   20.820    3.7915
   20.850    4.0232
   20.880    3.7072
   20.910    3.8441
   20.940    3.9600
   20.970    3.7283
   21.000    3.8020
   21.030    3.8547
   21.060    3.6967
   21.090    3.9389
   21.120    3.8757
   21.150    3.8125
   21.180    3.8968
   21.210    3.8336
   21.240    3.9179
   21.270    3.5598
   21.300    3.6440
   21.330    3.7177
   21.360    3.4966
   21.390    3.6335
   21.420    3.7599
   21.450    4.0337
   21.480    3.7704
   21.510    3.6124
   21.540    3.6440
   21.570    3.9600
   21.600    3.9179
   21.630    3.5808
   21.660    3.7809
   21.690    3.7599
   21.720    3.1912
   21.750    4.0126
   21.780    3.4860
   21.810    3.9179
   21.840    3.5071
   21.870    3.4334
   21.900    3.6335
   21.930    3.9284
   21.960    3.6862
   21.990    4.0969
   22.020    4.0442
   22.050    3.9916
   22.080    3.6440
   22.110    3.5282
   22.140    3.7809
   22.170    3.6230
   22.200    3.7704
   22.230    3.8968
   22.260    3.8757
   22.290    4.0442
   22.320    4.0548
   22.350    3.9284
   22.380    3.8441
   22.410    3.6230
   22.440    4.1917
   22.470    3.9810
   22.500    3.7915
   22.530    3.8125
   22.560    3.9179
   22.590    3.7704
   22.620    3.9705
   22.650    3.9810
   22.680    3.6862
   22.710    3.6756
   22.740    3.5492
   22.770    3.6756
   22.800    3.8020
   22.830    3.6230
   22.860    3.5492
   22.890    3.8125
   22.920    3.5176
   22.950    3.7599
   22.980    3.7599
   23.010    3.9389
   23.040    3.9073
   23.070    3.7704
   23.100    3.6756
   23.130    3.8336
   23.160    3.6546
   23.190    4.1601
   23.220    3.6230
   23.250    3.9179
   23.280    3.9389
   23.310    3.6862
   23.340    3.3597
   23.370    3.6756
   23.400    3.7283
   23.430    4.0758
   23.460    3.8652
   23.490    3.7283
   23.520    3.8336
   23.550    4.0969
   23.580    3.7388
   23.610    3.9494
   23.640    3.7915
   23.670    3.4966
   23.700    4.1074
   23.730    3.5176
   23.760    3.5914
   23.790    3.6124
   23.820    3.9073
   23.850    3.8020
   23.880    3.6440
   23.910    3.6862
   23.940    3.5282
   23.970    3.4860
   24.000    3.4123
   24.030    3.5703
   24.060    3.5387
   24.090    3.7493
   24.120    3.6335
   24.150    3.8968
   24.180    3.6546
   24.210    3.4123
   24.240    3.6019
   24.270    3.7388
   24.300    4.1496
   24.330    3.3597
   24.360    3.8863
   24.390    3.4123
   24.420    3.6546
   24.450    3.8757
   24.480    3.3597
   24.510    3.4439
   24.540    3.6651
   24.570    3.8547
   24.600    3.6862
   24.630    3.7809
   24.660    3.6967
   24.690    3.6230
   24.720    3.3702
   24.750    3.7599
   24.780    3.5176
   24.810    3.7388
   24.840    3.3807
   24.870    3.6967
   24.900    3.5808
   24.930    3.5176
   24.960    3.4544
   24.990    3.7809
   25.020    3.7599
   25.050    3.5387
   25.080    3.7915
   25.110    3.5703
   25.140    3.3281
   25.170    3.3807
   25.200    3.6230
   25.230    3.7388
   25.260    3.4018
   25.290    3.3070
   25.320    3.6124
   25.350    3.4755
   25.380    3.4755
   25.410    3.4544
   25.440    3.8020
   25.470    3.6651
   25.500    3.8547
   25.530    3.2754
   25.560    3.2649
   25.590    3.5176
   25.620    3.5808
   25.650    3.7599
   25.680    3.6546
   25.710    3.5282
   25.740    3.3913
   25.770    3.5914
   25.800    3.5176
   25.830    3.6440
   25.860    3.6756
   25.890    3.2438
   25.920    3.3175
   25.950    3.6230
   25.980    3.2227
   26.010    3.4334
   26.040    3.6440
   26.070    3.1596
   26.100    3.4018
   26.130    3.5387
   26.160    3.2543
   26.190    3.3070
   26.220    3.3386
   26.250    3.5492
   26.280    3.2859
   26.310    3.2227
   26.340    3.3702
   26.370    3.2859
   26.400    3.5387
   26.430    3.2649
   26.460    3.5071
   26.490    3.4334
   26.520    3.4018
   26.550    3.4439
   26.580    3.1912
   26.610    3.3913
   26.640    3.2438
   26.670    3.2543
   26.700    3.0121
   26.730    3.4755
   26.760    3.4544
   26.790    3.0332
   26.820    3.3702
   26.850    2.9805
   26.880    2.9595
   26.910    3.1280
   26.940    3.4018
   26.970    3.1806
   27.000    3.3807
   27.030    3.3702
   27.060    3.2333
   27.090    3.2017
   27.120    3.3491
   27.150    3.2543
   27.180    3.1912
   27.210    3.2649
   27.240    3.3070
   27.270    2.9910
   27.300    3.1912
   27.330    3.2965
   27.360    3.5703
   27.390    3.3175
   27.420    3.3386
   27.450    3.0121
   27.480    3.3491
   27.510    2.9595
   27.540    2.9489
   27.570    3.4544
   27.600    3.2227
   27.630    3.1069
   27.660    3.1596
   27.690    3.4755
   27.720    3.1701
   27.750    3.5598
   27.780    3.5387
   27.810    3.1596
   27.840    3.3702
   27.870    3.4123
   27.900    3.1701
   27.930    3.4229
   27.960    3.2333
   27.990    3.2227
   28.020    3.2754
   28.050    3.3281
   28.080    3.2543
   28.110    3.5387
   28.140    3.1596
   28.170    3.2438
   28.200    3.3807
   28.230    3.2649
   28.260    3.2333
   28.290    3.2543
   28.320    3.1069
   28.350    3.4334
   28.380    3.2649
   28.410    3.2333
   28.440    3.3070
   28.470    3.0648
   28.500    3.3281
   28.530    3.0753
   28.560    3.4123
   28.590    3.2649
   28.620    3.2438
   28.650    3.2754
   28.680    3.0753
   28.710    2.8752
   28.740    3.6756
   28.770    3.2438
   28.800    3.0121
   28.830    3.1280
   28.860    3.0964
   28.890    3.0542
   28.920    3.2227
   28.950    3.0437
   28.980    3.0226
   29.010    3.1280
   29.040    3.1701
   29.070    2.9173
   29.100    3.1280
   29.130    2.8857
   29.160    3.0964
   29.190    2.7383
   29.220    3.0753
   29.250    3.0016
   29.280    3.0753
   29.310    3.1174
   29.340    3.0542
   29.370    3.4123
   29.400    2.8963
   29.430    3.1385
   29.460    3.2754
   29.490    3.1596
   29.520    3.0542
   29.550    3.0858
   29.580    3.0964
   29.610    3.0016
   29.640    3.3281
   29.670    2.9700
   29.700    3.0332
   29.730    3.0332
   29.760    2.9489
   29.790    3.0016
   29.820    2.9384
   29.850    3.1596
   29.880    2.9279
   29.910    3.0648
   29.940    3.0016
   29.970    2.9700
   30.000    2.9700
   30.030    3.0542
   30.060    3.0964
   30.090    3.0121
   30.120    3.0121
   30.150    3.1596
   30.180    3.0648
   30.210    2.9384
   30.240    3.2227
   30.270    2.7383
   30.300    3.0332
   30.330    3.0858
   30.360    3.0016
   30.390    2.7278
   30.420    2.9173
   30.450    3.1596
   30.480    2.7909
   30.510    3.0753
   30.540    3.0226
   30.570    3.0542
   30.600    2.9805
   30.630    2.9173
   30.660    3.0016
   30.690    2.9700
   30.720    3.0226
   30.750    2.7593
   30.780    2.8857
   30.810    2.8331
   30.840    3.0332
   30.870    2.9910
   30.900    2.8647
   30.930    2.7909
   30.960    2.8647
   30.990    2.7909
   31.020    3.0648
   31.050    2.8647
   31.080    2.7909
   31.110    2.8857
   31.140    3.0964
   31.170    2.8436
   31.200    2.6540
   31.230    2.4961
   31.260    2.8120
   31.290    2.9173
   31.320    2.9700
   31.350    2.9700
   31.380    2.8857
   31.410    3.2754
   31.440    2.9068
   31.470    2.8436
   31.500    2.9489
   31.530    2.9805
   31.560    2.7488
   31.590    2.8541
   31.620    2.7593
   31.650    2.8436
   31.680    3.1069
   31.710    3.1280
   31.740    2.9595
   31.770    2.8436
   31.800    2.7278
   31.830    3.0858
   31.860    2.8120
   31.890    2.8541
   31.920    2.9805
   31.950    2.8120
   31.980    2.9068
   32.010    3.2122
   32.040    2.8120
   32.070    3.1701
   32.100    3.2122
   32.130    2.8752
   32.160    3.0753
   32.190    2.9384
   32.220    2.7804
   32.250    2.9068
   32.280    2.8225
   32.310    2.9700
   32.340    2.4750
   32.370    2.5908
   32.400    2.6856
   32.430    2.5276
   32.460    2.8963
   32.490    2.8225
   32.520    2.7067
   32.550    2.7278
   32.580    2.7278
   32.610    2.6224
   32.640    2.7067
   32.670    2.7593
   32.700    2.6224
   32.730    2.7278
   32.760    2.7804
   32.790    2.7067
   32.820    2.6435
   32.850    2.6751
   32.880    2.5698
   32.910    2.5908
   32.940    2.7699
   32.970    2.5908
   33.000    2.6856
   33.030    2.6014
   33.060    2.5171
   33.090    2.4645
   33.120    2.4329
   33.150    2.7699
   33.180    2.5066
   33.210    2.6540
   33.240    2.6224
   33.270    2.4855
   33.300    2.4855
   33.330    2.5592
   33.360    2.3275
   33.390    2.8225
   33.420    2.7488
   33.450    2.5908
   33.480    2.7172
   33.510    2.3486
   33.540    2.6014
   33.570    2.6224
   33.600    2.5171
   33.630    2.4329
   33.660    2.6119
   33.690    2.6119
   33.720    2.3170
   33.750    2.3802
   33.780    2.6646
   33.810    2.8857
   33.840    2.6330
   33.870    2.7172
   33.900    2.4539
   33.930    2.6540
   33.960    2.6330
   33.990    2.6962
   34.020    2.4645
   34.050    2.6224
   34.080    2.6014
   34.110    2.3907
   34.140    2.7488
   34.170    2.6540
   34.200    2.3907
   34.230    2.3697
   34.260    2.3697
   34.290    2.4855
   34.320    2.5803
   34.350    2.7278
   34.380    2.4750
   34.410    2.5066
   34.440    2.3065
   34.470    2.4961
   34.500    2.4961
   34.530    2.5066
   34.560    2.4961
   34.590    2.3486
   34.620    2.5698
   34.650    2.2749
   34.680    2.4961
   34.710    2.4539
   34.740    2.2749
   34.770    2.3065
   34.800    2.2222
   34.830    2.5803
   34.860    2.3802
   34.890    2.3907
   34.920    2.4750
   34.950    2.3802
   34.980    2.1801
   35.010    2.3907
   35.040    2.2643
   35.070    2.3275
   35.100    2.2749
   35.130    2.3170
   35.160    2.1590
   35.190    2.2433
   35.220    2.3065
   35.250    2.4118
   35.280    2.5066
   35.310    2.2117
   35.340    2.3486
   35.370    2.2749
   35.400    2.1485
   35.430    2.3275
   35.460    2.4539
   35.490    2.4013
   35.520    2.5382
   35.550    2.1274
   35.580    2.3907
   35.610    2.2643
   35.640    2.3170
   35.670    2.1485
   35.700    2.1906
   35.730    2.1696
   35.760    2.2643
   35.790    2.2643
   35.820    2.1696
   35.850    2.2117
   35.880    2.1169
   35.910    2.4223
   35.940    2.2643
   35.970    2.3065
   36.000    2.1064
   36.030    2.1274
   36.060    2.3591
   36.090    2.3381
   36.120    2.2854
   36.150    2.1906
   36.180    2.2749
   36.210    2.1485
   36.240    2.1906
   36.270    2.4329
   36.300    2.2959
   36.330    2.3275
   36.360    2.2433
   36.390    2.0537
   36.420    2.3802
   36.450    2.2117
   36.480    2.0958
   36.510    2.3802
   36.540    2.2328
   36.570    2.2012
   36.600    2.2222
   36.630    2.2854
   36.660    2.2959
   36.690    2.0958
   36.720    2.0958
   36.750    2.2433
   36.780    2.0748
   36.810    2.3065
   36.840    2.1380
   36.870    2.1064
   36.900    2.2643
   36.930    2.2854
   36.960    2.2959
   36.990    2.3275
   37.020    2.0537
   37.050    2.0537
   37.080    2.1274
   37.110    1.9800
   37.140    2.1485
   37.170    2.0853
   37.200    2.0011
   37.230    2.2749
   37.260    2.0958
   37.290    2.2538
   37.320    2.2222
   37.350    2.3697
   37.380    2.1380
   37.410    1.9800
   37.440    1.8431
   37.470    2.1169
   37.500    1.9905
   37.530    2.1906
   37.560    1.9484
   37.590    2.0748
   37.620    2.1169
   37.650    2.2433
   37.680    2.0011
   37.710    1.8220
   37.740    2.1696
   37.770    2.1064
   37.800    2.2749
   37.830    2.2012
   37.860    2.0432
   37.890    2.0853
   37.920    2.2328
   37.950    2.0748
   37.980    1.9800
   38.010    2.1590
   38.040    1.9379
   38.070    2.0853
   38.100    1.8325
   38.130    2.0748
   38.160    2.2012
   38.190    1.9800
   38.220    1.9905
   38.250    1.9168
   38.280    2.2012
   38.310    1.8325
   38.340    2.0853
   38.370    2.0432
   38.400    2.2749
   38.430    1.8957
   38.460    2.0116
   38.490    1.8641
   38.520    1.9800
   38.550    2.1064
   38.580    1.9905
   38.610    2.1169
   38.640    2.0326
   38.670    2.1274
   38.700    1.8641
   38.730    2.0326
   38.760    2.2959
   38.790    2.0748
   38.820    2.0116
   38.850    2.0537
   38.880    2.1801
   38.910    2.0432
   38.940    1.9800
   38.970    2.0958
   39.000    1.9168
   39.030    1.8852
   39.060    1.9589
   39.090    2.0958
   39.120    1.9589
   39.150    1.8747
   39.180    2.0011
   39.210    2.3381
   39.240    1.8641
   39.270    2.0221
   39.300    1.7694
   39.330    2.0748
   39.360    1.8852
   39.390    2.0326
   39.420    2.0326
   39.450    1.7904
   39.480    2.1590
   39.510    2.1485
   39.540    2.2749
   39.570    2.0853
   39.600    1.7904
   39.630    2.1274
   39.660    2.3170
   39.690    2.0853
   39.720    1.9484
   39.750    2.0116
   39.780    1.8852
   39.810    2.1169
   39.840    2.0748
   39.870    2.1380
   39.900    1.8009
   39.930    2.0853
   39.960    2.1380
   39.990    1.9273