File: data/MOCOF-1/PXRD/PXRD_KE-161_Cu-Ka1_capillary-1mm_5s-deg.xyd
    1.500   22.4434
    1.530   22.8015
    1.560   22.2328
    1.590   22.1801
    1.620   21.6535
    1.650   20.5371
    1.680   20.4213
    1.710   20.6424
    1.740   19.6735
    1.770   19.8842
    1.800   18.9784
    1.830   18.5150
    1.860   18.8836
    1.890   18.0411
    1.920   17.8199
    1.950   17.4829
    1.980   17.5355
    2.010   18.1359
    2.040   18.0832
    2.070   16.8194
    2.100   17.2828
    2.130   17.2301
    2.160   17.2091
    2.190   17.0932
    2.220   17.4302
    2.250   17.5461
    2.280   17.4197
    2.310   17.3670
    2.340   17.3354
    2.370   17.8199
    2.400   17.6935
    2.430   17.7988
    2.460   18.2728
    2.490   18.3465
    2.520   18.5255
    2.550   18.7572
    2.580   19.4734
    2.610   19.6525
    2.640   19.3576
    2.670   20.0948
    2.700   21.2112
    2.730   21.6008
    2.760   22.6435
    2.790   22.9700
    2.820   23.7599
    2.850   24.6656
    2.880   25.5398
    2.910   26.8036
    2.940   27.2143
    2.970   29.3839
    3.000   30.9110
    3.030   32.1327
    3.060   33.9231
    3.090   35.5977
    3.120   37.1985
    3.150   40.2212
    3.180   43.3281
    3.210   46.0874
    3.240   49.9737
    3.270   53.2175
    3.300   59.3260
    3.330   63.4545
    3.360   72.6277
    3.390   79.8631
    3.420   89.4471
    3.450   95.5766
    3.480   94.4603
    3.510   80.4529
    3.540   61.2217
    3.570   48.6993
    3.600   41.2954
    3.630   37.7041
    3.660   36.7562
    3.690   35.9031
    3.720   36.1769
    3.750   36.1137
    3.780   38.0305
    3.810   41.2849
    3.840   44.6867
    3.870   45.8978
    3.900   45.3081
    3.930   43.8547
    3.960   41.4850
    3.990   40.8004
    4.020   39.7999
    4.050   38.4202
    4.080   35.6187
    4.110   32.7120
    4.140   29.3944
    4.170   28.2675
    4.200   24.8236
    4.230   23.0016
    4.260   21.1480
    4.290   19.5366
    4.320   17.4829
    4.350   15.9452
    4.380   14.7973
    4.410   13.5018
    4.440   12.3539
    4.470   11.4903
    4.500   11.3112
    4.530   10.3423
    4.560   10.2264
    4.590    9.9315
    4.620    9.2786
    4.650    9.6577
    4.680    9.2680
    4.710    8.4887
    4.740    9.1311
    4.770    8.5940
    4.800    8.6888
    4.830    8.2570
    4.860    8.5519
    4.890    7.7830
    4.920    8.1411
    4.950    8.2886
    4.980    7.6040
    5.010    7.9937
    5.040    8.3307
    5.070    7.9410
    5.100    7.8568
    5.130    7.6356
    5.160    7.7936
    5.190    8.0042
    5.220    8.0569
    5.250    8.1411
    5.280    7.7936
    5.310    8.0463
    5.340    7.8568
    5.370    8.4044
    5.400    8.5729
    5.430    8.4255
    5.460    9.2154
    5.490    9.4787
    5.520    9.2575
    5.550    7.9726
    5.580    7.1511
    5.610    6.8878
    5.640    6.8352
    5.670    7.0142
    5.700    7.1511
    5.730    6.7088
    5.760    6.6772
    5.790    6.7930
    5.820    7.0774
    5.850    7.0985
    5.880    6.9826
    5.910    7.2880
    5.940    6.9721
    5.970    6.8141
    6.000    6.9300
    6.030    6.8668
    6.060    7.3828
    6.090    7.3618
    6.120    6.8036
    6.150    6.9721
    6.180    7.1722
    6.210    7.3723
    6.240    7.3618
    6.270    7.0248
    6.300    7.0985
    6.330    6.7088
    6.360    7.4250
    6.390    7.2038
    6.420    7.4566
    6.450    7.7304
    6.480    7.5619
    6.510    7.7199
    6.540    8.0885
    6.570    8.2254
    6.600    8.4150
    6.630    8.1833
    6.660    9.0469
    6.690    9.3207
    6.720    9.6261
    6.750   10.2159
    6.780   10.5108
    6.810   10.8583
    6.840   11.2059
    6.870   12.1748
    6.900   13.2175
    6.930   14.2601
    6.960   14.6288
    6.990   14.7973
    7.020   12.4381
    7.050   11.6061
    7.080    9.7946
    7.110    8.8994
    7.140    8.9310
    7.170    7.9305
    7.200    7.9726
    7.230    7.9621
    7.260    8.0042
    7.290    7.8252
    7.320    7.7514
    7.350    7.6672
    7.380    7.5408
    7.410    7.8673
    7.440    7.4776
    7.470    7.4987
    7.500    7.6988
    7.530    7.5513
    7.560    8.2675
    7.590    7.9831
    7.620    8.1411
    7.650    8.4466
    7.680    8.7098
    7.710    8.5729
    7.740    8.8152
    7.770    8.8994
    7.800    9.2680
    7.830    8.9837
    7.860    9.3102
    7.890    9.2470
    7.920    9.3102
    7.950    9.8262
    7.980    9.5945
    8.010    9.1627
    8.040    9.4471
    8.070    9.3207
    8.100    9.5629
    8.130    9.4260
    8.160    9.1417
    8.190    9.0995
    8.220    9.3839
    8.250    8.9731
    8.280    8.7730
    8.310    8.7309
    8.340    8.6888
    8.370    8.7309
    8.400    8.7204
    8.430    8.0253
    8.460    8.1411
    8.490    8.2464
    8.520    7.8884
    8.550    7.6356
    8.580    7.5935
    8.610    7.7725
    8.640    7.7304
    8.670    7.3302
    8.700    7.8462
    8.730    7.4671
    8.760    7.6672
    8.790    7.3407
    8.820    7.3618
    8.850    6.8878
    8.880    6.7615
    8.910    7.0669
    8.940    7.3723
    8.970    6.7509
    9.000    6.9826
    9.030    6.6667
    9.060    6.5824
    9.090    6.6245
    9.120    6.8668
    9.150    6.8457
    9.180    6.6983
    9.210    6.7299
    9.240    6.5508
    9.270    6.7930
    9.300    6.7930
    9.330    6.4139
    9.360    6.8141
    9.390    6.9510
    9.420    6.9616
    9.450    7.0563
    9.480    6.8984
    9.510    7.0774
    9.540    7.7725
    9.570    7.4987
    9.600    6.9616
    9.630    6.6983
    9.660    6.8668
    9.690    6.4771
    9.720    6.5192
    9.750    6.6140
    9.780    6.3612
    9.810    6.7720
    9.840    6.8773
    9.870    7.0879
    9.900    6.2981
    9.930    7.2354
    9.960    6.7404
    9.990    6.7404
   10.020    6.7088
   10.050    6.6983
   10.080    6.3928
   10.110    6.4139
   10.140    6.4244
   10.170    6.7615
   10.200    6.9089
   10.230    7.3302
   10.260    6.7088
   10.290    6.9089
   10.320    7.3723
   10.350    6.8984
   10.380    6.7720
   10.410    6.9300
   10.440    7.0458
   10.470    7.1195
   10.500    7.0879
   10.530    6.7509
   10.560    6.7930
   10.590    6.6983
   10.620    6.6456
   10.650    6.5613
   10.680    6.8457
   10.710    6.8773
   10.740    6.8562
   10.770    6.5719
   10.800    6.8352
   10.830    6.8141
   10.860    6.6983
   10.890    6.4982
   10.920    6.4455
   10.950    6.5719
   10.980    6.6983
   11.010    6.9616
   11.040    6.9616
   11.070    6.6140
   11.100    6.7088
   11.130    6.4034
   11.160    6.5087
   11.190    6.5613
   11.220    6.4455
   11.250    6.1506
   11.280    6.5192
   11.310    6.5298
   11.340    6.4455
   11.370    6.2138
   11.400    6.6351
   11.430    6.6772
   11.460    6.0769
   11.490    6.5403
   11.520    6.9194
   11.550    6.5929
   11.580    6.3086
   11.610    6.6561
   11.640    6.7930
   11.670    6.3612
   11.700    6.8984
   11.730    6.9405
   11.760    6.4771
   11.790    7.0353
   11.820    6.7615
   11.850    6.9300
   11.880    6.5929
   11.910    6.9721
   11.940    6.7193
   11.970    6.5192
   12.000    6.7930
   12.030    7.1933
   12.060    6.6667
   12.090    6.5613
   12.120    6.7825
   12.150    6.8036
   12.180    6.7825
   12.210    6.3507
   12.240    6.5824
   12.270    6.6456
   12.300    6.4982
   12.330    6.9616
   12.360    6.6877
   12.390    7.0458
   12.420    6.9300
   12.450    6.6351
   12.480    6.6561
   12.510    7.2249
   12.540    6.7088
   12.570    6.7193
   12.600    6.8246
   12.630    7.0248
   12.660    6.6877
   12.690    6.3402
   12.720    6.9194
   12.750    6.4982
   12.780    6.9300
   12.810    6.6035
   12.840    6.7299
   12.870    6.8352
   12.900    6.7193
   12.930    7.0037
   12.960    6.8984
   12.990    7.1406
   13.020    6.3296
   13.050    6.7404
   13.080    6.5403
   13.110    6.5298
   13.140    6.7825
   13.170    6.4139
   13.200    6.3718
   13.230    6.1822
   13.260    6.5613
   13.290    6.8352
   13.320    6.3507
   13.350    6.6140
   13.380    6.9089
   13.410    6.0137
   13.440    6.4982
   13.470    6.6983
   13.500    6.6456
   13.530    6.4560
   13.560    6.2770
   13.590    6.5613
   13.620    6.3928
   13.650    6.8773
   13.680    6.4876
   13.710    6.1927
   13.740    6.6877
   13.770    6.1717
   13.800    6.8562
   13.830    6.4244
   13.860    6.6983
   13.890    6.6456
   13.920    6.5613
   13.950    6.4876
   13.980    6.1506
   14.010    6.3612
   14.040    6.3823
   14.070    6.5192
   14.100    6.7088
   14.130    6.2665
   14.160    6.2349
   14.190    6.2033
   14.220    6.1927
   14.250    6.8141
   14.280    6.2349
   14.310    6.3928
   14.340    6.5298
   14.370    6.2454
   14.400    6.3718
   14.430    6.2875
   14.460    6.1822
   14.490    6.2454
   14.520    6.2770
   14.550    6.0664
   14.580    6.1506
   14.610    6.3296
   14.640    6.3191
   14.670    6.9300
   14.700    6.3191
   14.730    5.8662
   14.760    6.4876
   14.790    6.4034
   14.820    6.0348
   14.850    6.3507
   14.880    6.4244
   14.910    6.2665
   14.940    6.0979
   14.970    6.1927
   15.000    6.3507
   15.030    5.9610
   15.060    6.3928
   15.090    6.5508
   15.120    6.3823
   15.150    6.0558
   15.180    6.4982
   15.210    6.5508
   15.240    6.5298
   15.270    6.0769
   15.300    6.5087
   15.330    6.6983
   15.360    6.3718
   15.390    6.0453
   15.420    6.3191
   15.450    6.4666
   15.480    6.4666
   15.510    6.4982
   15.540    6.6035
   15.570    5.9821
   15.600    6.3191
   15.630    6.5192
   15.660    6.4982
   15.690    6.6772
   15.720    6.3823
   15.750    6.6877
   15.780    6.9510
   15.810    6.5192
   15.840    6.6140
   15.870    6.6877
   15.900    6.5192
   15.930    6.7720
   15.960    7.3196
   15.990    6.9089
   16.020    7.4039
   16.050    6.9721
   16.080    7.1617
   16.110    6.8984
   16.140    7.0879
   16.170    7.5513
   16.200    7.2354
   16.230    6.8457
   16.260    7.3407
   16.290    6.8141
   16.320    6.9932
   16.350    7.0142
   16.380    6.8878
   16.410    6.4771
   16.440    7.0037
   16.470    6.4876
   16.500    6.7193
   16.530    6.3507
   16.560    6.8878
   16.590    7.0563
   16.620    6.6035
   16.650    6.2875
   16.680    6.3402
   16.710    6.5403
   16.740    6.3191
   16.770    6.1927
   16.800    6.4139
   16.830    6.5508
   16.860    6.2559
   16.890    6.5087
   16.920    6.2981
   16.950    6.5824
   16.980    6.4034
   17.010    6.7930
   17.040    6.0242
   17.070    6.6877
   17.100    6.5192
   17.130    5.9821
   17.160    6.7720
   17.190    6.7404
   17.220    6.3718
   17.250    6.4350
   17.280    6.2349
   17.310    6.3191
   17.340    6.2349
   17.370    6.1295
   17.400    6.6140
   17.430    6.3612
   17.460    6.4350
   17.490    6.5929
   17.520    6.2349
   17.550    6.3296
   17.580    6.3823
   17.610    6.5192
   17.640    6.3928
   17.670    6.2454
   17.700    6.0769
   17.730    6.1085
   17.760    6.5929
   17.790    6.7404
   17.820    6.3823
   17.850    6.0664
   17.880    5.9926
   17.910    5.9084
   17.940    6.2454
   17.970    6.1190
   18.000    6.2875
   18.030    6.2454
   18.060    6.7720
   18.090    6.6351
   18.120    6.3086
   18.150    6.4139
   18.180    6.2665
   18.210    6.2349
   18.240    6.3823
   18.270    6.1295
   18.300    6.4876
   18.330    6.5613
   18.360    6.2981
   18.390    6.7509
   18.420    6.1401
   18.450    6.5508
   18.480    6.2243
   18.510    6.5298
   18.540    6.0137
   18.570    6.4455
   18.600    6.3507
   18.630    6.3507
   18.660    7.0458
   18.690    6.5824
   18.720    6.1085
   18.750    5.8241
   18.780    6.6035
   18.810    6.2770
   18.840    6.2875
   18.870    6.7615
   18.900    6.4982
   18.930    6.4139
   18.960    6.8562
   18.990    6.7720
   19.020    6.6140
   19.050    6.8036
   19.080    6.4876
   19.110    6.5403
   19.140    6.4560
   19.170    6.6245
   19.200    6.5719
   19.230    6.8352
   19.260    6.6035
   19.290    6.2981
   19.320    6.3296
   19.350    6.3402
   19.380    6.8878
   19.410    6.7088
   19.440    6.4876
   19.470    6.5087
   19.500    6.1927
   19.530    6.6983
   19.560    6.6035
   19.590    6.4139
   19.620    6.6140
   19.650    6.5403
   19.680    6.8562
   19.710    6.6456
   19.740    6.4771
   19.770    6.3507
   19.800    6.6140
   19.830    6.7509
   19.860    7.0142
   19.890    6.8036
   19.920    6.6456
   19.950    6.8352
   19.980    6.4350
   20.010    6.7404
   20.040    6.6561
   20.070    6.8668
   20.100    6.9089
   20.130    6.5929
   20.160    6.9089
   20.190    6.9300
   20.220    6.6983
   20.250    6.4560
   20.280    6.6035
   20.310    6.4982
   20.340    6.7615
   20.370    6.6667
   20.400    7.0563
   20.430    6.4455
   20.460    6.7193
   20.490    6.7088
   20.520    6.6983
   20.550    6.9089
   20.580    6.8036
   20.610    6.5298
   20.640    6.9721
   20.670    6.4139
   20.700    6.8668
   20.730    6.6561
   20.760    6.6456
   20.790    7.0353
   20.820    6.4244
   20.850    6.9616
   20.880    6.9510
   20.910    6.5508
   20.940    6.8668
   20.970    6.8668
   21.000    7.0669
   21.030    7.0669
   21.060    6.9510
   21.090    6.7720
   21.120    7.0142
   21.150    6.7720
   21.180    6.6561
   21.210    7.0774
   21.240    7.1090
   21.270    6.8562
   21.300    6.8457
   21.330    6.4350
   21.360    7.1195
   21.390    6.6561
   21.420    6.7509
   21.450    6.6351
   21.480    6.5613
   21.510    7.2143
   21.540    6.8984
   21.570    6.7825
   21.600    6.6456
   21.630    6.6561
   21.660    7.0669
   21.690    6.7930
   21.720    7.2986
   21.750    7.1406
   21.780    6.8773
   21.810    6.7404
   21.840    6.9089
   21.870    6.7193
   21.900    6.7825
   21.930    6.8878
   21.960    6.8668
   21.990    6.4244
   22.020    6.7088
   22.050    6.9721
   22.080    6.8984
   22.110    6.6245
   22.140    6.9932
   22.170    6.7299
   22.200    6.4350
   22.230    7.3091
   22.260    6.8457
   22.290    6.8668
   22.320    6.5192
   22.350    6.5929
   22.380    7.2670
   22.410    6.9616
   22.440    6.6983
   22.470    7.1827
   22.500    6.8036
   22.530    6.6456
   22.560    6.8668
   22.590    6.9300
   22.620    6.6245
   22.650    7.0563
   22.680    7.1827
   22.710    6.7509
   22.740    6.3928
   22.770    6.4876
   22.800    6.9826
   22.830    6.6983
   22.860    6.8141
   22.890    6.5087
   22.920    7.2565
   22.950    6.9300
   22.980    6.9300
   23.010    7.0669
   23.040    6.5824
   23.070    7.1090
   23.100    6.6667
   23.130    6.6561
   23.160    6.7930
   23.190    6.7404
   23.220    6.7088
   23.250    6.4350
   23.280    6.9616
   23.310    6.4771
   23.340    7.1090
   23.370    6.4455
   23.400    7.0879
   23.430    6.3718
   23.460    6.8036
   23.490    6.8984
   23.520    6.9826
   23.550    6.6772
   23.580    6.7088
   23.610    6.5613
   23.640    6.8984
   23.670    6.6667
   23.700    6.2243
   23.730    6.9089
   23.760    6.4139
   23.790    6.6667
   23.820    6.3928
   23.850    6.7088
   23.880    6.2349
   23.910    6.6351
   23.940    6.3718
   23.970    6.8773
   24.000    6.4244
   24.030    6.5403
   24.060    6.4560
   24.090    6.7615
   24.120    6.6983
   24.150    6.7299
   24.180    6.5298
   24.210    6.5824
   24.240    6.2875
   24.270    6.5824
   24.300    6.5719
   24.330    6.8036
   24.360    6.0874
   24.390    6.1927
   24.420    6.5824
   24.450    6.3191
   24.480    6.3402
   24.510    6.3612
   24.540    6.4350
   24.570    6.3191
   24.600    6.9826
   24.630    6.6140
   24.660    6.3823
   24.690    6.2875
   24.720    6.9300
   24.750    6.8036
   24.780    6.3612
   24.810    6.2665
   24.840    6.4139
   24.870    6.3507
   24.900    6.2454
   24.930    6.2243
   24.960    6.4139
   24.990    6.4876
   25.020    6.7193
   25.050    6.4034
   25.080    6.6561
   25.110    6.6667
   25.140    6.1717
   25.170    6.6667
   25.200    6.3086
   25.230    6.7193
   25.260    6.1190
   25.290    6.5508
   25.320    6.0874
   25.350    6.5929
   25.380    6.2875
   25.410    6.3823
   25.440    6.7825
   25.470    6.3507
   25.500    6.2981
   25.530    6.2559
   25.560    6.0558
   25.590    6.0137
   25.620    6.2138
   25.650    5.9821
   25.680    5.9505
   25.710    6.5403
   25.740    6.1295
   25.770    6.4139
   25.800    6.6561
   25.830    6.4666
   25.860    6.5087
   25.890    6.2875
   25.920    5.7715
   25.950    6.2981
   25.980    6.3402
   26.010    6.6561
   26.040    6.2875
   26.070    5.9084
   26.100    6.6035
   26.130    6.0242
   26.160    6.0558
   26.190    6.6245
   26.220    6.0769
   26.250    5.7083
   26.280    6.1190
   26.310    5.8873
   26.340    6.2559
   26.370    6.1717
   26.400    6.8246
   26.430    6.1927
   26.460    6.4455
   26.490    6.0242
   26.520    5.9400
   26.550    6.2875
   26.580    5.9610
   26.610    5.6977
   26.640    6.2559
   26.670    6.2138
   26.700    5.9821
   26.730    6.1611
   26.760    6.1506
   26.790    6.0874
   26.820    6.1717
   26.850    6.0769
   26.880    6.2981
   26.910    6.1295
   26.940    6.2559
   26.970    6.2243
   27.000    6.1611
   27.030    5.8347
   27.060    5.8978
   27.090    5.7715
   27.120    5.9400
   27.150    6.1927
   27.180    6.4244
   27.210    6.1611
   27.240    5.8452
   27.270    6.1822
   27.300    6.1927
   27.330    5.8031
   27.360    6.2138
   27.390    5.8452
   27.420    6.1611
   27.450    6.2770
   27.480    5.8873
   27.510    5.7715
   27.540    6.2033
   27.570    6.0242
   27.600    5.5082
   27.630    6.0769
   27.660    6.1611
   27.690    6.4350
   27.720    6.3086
   27.750    5.9294
   27.780    6.3296
   27.810    6.0453
   27.840    6.2243
   27.870    5.8557
   27.900    5.7399
   27.930    6.0979
   27.960    6.5087
   27.990    6.2033
   28.020    6.3507
   28.050    6.2981
   28.080    6.3507
   28.110    6.0032
   28.140    6.1401
   28.170    6.2454
   28.200    6.0453
   28.230    6.1190
   28.260    6.2138
   28.290    6.0348
   28.320    5.9189
   28.350    6.0979
   28.380    6.2981
   28.410    5.7609
   28.440    6.0032
   28.470    5.6767
   28.500    6.1085
   28.530    6.1085
   28.560    5.7715
   28.590    6.1717
   28.620    5.7083
   28.650    6.1085
   28.680    6.2559
   28.710    5.8557
   28.740    5.6872
   28.770    5.8873
   28.800    6.2033
   28.830    6.0979
   28.860    5.7293
   28.890    5.9400
   28.920    6.3928
   28.950    6.2875
   28.980    6.1085
   29.010    6.1506
   29.040    5.7925
   29.070    6.2138
   29.100    5.8978
   29.130    6.0558
   29.160    5.9294
   29.190    5.7609
   29.220    6.1295
   29.250    5.6345
   29.280    5.7715
   29.310    5.9084
   29.340    5.9294
   29.370    6.4139
   29.400    5.9505
   29.430    5.8873
   29.460    5.5924
   29.490    5.6661
   29.520    6.0664
   29.550    6.2875
   29.580    5.9400
   29.610    5.6767
   29.640    5.5292
   29.670    5.7609
   29.700    5.7293
   29.730    5.4028
   29.760    5.6661
   29.790    5.7715
   29.820    5.7399
   29.850    5.6977
   29.880    5.7820
   29.910    6.0874
   29.940    5.5608
   29.970    5.5819
   30.000    5.4450
   30.030    5.6451
   30.060    6.2559
   30.090    5.7504
   30.120    5.9505
   30.150    5.8241
   30.180    5.8241
   30.210    5.8557
   30.240    5.8662
   30.270    5.8241
   30.300    5.7083
   30.330    6.0032
   30.360    5.8873
   30.390    6.0137
   30.420    5.6872
   30.450    5.9400
   30.480    5.8031
   30.510    5.6872
   30.540    5.4766
   30.570    5.9926
   30.600    5.8031
   30.630    5.6451
   30.660    6.0242
   30.690    5.5292
   30.720    6.0558
   30.750    5.8662
   30.780    5.5503
   30.810    5.6661
   30.840    5.8347
   30.870    5.9400
   30.900    5.9084
   30.930    6.0453
   30.960    5.7609
   30.990    6.0664
   31.020    5.5714
   31.050    5.9294
   31.080    5.7083
   31.110    5.9926
   31.140    5.9189
   31.170    5.9189
   31.200    5.8136
   31.230    5.8452
   31.260    5.8347
   31.290    5.8557
   31.320    5.3607
   31.350    5.4555
   31.380    5.7293
   31.410    5.6451
   31.440    5.4976
   31.470    5.4134
   31.500    5.4660
   31.530    5.5082
   31.560    6.0769
   31.590    5.6872
   31.620    5.6135
   31.650    6.1506
   31.680    5.6451
   31.710    5.6345
   31.740    5.6451
   31.770    6.1927
   31.800    5.9610
   31.830    6.3402
   31.860    6.3402
   31.890    6.0664
   31.920    6.1822
   31.950    5.9926
   31.980    5.8347
   32.010    6.0137
   32.040    6.6351
   32.070    6.5613
   32.100    6.7509
   32.130    6.5613
   32.160    6.3612
   32.190    6.1822
   32.220    5.6135
   32.250    5.6556
   32.280    5.6872
   32.310    5.6661
   32.340    5.6661
   32.370    5.5608
   32.400    5.6029
   32.430    5.9084
   32.460    5.4134
   32.490    5.2133
   32.520    5.7293
   32.550    5.5503
   32.580    5.4134
   32.610    5.8136
   32.640    5.6029
   32.670    5.3712
   32.700    5.2870
   32.730    5.6029
   32.760    5.3923
   32.790    5.3397
   32.820    5.5292
   32.850    5.6135
   32.880    5.4766
   32.910    5.3923
   32.940    5.6240
   32.970    5.5608
   33.000    5.1711
   33.030    5.6661
   33.060    5.2765
   33.090    5.4239
   33.120    5.2343
   33.150    5.5714
   33.180    5.5924
   33.210    5.0342
   33.240    5.2238
   33.270    5.2133
   33.300    4.9394
   33.330    5.1922
   33.360    5.2765
   33.390    5.6977
   33.420    5.4766
   33.450    5.5398
   33.480    5.4871
   33.510    5.2027
   33.540    5.0764
   33.570    5.3397
   33.600    5.4028
   33.630    5.2238
   33.660    5.3081
   33.690    5.4134
   33.720    5.4344
   33.750    5.3818
   33.780    5.5924
   33.810    5.6345
   33.840    5.9084
   33.870    5.5819
   33.900    5.2659
   33.930    5.4976
   33.960    4.8763
   33.990    5.5187
   34.020    5.4028
   34.050    5.1922
   34.080    5.2554
   34.110    5.2133
   34.140    5.1711
   34.170    5.3712
   34.200    5.2449
   34.230    5.2449
   34.260    5.4976
   34.290    5.2975
   34.320    5.1290
   34.350    5.4555
   34.380    5.1185
   34.410    5.1501
   34.440    5.4660
   34.470    5.5398
   34.500    5.4660
   34.530    4.8973
   34.560    5.4450
   34.590    5.3712
   34.620    5.2238
   34.650    5.3397
   34.680    5.2554
   34.710    5.2133
   34.740    5.2765
   34.770    5.2765
   34.800    5.3818
   34.830    5.0342
   34.860    5.1711
   34.890    5.2133
   34.920    4.9605
   34.950    4.8868
   34.980    5.0448
   35.010    5.4028
   35.040    5.1395
   35.070    5.4660
   35.100    5.1185
   35.130    4.7604
   35.160    5.1080
   35.190    5.0869
   35.220    5.1080
   35.250    4.6235
   35.280    5.2975
   35.310    4.8763
   35.340    5.0764
   35.370    5.0553
   35.400    5.1711
   35.430    4.8236
   35.460    4.9816
   35.490    4.8657
   35.520    5.0869
   35.550    5.3186
   35.580    5.3923
   35.610    4.8763
   35.640    5.0132
   35.670    5.0342
   35.700    4.8447
   35.730    5.6240
   35.760    4.9816
   35.790    5.0237
   35.820    5.0869
   35.850    4.8868
   35.880    5.1606
   35.910    5.0448
   35.940    5.2659
   35.970    4.9289
   36.000    4.7604
   36.030    5.2449
   36.060    4.9500
   36.090    5.4871
   36.120    5.3502
   36.150    5.0342
   36.180    4.9605
   36.210    5.0974
   36.240    5.1501
   36.270    4.5603
   36.300    4.7815
   36.330    5.1922
   36.360    4.9605
   36.390    5.1711
   36.420    5.2238
   36.450    4.7920
   36.480    5.2027
   36.510    5.0553
   36.540    5.0026
   36.570    4.9078
   36.600    4.7920
   36.630    4.9921
   36.660    5.5398
   36.690    5.1080
   36.720    4.7393
   36.750    5.3186
   36.780    5.1080
   36.810    5.2343
   36.840    4.7393
   36.870    5.3607
   36.900    4.7920
   36.930    5.2133
   36.960    4.7709
   36.990    4.9500
   37.020    5.4134
   37.050    4.9394
   37.080    5.2554
   37.110    4.7604
   37.140    5.1817
   37.170    4.9078
   37.200    4.9921
   37.230    4.9184
   37.260    5.0237
   37.290    4.8236
   37.320    4.6024
   37.350    5.0237
   37.380    5.1290
   37.410    5.2554
   37.440    5.1290
   37.470    4.7499
   37.500    4.9184
   37.530    4.8131
   37.560    5.3502
   37.590    5.0448
   37.620    5.0132
   37.650    4.8131
   37.680    4.6551
   37.710    4.7920
   37.740    4.8868
   37.770    4.8763
   37.800    4.7604
   37.830    4.7499
   37.860    4.8131
   37.890    4.6972
   37.920    4.9921
   37.950    4.9816
   37.980    4.8868
   38.010    4.8973
   38.040    4.9816
   38.070    4.8447
   38.100    5.0237
   38.130    5.1501
   38.160    5.3291
   38.190    4.6867
   38.220    4.7288
   38.250    4.9710
   38.280    5.2343
   38.310    5.0869
   38.340    4.7077
   38.370    5.1922
   38.400    5.2870
   38.430    4.9605
   38.460    5.0658
   38.490    5.0132
   38.520    4.7288
   38.550    4.6130
   38.580    5.1080
   38.610    5.0974
   38.640    4.9921
   38.670    5.3607
   38.700    4.7709
   38.730    5.3081
   38.760    4.7183
   38.790    5.1185
   38.820    5.2449
   38.850    5.0869
   38.880    5.3712
   38.910    5.2133
   38.940    5.5082
   38.970    5.1395
   39.000    5.4660
   39.030    5.5082
   39.060    5.6029
   39.090    5.3291
   39.120    5.6451
   39.150    5.9716
   39.180    5.4028
   39.210    5.4660
   39.240    5.4450
   39.270    5.5187
   39.300    5.2449
   39.330    5.3081
   39.360    5.5398
   39.390    5.2449
   39.420    5.1080
   39.450    5.3186
   39.480    4.8868
   39.510    5.1817
   39.540    4.8552
   39.570    5.0342
   39.600    5.0658
   39.630    5.1922
   39.660    4.6656
   39.690    4.9816
   39.720    4.9078
   39.750    5.1501
   39.780    4.9078
   39.810    4.7709
   39.840    5.2975
   39.870    4.7604
   39.900    4.8973
   39.930    4.9710
   39.960    5.0553
   39.990    4.9921