File: data/MOCOF-1/PXRD/PXRD_KE-154_Cu-Ka1_capillary-1mm_5s-deg.xyd
    1.500   43.7283
    1.530   44.4234
    1.560   44.0337
    1.590   42.6962
    1.620   42.0326
    1.650   39.4839
    1.680   38.3360
    1.710   38.3886
    1.740   37.4302
    1.770   37.0300
    1.800   36.3876
    1.830   35.9663
    1.860   35.8610
    1.890   35.5134
    1.920   34.0179
    1.950   34.5761
    1.980   33.5861
    2.010   33.7125
    2.040   34.0600
    2.070   33.5334
    2.100   32.2275
    2.130   32.3644
    2.160   32.1116
    2.190   33.3228
    2.220   32.5645
    2.250   33.2596
    2.280   33.1859
    2.310   33.1016
    2.340   33.8283
    2.370   34.2285
    2.400   34.5445
    2.430   34.2601
    2.460   34.9447
    2.490   36.0821
    2.520   36.5034
    2.550   37.6409
    2.580   36.9352
    2.610   39.1680
    2.640   40.4739
    2.670   40.3792
    2.700   42.8752
    2.730   43.9179
    2.760   44.7815
    2.790   46.0979
    2.820   49.1101
    2.850   49.9315
    2.880   52.6804
    2.910   53.2280
    2.940   57.3144
    2.970   59.6419
    3.000   63.0648
    3.030   65.5714
    3.060   70.1843
    3.090   73.2807
    3.120   80.3476
    3.150   84.6972
    3.180   90.8268
    3.210   97.9990
    3.240  105.3502
    3.270  115.0606
    3.300  125.3713
    3.330  141.2954
    3.360  154.0495
    3.390  173.2280
    3.420  189.3523
    3.450  199.6314
    3.480  193.7757
    3.510  169.0153
    3.540  134.3128
    3.570  106.4244
    3.600   88.4887
    3.630   76.7667
    3.660   72.0906
    3.690   70.1632
    3.720   68.4571
    3.750   68.8468
    3.780   70.7846
    3.810   71.1954
    3.840   74.0811
    3.870   78.0200
    3.900   78.4834
    3.930   81.1059
    3.960   83.7599
    3.990   85.7715
    4.020   86.1190
    4.050   84.8131
    4.080   83.6967
    4.110   80.0843
    4.140   75.0606
    4.170   70.3318
    4.200   65.1080
    4.230   56.2612
    4.260   51.1954
    4.290   44.8657
    4.320   39.7262
    4.350   34.6919
    4.380   31.6588
    4.410   27.8462
    4.440   23.9810
    4.470   23.3702
    4.500   20.6740
    4.530   19.7367
    4.560   18.0727
    4.590   17.1248
    4.620   16.1137
    4.650   15.6082
    4.680   15.1975
    4.710   14.6077
    4.740   14.0390
    4.770   13.8178
    4.800   13.9442
    4.830   12.5645
    4.860   12.6382
    4.890   12.3328
    4.920   12.3749
    4.950   11.7114
    4.980   11.5850
    5.010   11.1216
    5.040   10.8268
    5.070   11.4060
    5.100   11.1954
    5.130   11.1006
    5.160   10.4792
    5.190   10.6793
    5.220   10.5424
    5.250   10.4371
    5.280   10.3844
    5.310   10.3633
    5.340   10.3739
    5.370   10.0053
    5.400   10.2475
    5.430   10.2159
    5.460   10.2159
    5.490    9.5524
    5.520    9.8578
    5.550    9.5313
    5.580    9.7525
    5.610    9.6472
    5.640    9.4050
    5.670    9.6472
    5.700    9.5735
    5.730    9.4681
    5.760    9.1627
    5.790    9.2154
    5.820    9.8789
    5.850    9.3523
    5.880    9.5103
    5.910    9.2996
    5.940    9.3628
    5.970    9.2048
    6.000    9.4365
    6.030    9.3418
    6.060    9.5208
    6.090    9.2470
    6.120    9.2048
    6.150    9.2154
    6.180    9.2891
    6.210    9.6261
    6.240    9.8684
    6.270   10.2054
    6.300   10.1106
    6.330    9.7104
    6.360   10.0369
    6.390   10.2159
    6.420   10.2791
    6.450   10.7425
    6.480   10.4792
    6.510   11.0163
    6.540   11.4797
    6.570   11.9115
    6.600   11.4903
    6.630   12.8067
    6.660   12.9542
    6.690   13.8810
    6.720   14.5550
    6.750   15.3660
    6.780   15.9874
    6.810   17.4934
    6.840   18.8731
    6.870   21.2954
    6.900   23.8652
    6.930   24.1180
    6.960   25.5082
    6.990   24.3286
    7.020   22.8541
    7.050   19.2206
    7.080   17.0195
    7.110   15.0606
    7.140   13.7335
    7.170   12.2696
    7.200   11.8273
    7.230   11.6904
    7.260   11.1954
    7.290   11.8062
    7.320   11.0479
    7.350   10.6688
    7.380   10.3423
    7.410   10.6372
    7.440   11.0479
    7.470   10.5319
    7.500   10.6477
    7.530   10.6266
    7.560   10.8899
    7.590   10.8583
    7.620   11.0374
    7.650   11.4376
    7.680   11.3533
    7.710   11.9221
    7.740   11.5640
    7.770   12.1222
    7.800   12.2801
    7.830   12.6382
    7.860   12.7541
    7.890   12.8594
    7.920   13.1964
    7.950   13.2385
    7.980   13.3544
    8.010   13.4387
    8.040   13.9758
    8.070   13.8389
    8.100   13.9968
    8.130   14.6814
    8.160   14.5972
    8.190   14.2812
    8.220   14.0916
    8.250   14.7762
    8.280   14.1443
    8.310   13.8599
    8.340   13.6388
    8.370   14.2180
    8.400   13.1964
    8.430   13.0384
    8.460   12.8699
    8.490   12.8594
    8.520   12.3539
    8.550   12.3539
    8.580   12.0695
    8.610   11.5745
    8.640   11.1216
    8.670   10.5845
    8.700   11.3428
    8.730   10.1948
    8.760    9.6893
    8.790   10.2264
    8.820    9.8894
    8.850    9.6998
    8.880    9.4787
    8.910    9.2048
    8.940    9.7314
    8.970    9.2891
    9.000    9.4155
    9.030    9.3839
    9.060    8.8889
    9.090    9.3418
    9.120    9.3523
    9.150    9.0258
    9.180    8.6151
    9.210    8.7204
    9.240    8.3412
    9.270    8.7941
    9.300    8.5413
    9.330    8.7098
    9.360    8.6361
    9.390    8.8152
    9.420    8.2149
    9.450    8.6993
    9.480    8.0147
    9.510    8.6993
    9.540    8.5624
    9.570    8.6361
    9.600    8.4150
    9.630    8.4887
    9.660    8.2991
    9.690    8.8046
    9.720    8.3096
    9.750    8.1201
    9.780    8.4360
    9.810    8.7941
    9.840    8.2570
    9.870    8.3623
    9.900    8.3518
    9.930    8.3939
    9.960    8.1833
    9.990    8.6572
   10.020    8.5729
   10.050    8.6783
   10.080    7.8462
   10.110    8.5729
   10.140    8.3834
   10.170    8.3412
   10.200    8.6467
   10.230    8.4992
   10.260    8.5940
   10.290    8.8784
   10.320    8.6361
   10.350    8.9415
   10.380    9.1101
   10.410    8.6361
   10.440    9.4997
   10.470    9.2259
   10.500    9.2470
   10.530    8.9100
   10.560    8.6783
   10.590    8.9626
   10.620    8.3728
   10.650    8.0990
   10.680    8.5308
   10.710    8.3623
   10.740    8.7625
   10.770    8.2570
   10.800    8.2359
   10.830    8.0042
   10.860    8.6888
   10.890    7.7199
   10.920    8.3096
   10.950    8.0463
   10.980    8.5940
   11.010    8.4571
   11.040    8.7309
   11.070    8.0990
   11.100    7.8041
   11.130    8.2780
   11.160    8.2149
   11.190    8.4150
   11.220    8.6151
   11.250    8.3202
   11.280    8.3307
   11.310    8.3518
   11.340    8.1938
   11.370    8.1727
   11.400    8.7204
   11.430    8.0779
   11.460    8.4992
   11.490    8.1517
   11.520    8.1833
   11.550    8.7204
   11.580    8.4992
   11.610    8.4887
   11.640    8.6256
   11.670    8.5729
   11.700    7.9410
   11.730    8.4571
   11.760    8.5729
   11.790    8.8152
   11.820    8.2991
   11.850    8.9205
   11.880    8.7414
   11.910    8.7625
   11.940    8.5835
   11.970    8.3939
   12.000    8.8889
   12.030    8.5413
   12.060    9.0153
   12.090    9.2154
   12.120    8.5940
   12.150    8.8152
   12.180    8.9100
   12.210    9.0153
   12.240    8.6993
   12.270    8.7309
   12.300    8.9415
   12.330    8.8152
   12.360    8.8784
   12.390    8.7204
   12.420    8.9521
   12.450    8.7836
   12.480    8.5519
   12.510    9.5419
   12.540    9.0890
   12.570    8.5413
   12.600    9.0363
   12.630    8.6888
   12.660    8.8257
   12.690    8.9310
   12.720    9.2154
   12.750    8.8362
   12.780    8.9626
   12.810    9.1627
   12.840    8.1833
   12.870    8.8468
   12.900    9.0679
   12.930    8.7414
   12.960    8.9415
   12.990    8.8362
   13.020    8.4466
   13.050    8.7836
   13.080    8.6572
   13.110    8.7098
   13.140    8.4360
   13.170    8.8468
   13.200    8.3096
   13.230    8.5940
   13.260    8.5519
   13.290    8.3202
   13.320    8.6151
   13.350    8.4992
   13.380    8.5308
   13.410    8.6572
   13.440    8.0358
   13.470    8.7625
   13.500    8.1727
   13.530    8.3623
   13.560    8.4466
   13.590    8.4466
   13.620    8.6888
   13.650    8.5940
   13.680    8.3412
   13.710    8.0779
   13.740    8.0042
   13.770    8.5413
   13.800    8.7625
   13.830    8.6467
   13.860    8.4992
   13.890    8.3096
   13.920    8.4992
   13.950    8.5624
   13.980    8.6045
   14.010    8.4150
   14.040    8.4044
   14.070    8.5519
   14.100    8.0674
   14.130    8.4255
   14.160    8.2464
   14.190    8.5624
   14.220    8.0779
   14.250    8.3939
   14.280    8.0779
   14.310    8.3834
   14.340    8.2464
   14.370    7.6777
   14.400    8.2359
   14.430    8.7941
   14.460    8.1095
   14.490    8.1622
   14.520    8.3202
   14.550    8.3728
   14.580    8.5413
   14.610    8.3307
   14.640    7.8989
   14.670    8.4571
   14.700    7.7620
   14.730    8.0990
   14.760    8.0253
   14.790    8.2254
   14.820    7.9831
   14.850    8.1095
   14.880    8.1938
   14.910    8.3518
   14.940    8.4360
   14.970    7.8884
   15.000    8.2780
   15.030    8.3728
   15.060    7.8252
   15.090    7.6567
   15.120    7.9937
   15.150    8.0358
   15.180    8.4150
   15.210    8.0358
   15.240    8.2570
   15.270    8.4781
   15.300    8.1095
   15.330    8.1938
   15.360    8.2570
   15.390    8.4571
   15.420    8.1095
   15.450    7.8884
   15.480    8.1306
   15.510    8.2464
   15.540    8.4150
   15.570    8.1517
   15.600    7.9410
   15.630    8.3307
   15.660    8.2675
   15.690    8.3939
   15.720    8.7414
   15.750    8.2043
   15.780    8.2675
   15.810    8.0042
   15.840    8.3728
   15.870    7.8989
   15.900    8.5519
   15.930    8.3939
   15.960    8.6467
   15.990    8.3412
   16.020    8.0569
   16.050    8.7204
   16.080    8.0042
   16.110    8.1201
   16.140    7.8462
   16.170    8.0253
   16.200    8.1938
   16.230    7.9410
   16.260    8.0463
   16.290    7.8146
   16.320    8.3939
   16.350    7.9410
   16.380    7.8778
   16.410    8.6888
   16.440    8.0569
   16.470    8.4150
   16.500    8.0569
   16.530    7.8673
   16.560    8.0674
   16.590    8.2675
   16.620    7.8462
   16.650    7.8357
   16.680    7.9937
   16.710    7.8673
   16.740    7.9094
   16.770    7.7199
   16.800    7.8462
   16.830    8.3728
   16.860    8.1833
   16.890    7.9726
   16.920    8.1306
   16.950    8.0569
   16.980    7.8989
   17.010    7.7514
   17.040    8.3939
   17.070    7.7725
   17.100    8.4676
   17.130    8.3728
   17.160    7.7304
   17.190    8.3728
   17.220    7.6040
   17.250    7.7830
   17.280    8.0358
   17.310    7.9410
   17.340    8.0253
   17.370    7.8884
   17.400    8.1622
   17.430    8.1833
   17.460    8.4992
   17.490    7.7620
   17.520    8.8573
   17.550    8.2149
   17.580    8.7520
   17.610    7.7093
   17.640    8.1727
   17.670    8.1095
   17.700    8.2570
   17.730    7.8357
   17.760    8.4360
   17.790    8.1938
   17.820    8.1833
   17.850    8.3202
   17.880    7.9937
   17.910    8.1622
   17.940    8.2886
   17.970    8.2464
   18.000    8.5624
   18.030    8.0674
   18.060    8.2570
   18.090    8.4887
   18.120    7.8884
   18.150    8.2991
   18.180    7.9831
   18.210    8.3096
   18.240    8.5624
   18.270    8.4466
   18.300    8.4571
   18.330    8.0569
   18.360    8.1095
   18.390    7.7936
   18.420    8.2991
   18.450    8.5413
   18.480    7.9621
   18.510    8.0253
   18.540    8.1201
   18.570    8.1622
   18.600    7.9726
   18.630    8.8468
   18.660    8.1833
   18.690    8.0885
   18.720    8.2570
   18.750    8.1938
   18.780    8.3518
   18.810    8.3728
   18.840    8.1622
   18.870    7.8146
   18.900    8.1517
   18.930    8.3412
   18.960    8.4360
   18.990    8.7625
   19.020    8.2675
   19.050    8.1727
   19.080    8.5729
   19.110    8.6467
   19.140    8.3834
   19.170    8.7309
   19.200    8.2043
   19.230    8.0042
   19.260    9.0679
   19.290    8.6256
   19.320    8.6467
   19.350    8.1411
   19.380    8.5203
   19.410    8.5519
   19.440    8.7098
   19.470    9.0047
   19.500    8.4992
   19.530    8.5835
   19.560    8.8468
   19.590    8.4255
   19.620    8.5308
   19.650    8.8889
   19.680    8.6256
   19.710    8.4466
   19.740    9.4050
   19.770    8.4466
   19.800    8.8678
   19.830    9.0574
   19.860    9.0679
   19.890    9.1732
   19.920    9.2996
   19.950    8.4992
   19.980    9.0258
   20.010    9.2680
   20.040    9.1101
   20.070    8.9100
   20.100    9.1732
   20.130    8.9837
   20.160    8.8994
   20.190    9.0258
   20.220    8.6677
   20.250    8.8362
   20.280    8.5835
   20.310    8.8046
   20.340    8.9837
   20.370    8.7520
   20.400    8.7941
   20.430    8.9521
   20.460    9.2680
   20.490    9.0995
   20.520    8.9731
   20.550    9.2786
   20.580    9.1101
   20.610    9.0363
   20.640    8.9837
   20.670    9.2259
   20.700    9.0153
   20.730    9.1417
   20.760    9.0469
   20.790    9.3734
   20.820    8.7941
   20.850    9.1838
   20.880    8.8152
   20.910    8.8889
   20.940    9.4997
   20.970    9.4892
   21.000    9.1206
   21.030    9.1311
   21.060    8.9731
   21.090    8.8889
   21.120    9.5840
   21.150    9.2680
   21.180    8.7625
   21.210    9.1311
   21.240    9.4050
   21.270    9.4787
   21.300    9.2891
   21.330    9.0153
   21.360    9.4471
   21.390    8.6677
   21.420    8.8257
   21.450    8.3834
   21.480    8.4887
   21.510    9.2048
   21.540    9.2154
   21.570    8.4360
   21.600    8.7098
   21.630    9.2891
   21.660    9.3734
   21.690    8.7730
   21.720    8.9942
   21.750    9.0785
   21.780    9.3944
   21.810    9.1417
   21.840    8.6677
   21.870    9.2154
   21.900    8.7941
   21.930    9.3102
   21.960    9.2470
   21.990    9.2891
   22.020    8.9837
   22.050    9.1522
   22.080    9.2996
   22.110    9.5735
   22.140    9.0047
   22.170    8.6888
   22.200    9.2891
   22.230    8.9942
   22.260    8.8468
   22.290    9.0574
   22.320    9.1101
   22.350    8.3412
   22.380    9.1522
   22.410    9.0785
   22.440    8.6993
   22.470    8.9521
   22.500    8.5835
   22.530    8.6783
   22.560    8.1306
   22.590    9.0995
   22.620    8.7730
   22.650    9.2048
   22.680    8.7309
   22.710    9.0258
   22.740    9.1417
   22.770    8.7625
   22.800    9.0153
   22.830    8.5624
   22.860    8.7204
   22.890    8.6256
   22.920    8.9521
   22.950    8.8362
   22.980    9.0153
   23.010    8.9837
   23.040    9.3418
   23.070    8.7098
   23.100    8.0674
   23.130    8.6572
   23.160    8.4255
   23.190    8.6256
   23.220    8.9942
   23.250    8.9521
   23.280    8.9837
   23.310    8.5940
   23.340    8.8152
   23.370    8.6045
   23.400    8.3728
   23.430    8.7836
   23.460    8.6888
   23.490    8.7098
   23.520    8.6467
   23.550    9.2996
   23.580    8.7414
   23.610    8.7520
   23.640    8.4360
   23.670    8.3518
   23.700    8.7520
   23.730    8.3834
   23.760    8.4360
   23.790    8.2359
   23.820    8.5729
   23.850    8.8257
   23.880    8.7625
   23.910    8.4992
   23.940    8.3096
   23.970    8.6888
   24.000    8.4255
   24.030    8.7941
   24.060    8.5729
   24.090    8.4887
   24.120    8.3412
   24.150    8.5835
   24.180    8.6151
   24.210    8.1306
   24.240    8.8678
   24.270    8.5624
   24.300    8.1833
   24.330    8.8257
   24.360    8.3412
   24.390    8.8046
   24.420    8.9415
   24.450    8.2043
   24.480    8.6467
   24.510    8.4360
   24.540    8.5413
   24.570    8.8152
   24.600    8.4466
   24.630    8.6677
   24.660    8.7204
   24.690    8.6256
   24.720    8.4044
   24.750    8.0042
   24.780    8.5308
   24.810    8.8889
   24.840    7.9305
   24.870    8.2464
   24.900    8.1411
   24.930    8.5729
   24.960    8.1938
   24.990    8.0990
   25.020    8.3202
   25.050    8.4255
   25.080    7.9831
   25.110    8.2780
   25.140    8.0674
   25.170    7.8357
   25.200    8.2254
   25.230    7.9410
   25.260    8.1306
   25.290    8.6888
   25.320    8.2149
   25.350    8.1411
   25.380    8.5413
   25.410    8.3307
   25.440    8.0674
   25.470    8.1411
   25.500    8.0779
   25.530    8.1095
   25.560    7.7936
   25.590    8.1095
   25.620    7.7199
   25.650    7.7830
   25.680    7.7304
   25.710    7.6356
   25.740    8.2254
   25.770    7.6461
   25.800    7.6145
   25.830    8.2359
   25.860    7.7514
   25.890    8.2254
   25.920    7.8252
   25.950    7.8884
   25.980    7.8568
   26.010    8.0147
   26.040    7.6567
   26.070    8.4360
   26.100    7.8146
   26.130    8.1411
   26.160    7.7830
   26.190    8.0042
   26.220    8.0779
   26.250    7.4882
   26.280    7.2775
   26.310    8.0569
   26.340    7.6461
   26.370    7.8357
   26.400    7.6145
   26.430    8.0990
   26.460    7.9516
   26.490    7.7514
   26.520    8.0569
   26.550    7.7199
   26.580    7.6672
   26.610    7.8778
   26.640    7.9621
   26.670    7.7409
   26.700    7.4566
   26.730    7.8673
   26.760    7.3407
   26.790    7.8778
   26.820    7.4355
   26.850    7.6356
   26.880    7.7093
   26.910    8.3202
   26.940    7.9200
   26.970    7.5513
   27.000    7.8884
   27.030    7.8568
   27.060    7.7725
   27.090    7.7725
   27.120    7.8462
   27.150    7.6883
   27.180    7.7725
   27.210    7.2775
   27.240    7.3196
   27.270    8.0358
   27.300    7.7409
   27.330    7.2775
   27.360    7.8673
   27.390    7.7304
   27.420    7.4144
   27.450    7.6461
   27.480    7.9726
   27.510    7.7093
   27.540    7.5092
   27.570    7.4987
   27.600    7.8357
   27.630    7.4144
   27.660    7.6777
   27.690    7.8041
   27.720    7.5829
   27.750    7.9200
   27.780    7.5513
   27.810    7.4355
   27.840    7.5197
   27.870    7.8146
   27.900    7.6145
   27.930    7.4039
   27.960    7.5408
   27.990    8.0779
   28.020    7.7514
   28.050    7.7409
   28.080    7.8357
   28.110    7.8146
   28.140    7.7409
   28.170    7.8568
   28.200    7.6567
   28.230    7.7936
   28.260    7.7620
   28.290    7.8041
   28.320    7.8778
   28.350    7.8673
   28.380    7.8462
   28.410    7.6145
   28.440    8.1727
   28.470    7.1511
   28.500    7.6356
   28.530    7.7620
   28.560    7.5408
   28.590    7.8568
   28.620    7.7199
   28.650    7.9094
   28.680    7.7620
   28.710    7.4250
   28.740    7.3723
   28.770    7.7199
   28.800    7.6251
   28.830    7.6883
   28.860    7.6145
   28.890    7.8568
   28.920    7.5303
   28.950    7.4987
   28.980    7.8673
   29.010    7.7093
   29.040    7.5408
   29.070    7.6461
   29.100    7.6251
   29.130    7.3828
   29.160    7.1617
   29.190    7.1722
   29.220    7.8989
   29.250    7.6145
   29.280    7.5092
   29.310    7.6040
   29.340    7.1195
   29.370    7.2143
   29.400    7.2143
   29.430    7.1511
   29.460    7.4355
   29.490    7.6988
   29.520    7.0142
   29.550    7.5935
   29.580    7.4355
   29.610    7.2670
   29.640    7.5197
   29.670    7.5513
   29.700    7.4987
   29.730    7.1827
   29.760    7.3091
   29.790    7.0563
   29.820    7.1406
   29.850    7.1195
   29.880    7.4882
   29.910    7.4987
   29.940    7.1090
   29.970    7.1511
   30.000    6.7299
   30.030    7.0879
   30.060    6.8984
   30.090    7.6567
   30.120    7.1722
   30.150    7.3407
   30.180    7.0458
   30.210    7.3723
   30.240    7.6145
   30.270    7.3091
   30.300    7.2880
   30.330    7.0248
   30.360    7.1090
   30.390    6.8246
   30.420    7.1933
   30.450    7.2670
   30.480    7.2038
   30.510    7.1090
   30.540    7.3618
   30.570    7.2354
   30.600    7.1827
   30.630    7.3723
   30.660    7.5513
   30.690    7.4671
   30.720    7.2459
   30.750    6.8352
   30.780    7.4250
   30.810    6.9616
   30.840    7.0248
   30.870    7.3828
   30.900    7.1827
   30.930    7.2670
   30.960    7.0669
   30.990    7.2143
   31.020    7.0985
   31.050    7.3512
   31.080    7.0774
   31.110    7.1617
   31.140    7.1933
   31.170    7.0458
   31.200    6.9194
   31.230    7.2459
   31.260    6.9089
   31.290    7.2880
   31.320    7.2249
   31.350    7.3618
   31.380    7.3407
   31.410    7.1722
   31.440    7.1722
   31.470    6.9826
   31.500    6.6456
   31.530    7.4144
   31.560    6.8878
   31.590    7.2354
   31.620    7.0458
   31.650    7.5724
   31.680    7.3618
   31.710    7.2249
   31.740    7.1933
   31.770    7.0669
   31.800    7.4355
   31.830    7.2249
   31.860    7.5197
   31.890    7.4039
   31.920    6.9932
   31.950    6.9721
   31.980    7.1722
   32.010    7.6461
   32.040    7.2143
   32.070    7.1406
   32.100    7.3723
   32.130    6.9300
   32.160    7.1933
   32.190    7.3828
   32.220    7.1090
   32.250    6.8141
   32.280    7.1195
   32.310    6.9300
   32.340    7.0985
   32.370    7.2038
   32.400    7.1406
   32.430    6.7930
   32.460    6.7193
   32.490    6.8352
   32.520    7.5829
   32.550    7.1090
   32.580    7.0037
   32.610    7.1406
   32.640    6.6772
   32.670    6.7615
   32.700    7.0142
   32.730    6.7509
   32.760    7.0142
   32.790    7.0353
   32.820    6.6035
   32.850    7.0879
   32.880    7.1722
   32.910    7.0248
   32.940    7.0669
   32.970    7.0563
   33.000    7.1827
   33.030    7.1617
   33.060    6.9826
   33.090    7.0879
   33.120    6.7930
   33.150    7.0879
   33.180    7.2565
   33.210    7.0037
   33.240    6.9932
   33.270    7.3091
   33.300    6.8141
   33.330    6.8457
   33.360    6.5508
   33.390    7.0037
   33.420    6.6561
   33.450    6.8352
   33.480    7.1301
   33.510    6.9405
   33.540    7.0248
   33.570    6.8878
   33.600    6.6667
   33.630    7.2143
   33.660    6.6667
   33.690    6.9826
   33.720    6.9194
   33.750    6.6140
   33.780    6.5403
   33.810    7.1722
   33.840    6.2981
   33.870    6.8984
   33.900    6.7509
   33.930    6.9932
   33.960    6.8773
   33.990    6.7930
   34.020    6.9826
   34.050    7.0142
   34.080    6.7299
   34.110    6.7404
   34.140    6.6667
   34.170    6.7720
   34.200    7.0563
   34.230    6.5719
   34.260    6.4139
   34.290    6.6877
   34.320    6.9089
   34.350    6.6983
   34.380    7.0142
   34.410    7.0248
   34.440    6.9721
   34.470    6.8141
   34.500    6.9089
   34.530    6.8773
   34.560    6.6035
   34.590    6.9826
   34.620    6.8562
   34.650    6.7088
   34.680    6.8878
   34.710    6.5403
   34.740    6.6351
   34.770    6.3718
   34.800    6.6351
   34.830    6.8562
   34.860    7.2038
   34.890    6.6035
   34.920    6.2454
   34.950    6.7720
   34.980    6.8773
   35.010    6.7404
   35.040    6.7088
   35.070    6.8878
   35.100    6.8457
   35.130    6.7404
   35.160    6.5508
   35.190    7.0879
   35.220    6.4034
   35.250    7.1301
   35.280    6.6667
   35.310    6.5929
   35.340    6.8562
   35.370    6.7825
   35.400    6.7404
   35.430    6.3191
   35.460    6.8984
   35.490    7.0142
   35.520    6.8036
   35.550    6.9616
   35.580    6.8984
   35.610    6.6772
   35.640    6.6456
   35.670    6.2981
   35.700    6.4666
   35.730    7.2670
   35.760    6.7088
   35.790    6.4350
   35.820    6.4244
   35.850    6.5719
   35.880    6.5403
   35.910    6.2033
   35.940    6.6561
   35.970    6.8246
   36.000    6.7930
   36.030    6.8878
   36.060    6.6456
   36.090    6.5824
   36.120    6.5403
   36.150    7.0458
   36.180    6.4350
   36.210    6.8878
   36.240    6.2770
   36.270    6.4139
   36.300    6.7509
   36.330    6.7930
   36.360    6.7615
   36.390    6.5824
   36.420    6.6035
   36.450    6.5824
   36.480    6.1295
   36.510    6.0558
   36.540    6.7088
   36.570    6.6351
   36.600    6.9089
   36.630    6.5719
   36.660    6.6667
   36.690    6.2138
   36.720    6.5929
   36.750    6.4139
   36.780    6.7930
   36.810    6.5403
   36.840    6.7509
   36.870    6.4876
   36.900    6.5929
   36.930    6.8246
   36.960    6.4982
   36.990    6.4982
   37.020    6.1611
   37.050    6.4244
   37.080    6.6667
   37.110    6.0453
   37.140    6.8457
   37.170    6.5087
   37.200    6.6456
   37.230    6.5613
   37.260    6.3507
   37.290    6.5298
   37.320    6.8878
   37.350    6.3928
   37.380    6.3507
   37.410    6.2138
   37.440    6.2559
   37.470    6.5719
   37.500    6.3296
   37.530    6.4034
   37.560    6.6351
   37.590    6.5613
   37.620    6.5824
   37.650    6.6351
   37.680    6.2033
   37.710    6.5929
   37.740    6.5403
   37.770    6.8246
   37.800    6.7299
   37.830    6.6140
   37.860    6.6456
   37.890    6.4455
   37.920    6.7193
   37.950    6.0242
   37.980    6.6035
   38.010    6.3718
   38.040    6.8036
   38.070    6.5613
   38.100    6.5508
   38.130    6.6245
   38.160    6.0874
   38.190    6.6667
   38.220    6.2770
   38.250    6.5192
   38.280    6.4982
   38.310    6.5298
   38.340    6.3507
   38.370    6.5613
   38.400    6.2243
   38.430    6.5403
   38.460    6.1506
   38.490    6.3191
   38.520    6.7193
   38.550    6.1611
   38.580    6.2665
   38.610    6.2454
   38.640    6.4139
   38.670    6.3718
   38.700    6.3402
   38.730    6.4982
   38.760    6.2770
   38.790    6.3191
   38.820    6.4034
   38.850    6.8141
   38.880    6.4982
   38.910    6.5192
   38.940    6.3928
   38.970    6.4455
   39.000    6.3402
   39.030    6.5298
   39.060    6.4666
   39.090    6.7193
   39.120    6.5613
   39.150    6.5298
   39.180    6.2138
   39.210    6.5192
   39.240    6.5719
   39.270    6.3402
   39.300    6.5719
   39.330    6.4350
   39.360    6.9300
   39.390    6.6983
   39.420    6.2875
   39.450    6.9194
   39.480    6.4350
   39.510    6.3402
   39.540    6.6561
   39.570    6.0137
   39.600    6.3928
   39.630    6.9826
   39.660    6.1401
   39.690    6.0242
   39.720    6.2875
   39.750    6.3402
   39.780    6.8668
   39.810    6.2981
   39.840    6.3402
   39.870    6.9510
   39.900    6.6561
   39.930    6.7299
   39.960    6.1085
   39.990    6.5298