File: data/MOCOF-1/PXRD/PXRD_KE-120_Cu-Ka1_capillary-1mm_5s-deg.xyd
    1.500   16.7667
    1.530   16.5666
    1.560   15.5872
    1.590   14.9974
    1.620   14.4181
    1.650   14.2707
    1.680   14.0706
    1.710   13.5229
    1.740   13.5334
    1.770   13.1016
    1.800   12.6488
    1.830   12.6066
    1.860   12.3749
    1.890   12.1011
    1.920   11.5113
    1.950   11.0795
    1.980   11.0163
    2.010   11.3744
    2.040   10.3844
    2.070   11.0163
    2.100   10.8268
    2.130   10.1001
    2.160   10.1632
    2.190    9.9737
    2.220    9.9947
    2.250   10.1527
    2.280   10.1738
    2.310   10.1106
    2.340    9.8368
    2.370    9.2996
    2.400    9.9421
    2.430    9.5419
    2.460    9.5103
    2.490    9.7946
    2.520    9.8894
    2.550    9.1522
    2.580    9.2470
    2.610    9.2154
    2.640    9.0679
    2.670    8.6045
    2.700    8.9731
    2.730    8.8889
    2.760    9.0574
    2.790    9.1627
    2.820    9.4260
    2.850    9.3207
    2.880    9.4787
    2.910    9.4050
    2.940    9.5524
    2.970    9.4576
    3.000    9.3944
    3.030    9.3207
    3.060    9.6051
    3.090    9.3207
    3.120    9.1311
    3.150    9.7420
    3.180   10.0053
    3.210    9.7736
    3.240    9.9105
    3.270    9.8157
    3.300   10.4581
    3.330   10.0790
    3.360   10.1948
    3.390   11.3533
    3.420   10.9426
    3.450   10.9742
    3.480   11.4692
    3.510   12.0590
    3.540   12.2064
    3.570   12.9437
    3.600   13.4071
    3.630   13.9547
    3.660   14.3023
    3.690   15.4397
    3.720   16.2507
    3.750   17.4197
    3.780   19.0732
    3.810   20.9057
    3.840   22.9068
    3.870   23.6440
    3.900   21.9168
    3.930   17.7567
    3.960   13.4071
    3.990   11.2059
    4.020    9.5313
    4.050    8.6677
    4.080    8.6467
    4.110    8.3202
    4.140    8.4255
    4.170    8.3202
    4.200    8.2570
    4.230    7.5724
    4.260    7.9726
    4.290    8.2570
    4.320    8.0042
    4.350    8.3728
    4.380    7.8462
    4.410    8.0674
    4.440    7.5829
    4.470    8.1411
    4.500    7.6356
    4.530    7.8673
    4.560    7.9305
    4.590    7.5619
    4.620    8.1517
    4.650    8.0358
    4.680    7.1301
    4.710    7.9410
    4.740    7.9410
    4.770    8.0674
    4.800    7.6145
    4.830    7.8357
    4.860    7.6672
    4.890    8.1306
    4.920    8.0463
    4.950    7.6251
    4.980    8.2359
    5.010    7.9410
    5.040    8.0674
    5.070    8.2254
    5.100    8.4044
    5.130    8.3096
    5.160    8.1938
    5.190    8.8573
    5.220    8.6256
    5.250    9.2259
    5.280    9.1311
    5.310    8.9626
    5.340    9.4260
    5.370   10.3318
    5.400   10.5635
    5.430   10.8689
    5.460   11.2586
    5.490   12.1222
    5.520   11.6061
    5.550   10.2159
    5.580    8.4887
    5.610    8.1201
    5.640    7.8884
    5.670    7.8041
    5.700    7.7409
    5.730    7.5724
    5.760    7.5724
    5.790    7.9410
    5.820    7.5092
    5.850    7.3828
    5.880    7.5408
    5.910    7.7620
    5.940    7.5619
    5.970    7.9410
    6.000    7.6883
    6.030    7.4987
    6.060    7.5408
    6.090    7.3934
    6.120    7.7304
    6.150    7.1511
    6.180    7.8673
    6.210    7.3618
    6.240    7.2670
    6.270    7.1090
    6.300    7.4987
    6.330    8.0147
    6.360    7.3512
    6.390    7.6461
    6.420    7.5829
    6.450    7.7093
    6.480    7.9200
    6.510    7.8884
    6.540    7.7304
    6.570    7.8041
    6.600    7.9200
    6.630    8.0779
    6.660    8.1517
    6.690    8.2254
    6.720    8.1727
    6.750    8.5729
    6.780    8.2675
    6.810    8.5835
    6.840    7.9621
    6.870    7.6356
    6.900    7.6356
    6.930    7.4355
    6.960    7.4882
    6.990    7.3196
    7.020    7.4987
    7.050    7.3091
    7.080    7.9410
    7.110    7.4566
    7.140    7.6461
    7.170    7.6883
    7.200    7.4776
    7.230    7.4566
    7.260    7.2565
    7.290    7.5829
    7.320    7.5935
    7.350    7.5619
    7.380    7.7620
    7.410    7.7093
    7.440    7.6251
    7.470    7.6988
    7.500    7.4776
    7.530    7.9937
    7.560    8.0885
    7.590    7.9305
    7.620    8.0885
    7.650    7.9726
    7.680    8.1306
    7.710    8.2359
    7.740    8.4676
    7.770    8.2675
    7.800    8.5097
    7.830    8.3518
    7.860    7.8989
    7.890    8.2254
    7.920    7.9621
    7.950    8.0990
    7.980    7.7514
    8.010    8.1306
    8.040    8.0147
    8.070    7.8462
    8.100    7.7409
    8.130    7.5408
    8.160    7.9621
    8.190    8.0147
    8.220    7.6461
    8.250    8.2886
    8.280    7.5303
    8.310    7.6145
    8.340    8.0042
    8.370    7.8989
    8.400    7.8462
    8.430    7.4882
    8.460    7.5619
    8.490    7.7725
    8.520    8.0885
    8.550    8.0674
    8.580    7.7199
    8.610    8.0358
    8.640    7.6040
    8.670    8.5203
    8.700    8.0674
    8.730    8.2359
    8.760    8.2570
    8.790    7.6672
    8.820    8.0253
    8.850    7.8989
    8.880    7.6988
    8.910    7.9831
    8.940    7.7514
    8.970    7.6777
    9.000    8.1833
    9.030    7.8673
    9.060    8.4150
    9.090    8.2886
    9.120    7.7304
    9.150    7.7620
    9.180    8.2780
    9.210    7.9726
    9.240    8.2675
    9.270    8.7625
    9.300    8.5940
    9.330    8.2886
    9.360    8.5940
    9.390    8.4255
    9.420    9.0153
    9.450    9.1943
    9.480    9.6156
    9.510    9.3207
    9.540   10.1106
    9.570    9.5945
    9.600    9.1732
    9.630    9.1732
    9.660    8.9205
    9.690    8.4887
    9.720    8.1833
    9.750    8.1622
    9.780    8.0042
    9.810    8.3728
    9.840    8.2043
    9.870    7.8357
    9.900    8.1411
    9.930    8.3307
    9.960    8.1306
    9.990    8.0990
   10.020    8.3728
   10.050    7.9831
   10.080    8.2254
   10.110    8.2149
   10.140    8.7941
   10.170    8.5729
   10.200    8.4676
   10.230    8.2886
   10.260    8.0569
   10.290    8.4887
   10.320    8.8468
   10.350    8.6361
   10.380    8.7625
   10.410    8.2570
   10.440    8.1201
   10.470    8.0674
   10.500    7.9200
   10.530    8.1201
   10.560    8.2043
   10.590    7.9726
   10.620    8.0990
   10.650    7.5935
   10.680    8.3834
   10.710    8.2991
   10.740    8.2464
   10.770    8.3202
   10.800    7.6040
   10.830    8.0147
   10.860    8.3202
   10.890    8.1517
   10.920    8.3202
   10.950    7.8146
   10.980    8.0885
   11.010    8.4150
   11.040    8.4044
   11.070    8.1517
   11.100    8.2675
   11.130    7.9200
   11.160    7.8252
   11.190    7.6883
   11.220    7.5197
   11.250    7.6883
   11.280    8.0253
   11.310    8.0463
   11.340    7.5829
   11.370    8.0569
   11.400    7.8462
   11.430    7.7304
   11.460    7.7514
   11.490    7.9726
   11.520    7.8568
   11.550    7.9831
   11.580    7.9621
   11.610    7.8884
   11.640    7.7830
   11.670    8.1517
   11.700    7.7199
   11.730    7.9305
   11.760    8.2675
   11.790    8.3307
   11.820    7.5619
   11.850    7.7725
   11.880    7.3091
   11.910    7.7620
   11.940    7.4566
   11.970    7.3196
   12.000    7.3196
   12.030    7.8778
   12.060    7.6356
   12.090    7.2038
   12.120    7.1617
   12.150    7.0774
   12.180    7.6251
   12.210    7.3618
   12.240    7.4250
   12.270    7.1090
   12.300    7.3196
   12.330    7.4882
   12.360    7.3302
   12.390    7.2038
   12.420    7.5619
   12.450    7.1827
   12.480    7.0774
   12.510    6.9932
   12.540    7.3302
   12.570    6.8141
   12.600    7.1511
   12.630    7.4460
   12.660    6.9932
   12.690    7.4566
   12.720    7.0037
   12.750    6.9089
   12.780    7.2249
   12.810    6.9932
   12.840    7.4671
   12.870    7.3302
   12.900    7.5303
   12.930    7.3723
   12.960    7.5935
   12.990    7.0563
   13.020    7.1722
   13.050    7.3934
   13.080    7.2459
   13.110    7.1301
   13.140    7.2354
   13.170    7.0774
   13.200    7.3302
   13.230    7.2038
   13.260    6.9721
   13.290    7.0774
   13.320    7.5619
   13.350    6.7615
   13.380    7.2249
   13.410    7.4566
   13.440    6.8352
   13.470    7.1511
   13.500    7.2880
   13.530    7.1406
   13.560    7.6251
   13.590    7.3091
   13.620    7.2249
   13.650    7.0353
   13.680    6.9932
   13.710    7.0563
   13.740    7.0353
   13.770    7.1195
   13.800    6.9932
   13.830    7.2775
   13.860    6.9300
   13.890    7.0458
   13.920    6.7930
   13.950    6.8562
   13.980    7.2880
   14.010    7.1301
   14.040    6.9721
   14.070    7.3302
   14.100    7.1722
   14.130    7.3723
   14.160    6.9932
   14.190    6.6351
   14.220    7.0353
   14.250    6.5508
   14.280    6.9300
   14.310    6.8246
   14.340    6.7930
   14.370    6.9194
   14.400    7.1195
   14.430    7.3512
   14.460    6.5403
   14.490    6.6667
   14.520    6.7825
   14.550    6.8562
   14.580    6.5929
   14.610    6.9826
   14.640    6.6667
   14.670    7.3302
   14.700    6.6035
   14.730    6.9721
   14.760    7.2565
   14.790    6.7930
   14.820    7.2670
   14.850    7.4250
   14.880    6.8352
   14.910    6.8984
   14.940    7.1301
   14.970    7.0774
   15.000    6.7088
   15.030    6.9721
   15.060    7.3512
   15.090    6.9826
   15.120    7.2880
   15.150    7.1722
   15.180    6.8562
   15.210    6.8878
   15.240    7.1617
   15.270    7.0458
   15.300    7.0774
   15.330    7.0353
   15.360    7.1301
   15.390    6.7299
   15.420    6.7930
   15.450    7.6461
   15.480    7.0458
   15.510    6.7825
   15.540    6.5403
   15.570    7.3618
   15.600    7.0353
   15.630    7.3407
   15.660    6.9616
   15.690    7.0353
   15.720    7.2354
   15.750    6.9616
   15.780    7.3407
   15.810    7.0353
   15.840    6.6877
   15.870    7.0879
   15.900    7.0669
   15.930    6.8141
   15.960    7.2670
   15.990    7.4355
   16.020    7.0669
   16.050    7.2143
   16.080    6.9300
   16.110    6.9089
   16.140    7.1090
   16.170    6.8036
   16.200    7.5935
   16.230    7.1301
   16.260    7.2565
   16.290    6.9721
   16.320    7.0669
   16.350    7.1090
   16.380    6.8457
   16.410    7.4566
   16.440    7.2670
   16.470    6.7720
   16.500    7.1301
   16.530    6.9194
   16.560    7.1511
   16.590    7.6988
   16.620    6.9932
   16.650    6.8562
   16.680    7.4355
   16.710    7.0879
   16.740    7.4355
   16.770    6.9616
   16.800    6.5929
   16.830    7.0985
   16.860    7.1722
   16.890    7.4460
   16.920    7.2986
   16.950    7.2249
   16.980    7.3618
   17.010    6.8246
   17.040    7.2354
   17.070    7.1617
   17.100    7.4039
   17.130    7.5303
   17.160    7.2459
   17.190    7.0879
   17.220    7.4039
   17.250    6.9826
   17.280    6.8141
   17.310    7.2459
   17.340    7.4882
   17.370    7.2775
   17.400    7.2143
   17.430    7.4039
   17.460    6.8984
   17.490    7.0142
   17.520    7.4987
   17.550    7.2880
   17.580    7.0037
   17.610    6.7299
   17.640    7.1090
   17.670    7.0563
   17.700    7.3723
   17.730    7.0353
   17.760    6.4455
   17.790    6.8036
   17.820    7.3091
   17.850    7.0353
   17.880    7.0985
   17.910    7.2038
   17.940    7.6251
   17.970    7.0774
   18.000    6.9300
   18.030    7.1511
   18.060    7.4460
   18.090    7.0037
   18.120    7.2354
   18.150    7.1827
   18.180    7.2565
   18.210    7.0353
   18.240    7.0037
   18.270    7.1406
   18.300    7.0774
   18.330    7.2354
   18.360    6.9932
   18.390    7.3091
   18.420    6.7299
   18.450    6.9721
   18.480    7.1406
   18.510    7.4039
   18.540    7.3828
   18.570    6.8352
   18.600    7.3407
   18.630    7.1722
   18.660    6.5298
   18.690    7.0669
   18.720    7.2038
   18.750    7.4776
   18.780    7.2880
   18.810    6.8668
   18.840    7.0774
   18.870    7.2880
   18.900    6.8562
   18.930    7.3934
   18.960    7.9305
   18.990    7.7936
   19.020    8.0885
   19.050    7.5829
   19.080    7.2986
   19.110    7.0248
   19.140    6.9194
   19.170    7.2038
   19.200    6.9616
   19.230    6.9721
   19.260    6.8562
   19.290    7.6777
   19.320    7.5408
   19.350    6.7615
   19.380    6.9194
   19.410    7.3407
   19.440    7.3196
   19.470    6.8984
   19.500    7.5829
   19.530    7.1301
   19.560    7.2775
   19.590    7.2880
   19.620    7.5092
   19.650    7.6777
   19.680    7.1511
   19.710    7.0985
   19.740    7.6461
   19.770    7.2038
   19.800    6.9405
   19.830    6.9616
   19.860    7.3302
   19.890    7.3618
   19.920    7.1617
   19.950    7.0774
   19.980    7.3512
   20.010    6.8141
   20.040    7.6251
   20.070    7.2249
   20.100    7.4144
   20.130    7.1511
   20.160    6.8457
   20.190    7.2038
   20.220    7.3196
   20.250    7.2459
   20.280    7.2775
   20.310    7.4039
   20.340    7.0353
   20.370    7.2880
   20.400    7.8041
   20.430    7.4460
   20.460    7.4144
   20.490    6.9300
   20.520    7.2986
   20.550    7.3828
   20.580    6.9932
   20.610    7.6040
   20.640    7.5197
   20.670    7.1301
   20.700    7.6461
   20.730    7.3618
   20.760    7.1406
   20.790    7.0248
   20.820    7.4566
   20.850    7.1511
   20.880    7.3302
   20.910    7.0142
   20.940    7.6145
   20.970    6.8878
   21.000    7.2775
   21.030    7.1090
   21.060    7.4039
   21.090    6.9510
   21.120    7.1406
   21.150    7.3618
   21.180    7.4987
   21.210    7.0353
   21.240    7.3723
   21.270    7.3407
   21.300    7.6040
   21.330    7.7936
   21.360    7.4460
   21.390    7.2880
   21.420    7.0248
   21.450    7.0774
   21.480    6.9089
   21.510    7.1827
   21.540    7.4355
   21.570    7.0669
   21.600    7.4776
   21.630    7.0985
   21.660    7.4039
   21.690    7.8041
   21.720    7.1827
   21.750    7.2459
   21.780    7.5408
   21.810    7.6777
   21.840    7.4460
   21.870    7.5092
   21.900    7.5619
   21.930    7.7620
   21.960    7.2354
   21.990    6.8773
   22.020    7.2459
   22.050    7.4776
   22.080    7.5513
   22.110    7.0774
   22.140    7.3723
   22.170    7.2249
   22.200    7.4250
   22.230    7.0563
   22.260    7.3407
   22.290    7.4250
   22.320    7.6672
   22.350    7.5197
   22.380    7.4987
   22.410    7.4882
   22.440    7.7725
   22.470    7.3934
   22.500    7.7725
   22.530    7.6883
   22.560    7.9726
   22.590    8.0147
   22.620    8.2780
   22.650    7.8146
   22.680    7.7936
   22.710    7.4987
   22.740    7.0669
   22.770    7.7409
   22.800    7.6040
   22.830    7.3302
   22.860    7.5197
   22.890    7.6461
   22.920    7.4671
   22.950    7.6988
   22.980    7.3934
   23.010    7.3723
   23.040    7.6777
   23.070    7.7514
   23.100    7.5092
   23.130    7.5829
   23.160    7.5724
   23.190    7.2986
   23.220    7.7936
   23.250    7.5829
   23.280    7.4987
   23.310    7.4250
   23.340    7.8252
   23.370    7.2249
   23.400    7.3828
   23.430    7.2670
   23.460    7.1617
   23.490    7.1511
   23.520    7.4776
   23.550    7.6777
   23.580    7.4987
   23.610    7.4671
   23.640    7.2775
   23.670    6.9721
   23.700    7.7093
   23.730    7.1827
   23.760    7.0879
   23.790    7.5092
   23.820    7.4776
   23.850    7.0985
   23.880    7.3196
   23.910    7.4987
   23.940    7.4144
   23.970    7.0774
   24.000    6.9932
   24.030    7.3512
   24.060    7.3407
   24.090    7.0985
   24.120    7.1301
   24.150    7.4882
   24.180    7.3407
   24.210    7.0985
   24.240    7.4144
   24.270    7.1301
   24.300    7.7620
   24.330    7.2143
   24.360    7.3934
   24.390    7.1617
   24.420    7.5303
   24.450    7.2354
   24.480    7.3934
   24.510    7.2565
   24.540    6.9932
   24.570    7.3196
   24.600    7.1617
   24.630    7.1722
   24.660    7.2038
   24.690    6.9932
   24.720    7.2143
   24.750    7.0563
   24.780    6.9721
   24.810    7.0037
   24.840    7.0669
   24.870    7.1195
   24.900    7.1722
   24.930    6.9826
   24.960    7.0142
   24.990    7.3407
   25.020    7.1827
   25.050    7.2775
   25.080    7.1090
   25.110    7.3512
   25.140    7.1511
   25.170    7.5303
   25.200    7.1195
   25.230    6.9510
   25.260    6.6983
   25.290    6.5824
   25.320    6.7193
   25.350    6.8668
   25.380    6.9721
   25.410    6.8246
   25.440    7.3723
   25.470    7.5513
   25.500    7.5092
   25.530    7.1090
   25.560    7.2670
   25.590    7.0353
   25.620    7.3091
   25.650    7.2249
   25.680    7.0879
   25.710    6.9194
   25.740    6.5719
   25.770    6.9721
   25.800    7.1933
   25.830    7.2038
   25.860    7.1301
   25.890    7.3196
   25.920    7.0879
   25.950    7.0879
   25.980    6.6667
   26.010    7.0774
   26.040    7.1511
   26.070    6.7720
   26.100    6.9616
   26.130    7.0563
   26.160    7.0037
   26.190    7.0563
   26.220    6.9721
   26.250    7.1933
   26.280    7.1301
   26.310    6.8773
   26.340    6.8562
   26.370    6.8878
   26.400    6.7088
   26.430    7.0985
   26.460    6.9405
   26.490    7.1301
   26.520    6.6351
   26.550    7.0669
   26.580    6.7404
   26.610    7.1827
   26.640    6.6877
   26.670    7.1406
   26.700    7.0142
   26.730    6.7299
   26.760    6.9405
   26.790    7.0879
   26.820    6.8457
   26.850    6.8141
   26.880    7.3091
   26.910    7.0563
   26.940    6.7299
   26.970    7.2354
   27.000    6.6877
   27.030    7.2354
   27.060    7.0142
   27.090    7.1511
   27.120    7.0458
   27.150    7.1195
   27.180    7.1722
   27.210    6.8878
   27.240    6.9932
   27.270    6.7720
   27.300    6.6140
   27.330    6.9510
   27.360    6.5403
   27.390    6.4034
   27.420    6.6561
   27.450    6.6561
   27.480    6.7509
   27.510    6.4771
   27.540    6.4982
   27.570    6.6035
   27.600    6.9089
   27.630    6.7509
   27.660    6.4771
   27.690    6.7720
   27.720    6.7825
   27.750    7.0248
   27.780    6.5298
   27.810    6.8246
   27.840    6.7193
   27.870    6.5824
   27.900    6.8141
   27.930    6.9405
   27.960    7.2775
   27.990    7.2038
   28.020    7.2459
   28.050    7.3512
   28.080    6.8036
   28.110    6.6877
   28.140    6.8457
   28.170    6.4350
   28.200    6.6772
   28.230    6.9510
   28.260    6.7193
   28.290    6.5613
   28.320    6.4982
   28.350    6.4982
   28.380    7.1617
   28.410    6.4982
   28.440    6.4771
   28.470    6.7193
   28.500    6.7930
   28.530    6.4982
   28.560    6.4982
   28.590    6.6983
   28.620    6.6983
   28.650    6.1506
   28.680    6.3191
   28.710    6.6561
   28.740    7.1617
   28.770    6.8352
   28.800    6.5298
   28.830    6.6877
   28.860    6.6983
   28.890    6.9616
   28.920    7.1090
   28.950    6.9826
   28.980    7.2249
   29.010    6.8141
   29.040    6.4771
   29.070    6.6983
   29.100    6.7930
   29.130    6.6983
   29.160    6.1611
   29.190    6.3296
   29.220    6.6772
   29.250    6.6877
   29.280    6.1822
   29.310    6.5508
   29.340    6.4455
   29.370    6.5403
   29.400    6.4455
   29.430    6.6667
   29.460    6.4771
   29.490    6.2454
   29.520    6.3507
   29.550    6.5508
   29.580    6.3191
   29.610    6.4666
   29.640    6.1401
   29.670    6.1927
   29.700    6.5298
   29.730    6.4666
   29.760    6.2770
   29.790    6.3086
   29.820    6.5087
   29.850    6.1927
   29.880    6.1506
   29.910    6.3086
   29.940    6.1717
   29.970    6.1927
   30.000    6.4560
   30.030    6.5087
   30.060    6.2981
   30.090    6.2243
   30.120    6.4560
   30.150    6.1401
   30.180    6.3191
   30.210    6.5613
   30.240    6.3402
   30.270    6.3718
   30.300    6.3823
   30.330    6.1611
   30.360    6.1295
   30.390    6.3402
   30.420    6.2454
   30.450    5.8347
   30.480    6.6351
   30.510    6.5087
   30.540    6.3612
   30.570    6.1190
   30.600    6.1401
   30.630    6.0137
   30.660    6.5298
   30.690    6.3296
   30.720    6.2665
   30.750    6.0242
   30.780    5.7820
   30.810    6.5719
   30.840    6.3191
   30.870    6.6667
   30.900    6.3507
   30.930    6.6456
   30.960    6.6456
   30.990    6.3402
   31.020    6.5087
   31.050    6.3612
   31.080    6.6561
   31.110    6.3612
   31.140    5.8347
   31.170    5.9716
   31.200    6.1822
   31.230    6.3612
   31.260    5.7925
   31.290    6.1085
   31.320    6.3086
   31.350    6.5192
   31.380    6.1506
   31.410    6.0979
   31.440    5.8031
   31.470    6.1927
   31.500    6.1611
   31.530    6.4455
   31.560    6.6140
   31.590    5.8978
   31.620    6.2665
   31.650    6.6351
   31.680    6.4139
   31.710    6.2770
   31.740    6.4560
   31.770    6.4034
   31.800    6.4455
   31.830    6.5403
   31.860    6.5192
   31.890    5.9821
   31.920    6.0137
   31.950    6.1190
   31.980    6.6667
   32.010    6.9510
   32.040    6.5719
   32.070    7.4250
   32.100    7.4566
   32.130    7.4250
   32.160    6.9194
   32.190    6.4876
   32.220    6.5298
   32.250    6.1822
   32.280    6.2349
   32.310    5.9400
   32.340    6.0979
   32.370    5.8557
   32.400    6.2665
   32.430    5.8557
   32.460    5.9926
   32.490    5.7925
   32.520    5.7399
   32.550    6.2033
   32.580    6.1717
   32.610    5.9084
   32.640    6.1190
   32.670    6.2770
   32.700    6.0558
   32.730    5.8978
   32.760    6.2559
   32.790    6.0032
   32.820    5.8557
   32.850    5.9400
   32.880    5.9400
   32.910    6.1927
   32.940    5.6345
   32.970    5.7715
   33.000    5.7293
   33.030    5.7820
   33.060    5.7925
   33.090    5.5924
   33.120    5.9716
   33.150    5.8873
   33.180    6.2454
   33.210    5.7925
   33.240    5.8031
   33.270    6.0558
   33.300    5.8136
   33.330    5.6767
   33.360    6.0032
   33.390    5.6135
   33.420    6.0137
   33.450    6.0769
   33.480    5.7715
   33.510    5.5292
   33.540    5.8978
   33.570    5.6345
   33.600    5.7715
   33.630    6.0558
   33.660    6.0453
   33.690    6.1506
   33.720    6.1927
   33.750    5.9294
   33.780    6.1401
   33.810    6.7088
   33.840    6.0242
   33.870    6.3823
   33.900    6.0664
   33.930    6.0979
   33.960    5.9821
   33.990    6.1611
   34.020    5.6135
   34.050    5.6661
   34.080    6.2981
   34.110    5.6977
   34.140    5.9821
   34.170    6.1190
   34.200    5.4871
   34.230    6.1611
   34.260    5.8241
   34.290    5.5187
   34.320    5.6135
   34.350    5.8662
   34.380    5.6872
   34.410    6.1085
   34.440    5.8978
   34.470    5.8557
   34.500    5.6451
   34.530    5.6240
   34.560    5.4028
   34.590    5.8031
   34.620    5.5924
   34.650    5.4028
   34.680    5.7609
   34.710    5.5819
   34.740    5.9716
   34.770    5.8662
   34.800    5.6872
   34.830    5.8978
   34.860    5.6977
   34.890    5.5714
   34.920    5.6767
   34.950    6.0032
   34.980    5.6977
   35.010    5.5924
   35.040    5.4976
   35.070    5.5398
   35.100    5.6135
   35.130    5.9926
   35.160    5.7609
   35.190    5.8031
   35.220    5.6345
   35.250    5.7293
   35.280    5.8136
   35.310    5.4239
   35.340    5.6029
   35.370    5.7083
   35.400    5.8031
   35.430    5.4976
   35.460    5.6135
   35.490    5.3712
   35.520    5.3502
   35.550    5.5819
   35.580    5.6661
   35.610    5.4976
   35.640    5.4028
   35.670    5.5187
   35.700    5.6977
   35.730    5.8031
   35.760    5.8873
   35.790    5.4766
   35.820    5.6767
   35.850    5.7609
   35.880    5.5292
   35.910    5.7820
   35.940    5.3291
   35.970    5.6029
   36.000    5.6029
   36.030    5.6872
   36.060    5.5398
   36.090    5.7399
   36.120    5.6767
   36.150    5.3607
   36.180    5.5187
   36.210    5.6240
   36.240    5.7399
   36.270    5.1711
   36.300    5.6451
   36.330    5.8031
   36.360    5.7293
   36.390    5.5398
   36.420    5.3291
   36.450    5.3397
   36.480    5.5292
   36.510    5.3923
   36.540    5.3291
   36.570    5.4871
   36.600    5.2659
   36.630    5.3607
   36.660    5.6135
   36.690    5.6977
   36.720    5.7504
   36.750    5.7925
   36.780    5.9716
   36.810    5.6451
   36.840    5.6240
   36.870    5.2554
   36.900    5.3397
   36.930    5.6451
   36.960    5.6977
   36.990    5.6661
   37.020    5.6872
   37.050    5.6661
   37.080    5.6661
   37.110    5.7083
   37.140    5.3502
   37.170    5.6556
   37.200    5.2238
   37.230    5.4239
   37.260    5.7293
   37.290    5.6345
   37.320    5.5924
   37.350    5.5819
   37.380    5.7715
   37.410    5.8241
   37.440    5.9505
   37.470    5.2027
   37.500    5.5292
   37.530    5.1711
   37.560    5.3818
   37.590    5.2870
   37.620    5.7609
   37.650    5.4871
   37.680    5.3607
   37.710    5.5398
   37.740    5.2975
   37.770    5.5398
   37.800    5.5503
   37.830    5.4134
   37.860    5.5608
   37.890    5.3186
   37.920    5.3712
   37.950    5.4555
   37.980    5.8978
   38.010    5.4344
   38.040    5.4871
   38.070    5.4239
   38.100    5.4239
   38.130    5.3291
   38.160    5.9294
   38.190    5.2343
   38.220    5.6977
   38.250    5.6556
   38.280    5.5608
   38.310    5.5819
   38.340    5.4660
   38.370    5.5187
   38.400    5.4028
   38.430    5.4766
   38.460    5.5608
   38.490    5.5187
   38.520    5.9294
   38.550    5.9505
   38.580    5.6977
   38.610    5.9610
   38.640    5.9505
   38.670    5.6661
   38.700    5.5924
   38.730    5.2765
   38.760    5.1922
   38.790    5.5398
   38.820    5.8347
   38.850    5.2027
   38.880    5.3712
   38.910    5.8557
   38.940    5.5819
   38.970    5.4555
   39.000    5.5819
   39.030    5.6451
   39.060    5.4766
   39.090    5.8136
   39.120    5.1501
   39.150    5.4450
   39.180    5.6661
   39.210    5.3081
   39.240    5.4660
   39.270    5.7188
   39.300    5.3818
   39.330    5.6135
   39.360    5.5398
   39.390    5.3607
   39.420    5.6661
   39.450    4.9921
   39.480    5.3502
   39.510    5.3397
   39.540    5.4239
   39.570    5.4344
   39.600    5.4344
   39.630    5.1185
   39.660    5.6345
   39.690    5.3923
   39.720    5.7293
   39.750    5.5819
   39.780    5.3291
   39.810    5.4450
   39.840    5.8031
   39.870    5.3186
   39.900    5.3923
   39.930    5.4028
   39.960    5.3502
   39.990    5.4555