File: data/MOCOF-1/PXRD/PXRD_KE-082-2_Cu-Ka1_film-3mm_5s-deg.xyd
    1.500   16.0084
    1.530   15.6503
    1.560   14.7235
    1.590   13.6704
    1.620   13.7125
    1.650   13.4492
    1.680   13.0279
    1.710   12.5434
    1.740   11.6588
    1.770   11.2586
    1.800   11.0269
    1.830   10.3633
    1.860   10.5213
    1.890    9.8157
    1.920   10.0158
    1.950    9.5419
    1.980    9.1627
    2.010    8.7520
    2.040    9.3312
    2.070    8.5940
    2.100    8.1727
    2.130    7.8357
    2.160    8.2149
    2.190    8.0674
    2.220    7.7514
    2.250    7.7830
    2.280    7.5092
    2.310    7.2670
    2.340    7.0879
    2.370    7.3091
    2.400    6.6667
    2.430    7.2565
    2.460    7.4987
    2.490    6.6983
    2.520    6.5508
    2.550    6.8878
    2.580    6.7509
    2.610    6.7615
    2.640    6.5719
    2.670    6.1506
    2.700    5.9716
    2.730    6.2559
    2.760    6.2770
    2.790    6.2033
    2.820    5.9294
    2.850    5.6556
    2.880    5.8768
    2.910    5.7188
    2.940    5.8136
    2.970    6.1717
    3.000    5.6451
    3.030    5.9716
    3.060    5.9505
    3.090    5.5292
    3.120    5.9610
    3.150    5.6872
    3.180    5.2343
    3.210    5.6345
    3.240    5.4976
    3.270    6.0137
    3.300    5.4660
    3.330    6.0242
    3.360    5.6661
    3.390    5.2765
    3.420    5.2554
    3.450    5.4660
    3.480    5.4660
    3.510    5.5819
    3.540    5.3607
    3.570    5.4239
    3.600    5.3712
    3.630    5.6556
    3.660    5.5819
    3.690    5.5819
    3.720    5.4344
    3.750    5.2659
    3.780    5.6135
    3.810    5.4028
    3.840    5.8347
    3.870    5.8557
    3.900    5.8873
    3.930    6.1295
    3.960    5.6556
    3.990    5.6872
    4.020    5.6029
    4.050    5.5924
    4.080    5.6767
    4.110    5.2554
    4.140    5.0764
    4.170    5.5398
    4.200    5.4766
    4.230    5.3607
    4.260    5.3923
    4.290    5.2343
    4.320    5.3397
    4.350    5.5819
    4.380    5.1711
    4.410    5.9505
    4.440    5.7399
    4.470    5.3923
    4.500    5.4134
    4.530    5.8031
    4.560    5.4976
    4.590    5.2343
    4.620    5.4134
    4.650    5.5082
    4.680    5.3712
    4.710    5.3502
    4.740    5.8031
    4.770    5.4976
    4.800    6.0558
    4.830    5.4239
    4.860    5.4976
    4.890    5.5503
    4.920    5.7293
    4.950    5.9189
    4.980    5.5608
    5.010    5.8873
    5.040    6.1401
    5.070    6.0242
    5.100    6.1085
    5.130    6.0558
    5.160    6.1401
    5.190    6.7088
    5.220    6.3402
    5.250    6.2981
    5.280    6.8984
    5.310    6.5298
    5.340    6.3296
    5.370    7.0879
    5.400    6.7299
    5.430    7.2986
    5.460    7.0248
    5.490    6.9932
    5.520    7.5303
    5.550    7.7725
    5.580    7.3196
    5.610    7.4144
    5.640    7.4566
    5.670    6.8984
    5.700    6.4034
    5.730    6.6772
    5.760    6.5403
    5.790    6.4455
    5.820    6.5719
    5.850    5.9505
    5.880    5.9189
    5.910    5.7083
    5.940    5.9610
    5.970    5.5608
    6.000    5.6872
    6.030    5.6556
    6.060    5.5082
    6.090    5.4134
    6.120    5.6029
    6.150    5.5187
    6.180    4.9078
    6.210    5.1711
    6.240    5.0026
    6.270    5.2343
    6.300    5.2554
    6.330    5.1185
    6.360    5.1080
    6.390    5.2870
    6.420    4.9710
    6.450    5.2238
    6.480    4.9394
    6.510    5.1185
    6.540    4.6024
    6.570    4.7077
    6.600    4.6130
    6.630    4.6656
    6.660    4.9394
    6.690    4.5182
    6.720    4.4760
    6.750    4.6761
    6.780    5.0869
    6.810    4.6024
    6.840    4.7604
    6.870    4.4866
    6.900    4.7920
    6.930    4.7920
    6.960    4.4866
    6.990    4.5603
    7.020    4.6340
    7.050    4.4971
    7.080    4.3075
    7.110    4.4234
    7.140    4.1917
    7.170    4.5392
    7.200    4.6024
    7.230    4.5814
    7.260    4.2970
    7.290    4.4866
    7.320    4.2865
    7.350    3.8231
    7.380    3.9810
    7.410    4.0021
    7.440    4.3602
    7.470    4.0021
    7.500    3.9916
    7.530    4.0864
    7.560    3.8547
    7.590    3.8968
    7.620    3.9600
    7.650    3.7915
    7.680    4.1706
    7.710    4.0864
    7.740    3.7072
    7.770    3.8020
    7.800    4.0232
    7.830    3.8652
    7.860    3.7704
    7.890    3.8125
    7.920    3.7493
    7.950    3.6862
    7.980    3.6967
    8.010    3.7809
    8.040    3.5914
    8.070    3.5176
    8.100    3.8757
    8.130    3.3913
    8.160    3.7283
    8.190    3.5282
    8.220    3.5808
    8.250    3.5808
    8.280    3.5808
    8.310    3.5492
    8.340    3.8125
    8.370    3.7493
    8.400    3.7072
    8.430    3.7388
    8.460    3.4544
    8.490    3.2754
    8.520    3.5808
    8.550    3.3386
    8.580    3.8441
    8.610    3.3702
    8.640    3.3281
    8.670    3.3597
    8.700    3.0437
    8.730    3.4755
    8.760    3.3491
    8.790    3.6335
    8.820    3.5808
    8.850    3.3702
    8.880    3.3597
    8.910    3.3597
    8.940    3.3175
    8.970    3.4966
    9.000    3.6440
    9.030    3.2965
    9.060    3.5598
    9.090    3.4123
    9.120    3.2438
    9.150    3.4966
    9.180    3.1912
    9.210    3.2227
    9.240    3.3702
    9.270    3.3386
    9.300    3.5808
    9.330    3.3175
    9.360    3.4334
    9.390    3.2754
    9.420    3.3597
    9.450    3.4123
    9.480    3.3491
    9.510    3.6124
    9.540    3.3491
    9.570    3.4650
    9.600    3.4966
    9.630    3.4439
    9.660    3.2438
    9.690    3.2859
    9.720    3.5387
    9.750    3.2649
    9.780    3.6440
    9.810    3.0332
    9.840    3.3913
    9.870    3.2438
    9.900    3.3913
    9.930    3.2438
    9.960    3.3807
    9.990    3.2859
   10.020    3.2649
   10.050    3.5176
   10.080    3.4650
   10.110    3.6546
   10.140    3.4123
   10.170    3.4439
   10.200    3.2227
   10.230    3.4755
   10.260    3.4860
   10.290    3.4334
   10.320    3.3807
   10.350    3.2333
   10.380    3.6230
   10.410    3.3491
   10.440    3.3702
   10.470    3.3175
   10.500    3.1596
   10.530    3.4544
   10.560    3.5492
   10.590    3.7283
   10.620    3.5492
   10.650    3.3491
   10.680    3.4860
   10.710    3.6124
   10.740    3.5282
   10.770    3.5703
   10.800    3.6230
   10.830    4.0126
   10.860    3.7072
   10.890    3.2438
   10.920    3.5176
   10.950    3.3807
   10.980    3.3807
   11.010    3.4966
   11.040    3.7809
   11.070    3.9179
   11.100    3.7388
   11.130    3.3913
   11.160    3.6124
   11.190    3.4755
   11.220    3.7599
   11.250    3.6546
   11.280    3.2754
   11.310    3.6230
   11.340    3.2859
   11.370    3.7704
   11.400    3.6230
   11.430    3.5071
   11.460    3.3913
   11.490    3.4334
   11.520    3.2649
   11.550    3.5808
   11.580    3.4439
   11.610    3.5703
   11.640    3.1912
   11.670    3.4334
   11.700    3.3597
   11.730    3.7283
   11.760    3.3807
   11.790    3.5492
   11.820    3.1280
   11.850    3.4018
   11.880    3.3807
   11.910    3.2438
   11.940    3.0858
   11.970    3.2333
   12.000    3.5071
   12.030    3.2649
   12.060    3.3386
   12.090    3.2859
   12.120    3.4018
   12.150    3.6230
   12.180    3.3386
   12.210    3.2965
   12.240    3.0121
   12.270    3.2438
   12.300    3.0226
   12.330    3.4755
   12.360    3.1806
   12.390    3.5282
   12.420    3.2965
   12.450    3.4860
   12.480    3.4439
   12.510    3.2649
   12.540    3.4229
   12.570    3.1280
   12.600    3.2333
   12.630    3.1280
   12.660    3.3281
   12.690    3.1385
   12.720    3.2122
   12.750    3.5387
   12.780    3.1385
   12.810    3.5598
   12.840    3.2965
   12.870    3.1701
   12.900    3.3597
   12.930    3.3070
   12.960    3.2543
   12.990    3.2754
   13.020    3.0648
   13.050    3.3386
   13.080    2.9068
   13.110    3.5703
   13.140    3.4123
   13.170    3.0226
   13.200    2.9384
   13.230    3.2965
   13.260    3.4018
   13.290    3.3702
   13.320    3.2543
   13.350    3.1596
   13.380    3.1069
   13.410    3.0437
   13.440    3.1280
   13.470    2.9805
   13.500    3.1174
   13.530    3.1174
   13.560    3.2227
   13.590    3.4334
   13.620    3.1069
   13.650    3.2543
   13.680    3.2122
   13.710    3.3597
   13.740    3.4439
   13.770    3.2649
   13.800    3.3491
   13.830    3.2965
   13.860    3.3175
   13.890    3.1912
   13.920    3.4966
   13.950    3.1596
   13.980    2.9805
   14.010    3.4123
   14.040    3.3807
   14.070    3.6651
   14.100    3.3386
   14.130    3.4439
   14.160    3.4439
   14.190    3.5492
   14.220    3.3913
   14.250    3.5598
   14.280    3.3702
   14.310    3.5492
   14.340    3.6124
   14.370    3.5598
   14.400    3.7493
   14.430    3.4229
   14.460    3.7177
   14.490    3.4860
   14.520    3.6124
   14.550    3.7388
   14.580    3.3491
   14.610    3.7493
   14.640    3.4966
   14.670    3.7915
   14.700    3.6756
   14.730    3.3386
   14.760    3.8863
   14.790    3.4650
   14.820    3.3175
   14.850    3.3597
   14.880    3.2754
   14.910    3.0753
   14.940    3.3281
   14.970    3.3702
   15.000    3.1490
   15.030    3.1806
   15.060    3.3070
   15.090    3.3175
   15.120    3.0858
   15.150    3.5387
   15.180    3.5492
   15.210    3.2438
   15.240    3.0226
   15.270    2.8120
   15.300    3.1280
   15.330    3.3281
   15.360    3.1174
   15.390    3.2438
   15.420    2.8647
   15.450    3.1385
   15.480    3.1912
   15.510    3.2543
   15.540    3.1174
   15.570    3.1912
   15.600    3.0648
   15.630    3.1912
   15.660    2.7804
   15.690    3.1806
   15.720    3.5071
   15.750    3.4860
   15.780    3.1490
   15.810    3.1806
   15.840    2.8752
   15.870    3.0226
   15.900    3.5387
   15.930    3.0858
   15.960    3.0226
   15.990    3.0437
   16.020    3.3175
   16.050    3.3597
   16.080    3.1701
   16.110    3.0226
   16.140    2.9595
   16.170    3.1806
   16.200    3.2965
   16.230    3.4860
   16.260    3.1280
   16.290    3.1912
   16.320    3.1174
   16.350    3.1174
   16.380    3.1385
   16.410    3.2649
   16.440    3.1069
   16.470    3.0542
   16.500    3.3175
   16.530    2.9910
   16.560    3.1385
   16.590    3.4650
   16.620    3.2333
   16.650    3.2859
   16.680    3.2543
   16.710    3.2122
   16.740    3.0542
   16.770    3.0648
   16.800    3.0121
   16.830    3.0332
   16.860    3.2017
   16.890    3.2543
   16.920    2.8331
   16.950    3.1069
   16.980    3.1280
   17.010    3.0542
   17.040    3.3281
   17.070    3.2649
   17.100    3.1069
   17.130    3.0016
   17.160    3.0332
   17.190    2.9068
   17.220    2.7278
   17.250    2.9910
   17.280    3.1912
   17.310    3.1280
   17.340    3.1912
   17.370    3.0332
   17.400    3.2122
   17.430    3.1701
   17.460    2.8963
   17.490    3.0648
   17.520    3.3913
   17.550    3.1280
   17.580    3.0332
   17.610    3.0753
   17.640    3.4334
   17.670    3.0332
   17.700    3.0437
   17.730    3.1596
   17.760    2.9700
   17.790    3.3597
   17.820    3.0332
   17.850    2.8752
   17.880    3.1069
   17.910    3.3070
   17.940    3.2017
   17.970    2.8015
   18.000    2.8647
   18.030    3.1912
   18.060    3.0016
   18.090    3.1490
   18.120    3.0648
   18.150    3.1174
   18.180    3.2859
   18.210    2.9700
   18.240    3.1174
   18.270    3.0542
   18.300    3.0437
   18.330    2.8120
   18.360    3.1806
   18.390    3.0858
   18.420    3.2227
   18.450    2.9595
   18.480    3.0964
   18.510    2.9910
   18.540    3.2017
   18.570    3.1385
   18.600    2.8120
   18.630    3.2333
   18.660    3.1385
   18.690    3.1385
   18.720    2.9700
   18.750    3.1385
   18.780    3.0332
   18.810    3.0964
   18.840    2.9279
   18.870    3.1912
   18.900    3.0016
   18.930    3.0753
   18.960    3.3386
   18.990    3.1806
   19.020    2.9910
   19.050    3.0121
   19.080    2.8857
   19.110    3.0964
   19.140    2.8331
   19.170    3.1174
   19.200    2.9279
   19.230    3.2017
   19.260    3.2438
   19.290    3.0226
   19.320    3.0016
   19.350    2.6962
   19.380    2.9805
   19.410    3.1596
   19.440    2.9384
   19.470    3.1069
   19.500    2.7278
   19.530    3.0016
   19.560    3.1806
   19.590    3.0226
   19.620    3.0332
   19.650    3.0648
   19.680    2.9489
   19.710    2.8015
   19.740    3.0016
   19.770    3.0964
   19.800    3.0121
   19.830    3.0753
   19.860    2.8331
   19.890    2.8015
   19.920    2.8857
   19.950    2.9384
   19.980    2.9384
   20.010    2.9489
   20.040    2.9805
   20.070    2.7699
   20.100    3.0858
   20.130    2.7172
   20.160    2.8120
   20.190    3.1806
   20.220    2.7383
   20.250    3.1490
   20.280    2.8963
   20.310    3.1280
   20.340    2.6962
   20.370    2.8436
   20.400    2.8225
   20.430    2.8120
   20.460    2.7804
   20.490    2.8331
   20.520    2.9910
   20.550    3.1069
   20.580    2.8752
   20.610    2.9068
   20.640    2.8225
   20.670    2.8331
   20.700    2.7804
   20.730    2.5698
   20.760    2.9805
   20.790    2.9595
   20.820    2.9910
   20.850    2.9068
   20.880    2.9805
   20.910    2.7699
   20.940    2.8752
   20.970    2.6330
   21.000    2.6751
   21.030    2.7172
   21.060    2.8541
   21.090    2.5487
   21.120    2.7699
   21.150    2.8647
   21.180    2.7278
   21.210    2.9384
   21.240    2.8752
   21.270    2.7278
   21.300    2.7278
   21.330    2.7909
   21.360    2.8120
   21.390    2.8752
   21.420    2.7909
   21.450    3.0858
   21.480    2.8331
   21.510    2.7172
   21.540    2.9173
   21.570    2.8015
   21.600    2.6646
   21.630    2.7278
   21.660    2.5592
   21.690    2.6119
   21.720    2.7909
   21.750    2.6435
   21.780    2.7488
   21.810    2.9279
   21.840    2.7804
   21.870    2.8857
   21.900    2.6540
   21.930    2.5276
   21.960    3.0437
   21.990    2.8752
   22.020    2.7804
   22.050    2.6962
   22.080    2.8857
   22.110    2.7172
   22.140    2.9384
   22.170    2.6119
   22.200    3.0542
   22.230    2.7067
   22.260    2.8120
   22.290    2.8541
   22.320    2.6435
   22.350    2.5803
   22.380    2.6856
   22.410    2.8225
   22.440    2.5171
   22.470    2.5698
   22.500    2.5908
   22.530    2.8225
   22.560    2.7488
   22.590    2.6224
   22.620    2.6962
   22.650    2.5382
   22.680    2.5171
   22.710    2.8120
   22.740    2.6962
   22.770    2.8120
   22.800    2.6119
   22.830    2.6856
   22.860    2.5487
   22.890    2.5592
   22.920    2.5487
   22.950    2.6962
   22.980    2.4750
   23.010    2.4434
   23.040    2.5487
   23.070    2.4645
   23.100    2.4750
   23.130    2.7067
   23.160    2.4223
   23.190    2.5803
   23.220    2.5487
   23.250    2.5066
   23.280    2.4118
   23.310    2.6119
   23.340    2.6014
   23.370    2.3170
   23.400    2.2538
   23.430    2.5908
   23.460    2.3170
   23.490    2.3802
   23.520    2.4118
   23.550    2.5487
   23.580    2.5803
   23.610    2.3907
   23.640    2.5908
   23.670    2.7172
   23.700    2.5276
   23.730    2.4434
   23.760    2.4013
   23.790    2.4434
   23.820    2.4434
   23.850    2.3591
   23.880    2.5487
   23.910    2.4645
   23.940    2.2959
   23.970    2.4118
   24.000    2.3591
   24.030    2.2222
   24.060    2.5066
   24.090    2.5382
   24.120    2.6540
   24.150    2.4961
   24.180    2.5382
   24.210    2.3907
   24.240    2.5382
   24.270    2.3275
   24.300    2.3486
   24.330    2.5066
   24.360    2.2749
   24.390    2.2538
   24.420    2.4434
   24.450    2.3275
   24.480    2.7383
   24.510    2.6435
   24.540    2.3591
   24.570    2.4329
   24.600    2.3802
   24.630    2.4750
   24.660    2.2012
   24.690    2.3381
   24.720    2.4013
   24.750    2.0642
   24.780    2.2012
   24.810    2.4013
   24.840    2.5803
   24.870    2.5066
   24.900    2.6330
   24.930    2.5698
   24.960    2.3591
   24.990    2.4329
   25.020    2.3802
   25.050    2.5171
   25.080    2.3381
   25.110    2.3486
   25.140    2.3907
   25.170    2.5487
   25.200    2.1906
   25.230    2.4118
   25.260    2.2538
   25.290    2.4223
   25.320    2.3381
   25.350    2.3381
   25.380    2.1590
   25.410    2.3275
   25.440    2.3907
   25.470    2.1801
   25.500    2.2222
   25.530    2.4013
   25.560    2.4223
   25.590    2.3170
   25.620    2.0537
   25.650    2.2854
   25.680    2.3065
   25.710    2.4539
   25.740    2.2433
   25.770    2.2854
   25.800    2.4013
   25.830    2.4329
   25.860    2.2328
   25.890    2.3486
   25.920    2.0958
   25.950    2.3065
   25.980    2.3907
   26.010    2.2222
   26.040    2.2854
   26.070    2.2328
   26.100    2.2117
   26.130    2.4118
   26.160    2.1801
   26.190    2.1169
   26.220    2.0537
   26.250    2.4329
   26.280    2.2222
   26.310    2.0958
   26.340    2.1801
   26.370    2.4329
   26.400    2.0958
   26.430    2.0432
   26.460    2.2643
   26.490    2.2749
   26.520    2.3802
   26.550    2.2538
   26.580    2.1801
   26.610    2.1801
   26.640    1.9695
   26.670    2.0853
   26.700    2.1485
   26.730    2.2538
   26.760    2.3065
   26.790    2.1801
   26.820    2.1274
   26.850    2.2643
   26.880    2.2012
   26.910    1.9800
   26.940    2.3591
   26.970    2.4329
   27.000    2.1380
   27.030    1.8431
   27.060    2.0748
   27.090    2.0642
   27.120    2.3591
   27.150    2.2012
   27.180    2.0432
   27.210    2.0432
   27.240    2.0432
   27.270    2.2959
   27.300    2.2538
   27.330    2.1906
   27.360    2.0958
   27.390    2.2012
   27.420    2.1274
   27.450    2.2012
   27.480    2.0116
   27.510    2.1590
   27.540    2.1380
   27.570    2.0221
   27.600    2.2538
   27.630    2.2012
   27.660    2.2222
   27.690    2.2538
   27.720    1.9484
   27.750    2.0642
   27.780    1.8536
   27.810    2.0537
   27.840    2.1064
   27.870    2.1274
   27.900    1.8641
   27.930    1.9168
   27.960    1.9695
   27.990    2.0748
   28.020    1.9800
   28.050    2.0221
   28.080    1.7904
   28.110    2.0116
   28.140    1.9273
   28.170    2.2538
   28.200    1.9168
   28.230    1.9168
   28.260    2.1169
   28.290    1.9168
   28.320    1.8009
   28.350    1.9589
   28.380    1.9800
   28.410    2.2222
   28.440    1.9589
   28.470    1.9168
   28.500    1.8431
   28.530    1.9695
   28.560    2.1485
   28.590    1.9800
   28.620    1.9800
   28.650    2.0011
   28.680    2.3170
   28.710    1.9589
   28.740    2.0011
   28.770    2.0221
   28.800    1.9273
   28.830    2.0011
   28.860    2.0011
   28.890    2.0326
   28.920    2.1169
   28.950    2.1696
   28.980    2.0853
   29.010    2.0221
   29.040    1.9800
   29.070    2.0853
   29.100    2.0958
   29.130    1.8747
   29.160    1.8641
   29.190    1.9484
   29.220    1.8325
   29.250    1.7378
   29.280    1.8957
   29.310    2.2643
   29.340    1.8115
   29.370    1.9063
   29.400    1.9589
   29.430    1.9589
   29.460    1.7904
   29.490    1.9063
   29.520    1.9800
   29.550    1.7167
   29.580    1.7167
   29.610    1.8747
   29.640    1.7062
   29.670    1.9800
   29.700    1.6956
   29.730    1.6746
   29.760    1.8115
   29.790    1.6219
   29.820    1.8115
   29.850    1.9063
   29.880    1.6956
   29.910    1.6956
   29.940    1.8957
   29.970    1.5903
   30.000    1.7694
   30.030    1.7378
   30.060    1.6851
   30.090    1.8431
   30.120    1.8009
   30.150    1.7167
   30.180    1.8009
   30.210    1.6535
   30.240    1.8220
   30.270    2.0853
   30.300    1.7167
   30.330    2.0116
   30.360    1.8747
   30.390    1.6219
   30.420    1.7062
   30.450    1.6219
   30.480    1.7694
   30.510    1.8957
   30.540    1.9695
   30.570    1.8220
   30.600    1.7272
   30.630    1.5903
   30.660    1.5166
   30.690    1.9905
   30.720    1.9800
   30.750    1.7167
   30.780    1.7694
   30.810    1.7272
   30.840    1.7062
   30.870    1.5271
   30.900    1.7904
   30.930    1.5482
   30.960    1.7272
   30.990    1.6114
   31.020    1.6535
   31.050    1.6219
   31.080    1.7483
   31.110    1.6008
   31.140    1.6114
   31.170    1.6640
   31.200    1.3902
   31.230    1.6114
   31.260    1.5166
   31.290    1.7378
   31.320    1.6430
   31.350    1.7378
   31.380    1.6640
   31.410    1.5692
   31.440    1.5798
   31.470    1.5377
   31.500    1.7904
   31.530    1.8431
   31.560    1.6640
   31.590    1.6430
   31.620    1.4955
   31.650    1.7588
   31.680    1.5692
   31.710    1.6746
   31.740    1.5903
   31.770    1.6746
   31.800    1.6640
   31.830    1.6956
   31.860    1.6746
   31.890    1.7799
   31.920    1.4534
   31.950    1.4955
   31.980    1.6114
   32.010    1.6219
   32.040    1.8431
   32.070    1.7062
   32.100    1.9800
   32.130    1.5798
   32.160    1.4639
   32.190    1.5798
   32.220    1.7272
   32.250    1.6640
   32.280    1.5377
   32.310    1.6746
   32.340    1.6535
   32.370    1.5692
   32.400    1.5798
   32.430    1.6219
   32.460    1.5692
   32.490    1.5482
   32.520    1.3797
   32.550    1.6956
   32.580    1.4955
   32.610    1.7167
   32.640    1.5587
   32.670    1.5587
   32.700    1.4745
   32.730    1.3586
   32.760    1.6219
   32.790    1.4007
   32.820    1.5377
   32.850    1.5271
   32.880    1.3060
   32.910    1.3902
   32.940    1.4218
   32.970    1.5903
   33.000    1.3902
   33.030    1.5271
   33.060    1.6219
   33.090    1.4323
   33.120    1.4429
   33.150    1.5692
   33.180    1.1690
   33.210    1.5482
   33.240    1.4639
   33.270    1.4218
   33.300    1.3375
   33.330    1.4218
   33.360    1.3481
   33.390    1.5587
   33.420    1.6535
   33.450    1.4955
   33.480    1.2849
   33.510    1.5377
   33.540    1.4113
   33.570    1.4850
   33.600    1.5482
   33.630    1.6324
   33.660    1.2744
   33.690    1.3165
   33.720    1.4218
   33.750    1.5377
   33.780    1.3270
   33.810    1.5061
   33.840    1.7062
   33.870    1.3902
   33.900    1.6219
   33.930    1.4323
   33.960    1.5166
   33.990    1.6640
   34.020    1.4955
   34.050    1.4113
   34.080    1.5061
   34.110    1.4218
   34.140    1.4218
   34.170    1.1374
   34.200    1.3586
   34.230    1.4639
   34.260    1.3270
   34.290    1.3375
   34.320    1.4113
   34.350    1.4323
   34.380    1.4955
   34.410    1.4745
   34.440    1.5061
   34.470    1.4429
   34.500    1.4113
   34.530    1.3481
   34.560    1.3691
   34.590    1.3691
   34.620    1.2322
   34.650    1.4113
   34.680    1.4429
   34.710    1.3375
   34.740    1.3375
   34.770    1.3691
   34.800    1.4534
   34.830    1.4639
   34.860    1.4955
   34.890    1.5166
   34.920    1.5271
   34.950    1.2744
   34.980    1.3481
   35.010    1.3270
   35.040    1.3797
   35.070    1.4323
   35.100    1.3060
   35.130    1.4429
   35.160    1.3375
   35.190    1.3902
   35.220    1.4639
   35.250    1.3902
   35.280    1.3586
   35.310    1.4745
   35.340    1.3902
   35.370    1.3481
   35.400    1.5377
   35.430    1.2638
   35.460    1.3270
   35.490    1.5587
   35.520    1.3797
   35.550    1.4850
   35.580    1.1796
   35.610    1.4850
   35.640    1.3270
   35.670    1.2112
   35.700    1.4429
   35.730    1.4955
   35.760    1.2954
   35.790    1.3165
   35.820    1.4534
   35.850    1.3375
   35.880    1.4113
   35.910    1.5903
   35.940    1.3165
   35.970    1.4639
   36.000    1.5377
   36.030    1.3902
   36.060    1.6114
   36.090    1.2849
   36.120    1.4218
   36.150    1.4218
   36.180    1.3481
   36.210    1.5587
   36.240    1.4113
   36.270    1.4534
   36.300    1.4218
   36.330    1.2744
   36.360    1.5587
   36.390    1.2849
   36.420    1.1901
   36.450    1.3691
   36.480    1.4218
   36.510    1.3691
   36.540    1.2744
   36.570    1.4113
   36.600    1.2744
   36.630    1.2217
   36.660    1.6008
   36.690    1.3060
   36.720    1.5166
   36.750    1.1480
   36.780    1.3586
   36.810    1.3586
   36.840    1.1796
   36.870    1.3902
   36.900    1.3586
   36.930    1.3691
   36.960    1.4007
   36.990    1.3165
   37.020    1.4218
   37.050    1.3586
   37.080    1.2428
   37.110    1.3797
   37.140    1.3270
   37.170    1.2744
   37.200    1.4639
   37.230    1.2533
   37.260    1.2428
   37.290    1.2638
   37.320    1.3270
   37.350    1.2954
   37.380    1.2112
   37.410    1.3165
   37.440    1.2954
   37.470    1.3165
   37.500    1.3797
   37.530    1.1796
   37.560    1.3902
   37.590    1.3797
   37.620    1.3270
   37.650    1.1269
   37.680    1.3691
   37.710    1.4323
   37.740    1.3797
   37.770    1.2428
   37.800    1.3375
   37.830    1.4745
   37.860    1.4218
   37.890    1.2954
   37.920    1.4007
   37.950    1.3586
   37.980    1.2533
   38.010    1.3375
   38.040    1.4323
   38.070    1.3165
   38.100    1.5061
   38.130    1.1585
   38.160    1.2112
   38.190    1.3270
   38.220    1.1374
   38.250    1.1690
   38.280    1.3165
   38.310    1.2217
   38.340    1.1480
   38.370    1.3375
   38.400    1.3481
   38.430    1.4007
   38.460    1.2428
   38.490    1.1690
   38.520    1.1901
   38.550    1.4323
   38.580    1.4007
   38.610    1.4534
   38.640    1.1269
   38.670    1.2533
   38.700    1.0637
   38.730    1.3270
   38.760    1.2744
   38.790    1.3797
   38.820    1.0848
   38.850    1.2638
   38.880    1.2849
   38.910    1.2638
   38.940    1.2006
   38.970    1.2112
   39.000    1.2428
   39.030    1.3691
   39.060    1.1796
   39.090    1.2744
   39.120    1.1480
   39.150    1.1690
   39.180    1.1585
   39.210    1.3902
   39.240    1.3165
   39.270    1.3060
   39.300    1.3165
   39.330    1.1901
   39.360    1.3270
   39.390    1.1796
   39.420    1.3691
   39.450    1.1901
   39.480    1.1269
   39.510    1.3270
   39.540    1.2638
   39.570    1.1585
   39.600    1.2006
   39.630    1.2744
   39.660    1.4007
   39.690    1.2849
   39.720    1.2217
   39.750    1.2217
   39.780    1.3060
   39.810    1.3270
   39.840    1.2744
   39.870    1.2744
   39.900    1.2744
   39.930    1.3060
   39.960    1.2217
   39.990    1.2638