File: data/MOCOF-1/PXRD/PXRD_KE-339_Cu-Ka1_capillary-1mm_3s-deg_COF-366-Co.xyd
    1.500    2.5628
    1.545    2.6330
    1.590    2.1941
    1.635    2.4750
    1.680    2.2117
    1.725    2.1239
    1.770    2.3872
    1.815    2.3697
    1.860    2.0537
    1.905    1.9835
    1.950    1.9133
    1.995    1.9484
    2.040    1.9835
    2.085    1.9659
    2.130    1.8957
    2.175    1.9484
    2.220    1.7378
    2.265    1.7729
    2.310    1.8080
    2.355    1.7202
    2.400    1.8782
    2.445    1.9659
    2.490    1.8957
    2.535    2.2819
    2.580    2.1590
    2.625    2.1239
    2.670    2.2468
    2.715    2.5452
    2.760    2.7558
    2.805    3.1069
    2.850    3.1069
    2.895    3.6686
    2.940    3.7213
    2.985    4.6165
    3.030    4.7744
    3.075    5.5994
    3.120    6.0734
    3.165    7.0563
    3.210    7.6883
    3.255   10.0228
    3.300   12.1292
    3.345   15.3414
    3.390   17.6584
    3.435   18.1499
    3.480   13.9372
    3.525   10.0930
    3.570    7.2319
    3.615    6.2665
    3.660    5.5994
    3.705    5.2484
    3.750    5.8452
    3.795    5.9154
    3.840    6.4420
    3.885    6.7579
    3.930    6.7755
    3.975    7.7585
    4.020    7.5127
    4.065    6.8106
    4.110    6.2489
    4.155    6.1436
    4.200    4.7920
    4.245    4.3532
    4.290    3.7037
    4.335    3.1245
    4.380    3.0367
    4.425    2.1766
    4.470    1.9133
    4.515    1.8606
    4.560    2.0011
    4.605    1.8431
    4.650    1.7553
    4.695    1.5447
    4.740    1.6324
    4.785    1.5447
    4.830    1.5096
    4.875    1.5096
    4.920    1.1234
    4.965    1.5096
    5.010    1.2287
    5.055    1.1234
    5.100    1.2638
    5.145    1.1936
    5.190    1.2112
    5.235    1.2112
    5.280    1.1234
    5.325    1.2112
    5.370    1.2989
    5.415    1.0005
    5.460    1.3867
    5.505    1.1761
    5.550    1.0356
    5.595    1.1410
    5.640    1.3691
    5.685    1.2112
    5.730    1.1234
    5.775    1.1585
    5.820    1.2989
    5.865    1.2287
    5.910    1.1410
    5.955    1.0707
    6.000    1.0707
    6.045    1.1410
    6.090    1.0181
    6.135    1.0356
    6.180    1.0181
    6.225    0.9479
    6.270    1.1936
    6.315    1.0356
    6.360    1.1761
    6.405    1.0883
    6.450    1.2287
    6.495    1.1410
    6.540    1.1761
    6.585    1.4394
    6.630    1.2112
    6.675    1.5096
    6.720    1.7027
    6.765    1.6851
    6.810    2.0713
    6.855    2.4399
    6.900    2.6856
    6.945    2.8787
    6.990    2.4399
    7.035    1.6851
    7.080    1.4394
    7.125    1.5271
    7.170    1.4218
    7.215    1.1936
    7.260    1.2814
    7.305    1.0005
    7.350    1.3165
    7.395    0.9128
    7.440    0.9654
    7.485    1.1585
    7.530    1.1410
    7.575    1.3516
    7.620    1.1761
    7.665    1.2287
    7.710    1.1585
    7.755    1.2989
    7.800    1.3516
    7.845    1.2287
    7.890    1.2463
    7.935    1.4745
    7.980    1.2112
    8.025    1.4569
    8.070    1.4569
    8.115    1.5973
    8.160    1.6324
    8.205    1.5798
    8.250    1.4569
    8.295    1.5271
    8.340    1.4745
    8.385    1.2814
    8.430    1.4569
    8.475    1.5447
    8.520    1.3340
    8.565    1.2989
    8.610    1.2814
    8.655    1.3340
    8.700    1.1234
    8.745    1.1761
    8.790    1.4218
    8.835    1.1410
    8.880    1.0883
    8.925    0.9830
    8.970    0.9303
    9.015    1.0883
    9.060    1.0356
    9.105    1.1410
    9.150    1.0707
    9.195    1.1410
    9.240    0.9830
    9.285    0.9654
    9.330    1.0707
    9.375    1.0707
    9.420    1.1234
    9.465    0.9654
    9.510    0.8425
    9.555    1.0181
    9.600    1.2287
    9.645    0.8777
    9.690    1.1585
    9.735    0.9654
    9.780    0.9303
    9.825    0.9830
    9.870    0.8777
    9.915    1.1410
    9.960    0.9830
   10.005    1.1410
   10.050    1.0181
   10.095    1.2287
   10.140    1.0883
   10.185    0.8425
   10.230    1.0181
   10.275    1.1058
   10.320    0.9830
   10.365    1.2112
   10.410    1.1410
   10.455    1.1410
   10.500    1.0707
   10.545    1.0532
   10.590    1.0883
   10.635    1.1936
   10.680    0.9479
   10.725    0.8601
   10.770    0.8601
   10.815    0.9830
   10.860    1.0356
   10.905    1.0181
   10.950    0.9830
   10.995    0.9479
   11.040    0.9128
   11.085    0.9303
   11.130    1.0707
   11.175    0.9128
   11.220    1.0532
   11.265    1.1058
   11.310    1.0532
   11.355    0.9654
   11.400    0.6846
   11.445    1.1936
   11.490    1.2638
   11.535    0.9654
   11.580    1.0707
   11.625    1.0532
   11.670    1.0883
   11.715    1.0532
   11.760    0.9128
   11.805    0.9479
   11.850    0.7723
   11.895    1.0883
   11.940    1.1761
   11.985    0.9479
   12.030    1.0883
   12.075    1.0707
   12.120    1.0356
   12.165    1.1585
   12.210    1.0707
   12.255    1.0883
   12.300    1.0532
   12.345    0.9654
   12.390    1.0883
   12.435    1.2463
   12.480    1.2287
   12.525    1.0005
   12.570    1.0181
   12.615    1.1058
   12.660    1.0181
   12.705    1.0707
   12.750    0.8250
   12.795    1.1936
   12.840    1.2112
   12.885    0.8952
   12.930    0.9128
   12.975    1.0707
   13.020    0.8777
   13.065    0.9654
   13.110    1.1058
   13.155    1.0707
   13.200    1.1058
   13.245    1.0356
   13.290    1.0181
   13.335    0.9830
   13.380    1.2287
   13.425    0.9128
   13.470    1.0356
   13.515    0.8952
   13.560    0.9654
   13.605    1.1234
   13.650    0.9654
   13.695    0.8952
   13.740    1.0707
   13.785    1.1410
   13.830    0.9830
   13.875    0.8250
   13.920    1.0707
   13.965    1.1058
   14.010    0.8952
   14.055    0.9303
   14.100    0.9654
   14.145    1.0883
   14.190    1.0356
   14.235    1.0532
   14.280    0.8601
   14.325    0.9654
   14.370    0.9830
   14.415    1.0005
   14.460    0.8952
   14.505    1.0005
   14.550    1.0181
   14.595    0.9654
   14.640    1.0707
   14.685    1.0356
   14.730    0.9830
   14.775    0.8601
   14.820    1.1585
   14.865    1.0181
   14.910    0.8250
   14.955    0.9128
   15.000    1.0005
   15.045    1.1585
   15.090    1.0883
   15.135    1.0883
   15.180    0.9128
   15.225    0.9303
   15.270    0.9830
   15.315    1.0181
   15.360    0.8777
   15.405    1.0532
   15.450    0.9654
   15.495    0.8777
   15.540    0.7372
   15.585    1.0181
   15.630    0.9830
   15.675    1.0005
   15.720    0.9303
   15.765    1.0883
   15.810    0.7021
   15.855    0.8777
   15.900    1.0005
   15.945    0.8777
   15.990    0.9303
   16.035    0.7021
   16.080    0.8777
   16.125    0.9479
   16.170    1.0883
   16.215    0.9128
   16.260    0.8601
   16.305    1.0356
   16.350    0.9830
   16.395    1.0707
   16.440    0.8074
   16.485    0.7021
   16.530    0.9830
   16.575    0.9303
   16.620    0.9303
   16.665    0.8777
   16.710    0.9303
   16.755    0.9479
   16.800    0.8777
   16.845    0.9128
   16.890    1.0532
   16.935    0.8250
   16.980    0.9128
   17.025    0.7899
   17.070    0.7197
   17.115    0.9830
   17.160    0.9128
   17.205    1.0005
   17.250    0.8074
   17.295    1.0707
   17.340    1.0181
   17.385    1.0356
   17.430    1.0181
   17.475    1.0356
   17.520    0.9479
   17.565    0.9128
   17.610    0.8425
   17.655    0.9830
   17.700    0.9830
   17.745    0.8601
   17.790    0.9128
   17.835    1.0883
   17.880    1.0532
   17.925    0.9479
   17.970    1.0532
   18.015    0.8777
   18.060    1.0707
   18.105    0.9654
   18.150    1.0181
   18.195    1.0356
   18.240    1.1761
   18.285    1.0181
   18.330    0.9479
   18.375    0.8425
   18.420    1.1410
   18.465    0.9479
   18.510    0.9128
   18.555    0.9479
   18.600    0.8601
   18.645    0.9830
   18.690    0.9303
   18.735    0.8952
   18.780    0.8601
   18.825    0.9479
   18.870    1.0181
   18.915    0.7372
   18.960    0.9654
   19.005    1.0532
   19.050    1.0181
   19.095    1.0181
   19.140    1.0356
   19.185    0.8425
   19.230    1.0532
   19.275    1.0532
   19.320    1.0532
   19.365    0.8952
   19.410    0.8074
   19.455    1.1585
   19.500    1.0356
   19.545    1.1234
   19.590    1.0532
   19.635    0.8601
   19.680    1.1936
   19.725    1.0181
   19.770    1.1234
   19.815    1.0181
   19.860    0.8777
   19.905    0.9830
   19.950    1.2989
   19.995    1.2638
   20.040    0.9303
   20.085    1.0005
   20.130    1.2463
   20.175    1.0005
   20.220    0.8777
   20.265    0.8952
   20.310    1.0356
   20.355    0.9654
   20.400    1.0005
   20.445    1.2287
   20.490    0.9128
   20.535    1.0356
   20.580    0.7899
   20.625    1.0181
   20.670    1.1761
   20.715    1.1761
   20.760    1.1234
   20.805    0.9128
   20.850    1.1410
   20.895    0.8250
   20.940    1.1058
   20.985    0.9479
   21.030    1.1761
   21.075    1.2287
   21.120    1.0532
   21.165    1.1761
   21.210    1.0356
   21.255    1.0181
   21.300    0.9830
   21.345    1.0883
   21.390    0.7899
   21.435    1.0181
   21.480    1.0356
   21.525    1.0005
   21.570    0.9830
   21.615    0.9830
   21.660    1.1058
   21.705    1.2463
   21.750    1.0532
   21.795    1.1234
   21.840    1.1234
   21.885    0.9303
   21.930    1.1410
   21.975    1.1936
   22.020    1.0883
   22.065    1.0181
   22.110    1.0356
   22.155    1.1058
   22.200    0.8425
   22.245    0.8952
   22.290    0.9128
   22.335    1.1058
   22.380    1.1058
   22.425    1.0356
   22.470    1.1234
   22.515    1.2814
   22.560    1.2463
   22.605    0.8601
   22.650    1.1410
   22.695    0.9654
   22.740    1.1234
   22.785    0.9479
   22.830    0.9654
   22.875    1.0005
   22.920    1.0532
   22.965    1.1234
   23.010    0.9654
   23.055    0.9479
   23.100    1.0532
   23.145    0.6846
   23.190    1.0356
   23.235    1.1058
   23.280    1.1585
   23.325    0.9830
   23.370    0.9654
   23.415    0.9479
   23.460    1.1761
   23.505    1.1058
   23.550    1.1761
   23.595    1.0005
   23.640    1.0181
   23.685    1.0356
   23.730    1.0532
   23.775    1.0356
   23.820    0.9654
   23.865    1.0181
   23.910    0.9830
   23.955    1.1936
   24.000    1.0532
   24.045    0.8601
   24.090    1.0532
   24.135    0.8601
   24.180    1.0532
   24.225    1.1058
   24.270    0.6846
   24.315    0.9128
   24.360    1.1234
   24.405    0.9830
   24.450    0.9830
   24.495    0.9654
   24.540    1.0532
   24.585    1.0707
   24.630    0.9303
   24.675    0.9479
   24.720    1.0532
   24.765    1.1410
   24.810    0.9479
   24.855    0.9479
   24.900    1.1410
   24.945    1.0883
   24.990    0.8250
   25.035    1.0005
   25.080    0.8425
   25.125    0.8952
   25.170    0.9303
   25.215    0.8777
   25.260    1.0883
   25.305    0.7548
   25.350    0.8952
   25.395    1.1058
   25.440    0.9128
   25.485    0.9128
   25.530    0.8601
   25.575    0.8777
   25.620    0.8425
   25.665    0.9830
   25.710    1.0181
   25.755    1.0532
   25.800    0.8425
   25.845    1.0181
   25.890    0.8425
   25.935    0.7197
   25.980    0.8250
   26.025    0.8952
   26.070    0.9128
   26.115    1.0356
   26.160    0.8425
   26.205    0.8425
   26.250    0.8777
   26.295    0.8777
   26.340    0.7372
   26.385    0.8952
   26.430    1.1585
   26.475    1.0181
   26.520    0.8074
   26.565    0.8952
   26.610    0.7899
   26.655    0.9303
   26.700    0.8777
   26.745    0.8952
   26.790    1.1410
   26.835    0.9654
   26.880    0.7372
   26.925    0.8777
   26.970    0.9830
   27.015    0.8601
   27.060    0.8601
   27.105    0.8601
   27.150    1.0181
   27.195    1.0181
   27.240    0.9303
   27.285    0.8425
   27.330    0.9654
   27.375    1.0532
   27.420    0.7548
   27.465    0.9303
   27.510    0.7197
   27.555    0.8250
   27.600    0.7021
   27.645    0.9654
   27.690    0.8074
   27.735    0.8425
   27.780    0.7899
   27.825    0.8074
   27.870    0.8601
   27.915    0.7899
   27.960    0.7197
   28.005    0.8074
   28.050    1.0005
   28.095    0.8952
   28.140    0.8250
   28.185    0.8250
   28.230    1.1058
   28.275    0.9128
   28.320    0.7723
   28.365    0.9128
   28.410    0.7197
   28.455    0.9303
   28.500    0.7372
   28.545    0.8074
   28.590    0.8250
   28.635    0.6846
   28.680    0.8952
   28.725    0.8250
   28.770    0.7548
   28.815    0.6846
   28.860    0.8777
   28.905    0.8074
   28.950    0.8074
   28.995    0.9128
   29.040    1.0005
   29.085    0.7723
   29.130    0.8777
   29.175    0.8425
   29.220    0.8601
   29.265    0.8952
   29.310    0.8425
   29.355    0.7197
   29.400    0.9303
   29.445    0.9303
   29.490    0.9654
   29.535    0.9128
   29.580    0.9303
   29.625    0.8601
   29.670    0.8952
   29.715    0.8074
   29.760    0.6670
   29.805    0.8601
   29.850    0.8074
   29.895    0.7899
   29.940    0.6846
   29.985    0.7899
   30.030    0.7372
   30.075    0.7021
   30.120    0.7372
   30.165    0.7548
   30.210    0.8601
   30.255    0.7021
   30.300    0.8425
   30.345    0.8425
   30.390    1.0356
   30.435    0.9303
   30.480    0.8777
   30.525    0.7899
   30.570    0.8777
   30.615    0.7197
   30.660    0.8777
   30.705    0.5968
   30.750    0.7372
   30.795    0.8952
   30.840    0.8952
   30.885    0.9303
   30.930    0.7723
   30.975    0.7899
   31.020    0.7197
   31.065    0.6670
   31.110    0.7197
   31.155    0.8250
   31.200    0.6495
   31.245    0.7548
   31.290    0.7372
   31.335    0.7021
   31.380    0.9479
   31.425    0.7021
   31.470    0.7372
   31.515    0.7372
   31.560    0.5793
   31.605    0.7723
   31.650    0.7548
   31.695    0.7723
   31.740    0.5617
   31.785    0.7899
   31.830    0.6670
   31.875    0.6319
   31.920    0.5266
   31.965    0.6670
   32.010    0.7723
   32.055    0.8425
   32.100    0.7723
   32.145    0.8074
   32.190    0.6144
   32.235    0.6144
   32.280    0.6144
   32.325    0.7197
   32.370    0.6144
   32.415    0.8777
   32.460    0.7723
   32.505    0.7723
   32.550    0.5617
   32.595    0.7548
   32.640    0.6846
   32.685    0.7021
   32.730    0.8601
   32.775    0.8250
   32.820    0.6670
   32.865    0.6670
   32.910    0.7021
   32.955    0.9128
   33.000    0.7548
   33.045    0.7372
   33.090    0.6846
   33.135    0.7723
   33.180    0.9479
   33.225    0.7372
   33.270    0.6670
   33.315    0.6846
   33.360    0.8074
   33.405    0.6670
   33.450    0.7372
   33.495    0.7021
   33.540    0.5266
   33.585    0.5441
   33.630    0.6319
   33.675    0.6495
   33.720    0.5793
   33.765    0.7197
   33.810    0.6495
   33.855    0.8601
   33.900    0.6846
   33.945    0.5441
   33.990    0.6670
   34.035    0.5617
   34.080    0.7372
   34.125    0.6846
   34.170    0.6670
   34.215    0.7021
   34.260    0.6670
   34.305    0.4564
   34.350    0.6670
   34.395    0.7548
   34.440    0.6495
   34.485    0.7021
   34.530    0.6144
   34.575    0.6670
   34.620    0.9128
   34.665    0.6495
   34.710    0.6846
   34.755    0.6319
   34.800    0.5617
   34.845    0.7723
   34.890    0.6846
   34.935    0.6495
   34.980    0.7372
   35.025    0.7197
   35.070    0.7197
   35.115    0.6144
   35.160    0.6319
   35.205    0.6670
   35.250    0.6670
   35.295    0.6670
   35.340    0.6495
   35.385    0.7372
   35.430    0.5793
   35.475    0.6319
   35.520    0.5441
   35.565    0.6495
   35.610    0.6144
   35.655    0.7021
   35.700    0.6319
   35.745    0.5441
   35.790    0.4915
   35.835    0.5968
   35.880    0.5793
   35.925    0.5793
   35.970    0.6495
   36.015    0.5617
   36.060    0.4915
   36.105    0.5793
   36.150    0.6144
   36.195    0.4564
   36.240    0.5617
   36.285    0.7021
   36.330    0.4564
   36.375    0.5968
   36.420    0.4213
   36.465    0.4213
   36.510    0.6319
   36.555    0.6319
   36.600    0.4037
   36.645    0.5968
   36.690    0.5266
   36.735    0.5617
   36.780    0.5266
   36.825    0.6495
   36.870    0.6144
   36.915    0.4739
   36.960    0.6495
   37.005    0.4915
   37.050    0.4739
   37.095    0.5441
   37.140    0.5793
   37.185    0.5793
   37.230    0.6144
   37.275    0.5090
   37.320    0.4739
   37.365    0.4037
   37.410    0.5090
   37.455    0.4739
   37.500    0.5441
   37.545    0.5793
   37.590    0.5266
   37.635    0.4739
   37.680    0.5793
   37.725    0.7372
   37.770    0.4037
   37.815    0.5968
   37.860    0.5441
   37.905    0.6670
   37.950    0.5090
   37.995    0.4739
   38.040    0.5441
   38.085    0.5968
   38.130    0.5617
   38.175    0.5090
   38.220    0.5441
   38.265    0.4037
   38.310    0.4213
   38.355    0.7021
   38.400    0.6670
   38.445    0.5617
   38.490    0.5793
   38.535    0.3511
   38.580    0.4915
   38.625    0.4388
   38.670    0.4388
   38.715    0.6319
   38.760    0.5441
   38.805    0.5617
   38.850    0.5090
   38.895    0.6144
   38.940    0.3686
   38.985    0.5090
   39.030    0.5090
   39.075    0.4564
   39.120    0.5266
   39.165    0.4388
   39.210    0.6319
   39.255    0.5266
   39.300    0.4739
   39.345    0.6495
   39.390    0.4388
   39.435    0.3862
   39.480    0.6319
   39.525    0.4213
   39.570    0.5266
   39.615    0.5617
   39.660    0.5266
   39.705    0.5968
   39.750    0.4388
   39.795    0.5266
   39.840    0.3686
   39.885    0.4213
   39.930    0.5617
   39.975    0.4564
   40.020    0.5617
   40.065    0.5617
   40.110    0.5266
   40.155    0.4564
   40.200    0.4739
   40.245    0.5617
   40.290    0.3686
   40.335    0.4915
   40.380    0.5968
   40.425    0.3511
   40.470    0.5266
   40.515    0.4388
   40.560    0.4388
   40.605    0.5441
   40.650    0.5968
   40.695    0.5266
   40.740    0.5617
   40.785    0.5793
   40.830    0.4915
   40.875    0.4739
   40.920    0.5968
   40.965    0.6670
   41.010    0.5793
   41.055    0.6144
   41.100    0.4739
   41.145    0.5617
   41.190    0.4915
   41.235    0.3686
   41.280    0.4915
   41.325    0.3511
   41.370    0.6495
   41.415    0.4213
   41.460    0.5617
   41.505    0.4564
   41.550    0.5793
   41.595    0.4739
   41.640    0.5617
   41.685    0.4037
   41.730    0.6495
   41.775    0.4213
   41.820    0.4739
   41.865    0.5090
   41.910    0.5441
   41.955    0.4739
   42.000    0.4213
   42.045    0.4388
   42.090    0.6495
   42.135    0.6846
   42.180    0.5793
   42.225    0.5090
   42.270    0.4037
   42.315    0.5617
   42.360    0.4388
   42.405    0.5266
   42.450    0.5090
   42.495    0.4915
   42.540    0.4739
   42.585    0.5441
   42.630    0.5266
   42.675    0.5090
   42.720    0.5617
   42.765    0.6495
   42.810    0.5441
   42.855    0.5441
   42.900    0.5617
   42.945    0.5090
   42.990    0.5090
   43.035    0.5617
   43.080    0.4739
   43.125    0.5090
   43.170    0.5266
   43.215    0.5617
   43.260    0.4388
   43.305    0.4564
   43.350    0.4915
   43.395    0.5266
   43.440    0.5441
   43.485    0.3511
   43.530    0.3686
   43.575    0.4915
   43.620    0.4739
   43.665    0.2984
   43.710    0.4213
   43.755    0.6846
   43.800    0.5617
   43.845    0.5793
   43.890    0.5968
   43.935    0.4564
   43.980    0.4915
   44.025    0.5441
   44.070    0.4564
   44.115    0.4388
   44.160    0.6319
   44.205    0.6319
   44.250    0.4915
   44.295    0.4739
   44.340    0.5266
   44.385    0.4739
   44.430    0.5968
   44.475    0.5617
   44.520    0.4564
   44.565    0.3862
   44.610    0.5441
   44.655    0.3862
   44.700    0.5090
   44.745    0.4739
   44.790    0.4213
   44.835    0.4037
   44.880    0.5617
   44.925    0.4037
   44.970    0.4564
   45.015    0.3862
   45.060    0.4915
   45.105    0.5266
   45.150    0.4213
   45.195    0.5090
   45.240    0.5266
   45.285    0.5617
   45.330    0.5266
   45.375    0.4388
   45.420    0.5617
   45.465    0.5090
   45.510    0.5266
   45.555    0.3686
   45.600    0.3686
   45.645    0.4388
   45.690    0.5441
   45.735    0.4037
   45.780    0.3686
   45.825    0.3160
   45.870    0.5441
   45.915    0.3335
   45.960    0.4213
   46.005    0.3686
   46.050    0.4213
   46.095    0.4739
   46.140    0.4915
   46.185    0.5441
   46.230    0.3686
   46.275    0.3511
   46.320    0.4564
   46.365    0.4388
   46.410    0.3511
   46.455    0.5793
   46.500    0.4388
   46.545    0.5617
   46.590    0.4037
   46.635    0.5793
   46.680    0.3686
   46.725    0.4564
   46.770    0.5090
   46.815    0.4739
   46.860    0.4388
   46.905    0.3686
   46.950    0.5266
   46.995    0.5441
   47.040    0.5090
   47.085    0.5090
   47.130    0.3862
   47.175    0.3335
   47.220    0.4037
   47.265    0.4564
   47.310    0.4388
   47.355    0.4213
   47.400    0.3862
   47.445    0.3686
   47.490    0.4037
   47.535    0.4915
   47.580    0.4213
   47.625    0.2808
   47.670    0.3686
   47.715    0.5266
   47.760    0.5793
   47.805    0.5090
   47.850    0.4915
   47.895    0.4739
   47.940    0.4739
   47.985    0.4564
   48.030    0.3686
   48.075    0.3862
   48.120    0.3686
   48.165    0.5266
   48.210    0.4564
   48.255    0.2633
   48.300    0.3160
   48.345    0.4739
   48.390    0.4388
   48.435    0.2808
   48.480    0.5266
   48.525    0.3335
   48.570    0.4915
   48.615    0.4388
   48.660    0.3862
   48.705    0.4915
   48.750    0.4037
   48.795    0.4213
   48.840    0.4213
   48.885    0.4388
   48.930    0.3862
   48.975    0.4915
   49.020    0.3160
   49.065    0.5090
   49.110    0.4037
   49.155    0.6319
   49.200    0.4564
   49.245    0.4037
   49.290    0.4564
   49.335    0.3511
   49.380    0.5968
   49.425    0.4213
   49.470    0.3862
   49.515    0.4037
   49.560    0.4037
   49.605    0.3862
   49.650    0.4739
   49.695    0.4915
   49.740    0.4388
   49.785    0.4915
   49.830    0.3862
   49.875    0.5266
   49.920    0.3862
   49.965    0.3511
   49.980    0.3511