File: data/MOCOF-1/PXRD/PXRD_KE-269_Cu-Ka1_film-3mm_3s-deg.xyd
    1.500   13.1999
    1.530   13.2877
    1.560   12.4451
    1.590   12.1467
    1.620   11.8308
    1.650   12.1292
    1.680   11.7957
    1.710   11.1111
    1.740   11.6553
    1.770   11.1813
    1.800   11.2866
    1.830   10.4792
    1.860   10.7776
    1.890   10.5319
    1.920   10.5494
    1.950   10.7074
    1.980    9.7771
    2.010   10.6021
    2.040   10.3037
    2.070    9.8473
    2.100    9.8122
    2.130    9.6015
    2.160    9.6015
    2.190    9.2329
    2.220    9.5138
    2.250    9.4085
    2.280    9.0750
    2.310    8.9872
    2.340    8.7941
    2.370    9.1627
    2.400    9.0574
    2.430    8.6712
    2.460    9.4260
    2.490    8.5133
    2.520    8.3026
    2.550    8.4957
    2.580    8.2500
    2.610    8.6888
    2.640    8.8117
    2.670    8.6361
    2.700    8.2675
    2.730    8.5484
    2.760    8.3553
    2.790    8.1095
    2.820    8.3553
    2.850    8.0393
    2.880    8.1797
    2.910    8.6712
    2.940    8.0920
    2.970    7.7058
    3.000    7.8813
    3.030    8.0042
    3.060    8.1797
    3.090    8.0920
    3.120    8.3553
    3.150    8.2851
    3.180    8.0393
    3.210    8.3728
    3.240    7.4601
    3.270    8.1095
    3.300    8.2500
    3.330    7.8989
    3.360    7.4601
    3.390    7.7409
    3.420    7.9516
    3.450    8.1271
    3.480    7.8813
    3.510    7.6883
    3.540    7.7234
    3.570    7.5829
    3.600    8.0042
    3.630    7.6707
    3.660    7.9867
    3.690    7.7409
    3.720    7.7409
    3.750    7.9340
    3.780    7.5303
    3.810    7.8287
    3.840    7.5829
    3.870    7.7234
    3.900    7.5303
    3.930    8.0042
    3.960    7.9516
    3.990    7.7409
    4.020    7.5303
    4.050    7.2670
    4.080    7.6707
    4.110    8.0744
    4.140    7.7936
    4.170    7.6883
    4.200    7.8111
    4.230    7.7234
    4.260    7.7234
    4.290    7.5829
    4.320    7.6883
    4.350    8.0218
    4.380    7.6707
    4.410    7.8813
    4.440    7.7585
    4.470    7.8638
    4.500    8.0042
    4.530    7.9516
    4.560    8.2149
    4.590    7.8111
    4.620    8.3904
    4.650    8.4430
    4.680    8.1271
    4.710    8.0744
    4.740    8.0920
    4.770    8.1271
    4.800    8.4079
    4.830    8.2149
    4.860    8.6712
    4.890    8.5133
    4.920    8.0393
    4.950    8.3728
    4.980    8.3377
    5.010    8.8292
    5.040    8.6712
    5.070    9.3558
    5.100    8.8292
    5.130    9.0925
    5.160    9.2329
    5.190    9.4611
    5.220    9.6191
    5.250   10.0228
    5.280   10.8127
    5.310    9.8824
    5.340   10.0404
    5.370   10.3212
    5.400   10.6547
    5.430   10.6372
    5.460   10.6723
    5.490   10.2861
    5.520   10.6898
    5.550   10.0579
    5.580   10.5494
    5.610   10.7600
    5.640   10.3739
    5.670   10.6898
    5.700   10.0579
    5.730    9.7420
    5.760    9.2329
    5.790    9.5138
    5.820    9.5664
    5.850    9.2329
    5.880    9.6893
    5.910    8.8292
    5.940    8.9872
    5.970    8.7063
    6.000    8.7765
    6.030    8.3728
    6.060    8.0569
    6.090    7.9867
    6.120    7.7585
    6.150    7.7058
    6.180    8.0218
    6.210    7.4776
    6.240    7.4776
    6.270    8.2500
    6.300    7.3723
    6.330    8.0218
    6.360    7.5654
    6.390    7.6707
    6.420    7.7409
    6.450    7.9164
    6.480    7.6883
    6.510    7.1617
    6.540    6.9510
    6.570    7.7234
    6.600    6.7930
    6.630    6.7053
    6.660    7.0915
    6.690    6.8984
    6.720    7.1090
    6.750    7.0739
    6.780    6.8106
    6.810    6.6526
    6.840    7.1441
    6.870    7.4776
    6.900    7.2319
    6.930    6.7053
    6.960    6.7404
    6.990    6.9686
    7.020    6.8808
    7.050    5.8978
    7.080    6.9861
    7.110    6.5298
    7.140    6.6351
    7.170    6.1260
    7.200    6.4771
    7.230    6.5122
    7.260    6.0909
    7.290    6.1260
    7.320    6.5122
    7.350    6.1436
    7.380    6.3191
    7.410    5.6697
    7.440    5.9154
    7.470    5.9681
    7.500    6.0558
    7.530    5.7399
    7.560    5.7048
    7.590    6.1611
    7.620    6.0383
    7.650    5.3010
    7.680    5.6521
    7.710    5.7925
    7.740    5.3361
    7.770    5.8627
    7.800    5.8978
    7.830    5.5468
    7.860    5.6872
    7.890    5.5819
    7.920    6.0383
    7.950    5.7048
    7.980    5.3537
    8.010    5.5994
    8.040    5.5819
    8.070    5.3888
    8.100    5.6521
    8.130    5.8978
    8.160    6.1787
    8.190    5.7223
    8.220    5.3712
    8.250    5.3186
    8.280    5.1957
    8.310    5.3712
    8.340    5.1255
    8.370    4.8271
    8.400    5.3361
    8.430    4.8447
    8.460    4.8798
    8.490    5.0553
    8.520    5.2835
    8.550    5.7223
    8.580    4.6340
    8.610    5.2835
    8.640    5.2308
    8.670    5.2484
    8.700    5.1255
    8.730    5.1431
    8.760    5.2484
    8.790    5.1431
    8.820    4.8447
    8.850    5.0728
    8.880    5.4590
    8.910    4.8622
    8.940    5.0904
    8.970    4.7920
    9.000    4.7920
    9.030    5.4239
    9.060    4.8622
    9.090    4.6516
    9.120    4.6340
    9.150    5.2308
    9.180    4.3707
    9.210    5.0377
    9.240    4.9149
    9.270    4.8798
    9.300    4.6165
    9.330    5.1080
    9.360    4.6165
    9.390    4.5814
    9.420    4.5111
    9.450    5.1255
    9.480    5.1255
    9.510    5.0202
    9.540    4.8447
    9.570    5.1255
    9.600    5.3361
    9.630    5.0202
    9.660    4.9675
    9.690    4.7569
    9.720    4.8798
    9.750    4.9324
    9.780    4.7393
    9.810    5.0202
    9.840    4.8622
    9.870    4.8973
    9.900    4.8973
    9.930    4.9675
    9.960    5.0728
    9.990    4.8622
   10.020    5.1782
   10.050    4.7569
   10.080    5.0553
   10.110    4.6867
   10.140    5.3010
   10.170    5.0728
   10.200    5.1080
   10.230    5.0202
   10.260    5.1080
   10.290    5.2308
   10.320    5.2308
   10.350    5.4941
   10.380    5.2133
   10.410    5.2133
   10.440    4.9500
   10.470    5.4941
   10.500    5.1606
   10.530    5.5292
   10.560    5.4239
   10.590    5.3010
   10.620    5.9505
   10.650    5.8276
   10.680    7.0915
   10.710    6.7053
   10.740    5.2133
   10.770    5.3186
   10.800    5.3186
   10.830    5.1431
   10.860    5.5994
   10.890    4.7920
   10.920    5.0553
   10.950    5.5994
   10.980    5.6697
   11.010    5.4064
   11.040    5.2133
   11.070    4.9324
   11.100    5.6697
   11.130    5.3010
   11.160    5.2133
   11.190    4.9851
   11.220    5.4590
   11.250    4.8447
   11.280    5.4941
   11.310    5.1782
   11.340    4.8798
   11.370    5.2484
   11.400    5.2484
   11.430    5.6697
   11.460    4.8622
   11.490    5.2659
   11.520    4.8271
   11.550    5.4590
   11.580    5.0026
   11.610    5.3361
   11.640    4.9324
   11.670    5.5292
   11.700    5.4766
   11.730    4.6691
   11.760    5.0553
   11.790    4.9851
   11.820    5.0202
   11.850    5.0553
   11.880    4.7569
   11.910    4.7393
   11.940    5.1782
   11.970    5.0904
   12.000    4.7218
   12.030    5.0026
   12.060    5.0026
   12.090    4.7218
   12.120    4.8095
   12.150    5.1957
   12.180    5.3537
   12.210    4.9324
   12.240    4.8973
   12.270    4.7042
   12.300    5.0202
   12.330    5.0904
   12.360    4.6867
   12.390    4.7920
   12.420    4.4585
   12.450    4.5638
   12.480    4.7042
   12.510    4.5111
   12.540    4.5638
   12.570    4.9675
   12.600    4.6340
   12.630    4.6516
   12.660    4.5463
   12.690    4.8271
   12.720    4.7744
   12.750    4.6165
   12.780    4.6867
   12.810    4.7218
   12.840    4.5111
   12.870    4.7393
   12.900    4.6516
   12.930    4.4936
   12.960    4.9324
   12.990    4.5111
   13.020    4.3181
   13.050    4.6516
   13.080    4.7744
   13.110    4.6516
   13.140    4.6867
   13.170    4.3356
   13.200    4.7920
   13.230    4.4936
   13.260    4.8095
   13.290    5.1957
   13.320    4.7218
   13.350    4.8622
   13.380    4.3532
   13.410    4.9675
   13.440    4.0899
   13.470    4.8622
   13.500    4.6340
   13.530    4.8271
   13.560    4.7218
   13.590    4.7042
   13.620    4.7042
   13.650    4.4234
   13.680    4.8095
   13.710    4.6516
   13.740    5.3537
   13.770    5.4590
   13.800    5.0377
   13.830    4.4058
   13.860    4.4409
   13.890    4.7744
   13.920    5.0377
   13.950    4.7218
   13.980    4.6165
   14.010    5.2133
   14.040    5.4766
   14.070    5.3537
   14.100    5.6345
   14.130    5.4941
   14.160    5.0202
   14.190    4.8973
   14.220    5.2308
   14.250    5.0026
   14.280    5.1255
   14.310    5.1431
   14.340    5.0728
   14.370    5.1080
   14.400    5.5643
   14.430    5.3537
   14.460    5.1957
   14.490    5.5117
   14.520    5.3712
   14.550    5.0026
   14.580    5.0728
   14.610    5.4415
   14.640    5.2308
   14.670    5.0904
   14.700    4.8095
   14.730    5.5117
   14.760    4.9851
   14.790    5.2659
   14.820    4.8271
   14.850    4.9675
   14.880    5.4064
   14.910    4.9851
   14.940    5.0026
   14.970    5.1080
   15.000    4.5989
   15.030    4.6165
   15.060    5.1431
   15.090    4.6340
   15.120    4.6165
   15.150    4.9675
   15.180    4.8973
   15.210    4.9324
   15.240    4.9500
   15.270    4.6340
   15.300    4.8798
   15.330    4.7744
   15.360    4.2127
   15.390    4.4234
   15.420    4.9324
   15.450    4.7393
   15.480    4.2478
   15.510    5.1957
   15.540    4.8447
   15.570    5.0377
   15.600    4.6165
   15.630    4.6516
   15.660    4.4936
   15.690    4.4760
   15.720    4.6340
   15.750    4.3532
   15.780    4.4058
   15.810    4.9675
   15.840    4.5111
   15.870    4.3181
   15.900    4.4585
   15.930    4.9324
   15.960    4.6867
   15.990    4.6691
   16.020    4.7042
   16.050    4.5287
   16.080    4.4760
   16.110    4.4234
   16.140    4.6340
   16.170    4.5111
   16.200    4.5989
   16.230    4.3883
   16.260    4.6165
   16.290    4.4760
   16.320    4.5287
   16.350    5.0904
   16.380    4.8798
   16.410    5.3361
   16.440    5.2133
   16.470    5.1080
   16.500    5.3361
   16.530    4.8095
   16.560    4.5287
   16.590    4.0723
   16.620    4.4936
   16.650    4.5638
   16.680    4.4760
   16.710    4.4936
   16.740    4.8271
   16.770    4.6165
   16.800    4.4936
   16.830    4.7744
   16.860    4.7744
   16.890    5.0026
   16.920    4.6691
   16.950    4.4936
   16.980    4.8447
   17.010    4.7744
   17.040    4.2654
   17.070    4.5111
   17.100    4.5989
   17.130    4.6340
   17.160    4.5287
   17.190    4.8271
   17.220    4.5111
   17.250    4.5463
   17.280    4.4585
   17.310    4.8798
   17.340    4.4234
   17.370    4.8271
   17.400    4.7218
   17.430    4.3356
   17.460    4.7042
   17.490    4.6516
   17.520    5.0904
   17.550    4.8271
   17.580    4.5814
   17.610    4.3707
   17.640    4.6691
   17.670    4.3883
   17.700    4.5638
   17.730    4.6340
   17.760    4.8622
   17.790    5.3361
   17.820    5.0026
   17.850    5.3361
   17.880    5.7574
   17.910    5.0904
   17.940    4.8622
   17.970    4.7744
   18.000    4.3181
   18.030    4.3883
   18.060    4.6165
   18.090    4.6340
   18.120    4.3883
   18.150    3.9319
   18.180    4.6867
   18.210    4.7393
   18.240    4.3883
   18.270    4.8447
   18.300    4.7569
   18.330    4.5287
   18.360    4.4234
   18.390    4.5989
   18.420    4.5638
   18.450    4.7920
   18.480    5.5292
   18.510    6.4595
   18.540    6.6526
   18.570    5.2659
   18.600    4.8447
   18.630    4.7042
   18.660    4.2478
   18.690    4.3532
   18.720    4.3181
   18.750    4.4409
   18.780    4.5814
   18.810    4.2654
   18.840    4.3707
   18.870    4.2654
   18.900    5.0202
   18.930    4.7569
   18.960    4.3883
   18.990    5.1080
   19.020    4.5111
   19.050    4.7218
   19.080    4.2127
   19.110    4.4234
   19.140    4.4234
   19.170    4.2478
   19.200    4.3532
   19.230    4.6340
   19.260    4.2127
   19.290    4.4058
   19.320    4.5989
   19.350    4.3883
   19.380    4.7569
   19.410    4.6165
   19.440    4.3532
   19.470    4.6516
   19.500    4.2830
   19.530    4.2830
   19.560    4.5989
   19.590    4.3356
   19.620    4.3181
   19.650    4.3883
   19.680    3.9494
   19.710    4.3883
   19.740    4.2303
   19.770    4.3532
   19.800    3.9494
   19.830    4.3883
   19.860    4.4936
   19.890    4.3883
   19.920    3.7915
   19.950    3.9670
   19.980    4.0021
   20.010    3.9143
   20.040    4.5989
   20.070    4.1425
   20.100    4.3005
   20.130    4.0723
   20.160    4.2478
   20.190    3.9319
   20.220    4.4760
   20.250    3.9143
   20.280    4.0372
   20.310    3.9846
   20.340    3.4404
   20.370    3.9494
   20.400    4.4058
   20.430    4.2127
   20.460    4.2654
   20.490    4.0372
   20.520    4.0197
   20.550    4.2127
   20.580    4.1952
   20.610    4.3707
   20.640    4.1952
   20.670    4.0723
   20.700    4.2478
   20.730    3.9670
   20.760    3.8968
   20.790    4.3532
   20.820    4.0548
   20.850    3.8792
   20.880    4.0197
   20.910    3.9846
   20.940    4.0548
   20.970    4.2303
   21.000    3.6510
   21.030    3.9494
   21.060    3.8441
   21.090    3.8266
   21.120    3.7388
   21.150    3.9846
   21.180    4.0021
   21.210    3.5984
   21.240    4.0548
   21.270    4.1425
   21.300    4.0899
   21.330    4.3707
   21.360    3.9670
   21.390    4.0548
   21.420    3.7213
   21.450    3.5984
   21.480    3.9846
   21.510    4.0899
   21.540    4.1952
   21.570    4.2654
   21.600    4.0899
   21.630    3.8441
   21.660    4.2654
   21.690    4.0021
   21.720    4.3707
   21.750    4.0723
   21.780    3.8792
   21.810    4.2830
   21.840    3.8090
   21.870    3.8266
   21.900    3.8441
   21.930    4.1952
   21.960    3.7213
   21.990    4.0899
   22.020    3.8090
   22.050    4.0548
   22.080    4.0372
   22.110    3.9319
   22.140    4.0197
   22.170    4.1250
   22.200    3.8090
   22.230    4.0723
   22.260    3.5457
   22.290    4.0197
   22.320    3.8266
   22.350    3.7213
   22.380    3.8266
   22.410    4.2303
   22.440    3.3351
   22.470    4.0197
   22.500    3.7037
   22.530    4.0899
   22.560    3.6335
   22.590    3.8441
   22.620    3.7213
   22.650    3.7213
   22.680    3.6159
   22.710    3.6862
   22.740    3.5633
   22.770    3.7739
   22.800    3.7915
   22.830    3.7915
   22.860    3.5106
   22.890    3.8266
   22.920    3.8968
   22.950    3.6159
   22.980    3.5282
   23.010    3.4931
   23.040    3.7564
   23.070    3.7564
   23.100    3.9846
   23.130    3.9670
   23.160    3.5633
   23.190    3.4229
   23.220    3.5633
   23.250    3.8792
   23.280    3.5106
   23.310    3.6510
   23.340    4.1425
   23.370    3.8266
   23.400    3.6510
   23.430    3.6159
   23.460    3.3877
   23.490    3.5282
   23.520    3.5808
   23.550    3.7915
   23.580    3.8792
   23.610    3.0191
   23.640    3.8441
   23.670    3.6159
   23.700    3.9319
   23.730    3.8617
   23.760    5.1957
   23.790    6.1436
   23.820    5.7574
   23.850    4.9149
   23.880    3.7915
   23.910    3.7213
   23.940    3.4580
   23.970    3.3877
   24.000    3.3526
   24.030    3.4755
   24.060    3.3526
   24.090    3.7915
   24.120    3.2824
   24.150    3.4053
   24.180    3.5984
   24.210    3.6862
   24.240    3.5633
   24.270    3.5633
   24.300    3.3877
   24.330    3.3526
   24.360    3.6335
   24.390    3.6510
   24.420    3.3351
   24.450    3.4931
   24.480    3.4053
   24.510    3.4931
   24.540    3.2298
   24.570    3.3351
   24.600    3.3000
   24.630    3.2298
   24.660    3.4755
   24.690    3.2824
   24.720    3.4404
   24.750    3.6686
   24.780    3.1420
   24.810    3.1771
   24.840    3.4755
   24.870    3.5282
   24.900    3.4053
   24.930    3.4404
   24.960    3.3702
   24.990    3.5106
   25.020    3.4755
   25.050    3.6159
   25.080    3.8090
   25.110    3.9494
   25.140    4.0197
   25.170    5.4766
   25.200    7.5303
   25.230    6.9159
   25.260    5.6872
   25.290    4.3532
   25.320    3.6862
   25.350    3.5633
   25.380    3.0718
   25.410    3.3702
   25.440    3.3877
   25.470    3.3175
   25.500    3.3702
   25.530    3.3351
   25.560    3.7564
   25.590    3.2649
   25.620    3.1947
   25.650    3.8090
   25.680    3.5633
   25.710    3.5457
   25.740    3.4931
   25.770    3.8792
   25.800    3.4053
   25.830    3.4053
   25.860    3.3877
   25.890    3.2122
   25.920    3.3702
   25.950    3.0542
   25.980    3.2473
   26.010    3.5457
   26.040    3.3877
   26.070    2.8260
   26.100    2.7383
   26.130    2.8612
   26.160    3.2298
   26.190    2.9665
   26.220    3.0718
   26.250    2.9314
   26.280    3.3000
   26.310    3.2122
   26.340    3.3000
   26.370    3.2298
   26.400    3.7739
   26.430    3.1420
   26.460    3.6862
   26.490    3.8090
   26.520    3.5808
   26.550    3.2824
   26.580    3.5282
   26.610    3.5106
   26.640    3.3175
   26.670    3.8792
   26.700    3.3702
   26.730    4.0723
   26.760    5.5292
   26.790    6.6702
   26.820    7.0915
   26.850    7.4074
   26.880    6.2313
   26.910    5.4941
   26.940    3.7213
   26.970    3.6510
   27.000    3.4229
   27.030    3.6159
   27.060    3.1245
   27.090    3.0191
   27.120    3.1596
   27.150    3.4755
   27.180    4.7569
   27.210    6.3718
   27.240    7.1792
   27.270    5.1782
   27.300    3.7564
   27.330    3.5633
   27.360    2.9665
   27.390    3.3526
   27.420    3.1069
   27.450    2.9138
   27.480    3.0016
   27.510    3.0367
   27.540    2.8963
   27.570    2.9314
   27.600    3.0367
   27.630    2.8963
   27.660    3.1596
   27.690    3.2473
   27.720    3.3702
   27.750    4.2830
   27.780    4.5989
   27.810    3.5984
   27.840    3.2824
   27.870    2.7734
   27.900    3.2298
   27.930    3.0893
   27.960    3.2649
   27.990    2.8787
   28.020    3.1771
   28.050    3.0016
   28.080    2.7909
   28.110    2.8787
   28.140    3.0718
   28.170    2.9665
   28.200    2.8963
   28.230    2.7909
   28.260    3.2473
   28.290    2.6505
   28.320    3.0016
   28.350    2.8963
   28.380    2.8436
   28.410    2.4223
   28.440    2.6856
   28.470    2.6681
   28.500    2.8260
   28.530    2.8612
   28.560    2.7032
   28.590    2.8963
   28.620    3.1069
   28.650    3.1596
   28.680    2.9840
   28.710    3.2649
   28.740    2.9314
   28.770    2.8612
   28.800    2.7032
   28.830    3.0718
   28.860    2.8612
   28.890    3.0718
   28.920    3.3351
   28.950    3.1771
   28.980    3.8792
   29.010    3.0191
   29.040    3.0367
   29.070    2.8963
   29.100    2.8963
   29.130    2.7734
   29.160    3.0542
   29.190    3.0016
   29.220    2.7734
   29.250    2.7032
   29.280    2.7032
   29.310    2.6330
   29.340    2.3697
   29.370    2.5452
   29.400    2.6505
   29.430    2.9138
   29.460    2.3872
   29.490    2.6681
   29.520    2.3697
   29.550    2.6154
   29.580    2.7207
   29.610    2.5979
   29.640    2.4750
   29.670    2.7383
   29.700    2.7207
   29.730    2.5803
   29.760    2.7032
   29.790    2.6505
   29.820    2.5101
   29.850    2.5979
   29.880    2.3697
   29.910    2.7032
   29.940    2.5101
   29.970    2.6505
   30.000    2.3346
   30.030    2.4048
   30.060    2.7032
   30.090    2.4925
   30.120    2.4750
   30.150    2.6330
   30.180    2.4574
   30.210    2.4048
   30.240    2.7032
   30.270    2.3697
   30.300    2.3697
   30.330    2.5979
   30.360    2.5276
   30.390    2.3697
   30.420    2.2292
   30.450    2.3521
   30.480    2.4223
   30.510    2.7383
   30.540    2.7734
   30.570    2.5276
   30.600    2.9314
   30.630    2.4223
   30.660    2.5101
   30.690    2.2819
   30.720    2.6154
   30.750    2.0362
   30.780    2.2468
   30.810    2.3521
   30.840    1.9835
   30.870    2.2643
   30.900    2.2995
   30.930    2.0888
   30.960    2.3697
   30.990    2.2117
   31.020    2.3521
   31.050    2.4574
   31.080    2.1941
   31.110    2.4925
   31.140    1.8606
   31.170    2.1766
   31.200    2.1590
   31.230    2.4750
   31.260    2.1590
   31.290    2.3872
   31.320    2.1941
   31.350    2.4750
   31.380    2.2819
   31.410    2.4750
   31.440    2.4399
   31.470    2.4925
   31.500    2.1941
   31.530    2.1941
   31.560    1.9308
   31.590    2.4223
   31.620    2.2117
   31.650    2.4399
   31.680    2.1766
   31.710    2.2292
   31.740    2.4223
   31.770    2.2292
   31.800    2.3346
   31.830    1.9308
   31.860    2.1239
   31.890    2.1590
   31.920    2.1239
   31.950    2.0713
   31.980    2.2117
   32.010    2.3697
   32.040    2.5803
   32.070    2.7558
   32.100    2.5628
   32.130    2.5803
   32.160    2.3346
   32.190    2.1941
   32.220    2.2292
   32.250    2.5628
   32.280    2.0888
   32.310    1.9659
   32.340    2.2292
   32.370    2.0888
   32.400    2.2468
   32.430    1.9308
   32.460    2.4048
   32.490    2.0362
   32.520    2.4574
   32.550    2.1064
   32.580    2.4925
   32.610    2.6154
   32.640    1.8957
   32.670    2.2117
   32.700    2.1239
   32.730    2.0713
   32.760    2.0713
   32.790    2.0888
   32.820    1.9835
   32.850    1.9308
   32.880    2.1239
   32.910    2.2819
   32.940    1.9659
   32.970    2.3170
   33.000    1.7027
   33.030    1.9835
   33.060    2.2117
   33.090    1.8255
   33.120    1.9835
   33.150    1.9133
   33.180    2.1064
   33.210    2.1415
   33.240    1.8782
   33.270    2.2292
   33.300    2.1415
   33.330    2.0186
   33.360    2.1239
   33.390    1.9484
   33.420    2.1590
   33.450    1.9484
   33.480    1.9659
   33.510    1.8782
   33.540    1.9484
   33.570    2.0011
   33.600    1.9308
   33.630    2.0186
   33.660    2.2468
   33.690    1.7378
   33.720    2.2643
   33.750    1.9308
   33.780    2.0011
   33.810    2.3872
   33.840    2.0537
   33.870    1.8957
   33.900    2.1590
   33.930    2.1766
   33.960    1.8431
   33.990    2.0537
   34.020    2.2995
   34.050    1.8957
   34.080    1.9659
   34.110    1.9133
   34.140    2.0713
   34.170    1.5447
   34.200    1.8782
   34.230    1.7378
   34.260    2.0362
   34.290    1.8431
   34.320    2.1590
   34.350    1.9484
   34.380    1.8957
   34.410    2.0011
   34.440    1.7027
   34.470    1.8255
   34.500    1.9659
   34.530    2.0713
   34.560    1.9659
   34.590    2.0011
   34.620    1.9308
   34.650    2.0362
   34.680    2.1766
   34.710    1.8782
   34.740    1.5973
   34.770    1.8431
   34.800    1.9484
   34.830    1.5798
   34.860    1.9308
   34.890    1.9484
   34.920    1.8957
   34.950    1.9133
   34.980    1.8606
   35.010    1.8782
   35.040    2.0362
   35.070    2.0888
   35.100    1.9484
   35.130    2.0186
   35.160    1.7553
   35.190    1.9484
   35.220    2.1590
   35.250    1.8080
   35.280    1.6500
   35.310    1.8606
   35.340    1.9659
   35.370    1.6675
   35.400    1.8431
   35.430    1.7202
   35.460    2.0362
   35.490    1.6675
   35.520    1.9835
   35.550    1.9659
   35.580    1.9835
   35.610    1.9308
   35.640    1.6675
   35.670    1.8957
   35.700    1.8782
   35.730    1.8255
   35.760    2.0888
   35.790    1.9659
   35.820    2.1766
   35.850    2.0713
   35.880    2.0537
   35.910    1.8957
   35.940    1.7904
   35.970    1.9308
   36.000    1.7553
   36.030    2.1941
   36.060    1.7378
   36.090    1.8255
   36.120    1.7027
   36.150    1.7729
   36.180    1.9659
   36.210    2.1239
   36.240    2.2468
   36.270    1.7202
   36.300    2.0186
   36.330    2.1064
   36.360    1.8606
   36.390    2.0362
   36.420    2.1239
   36.450    1.8957
   36.480    1.7729
   36.510    1.8431
   36.540    1.8782
   36.570    1.8255
   36.600    1.8080
   36.630    1.7553
   36.660    1.7027
   36.690    1.7553
   36.720    2.2995
   36.750    1.7378
   36.780    1.9308
   36.810    1.6675
   36.840    1.7729
   36.870    1.7027
   36.900    1.8255
   36.930    1.7202
   36.960    1.7202
   36.990    1.8080
   37.020    1.7904
   37.050    1.7202
   37.080    1.7553
   37.110    1.8606
   37.140    1.6675
   37.170    1.8080
   37.200    1.8255
   37.230    1.8782
   37.260    1.6675
   37.290    1.6675
   37.320    1.8431
   37.350    1.6851
   37.380    1.7553
   37.410    1.8431
   37.440    1.7729
   37.470    1.7202
   37.500    1.6324
   37.530    1.6851
   37.560    1.7202
   37.590    1.7553
   37.620    1.8782
   37.650    1.9835
   37.680    1.8431
   37.710    1.8606
   37.740    1.9308
   37.770    1.7553
   37.800    1.7904
   37.830    1.6149
   37.860    1.5271
   37.890    1.9659
   37.920    1.9659
   37.950    1.7904
   37.980    1.6500
   38.010    1.6324
   38.040    1.8431
   38.070    2.0186
   38.100    1.8957
   38.130    1.8957
   38.160    1.7378
   38.190    2.1064
   38.220    1.6675
   38.250    1.7729
   38.280    1.6324
   38.310    2.0011
   38.340    1.8782
   38.370    1.5798
   38.400    2.0186
   38.430    1.7027
   38.460    1.6500
   38.490    2.0362
   38.520    1.7378
   38.550    1.6149
   38.580    1.7027
   38.610    1.9133
   38.640    1.8431
   38.670    1.9484
   38.700    1.7553
   38.730    1.8431
   38.760    1.8431
   38.790    1.9308
   38.820    1.9484
   38.850    1.7553
   38.880    1.4218
   38.910    2.0011
   38.940    2.1415
   38.970    1.8431
   39.000    1.7553
   39.030    1.6851
   39.060    1.5447
   39.090    1.6149
   39.120    1.6149
   39.150    1.7553
   39.180    1.6851
   39.210    1.8782
   39.240    1.7729
   39.270    1.6324
   39.300    1.7904
   39.330    1.4042
   39.360    1.8957
   39.390    1.7553
   39.420    1.7202
   39.450    1.8431
   39.480    1.6851
   39.510    1.6851
   39.540    1.7904
   39.570    1.7202
   39.600    1.6500
   39.630    1.5096
   39.660    1.6500
   39.690    1.6500
   39.720    1.5096
   39.750    1.6324
   39.780    1.7027
   39.810    1.5973
   39.840    1.6324
   39.870    1.8957
   39.900    1.5096
   39.930    1.7904
   39.960    1.9484
   39.990    1.7378