File: data/MOCOF-1/PXRD/PXRD_KE-119-2dry_Cu-Ka1_capillary-1mm_5s-deg.xyd
    1.500   23.9916
    1.530   23.8336
    1.560   22.5487
    1.590   23.2333
    1.620   21.7694
    1.650   21.7378
    1.680   21.0216
    1.710   20.4423
    1.740   19.9473
    1.770   19.7156
    1.800   19.0521
    1.830   18.3886
    1.860   18.4729
    1.890   18.7678
    1.920   17.5040
    1.950   17.9674
    1.980   17.3460
    2.010   16.5034
    2.040   15.6714
    2.070   15.9874
    2.100   15.3765
    2.130   15.5029
    2.160   15.2607
    2.190   14.7551
    2.220   14.6709
    2.250   15.0079
    2.280   14.6603
    2.310   14.3233
    2.340   14.1338
    2.370   13.7125
    2.400   13.7546
    2.430   14.5972
    2.460   14.0074
    2.490   13.6914
    2.520   13.5966
    2.550   13.7019
    2.580   13.0700
    2.610   13.3860
    2.640   12.8489
    2.670   12.9226
    2.700   12.9121
    2.730   13.0490
    2.760   13.4492
    2.790   13.0806
    2.820   13.3017
    2.850   13.3228
    2.880   13.1754
    2.910   13.1648
    2.940   13.1332
    2.970   13.3439
    3.000   13.7967
    3.030   13.9231
    3.060   14.3233
    3.090   14.6077
    3.120   14.5445
    3.150   14.6182
    3.180   15.1343
    3.210   15.6714
    3.240   16.8615
    3.270   16.2823
    3.300   16.8510
    3.330   17.4934
    3.360   17.9147
    3.390   17.8831
    3.420   18.8731
    3.450   20.4423
    3.480   21.4745
    3.510   22.3381
    3.540   23.7599
    3.570   24.8657
    3.600   26.0242
    3.630   28.4887
    3.660   29.9315
    3.690   31.3744
    3.720   35.3344
    3.750   38.8836
    3.780   44.6551
    3.810   50.8162
    3.840   60.2633
    3.870   65.9189
    3.900   58.5782
    3.930   39.4102
    3.960   23.0437
    3.990   16.6614
    4.020   14.8920
    4.050   12.8594
    4.080   11.7009
    4.110   11.1322
    4.140   10.7004
    4.170   10.2370
    4.200    9.8894
    4.230   10.1106
    4.260    9.9526
    4.290    9.8999
    4.320    9.7420
    4.350    9.7420
    4.380    9.3628
    4.410    9.4365
    4.440    9.4155
    4.470    9.5629
    4.500    9.4576
    4.530    9.0785
    4.560    9.0995
    4.590    9.1206
    4.620    8.9942
    4.650    9.9105
    4.680    9.0047
    4.710    8.9100
    4.740    9.2048
    4.770    9.9526
    4.800    9.4681
    4.830    9.1206
    4.860    9.8578
    4.890    9.5524
    4.920   10.1527
    4.950    9.6051
    4.980   10.1843
    5.010   10.8268
    5.040   10.9637
    5.070   11.6904
    5.100   10.9742
    5.130   11.4587
    5.160   11.6904
    5.190   12.6488
    5.220   13.0806
    5.250   13.7230
    5.280   14.3339
    5.310   15.3555
    5.340   15.6819
    5.370   17.6725
    5.400   19.3260
    5.430   21.5061
    5.460   24.3181
    5.490   27.2143
    5.520   24.3286
    5.550   18.8099
    5.580   12.6909
    5.610   10.3423
    5.640    9.4260
    5.670    8.8678
    5.700    8.5203
    5.730    8.9521
    5.760    8.9626
    5.790    8.8152
    5.820    8.5097
    5.850    8.3939
    5.880    8.5203
    5.910    8.3202
    5.940    8.3307
    5.970    7.6145
    6.000    8.0358
    6.030    8.3623
    6.060    8.2886
    6.090    8.2780
    6.120    8.2675
    6.150    8.1517
    6.180    8.7098
    6.210    8.6151
    6.240    8.5097
    6.270    8.6993
    6.300    8.5203
    6.330    8.7098
    6.360    8.9626
    6.390    9.0047
    6.420    9.2891
    6.450    8.9626
    6.480    9.5945
    6.510    9.4365
    6.540    9.5524
    6.570   10.2054
    6.600   10.5213
    6.630   10.8162
    6.660   11.5219
    6.690   12.5118
    6.720   13.3965
    6.750   13.5334
    6.780   12.8173
    6.810   10.2580
    6.840    9.3523
    6.870    8.5729
    6.900    8.4150
    6.930    8.6572
    6.960    8.6361
    6.990    8.4781
    7.020    8.3728
    7.050    8.5308
    7.080    8.6361
    7.110    8.2886
    7.140    7.9726
    7.170    8.5940
    7.200    8.5097
    7.230    8.4992
    7.260    8.2254
    7.290    8.6151
    7.320    8.5413
    7.350    9.0258
    7.380    8.4887
    7.410    8.8889
    7.440    8.8468
    7.470    9.3207
    7.500    8.9310
    7.530    9.0363
    7.560    9.4365
    7.590    9.4471
    7.620    9.6261
    7.650    9.8789
    7.680    9.9737
    7.710   10.4687
    7.740   11.0163
    7.770   12.0169
    7.800   11.9642
    7.830   11.2480
    7.860   10.3949
    7.890    9.1206
    7.920    8.8678
    7.950    8.5203
    7.980    8.8257
    8.010    8.6256
    8.040    8.6151
    8.070    8.5624
    8.100    8.2043
    8.130    8.6467
    8.160    9.2575
    8.190    8.4676
    8.220    8.8994
    8.250    8.7520
    8.280    8.8994
    8.310    8.9626
    8.340    8.2675
    8.370    8.6467
    8.400    8.5519
    8.430    8.4255
    8.460    8.6361
    8.490    8.8994
    8.520    8.8889
    8.550    8.7730
    8.580    8.6993
    8.610    8.5413
    8.640    9.0363
    8.670    9.2786
    8.700    8.8889
    8.730    9.1838
    8.760    9.0785
    8.790    8.9731
    8.820    9.0785
    8.850    8.7204
    8.880    8.7098
    8.910    8.5940
    8.940    8.5729
    8.970    9.2470
    9.000    8.9100
    9.030    8.8784
    9.060    8.8678
    9.090    8.7730
    9.120    9.3102
    9.150    9.4997
    9.180    9.4471
    9.210    9.4155
    9.240    9.4892
    9.270    9.4471
    9.300    9.7420
    9.330    9.5629
    9.360   10.2370
    9.390   10.8268
    9.420   11.9221
    9.450   12.5224
    9.480   12.6698
    9.510   14.1338
    9.540   15.7978
    9.570   14.9447
    9.600   13.1964
    9.630   11.5008
    9.660    9.9737
    9.690    9.3312
    9.720    9.4681
    9.750    9.0258
    9.780    8.7625
    9.810    8.8468
    9.840    8.7730
    9.870    9.2364
    9.900    9.1943
    9.930    8.7836
    9.960    8.9205
    9.990    8.7836
   10.020    9.0574
   10.050    9.2470
   10.080    9.2154
   10.110    9.5629
   10.140    8.7625
   10.170    9.7841
   10.200    9.7630
   10.230   10.0790
   10.260   10.2580
   10.290   11.2059
   10.320   10.9321
   10.350   10.6056
   10.380    9.8262
   10.410    9.2154
   10.440    8.7309
   10.470    8.8994
   10.500    8.8678
   10.530    8.8362
   10.560    8.5624
   10.590    8.6572
   10.620    8.5940
   10.650    8.6572
   10.680    8.5308
   10.710    8.5519
   10.740    8.7625
   10.770    9.0785
   10.800    8.5203
   10.830    8.9205
   10.860    8.9837
   10.890    9.4471
   10.920    9.3839
   10.950    9.5840
   10.980   10.1211
   11.010   10.4476
   11.040   11.0479
   11.070   10.4371
   11.100    9.8473
   11.130    8.9837
   11.160    9.0258
   11.190    8.8362
   11.220    8.9100
   11.250    8.5308
   11.280    8.8468
   11.310    8.4044
   11.340    8.7941
   11.370    8.2675
   11.400    8.5308
   11.430    8.4781
   11.460    8.7520
   11.490    9.1311
   11.520    8.5940
   11.550    9.0258
   11.580    9.4260
   11.610    9.4050
   11.640   10.4687
   11.670   10.6898
   11.700   10.2370
   11.730   10.6793
   11.760   10.4792
   11.790    9.0469
   11.820    8.7414
   11.850    8.6888
   11.880    8.0990
   11.910    8.0358
   11.940    8.2570
   11.970    8.3307
   12.000    8.3834
   12.030    8.4781
   12.060    8.1517
   12.090    8.1411
   12.120    8.4150
   12.150    7.9516
   12.180    8.1727
   12.210    8.1306
   12.240    8.3202
   12.270    8.3202
   12.300    7.9937
   12.330    8.2464
   12.360    8.3939
   12.390    7.9305
   12.420    8.2464
   12.450    7.9937
   12.480    7.8252
   12.510    8.1938
   12.540    7.7093
   12.570    7.6356
   12.600    7.5408
   12.630    7.8041
   12.660    7.7409
   12.690    7.8252
   12.720    7.9621
   12.750    7.7936
   12.780    8.1622
   12.810    8.2254
   12.840    8.1517
   12.870    8.5413
   12.900    9.1943
   12.930    8.7625
   12.960    9.4365
   12.990    9.1206
   13.020    8.5624
   13.050    8.3202
   13.080    7.9831
   13.110    7.8989
   13.140    7.8357
   13.170    7.7093
   13.200    7.5092
   13.230    8.1833
   13.260    8.0885
   13.290    8.0674
   13.320    7.7093
   13.350    7.9094
   13.380    7.4250
   13.410    8.1517
   13.440    8.3623
   13.470    8.2991
   13.500    8.1622
   13.530    8.0253
   13.560    8.2149
   13.590    8.0990
   13.620    7.9831
   13.650    8.0463
   13.680    7.5935
   13.710    7.8989
   13.740    7.4776
   13.770    7.4566
   13.800    7.4882
   13.830    7.7725
   13.860    7.8884
   13.890    7.9305
   13.920    8.1938
   13.950    8.0990
   13.980    7.9937
   14.010    8.1306
   14.040    8.3623
   14.070    9.0679
   14.100    8.9205
   14.130    8.7309
   14.160    8.0779
   14.190    8.1938
   14.220    8.0147
   14.250    8.0674
   14.280    8.0253
   14.310    8.0463
   14.340    7.2986
   14.370    7.8989
   14.400    7.6988
   14.430    7.8884
   14.460    7.6145
   14.490    7.7199
   14.520    7.7304
   14.550    7.9831
   14.580    7.3618
   14.610    7.1406
   14.640    7.7304
   14.670    7.2880
   14.700    7.5303
   14.730    7.4776
   14.760    8.0358
   14.790    7.7830
   14.820    7.4250
   14.850    7.6251
   14.880    7.3723
   14.910    8.0990
   14.940    7.9410
   14.970    7.4144
   15.000    7.6461
   15.030    8.0885
   15.060    7.9831
   15.090    7.4355
   15.120    8.4676
   15.150    7.3934
   15.180    7.7830
   15.210    7.5935
   15.240    7.8252
   15.270    7.7620
   15.300    7.6988
   15.330    8.1201
   15.360    7.4355
   15.390    7.5829
   15.420    7.6567
   15.450    7.7304
   15.480    7.8568
   15.510    7.5724
   15.540    7.5829
   15.570    7.4460
   15.600    7.7514
   15.630    7.4566
   15.660    7.9094
   15.690    7.4987
   15.720    7.7725
   15.750    7.5724
   15.780    7.6988
   15.810    8.0569
   15.840    8.0463
   15.870    7.9937
   15.900    7.6777
   15.930    7.8884
   15.960    7.7514
   15.990    7.6777
   16.020    7.5513
   16.050    8.0569
   16.080    8.4992
   16.110    8.0779
   16.140    8.4466
   16.170    8.1622
   16.200    7.8462
   16.230    7.9726
   16.260    7.7409
   16.290    7.8357
   16.320    8.1201
   16.350    8.3307
   16.380    7.3723
   16.410    7.5619
   16.440    7.8041
   16.470    7.8884
   16.500    8.0253
   16.530    7.9621
   16.560    8.0147
   16.590    8.3834
   16.620    8.4044
   16.650    8.2675
   16.680    7.9094
   16.710    8.1201
   16.740    7.8357
   16.770    7.5092
   16.800    7.5197
   16.830    8.3096
   16.860    8.1411
   16.890    7.8568
   16.920    7.7199
   16.950    8.0463
   16.980    8.0779
   17.010    8.6888
   17.040    8.3307
   17.070    8.8468
   17.100    8.6361
   17.130    8.2780
   17.160    7.9937
   17.190    7.8989
   17.220    7.8462
   17.250    8.0253
   17.280    7.9937
   17.310    7.6040
   17.340    7.6461
   17.370    7.6356
   17.400    7.9410
   17.430    8.0990
   17.460    7.9200
   17.490    8.2464
   17.520    8.1517
   17.550    7.8357
   17.580    7.8252
   17.610    7.6356
   17.640    7.7936
   17.670    7.6988
   17.700    8.1306
   17.730    7.8778
   17.760    7.8989
   17.790    7.8778
   17.820    7.9094
   17.850    7.5303
   17.880    7.6567
   17.910    8.0358
   17.940    7.8041
   17.970    7.8462
   18.000    7.9305
   18.030    7.6461
   18.060    8.0569
   18.090    7.5092
   18.120    8.1411
   18.150    7.5303
   18.180    7.9094
   18.210    7.7304
   18.240    7.8673
   18.270    7.5724
   18.300    7.6461
   18.330    7.5513
   18.360    8.0674
   18.390    7.9937
   18.420    7.8252
   18.450    7.9410
   18.480    8.1306
   18.510    8.0990
   18.540    7.5724
   18.570    7.8041
   18.600    8.4044
   18.630    7.8568
   18.660    7.5408
   18.690    7.7409
   18.720    7.6040
   18.750    8.1095
   18.780    7.8989
   18.810    7.9305
   18.840    8.2675
   18.870    8.1411
   18.900    8.3412
   18.930    8.2254
   18.960    9.0679
   18.990    9.1627
   19.020    9.1943
   19.050    8.1517
   19.080    8.0569
   19.110    8.0253
   19.140    7.8357
   19.170    8.0569
   19.200    8.1095
   19.230    7.6251
   19.260    8.0147
   19.290    7.9094
   19.320    7.6988
   19.350    7.6883
   19.380    7.7304
   19.410    7.9516
   19.440    7.6145
   19.470    8.1622
   19.500    8.0358
   19.530    8.0147
   19.560    8.1201
   19.590    8.0147
   19.620    8.1517
   19.650    8.1517
   19.680    8.1201
   19.710    7.9305
   19.740    7.8252
   19.770    7.9937
   19.800    7.7936
   19.830    7.7830
   19.860    7.4355
   19.890    8.2149
   19.920    7.8041
   19.950    8.0147
   19.980    7.6672
   20.010    8.1306
   20.040    7.8462
   20.070    7.8884
   20.100    7.9937
   20.130    7.7304
   20.160    7.8884
   20.190    7.9621
   20.220    8.2359
   20.250    7.9516
   20.280    8.2149
   20.310    8.5308
   20.340    8.7730
   20.370    8.4150
   20.400    8.5729
   20.430    8.1517
   20.460    8.1938
   20.490    8.1517
   20.520    8.4887
   20.550    7.8252
   20.580    8.0253
   20.610    8.1306
   20.640    7.5935
   20.670    7.8884
   20.700    7.9621
   20.730    8.0358
   20.760    7.7936
   20.790    8.0253
   20.820    7.6883
   20.850    7.8778
   20.880    7.7725
   20.910    7.6567
   20.940    8.0463
   20.970    7.9831
   21.000    7.6040
   21.030    7.4776
   21.060    8.3834
   21.090    7.5619
   21.120    8.5308
   21.150    8.3834
   21.180    8.4571
   21.210    8.1938
   21.240    7.8989
   21.270    8.1622
   21.300    7.9305
   21.330    8.5097
   21.360    8.1517
   21.390    8.1095
   21.420    7.8884
   21.450    7.8568
   21.480    7.6883
   21.510    7.7620
   21.540    7.7830
   21.570    7.8462
   21.600    8.3834
   21.630    8.1833
   21.660    8.1517
   21.690    8.1517
   21.720    7.9200
   21.750    8.4571
   21.780    8.4150
   21.810    7.8884
   21.840    8.4781
   21.870    8.1622
   21.900    8.3518
   21.930    7.9621
   21.960    8.1727
   21.990    8.2886
   22.020    8.6256
   22.050    7.9516
   22.080    8.1411
   22.110    8.5097
   22.140    8.4360
   22.170    8.0147
   22.200    7.8357
   22.230    8.1622
   22.260    8.2570
   22.290    8.5097
   22.320    8.1938
   22.350    8.3412
   22.380    8.3412
   22.410    8.1727
   22.440    8.4466
   22.470    8.8152
   22.500    8.9942
   22.530    8.7730
   22.560    9.2891
   22.590    8.4255
   22.620    8.8889
   22.650    8.5308
   22.680    9.0258
   22.710    8.5097
   22.740    8.9100
   22.770    8.3518
   22.800    8.3939
   22.830    8.6361
   22.860    8.7836
   22.890    8.6467
   22.920    8.9205
   22.950    8.8889
   22.980    8.6888
   23.010    8.5097
   23.040    8.5097
   23.070    8.3834
   23.100    8.3412
   23.130    8.6045
   23.160    8.3202
   23.190    8.1727
   23.220    7.9200
   23.250    8.0253
   23.280    8.4360
   23.310    7.9621
   23.340    7.9831
   23.370    8.0569
   23.400    8.0674
   23.430    8.0358
   23.460    7.8673
   23.490    8.0042
   23.520    7.8568
   23.550    8.9205
   23.580    8.5413
   23.610    8.1727
   23.640    7.8146
   23.670    7.8568
   23.700    7.9516
   23.730    7.8989
   23.760    8.0569
   23.790    8.1517
   23.820    7.7093
   23.850    8.2780
   23.880    7.9094
   23.910    8.2991
   23.940    8.2886
   23.970    7.9200
   24.000    8.0569
   24.030    8.0147
   24.060    8.3412
   24.090    7.5303
   24.120    8.1201
   24.150    7.6251
   24.180    7.7093
   24.210    7.6777
   24.240    7.7093
   24.270    7.6777
   24.300    7.7093
   24.330    7.5197
   24.360    8.0147
   24.390    8.1095
   24.420    7.5513
   24.450    7.6777
   24.480    8.0253
   24.510    7.5092
   24.540    7.5619
   24.570    7.7514
   24.600    7.8568
   24.630    8.0042
   24.660    7.6356
   24.690    7.5513
   24.720    7.6883
   24.750    7.9200
   24.780    7.9621
   24.810    7.5513
   24.840    8.2359
   24.870    7.6251
   24.900    7.7725
   24.930    7.6040
   24.960    8.0253
   24.990    7.8989
   25.020    7.9621
   25.050    7.5935
   25.080    8.1095
   25.110    7.8778
   25.140    7.8568
   25.170    7.5619
   25.200    8.0779
   25.230    7.4987
   25.260    7.9621
   25.290    7.5303
   25.320    7.4460
   25.350    8.2043
   25.380    8.1833
   25.410    7.4671
   25.440    7.4882
   25.470    7.8462
   25.500    7.7409
   25.530    7.6040
   25.560    7.7514
   25.590    7.8673
   25.620    7.2354
   25.650    7.8041
   25.680    8.0253
   25.710    7.8989
   25.740    7.7830
   25.770    8.0990
   25.800    8.0463
   25.830    7.8357
   25.860    7.8778
   25.890    8.0147
   25.920    7.9305
   25.950    7.5303
   25.980    8.0463
   26.010    8.1938
   26.040    7.8673
   26.070    7.5513
   26.100    7.9094
   26.130    7.6988
   26.160    7.4144
   26.190    7.7093
   26.220    7.3407
   26.250    7.5092
   26.280    7.6040
   26.310    7.8462
   26.340    7.8884
   26.370    7.6145
   26.400    7.6988
   26.430    7.4144
   26.460    7.5408
   26.490    7.9305
   26.520    7.7199
   26.550    7.8146
   26.580    7.6040
   26.610    7.7514
   26.640    7.1511
   26.670    7.6883
   26.700    7.4566
   26.730    7.9410
   26.760    7.1511
   26.790    7.8462
   26.820    7.2249
   26.850    6.8562
   26.880    7.7199
   26.910    8.0463
   26.940    7.6356
   26.970    7.8252
   27.000    7.8146
   27.030    7.7830
   27.060    7.6461
   27.090    7.5197
   27.120    7.3934
   27.150    7.0037
   27.180    7.1195
   27.210    7.2775
   27.240    7.6672
   27.270    7.9621
   27.300    7.5197
   27.330    7.3196
   27.360    7.2670
   27.390    7.3723
   27.420    7.4671
   27.450    7.1195
   27.480    7.2143
   27.510    7.3302
   27.540    7.3934
   27.570    7.6777
   27.600    7.6461
   27.630    7.4566
   27.660    7.4566
   27.690    7.9516
   27.720    7.2986
   27.750    7.3091
   27.780    7.1406
   27.810    6.9721
   27.840    7.3618
   27.870    7.4566
   27.900    7.4566
   27.930    7.8989
   27.960    7.8357
   27.990    8.0779
   28.020    8.0779
   28.050    7.9937
   28.080    7.4039
   28.110    8.1306
   28.140    7.6988
   28.170    7.7093
   28.200    7.6461
   28.230    7.4776
   28.260    7.5935
   28.290    7.5513
   28.320    7.6251
   28.350    7.8884
   28.380    7.1406
   28.410    7.3723
   28.440    7.6988
   28.470    7.2038
   28.500    7.2670
   28.530    7.1301
   28.560    7.4671
   28.590    7.3196
   28.620    7.4250
   28.650    6.8878
   28.680    7.2459
   28.710    7.4987
   28.740    7.4250
   28.770    6.9826
   28.800    7.0669
   28.830    7.2670
   28.860    7.1406
   28.890    7.4355
   28.920    7.3302
   28.950    7.1827
   28.980    7.5303
   29.010    7.7409
   29.040    7.6567
   29.070    7.0985
   29.100    7.0142
   29.130    7.2459
   29.160    7.3302
   29.190    6.7299
   29.220    7.3723
   29.250    7.7620
   29.280    7.7725
   29.310    7.1406
   29.340    7.3407
   29.370    6.8562
   29.400    6.8668
   29.430    6.9510
   29.460    7.1933
   29.490    7.0037
   29.520    7.4460
   29.550    6.5929
   29.580    6.9089
   29.610    7.0458
   29.640    6.9405
   29.670    7.2038
   29.700    6.7509
   29.730    7.3407
   29.760    6.8984
   29.790    7.2038
   29.820    7.1933
   29.850    6.9616
   29.880    7.2249
   29.910    6.9932
   29.940    7.4460
   29.970    7.1617
   30.000    6.7404
   30.030    7.0353
   30.060    7.1933
   30.090    6.8141
   30.120    6.6667
   30.150    6.7825
   30.180    6.7720
   30.210    7.1827
   30.240    7.2986
   30.270    7.2670
   30.300    7.1933
   30.330    7.1195
   30.360    7.0669
   30.390    6.6667
   30.420    6.9721
   30.450    7.0879
   30.480    6.8984
   30.510    6.7615
   30.540    7.1090
   30.570    7.5408
   30.600    6.9826
   30.630    7.2038
   30.660    6.5719
   30.690    6.8036
   30.720    7.2143
   30.750    7.3512
   30.780    6.9089
   30.810    7.0774
   30.840    6.9405
   30.870    6.7088
   30.900    6.7615
   30.930    6.9616
   30.960    6.7404
   30.990    7.2565
   31.020    6.4350
   31.050    6.8246
   31.080    6.4560
   31.110    6.6351
   31.140    6.5403
   31.170    6.7193
   31.200    6.6140
   31.230    6.8984
   31.260    6.6035
   31.290    6.6245
   31.320    6.6772
   31.350    6.8984
   31.380    6.7404
   31.410    6.9721
   31.440    6.7404
   31.470    6.8878
   31.500    7.2565
   31.530    6.6140
   31.560    6.6561
   31.590    6.4244
   31.620    6.7509
   31.650    6.5929
   31.680    6.8878
   31.710    7.1406
   31.740    7.0353
   31.770    7.1406
   31.800    7.0037
   31.830    6.7615
   31.860    6.9932
   31.890    6.9932
   31.920    6.8457
   31.950    6.9510
   31.980    7.0985
   32.010    7.6461
   32.040    7.5513
   32.070    8.1411
   32.100    8.1095
   32.130    8.0042
   32.160    7.6672
   32.190    7.5935
   32.220    6.9300
   32.250    6.4455
   32.280    6.7509
   32.310    6.6667
   32.340    6.3296
   32.370    6.6772
   32.400    7.1511
   32.430    6.9616
   32.460    6.2243
   32.490    6.7825
   32.520    6.7720
   32.550    6.9826
   32.580    6.3507
   32.610    6.6351
   32.640    6.6035
   32.670    6.5613
   32.700    6.3718
   32.730    6.8668
   32.760    6.5719
   32.790    6.6667
   32.820    6.5929
   32.850    6.3402
   32.880    6.7193
   32.910    6.5192
   32.940    6.8773
   32.970    6.6561
   33.000    6.8984
   33.030    6.3823
   33.060    6.5929
   33.090    6.5613
   33.120    6.2243
   33.150    6.4455
   33.180    6.3402
   33.210    6.5403
   33.240    6.4244
   33.270    6.3718
   33.300    6.6456
   33.330    6.0874
   33.360    6.4455
   33.390    6.7193
   33.420    6.4982
   33.450    6.2243
   33.480    6.2243
   33.510    6.0664
   33.540    6.3296
   33.570    6.3191
   33.600    6.2138
   33.630    6.7720
   33.660    6.7193
   33.690    6.5719
   33.720    6.7404
   33.750    6.9089
   33.780    7.2986
   33.810    7.0037
   33.840    7.0879
   33.870    7.3196
   33.900    7.0037
   33.930    6.8668
   33.960    7.1195
   33.990    6.7930
   34.020    7.0248
   34.050    6.7404
   34.080    6.1401
   34.110    5.9926
   34.140    6.4139
   34.170    6.4771
   34.200    6.6035
   34.230    6.5508
   34.260    6.4455
   34.290    6.5087
   34.320    6.4876
   34.350    6.5824
   34.380    6.5613
   34.410    6.3612
   34.440    6.3296
   34.470    6.5613
   34.500    6.4350
   34.530    6.3823
   34.560    6.5192
   34.590    6.3086
   34.620    6.0453
   34.650    6.5087
   34.680    6.3402
   34.710    6.3823
   34.740    6.0137
   34.770    6.3191
   34.800    6.0453
   34.830    6.2243
   34.860    6.3718
   34.890    6.0664
   34.920    6.4350
   34.950    6.0874
   34.980    6.3296
   35.010    6.4560
   35.040    6.6456
   35.070    6.0769
   35.100    6.3612
   35.130    6.2875
   35.160    6.3086
   35.190    6.0137
   35.220    6.2454
   35.250    6.2138
   35.280    6.5192
   35.310    6.1717
   35.340    6.2454
   35.370    6.1506
   35.400    6.2243
   35.430    6.5087
   35.460    6.3191
   35.490    6.3191
   35.520    5.9716
   35.550    6.2243
   35.580    6.3191
   35.610    6.4666
   35.640    6.0137
   35.670    5.8978
   35.700    6.2770
   35.730    6.0769
   35.760    6.1506
   35.790    6.2665
   35.820    6.1401
   35.850    6.1401
   35.880    5.7715
   35.910    6.1506
   35.940    6.6667
   35.970    6.2665
   36.000    6.0664
   36.030    6.4034
   36.060    5.9189
   36.090    6.0453
   36.120    5.8978
   36.150    6.2559
   36.180    6.4350
   36.210    6.1717
   36.240    6.4350
   36.270    5.7293
   36.300    6.0453
   36.330    5.9189
   36.360    6.0558
   36.390    6.0874
   36.420    6.4560
   36.450    5.8978
   36.480    5.9294
   36.510    6.2559
   36.540    6.1927
   36.570    6.4771
   36.600    6.0979
   36.630    6.2875
   36.660    5.9716
   36.690    5.9189
   36.720    6.5087
   36.750    6.6351
   36.780    5.9084
   36.810    6.2559
   36.840    6.1295
   36.870    5.8136
   36.900    6.2665
   36.930    6.0664
   36.960    5.8768
   36.990    5.7399
   37.020    6.2349
   37.050    6.0348
   37.080    6.4455
   37.110    5.6872
   37.140    5.9926
   37.170    6.2033
   37.200    6.2665
   37.230    6.0453
   37.260    6.2875
   37.290    6.1506
   37.320    6.1717
   37.350    5.8978
   37.380    6.0242
   37.410    6.0558
   37.440    6.0664
   37.470    6.0769
   37.500    6.2770
   37.530    6.3191
   37.560    6.0137
   37.590    6.2138
   37.620    6.0874
   37.650    6.2033
   37.680    6.2665
   37.710    6.5613
   37.740    6.3086
   37.770    6.1295
   37.800    6.0453
   37.830    5.9716
   37.860    6.0453
   37.890    6.0874
   37.920    5.9716
   37.950    6.4350
   37.980    5.6451
   38.010    6.2243
   38.040    6.0664
   38.070    6.0558
   38.100    6.1506
   38.130    6.2138
   38.160    6.1927
   38.190    6.1295
   38.220    5.9084
   38.250    5.8768
   38.280    5.7715
   38.310    6.1506
   38.340    6.1506
   38.370    6.2138
   38.400    6.2138
   38.430    6.3823
   38.460    6.2349
   38.490    6.1190
   38.520    6.1822
   38.550    6.4244
   38.580    6.5403
   38.610    6.4560
   38.640    6.2138
   38.670    6.4666
   38.700    6.4771
   38.730    5.8136
   38.760    6.1611
   38.790    5.8347
   38.820    5.9716
   38.850    5.9400
   38.880    6.1295
   38.910    6.4350
   38.940    6.2243
   38.970    6.2665
   39.000    5.9610
   39.030    6.2770
   39.060    5.7925
   39.090    6.4455
   39.120    6.2349
   39.150    6.0453
   39.180    6.1190
   39.210    5.9294
   39.240    6.1506
   39.270    6.2349
   39.300    6.1717
   39.330    6.5087
   39.360    6.2665
   39.390    6.2981
   39.420    6.1295
   39.450    5.7188
   39.480    5.9400
   39.510    6.1611
   39.540    6.2349
   39.570    6.0664
   39.600    5.8031
   39.630    6.3086
   39.660    5.9926
   39.690    6.1190
   39.720    6.1085
   39.750    6.3718
   39.780    6.2349
   39.810    6.0032
   39.840    5.6661
   39.870    5.7925
   39.900    5.8136
   39.930    5.5082
   39.960    6.0979
   39.990    6.0453