File: data/MOCOF-1/PXRD/PXRD_KE-263_Co-Ka1_capillary-1mm_180s-deg.xyd
    1.500    6.3046
    1.530    6.2282
    1.560    5.9426
    1.590    5.5987
    1.620    5.4102
    1.650    5.0746
    1.680    4.8255
    1.710    4.6091
    1.740    4.3478
    1.770    4.1169
    1.800    3.9570
    1.830    3.7578
    1.860    3.6353
    1.890    3.3901
    1.920    3.2575
    1.950    3.0878
    1.980    2.9630
    2.010    2.8390
    2.040    2.6954
    2.070    2.5394
    2.100    2.4532
    2.130    2.3955
    2.160    2.2808
    2.190    2.1705
    2.220    2.0626
    2.250    2.0192
    2.280    1.8941
    2.310    1.8753
    2.340    1.7811
    2.370    1.7166
    2.400    1.7107
    2.430    1.6173
    2.460    1.5600
    2.490    1.5011
    2.520    1.4711
    2.550    1.3760
    2.580    1.3543
    2.610    1.3465
    2.640    1.2523
    2.670    1.2458
    2.700    1.1934
    2.730    1.1483
    2.760    1.1649
    2.790    1.1010
    2.820    1.0713
    2.850    1.0638
    2.880    1.0243
    2.910    1.0056
    2.940    1.0246
    2.970    0.9812
    3.000    0.9452
    3.030    0.9298
    3.060    0.8986
    3.090    0.8900
    3.120    0.8766
    3.150    0.8486
    3.180    0.8133
    3.210    0.8284
    3.240    0.8216
    3.270    0.8049
    3.300    0.7785
    3.330    0.7901
    3.360    0.7431
    3.390    0.7678
    3.420    0.7437
    3.450    0.7116
    3.480    0.7083
    3.510    0.6911
    3.540    0.7036
    3.570    0.6926
    3.600    0.6730
    3.630    0.6712
    3.660    0.6536
    3.690    0.6575
    3.720    0.6468
    3.750    0.6474
    3.780    0.6462
    3.810    0.6221
    3.840    0.6311
    3.870    0.6248
    3.900    0.6358
    3.930    0.6088
    3.960    0.6257
    3.990    0.5981
    4.020    0.6082
    4.050    0.6001
    4.080    0.6209
    4.110    0.6242
    4.140    0.6067
    4.170    0.6293
    4.200    0.6287
    4.230    0.6459
    4.260    0.6370
    4.290    0.6742
    4.320    0.6855
    4.350    0.6947
    4.380    0.7476
    4.410    0.7696
    4.440    0.8130
    4.470    0.8249
    4.500    0.8109
    4.530    0.7330
    4.560    0.6673
    4.590    0.6322
    4.620    0.6207
    4.650    0.6040
    4.680    0.5677
    4.710    0.5573
    4.740    0.5517
    4.770    0.5517
    4.800    0.5639
    4.830    0.5606
    4.860    0.5434
    4.890    0.5499
    4.920    0.5704
    4.950    0.5728
    4.980    0.5841
    5.010    0.5401
    5.040    0.5630
    5.070    0.5541
    5.100    0.5630
    5.130    0.5502
    5.160    0.5517
    5.190    0.5443
    5.220    0.5371
    5.250    0.5484
    5.280    0.5273
    5.310    0.5190
    5.340    0.5119
    5.370    0.5270
    5.400    0.5243
    5.430    0.5059
    5.460    0.5065
    5.490    0.4976
    5.520    0.4887
    5.550    0.4919
    5.580    0.4783
    5.610    0.4958
    5.640    0.4899
    5.670    0.4937
    5.700    0.4812
    5.730    0.4893
    5.760    0.4590
    5.790    0.4896
    5.820    0.4824
    5.850    0.4765
    5.880    0.4854
    5.910    0.4830
    5.940    0.4812
    5.970    0.4851
    6.000    0.4884
    6.030    0.4792
    6.060    0.4747
    6.090    0.4771
    6.120    0.4863
    6.150    0.4887
    6.180    0.4815
    6.210    0.4961
    6.240    0.4750
    6.270    0.4815
    6.300    0.4836
    6.330    0.4988
    6.360    0.4893
    6.390    0.4931
    6.420    0.4729
    6.450    0.4482
    6.480    0.4735
    6.510    0.4500
    6.540    0.4809
    6.570    0.4685
    6.600    0.4590
    6.630    0.4697
    6.660    0.4509
    6.690    0.4509
    6.720    0.4646
    6.750    0.4694
    6.780    0.4527
    6.810    0.4429
    6.840    0.4676
    6.870    0.4533
    6.900    0.4575
    6.930    0.4387
    6.960    0.4512
    6.990    0.4569
    7.020    0.4539
    7.050    0.4637
    7.080    0.4539
    7.110    0.4705
    7.140    0.4592
    7.170    0.4649
    7.200    0.4447
    7.230    0.4509
    7.260    0.4643
    7.290    0.4616
    7.320    0.4575
    7.350    0.4503
    7.380    0.4530
    7.410    0.4453
    7.440    0.4378
    7.470    0.4667
    7.500    0.4542
    7.530    0.4697
    7.560    0.4560
    7.590    0.4509
    7.620    0.4494
    7.650    0.4872
    7.680    0.4417
    7.710    0.4572
    7.740    0.4595
    7.770    0.4676
    7.800    0.4685
    7.830    0.4777
    7.860    0.4821
    7.890    0.4649
    7.920    0.4595
    7.950    0.4619
    7.980    0.4676
    8.010    0.4717
    8.040    0.4688
    8.070    0.4786
    8.100    0.4726
    8.130    0.4866
    8.160    0.4694
    8.190    0.4625
    8.220    0.4896
    8.250    0.4756
    8.280    0.4887
    8.310    0.4783
    8.340    0.4741
    8.370    0.4949
    8.400    0.4792
    8.430    0.4991
    8.460    0.5062
    8.490    0.5223
    8.520    0.4916
    8.550    0.5071
    8.580    0.4833
    8.610    0.4777
    8.640    0.4890
    8.670    0.4872
    8.700    0.4747
    8.730    0.4914
    8.760    0.4848
    8.790    0.4928
    8.820    0.4815
    8.850    0.4931
    8.880    0.4798
    8.910    0.4916
    8.940    0.4961
    8.970    0.4908
    9.000    0.5196
    9.030    0.4985
    9.060    0.4964
    9.090    0.5056
    9.120    0.4854
    9.150    0.4946
    9.180    0.5133
    9.210    0.5006
    9.240    0.5267
    9.270    0.5273
    9.300    0.5300
    9.330    0.5193
    9.360    0.5130
    9.390    0.5294
    9.420    0.5006
    9.450    0.5032
    9.480    0.5353
    9.510    0.5243
    9.540    0.5401
    9.570    0.5211
    9.600    0.5226
    9.630    0.5318
    9.660    0.5431
    9.690    0.5294
    9.720    0.5264
    9.750    0.5472
    9.780    0.5246
    9.810    0.5300
    9.840    0.5449
    9.870    0.5463
    9.900    0.5496
    9.930    0.5413
    9.960    0.5576
    9.990    0.5651
   10.020    0.5761
   10.050    0.5487
   10.080    0.5547
   10.110    0.5591
   10.140    0.5538
   10.170    0.5553
   10.200    0.5633
   10.230    0.5713
   10.260    0.5588
   10.290    0.5615
   10.320    0.5624
   10.350    0.5701
   10.380    0.5790
   10.410    0.5674
   10.440    0.5874
   10.470    0.5773
   10.500    0.5883
   10.530    0.5716
   10.560    0.5749
   10.590    0.5883
   10.620    0.5957
   10.650    0.5951
   10.680    0.5657
   10.710    0.5740
   10.740    0.5978
   10.770    0.5930
   10.800    0.6016
   10.830    0.5990
   10.860    0.5990
   10.890    0.6052
   10.920    0.5969
   10.950    0.5975
   10.980    0.6272
   11.010    0.6067
   11.040    0.6239
   11.070    0.6025
   11.100    0.6067
   11.130    0.6328
   11.160    0.6034
   11.190    0.6052
   11.220    0.6037
   11.250    0.6111
   11.280    0.6168
   11.310    0.6204
   11.340    0.5990
   11.370    0.6153
   11.400    0.6177
   11.430    0.6322
   11.460    0.6150
   11.490    0.6126
   11.520    0.6364
   11.550    0.6361
   11.580    0.6171
   11.610    0.6504
   11.640    0.6516
   11.670    0.6813
   11.700    0.6908
   11.730    0.6409
   11.760    0.5963
   11.790    0.6111
   11.820    0.6519
   11.850    0.6165
   11.880    0.6195
   11.910    0.6097
   11.940    0.6245
   11.970    0.6257
   12.000    0.6207
   12.030    0.6189
   12.060    0.5859
   12.090    0.6165
   12.120    0.6239
   12.150    0.6180
   12.180    0.6120
   12.210    0.6230
   12.240    0.6406
   12.270    0.6162
   12.300    0.6581
   12.330    0.7149
   12.360    0.7722
   12.390    0.7401
   12.420    0.6415
   12.450    0.5995
   12.480    0.5737
   12.510    0.6061
   12.540    0.5758
   12.570    0.5954
   12.600    0.5764
   12.630    0.5704
   12.660    0.5686
   12.690    0.5767
   12.720    0.6010
   12.750    0.5579
   12.780    0.5737
   12.810    0.5511
   12.840    0.5761
   12.870    0.5508
   12.900    0.5630
   12.930    0.5573
   12.960    0.5570
   12.990    0.5597
   13.020    0.5469
   13.050    0.5570
   13.080    0.5312
   13.110    0.5523
   13.140    0.5449
   13.170    0.5770
   13.200    0.5556
   13.230    0.5784
   13.260    0.5704
   13.290    0.5327
   13.320    0.5264
   13.350    0.5291
   13.380    0.5347
   13.410    0.5276
   13.440    0.5208
   13.470    0.5330
   13.500    0.5223
   13.530    0.5520
   13.560    0.5585
   13.590    0.6088
   13.620    0.6614
   13.650    0.8281
   13.680    1.1013
   13.710    1.0737
   13.740    0.7318
   13.770    0.5238
   13.800    0.5175
   13.830    0.5006
   13.860    0.4836
   13.890    0.4899
   13.920    0.4884
   13.950    0.4809
   13.980    0.4818
   14.010    0.4812
   14.040    0.4872
   14.070    0.4875
   14.100    0.4985
   14.130    0.4729
   14.160    0.4848
   14.190    0.4884
   14.220    0.4789
   14.250    0.4994
   14.280    0.4714
   14.310    0.4878
   14.340    0.4768
   14.370    0.4842
   14.400    0.4691
   14.430    0.4720
   14.460    0.4729
   14.490    0.4569
   14.520    0.4595
   14.550    0.4732
   14.580    0.4521
   14.610    0.4661
   14.640    0.4628
   14.670    0.4420
   14.700    0.4655
   14.730    0.4569
   14.760    0.4830
   14.790    0.4530
   14.820    0.4346
   14.850    0.4512
   14.880    0.4581
   14.910    0.4381
   14.940    0.4616
   14.970    0.4566
   15.000    0.4435
   15.030    0.4361
   15.060    0.4462
   15.090    0.4432
   15.120    0.4355
   15.150    0.4435
   15.180    0.4533
   15.210    0.4334
   15.240    0.4441
   15.270    0.4509
   15.300    0.4453
   15.330    0.4530
   15.360    0.4450
   15.390    0.4367
   15.420    0.4307
   15.450    0.4316
   15.480    0.4426
   15.510    0.4364
   15.540    0.4218
   15.570    0.4352
   15.600    0.4381
   15.630    0.4185
   15.660    0.4242
   15.690    0.4289
   15.720    0.4438
   15.750    0.4387
   15.780    0.4188
   15.810    0.4456
   15.840    0.4432
   15.870    0.4429
   15.900    0.4289
   15.930    0.4227
   15.960    0.4405
   15.990    0.4328
   16.020    0.4257
   16.050    0.4167
   16.080    0.4242
   16.110    0.4251
   16.140    0.4411
   16.170    0.4239
   16.200    0.4221
   16.230    0.4370
   16.260    0.4307
   16.290    0.4417
   16.320    0.4289
   16.350    0.4161
   16.380    0.4471
   16.410    0.4108
   16.440    0.4245
   16.470    0.4164
   16.500    0.4260
   16.530    0.4224
   16.560    0.4316
   16.590    0.4158
   16.620    0.4271
   16.650    0.4230
   16.680    0.4230
   16.710    0.4396
   16.740    0.4096
   16.770    0.4203
   16.800    0.4150
   16.830    0.4331
   16.860    0.4245
   16.890    0.4197
   16.920    0.4307
   16.950    0.4078
   16.980    0.4051
   17.010    0.4212
   17.040    0.4164
   17.070    0.4102
   17.100    0.4141
   17.130    0.4182
   17.160    0.4322
   17.190    0.4161
   17.220    0.4286
   17.250    0.4197
   17.280    0.4337
   17.310    0.4060
   17.340    0.4075
   17.370    0.4239
   17.400    0.4158
   17.430    0.4114
   17.460    0.4197
   17.490    0.4060
   17.520    0.4191
   17.550    0.4286
   17.580    0.4156
   17.610    0.4129
   17.640    0.4242
   17.670    0.4283
   17.700    0.4251
   17.730    0.4203
   17.760    0.4197
   17.790    0.4283
   17.820    0.4170
   17.850    0.4307
   17.880    0.4182
   17.910    0.4087
   17.940    0.4280
   17.970    0.4268
   18.000    0.4173
   18.030    0.4280
   18.060    0.4224
   18.090    0.4194
   18.120    0.4295
   18.150    0.4260
   18.180    0.4147
   18.210    0.4331
   18.240    0.4069
   18.270    0.4474
   18.300    0.4182
   18.330    0.4432
   18.360    0.4280
   18.390    0.4126
   18.420    0.4438
   18.450    0.4408
   18.480    0.4286
   18.510    0.4438
   18.540    0.4563
   18.570    0.5107
   18.600    0.5984
   18.630    0.7818
   18.660    0.9057
   18.690    0.8210
   18.720    0.5475
   18.750    0.4592
   18.780    0.4176
   18.810    0.4242
   18.840    0.4280
   18.870    0.4378
   18.900    0.4280
   18.930    0.4268
   18.960    0.4072
   18.990    0.4221
   19.020    0.4206
   19.050    0.4173
   19.080    0.4370
   19.110    0.4242
   19.140    0.4179
   19.170    0.4444
   19.200    0.4375
   19.230    0.4230
   19.260    0.4263
   19.290    0.4218
   19.320    0.4200
   19.350    0.4194
   19.380    0.4245
   19.410    0.4176
   19.440    0.4292
   19.470    0.4295
   19.500    0.4441
   19.530    0.4206
   19.560    0.4298
   19.590    0.4334
   19.620    0.4277
   19.650    0.4298
   19.680    0.4268
   19.710    0.4462
   19.740    0.4224
   19.770    0.4298
   19.800    0.4355
   19.830    0.4316
   19.860    0.4138
   19.890    0.4387
   19.920    0.4197
   19.950    0.4141
   19.980    0.4257
   20.010    0.4373
   20.040    0.4150
   20.070    0.4417
   20.100    0.4176
   20.130    0.4182
   20.160    0.4414
   20.190    0.4334
   20.220    0.4280
   20.250    0.4441
   20.280    0.4355
   20.310    0.4206
   20.340    0.4274
   20.370    0.4488
   20.400    0.4248
   20.430    0.4075
   20.460    0.4271
   20.490    0.4268
   20.520    0.4078
   20.550    0.4274
   20.580    0.4233
   20.610    0.4191
   20.640    0.4268
   20.670    0.4209
   20.700    0.4263
   20.730    0.4325
   20.760    0.4147
   20.790    0.4474
   20.820    0.4170
   20.850    0.4188
   20.880    0.4257
   20.910    0.4280
   20.940    0.4307
   20.970    0.4242
   21.000    0.4337
   21.030    0.4334
   21.060    0.4257
   21.090    0.4257
   21.120    0.4375
   21.150    0.4158
   21.180    0.4319
   21.210    0.4280
   21.240    0.4393
   21.270    0.4046
   21.300    0.4358
   21.330    0.4390
   21.360    0.4274
   21.390    0.4447
   21.420    0.4548
   21.450    0.4450
   21.480    0.4943
   21.510    0.5752
   21.540    0.7300
   21.570    0.7746
   21.600    0.7131
   21.630    0.5443
   21.660    0.4542
   21.690    0.4518
   21.720    0.4230
   21.750    0.4420
   21.780    0.4355
   21.810    0.4242
   21.840    0.4542
   21.870    0.4304
   21.900    0.4268
   21.930    0.4313
   21.960    0.4384
   21.990    0.4503
   22.020    0.4441
   22.050    0.4438
   22.080    0.4453
   22.110    0.4518
   22.140    0.4453
   22.170    0.4393
   22.200    0.4266
   22.230    0.4408
   22.260    0.4355
   22.290    0.4304
   22.320    0.4474
   22.350    0.4456
   22.380    0.4352
   22.410    0.4378
   22.440    0.4491
   22.470    0.4364
   22.500    0.4482
   22.530    0.4536
   22.560    0.4503
   22.590    0.4364
   22.620    0.4381
   22.650    0.4494
   22.680    0.4283
   22.710    0.4384
   22.740    0.4310
   22.770    0.4390
   22.800    0.4462
   22.830    0.4545
   22.860    0.4575
   22.890    0.4545
   22.920    0.4456
   22.950    0.4536
   22.980    0.4628
   23.010    0.4649
   23.040    0.4349
   23.070    0.4450
   23.100    0.4584
   23.130    0.4551
   23.160    0.4607
   23.190    0.4592
   23.220    0.4438
   23.250    0.4530
   23.280    0.4521
   23.310    0.4518
   23.340    0.4423
   23.370    0.4480
   23.400    0.4545
   23.430    0.4798
   23.460    0.4753
   23.490    0.5226
   23.520    0.5746
   23.550    0.5808
   23.580    0.5151
   23.610    0.4691
   23.640    0.4578
   23.670    0.4420
   23.700    0.4497
   23.730    0.4595
   23.760    0.4485
   23.790    0.4821
   23.820    0.4521
   23.850    0.4530
   23.880    0.4786
   23.910    0.4542
   23.940    0.4592
   23.970    0.4682
   24.000    0.4702
   24.030    0.4717
   24.060    0.4762
   24.090    0.4806
   24.120    0.4587
   24.150    0.4646
   24.180    0.4667
   24.210    0.4584
   24.240    0.4640
   24.270    0.4738
   24.300    0.5050
   24.330    0.5291
   24.360    0.5267
   24.390    0.5181
   24.420    0.4961
   24.450    0.4809
   24.480    0.4688
   24.510    0.4726
   24.540    0.4554
   24.570    0.4723
   24.600    0.4839
   24.630    0.4851
   24.660    0.4830
   24.690    0.4809
   24.720    0.4795
   24.750    0.4943
   24.780    0.4982
   24.810    0.5148
   24.840    0.6105
   24.870    0.7660
   24.900    0.8237
   24.930    0.8379
   24.960    0.7318
   24.990    0.5761
   25.020    0.5095
   25.050    0.4934
   25.080    0.4756
   25.110    0.4780
   25.140    0.5035
   25.170    0.4970
   25.200    0.4836
   25.230    0.4955
   25.260    0.4697
   25.290    0.4869
   25.320    0.4753
   25.350    0.4821
   25.380    0.4833
   25.410    0.4899
   25.440    0.5015
   25.470    0.4908
   25.500    0.4991
   25.530    0.4866
   25.560    0.5490
   25.590    0.5868
   25.620    0.5761
   25.650    0.5443
   25.680    0.5502
   25.710    0.5306
   25.740    0.4925
   25.770    0.4994
   25.800    0.4765
   25.830    0.4824
   25.860    0.4848
   25.890    0.4821
   25.920    0.5032
   25.950    0.4958
   25.980    0.4664
   26.010    0.4863
   26.040    0.4922
   26.070    0.4928
   26.100    0.4741
   26.130    0.4896
   26.160    0.4946
   26.190    0.4798
   26.220    0.4884
   26.250    0.4851
   26.280    0.5021
   26.310    0.5080
   26.340    0.5151
   26.370    0.5178
   26.400    0.5018
   26.430    0.4881
   26.460    0.4970
   26.490    0.4952
   26.520    0.4759
   26.550    0.4899
   26.580    0.4812
   26.610    0.4818
   26.640    0.4973
   26.670    0.4839
   26.700    0.4919
   26.730    0.4925
   26.760    0.4890
   26.790    0.4851
   26.820    0.4890
   26.850    0.4973
   26.880    0.4866
   26.910    0.4845
   26.940    0.4931
   26.970    0.4789
   27.000    0.4899
   27.030    0.4911
   27.060    0.4735
   27.090    0.4801
   27.120    0.4928
   27.150    0.4590
   27.180    0.4922
   27.210    0.4902
   27.240    0.4809
   27.270    0.4688
   27.300    0.4982
   27.330    0.4747
   27.360    0.4759
   27.390    0.4732
   27.420    0.4699
   27.450    0.5068
   27.480    0.4994
   27.510    0.5113
   27.540    0.5154
   27.570    0.5648
   27.600    0.6138
   27.630    0.6254
   27.660    0.6447
   27.690    0.6590
   27.720    0.6159
   27.750    0.5975
   27.780    0.5437
   27.810    0.5273
   27.840    0.4955
   27.870    0.4842
   27.900    0.5021
   27.930    0.4884
   27.960    0.4765
   27.990    0.4744
   28.020    0.4771
   28.050    0.4931
   28.080    0.4711
   28.110    0.5077
   28.140    0.5098
   28.170    0.5059
   28.200    0.5603
   28.230    0.6673
   28.260    0.8133
   28.290    0.9708
   28.320    1.1688
   28.350    1.1703
   28.380    1.0347
   28.410    0.8810
   28.440    0.6967
   28.470    0.6159
   28.500    0.5707
   28.530    0.5615
   28.560    0.5722
   28.590    0.5428
   28.620    0.5342
   28.650    0.5026
   28.680    0.4857
   28.710    0.4789
   28.740    0.4601
   28.770    0.4667
   28.800    0.4640
   28.830    0.4836
   28.860    0.4682
   28.890    0.4625
   28.920    0.4595
   28.950    0.4750
   28.980    0.4563
   29.010    0.4747
   29.040    0.4625
   29.070    0.4512
   29.100    0.4676
   29.130    0.4414
   29.160    0.4572
   29.190    0.4581
   29.220    0.4613
   29.250    0.4717
   29.280    0.4426
   29.310    0.4783
   29.340    0.4673
   29.370    0.4988
   29.400    0.5178
   29.430    0.6001
   29.460    0.7294
   29.490    0.9093
   29.520    1.0383
   29.550    1.0490
   29.580    0.9307
   29.610    0.8382
   29.640    0.6513
   29.670    0.5541
   29.700    0.5255
   29.730    0.4979
   29.760    0.4925
   29.790    0.4637
   29.820    0.4527
   29.850    0.4705
   29.880    0.4474
   29.910    0.4702
   29.940    0.4750
   29.970    0.4560
   30.000    0.5142
   30.030    0.5784
   30.060    0.6956
   30.090    0.8629
   30.120    1.0303
   30.150    1.1328
   30.180    1.0496
   30.210    0.9414
   30.240    0.7443
   30.270    0.5924
   30.300    0.5142
   30.330    0.4863
   30.360    0.4566
   30.390    0.4462
   30.420    0.4503
   30.450    0.4542
   30.480    0.4474
   30.510    0.4408
   30.540    0.4503
   30.570    0.4417
   30.600    0.4375
   30.630    0.4462
   30.660    0.4607
   30.690    0.4637
   30.720    0.4616
   30.750    0.4480
   30.780    0.4239
   30.810    0.4370
   30.840    0.4375
   30.870    0.4390
   30.900    0.4227
   30.930    0.4274
   30.960    0.4387
   30.990    0.4188
   31.020    0.4607
   31.050    0.4477
   31.080    0.4441
   31.110    0.4649
   31.140    0.4676
   31.170    0.5163
   31.200    0.6108
   31.230    0.7369
   31.260    1.0371
   31.290    1.3501
   31.320    1.6114
   31.350    1.6352
   31.380    1.4895
   31.410    1.2226
   31.440    0.8582
   31.470    0.6100
   31.500    0.4997
   31.530    0.4551
   31.560    0.4480
   31.590    0.4402
   31.620    0.4322
   31.650    0.4423
   31.680    0.4551
   31.710    0.4818
   31.740    0.5184
   31.770    0.6426
   31.800    0.9090
   31.830    1.1810
   31.860    1.4651
   31.890    1.6509
   31.920    1.5769
   31.950    1.3694
   31.980    1.0552
   32.010    0.7526
   32.040    0.5776
   32.070    0.4774
   32.100    0.4753
   32.130    0.4450
   32.160    0.4236
   32.190    0.4147
   32.220    0.4212
   32.250    0.3950
   32.280    0.4084
   32.310    0.4022
   32.340    0.3986
   32.370    0.4081
   32.400    0.4025
   32.430    0.4010
   32.460    0.4063
   32.490    0.3992
   32.520    0.3965
   32.550    0.3754
   32.580    0.3754
   32.610    0.3953
   32.640    0.4043
   32.670    0.3924
   32.700    0.3811
   32.730    0.4028
   32.760    0.4078
   32.790    0.4215
   32.820    0.4298
   32.850    0.4482
   32.880    0.4482
   32.910    0.4474
   32.940    0.4488
   32.970    0.4402
   33.000    0.4224
   33.030    0.3817
   33.060    0.4123
   33.090    0.3959
   33.120    0.3909
   33.150    0.4010
   33.180    0.4040
   33.210    0.4040
   33.240    0.4034
   33.270    0.3968
   33.300    0.3817
   33.330    0.3811
   33.360    0.3855
   33.390    0.3796
   33.420    0.3933
   33.450    0.3992
   33.480    0.4340
   33.510    0.4738
   33.540    0.5044
   33.570    0.5380
   33.600    0.4928
   33.630    0.4694
   33.660    0.4417
   33.690    0.4040
   33.720    0.3843
   33.750    0.3823
   33.780    0.3647
   33.810    0.3623
   33.840    0.3787
   33.870    0.3641
   33.900    0.3840
   33.930    0.3778
   33.960    0.4066
   33.990    0.4060
   34.020    0.4242
   34.050    0.4188
   34.080    0.4114
   34.110    0.3888
   34.140    0.3748
   34.170    0.3650
   34.200    0.3656
   34.230    0.3612
   34.260    0.3668
   34.290    0.3647
   34.320    0.3629
   34.350    0.3826
   34.380    0.3451
   34.410    0.3701
   34.440    0.3421
   34.470    0.4054
   34.500    0.4019
   34.530    0.4081
   34.560    0.3826
   34.590    0.4022
   34.620    0.3683
   34.650    0.3606
   34.680    0.3644
   34.710    0.3519
   34.740    0.3356
   34.770    0.3409
   34.800    0.3398
   34.830    0.3448
   34.860    0.3552
   34.890    0.3314
   34.920    0.3436
   34.950    0.3240
   34.980    0.3534
   35.010    0.3308
   35.040    0.3421
   35.070    0.3430
   35.100    0.3487
   35.130    0.3558
   35.160    0.3570
   35.190    0.3638
   35.220    0.3796
   35.250    0.4150
   35.280    0.4658
   35.310    0.4881
   35.340    0.4931
   35.370    0.4979
   35.400    0.4801
   35.430    0.4075
   35.460    0.3858
   35.490    0.3513
   35.520    0.3219
   35.550    0.3323
   35.580    0.3466
   35.610    0.3448
   35.640    0.3377
   35.670    0.3528
   35.700    0.3377
   35.730    0.3160
   35.760    0.3228
   35.790    0.3222
   35.820    0.3172
   35.850    0.3074
   35.880    0.3320
   35.910    0.3216
   35.940    0.3023
   35.970    0.3130
   36.000    0.3082
   36.030    0.3294
   36.060    0.3386
   36.090    0.3270
   36.120    0.3424
   36.150    0.3594
   36.180    0.3356
   36.210    0.3317
   36.240    0.3169
   36.270    0.3207
   36.300    0.2987
   36.330    0.3071
   36.360    0.3127
   36.390    0.2970
   36.420    0.3017
   36.450    0.3023
   36.480    0.3166
   36.510    0.2990
   36.540    0.3267
   36.570    0.3133
   36.600    0.3216
   36.630    0.3038
   36.660    0.3186
   36.690    0.3121
   36.720    0.3097
   36.750    0.3109
   36.780    0.3136
   36.810    0.3335
   36.840    0.3305
   36.870    0.3484
   36.900    0.3481
   36.930    0.3374
   36.960    0.3579
   36.990    0.3454
   37.020    0.3778
   37.050    0.3823
   37.080    0.3861
   37.110    0.3677
   37.140    0.3600
   37.170    0.3502
   37.200    0.3317
   37.230    0.3059
   37.260    0.2987
   37.290    0.3074
   37.320    0.2815
   37.350    0.2830
   37.380    0.2845
   37.410    0.2889
   37.440    0.2770
   37.470    0.2839
   37.500    0.2952
   37.530    0.2773
   37.560    0.2913
   37.590    0.2907
   37.620    0.2907
   37.650    0.2791
   37.680    0.2874
   37.710    0.2839
   37.740    0.2767
   37.770    0.2895
   37.800    0.3008
   37.830    0.3359
   37.860    0.3344
   37.890    0.3493
   37.920    0.3291
   37.950    0.3267
   37.980    0.3285
   38.010    0.3615
   38.040    0.3778
   38.070    0.3879
   38.100    0.3894
   38.130    0.3742
   38.160    0.3698
   38.190    0.3641
   38.220    0.3564
   38.250    0.3448
   38.280    0.3552
   38.310    0.3406
   38.340    0.3353
   38.370    0.2794
   38.400    0.2660
   38.430    0.2735
   38.460    0.2648
   38.490    0.2699
   38.520    0.2583
   38.550    0.2547
   38.580    0.2755
   38.610    0.2690
   38.640    0.2681
   38.670    0.2753
   38.700    0.2631
   38.730    0.2610
   38.760    0.2687
   38.790    0.2506
   38.820    0.2556
   38.850    0.2536
   38.880    0.2553
   38.910    0.2559
   38.940    0.2643
   38.970    0.2684
   39.000    0.2628
   39.030    0.2705
   39.060    0.2753
   39.090    0.2785
   39.120    0.2672
   39.150    0.2515
   39.180    0.2521
   39.210    0.2654
   39.240    0.2678
   39.270    0.2622
   39.300    0.2619
   39.330    0.2491
   39.360    0.2536
   39.390    0.2449
   39.420    0.2533
   39.450    0.2580
   39.480    0.2538
   39.510    0.2541
   39.540    0.2518
   39.570    0.2583
   39.600    0.2604
   39.630    0.2651
   39.660    0.2747
   39.690    0.2547
   39.720    0.2607
   39.750    0.2711
   39.780    0.2571
   39.810    0.2449
   39.840    0.2423
   39.870    0.2351
   39.900    0.2390
   39.930    0.2470
   39.960    0.2524
   39.990    0.2354