File: data/MOCOF-1/PXRD/PXRD_KE-268_Cu-Ka1_film-3mm_3s-deg.xyd
    1.500   16.5526
    1.530   16.5701
    1.560   16.0260
    1.590   15.3414
    1.620   15.1483
    1.650   14.9552
    1.680   14.9903
    1.710   14.3584
    1.740   14.5164
    1.770   13.4281
    1.800   13.5685
    1.830   13.8318
    1.860   13.6739
    1.890   12.8840
    1.920   13.0595
    1.950   12.4627
    1.980   12.1116
    2.010   11.8132
    2.040   12.0765
    2.070   11.5499
    2.100   11.4797
    2.130   10.9707
    2.160   11.1989
    2.190   11.5324
    2.220   11.0585
    2.250   10.5845
    2.280   11.0058
    2.310   10.9356
    2.340   10.9707
    2.370   10.5143
    2.400   10.5845
    2.430   11.0058
    2.460   10.4090
    2.490    9.9526
    2.520   10.0228
    2.550    9.7244
    2.580    9.6191
    2.610   10.3739
    2.640   10.3739
    2.670   10.0228
    2.700    9.7946
    2.730    9.5489
    2.760    9.7069
    2.790    9.5313
    2.820    9.5664
    2.850    8.9872
    2.880    9.1803
    2.910    9.0925
    2.940    9.6191
    2.970    9.3734
    3.000    9.0574
    3.030    9.3734
    3.060    9.4436
    3.090    9.4436
    3.120   10.0404
    3.150   10.1457
    3.180   10.4968
    3.210    9.7595
    3.240   10.6723
    3.270   10.2335
    3.300   10.6547
    3.330   11.2515
    3.360   11.2866
    3.390   12.3925
    3.420   12.5680
    3.450   13.0771
    3.480   14.0425
    3.510   15.0781
    3.540   15.0957
    3.570   17.3074
    3.600   18.5536
    3.630   20.2387
    3.660   22.3100
    3.690   25.7153
    3.720   30.1738
    3.750   34.1232
    3.780   41.4429
    3.810   52.9226
    3.840   68.6677
    3.870   69.0714
    3.900   48.7625
    3.930   22.0291
    3.960   12.3223
    3.990   10.4090
    4.020    9.4085
    4.050   10.0228
    4.080    8.5484
    4.110    9.1978
    4.140    8.3728
    4.170    9.3382
    4.200    8.5133
    4.230    8.7765
    4.260    8.9696
    4.290    8.6888
    4.320    8.6361
    4.350    8.6888
    4.380    8.9872
    4.410    8.8819
    4.440    9.6015
    4.470    8.3553
    4.500    9.0925
    4.530    8.5308
    4.560    8.8117
    4.590    8.7941
    4.620    8.5308
    4.650    8.3026
    4.680    8.3026
    4.710    8.8292
    4.740    9.0223
    4.770    8.8117
    4.800    8.4781
    4.830    8.7414
    4.860    9.2680
    4.890    8.6537
    4.920    9.2505
    4.950    9.3909
    4.980    9.2856
    5.010    9.1627
    5.040    9.6191
    5.070    9.5138
    5.100    9.8648
    5.130   10.7249
    5.160   11.5148
    5.190   11.1638
    5.220   12.3925
    5.250   12.5329
    5.280   13.8143
    5.310   14.1478
    5.340   15.3590
    5.370   18.2903
    5.400   19.6068
    5.430   22.4855
    5.460   29.3312
    5.490   30.5248
    5.520   24.5743
    5.550   15.4116
    5.580   11.6904
    5.610   12.3574
    5.640   11.4797
    5.670   10.8654
    5.700   11.1462
    5.730   10.8654
    5.760   10.3037
    5.790    9.7946
    5.820    9.7771
    5.850    9.1452
    5.880    9.3031
    5.910    9.7771
    5.940    9.1101
    5.970    8.5484
    6.000    9.2505
    6.030    9.2329
    6.060    8.8292
    6.090    8.4606
    6.120    8.2324
    6.150    8.4606
    6.180    8.1622
    6.210    8.3553
    6.240    8.5484
    6.270    8.1271
    6.300    8.7941
    6.330    7.6707
    6.360    8.1797
    6.390    8.1446
    6.420    8.3728
    6.450    7.9340
    6.480    8.1446
    6.510    8.7590
    6.540    8.8994
    6.570    8.6010
    6.600    9.0047
    6.630   10.6898
    6.660   10.7776
    6.690   12.2872
    6.720   13.9196
    6.750   13.2350
    6.780   11.0409
    6.810    7.7936
    6.840    7.6180
    6.870    7.7058
    6.900    7.2319
    6.930    6.5122
    6.960    7.6180
    6.990    7.4250
    7.020    7.0563
    7.050    7.2494
    7.080    7.5478
    7.110    7.4074
    7.140    7.4250
    7.170    7.0212
    7.200    7.1441
    7.230    7.0739
    7.260    6.7404
    7.290    6.6000
    7.320    6.9686
    7.350    6.6000
    7.380    6.4595
    7.410    6.7930
    7.440    6.7755
    7.470    6.6877
    7.500    6.8633
    7.530    6.8106
    7.560    7.2494
    7.590    6.3718
    7.620    6.9861
    7.650    7.2494
    7.680    8.1797
    7.710    8.0042
    7.740    9.1276
    7.770   10.9707
    7.800    9.9877
    7.830    8.6888
    7.860    6.1085
    7.890    6.1085
    7.920    6.3542
    7.950    5.9505
    7.980    6.0207
    8.010    6.1962
    8.040    6.4771
    8.070    5.7750
    8.100    7.0037
    8.130    6.5122
    8.160    5.9329
    8.190    6.0032
    8.220    6.0558
    8.250    5.7574
    8.280    5.7048
    8.310    5.8803
    8.340    5.8803
    8.370    5.6170
    8.400    6.2138
    8.430    5.6872
    8.460    6.1787
    8.490    5.7925
    8.520    6.0383
    8.550    5.9681
    8.580    5.9505
    8.610    6.3542
    8.640    5.7925
    8.670    6.1260
    8.700    6.0734
    8.730    6.2665
    8.760    6.0032
    8.790    5.9329
    8.820    5.8978
    8.850    5.8452
    8.880    5.8276
    8.910    5.4239
    8.940    5.7223
    8.970    5.6345
    9.000    5.7223
    9.030    6.1260
    9.060    5.5468
    9.090    5.8276
    9.120    5.5994
    9.150    5.0553
    9.180    4.9500
    9.210    5.3537
    9.240    5.8101
    9.270    6.2138
    9.300    6.1260
    9.330    5.9681
    9.360    6.0383
    9.390    6.7228
    9.420    6.7404
    9.450    8.4255
    9.480   10.1983
    9.510   12.6733
    9.540   14.9728
    9.570   13.5685
    9.600   10.3739
    9.630    6.7053
    9.660    5.8101
    9.690    5.3537
    9.720    5.8101
    9.750    5.6872
    9.780    5.6872
    9.810    5.2835
    9.840    5.5994
    9.870    5.6521
    9.900    5.7750
    9.930    5.4415
    9.960    5.4766
    9.990    6.1962
   10.020    5.6170
   10.050    5.4239
   10.080    5.9154
   10.110    6.0558
   10.140    5.7399
   10.170    5.9681
   10.200    5.7750
   10.230    6.4244
   10.260    7.5829
   10.290    8.4079
   10.320    8.9872
   10.350    8.4079
   10.380    7.5829
   10.410    6.0032
   10.440    5.9681
   10.470    5.5468
   10.500    5.6170
   10.530    5.2835
   10.560    5.4941
   10.590    5.7399
   10.620    5.5643
   10.650    5.9154
   10.680    5.6345
   10.710    5.7574
   10.740    5.8978
   10.770    6.2840
   10.800    5.9856
   10.830    5.6872
   10.860    6.2489
   10.890    5.9856
   10.920    6.4595
   10.950    6.3893
   10.980    7.1441
   11.010    8.4606
   11.040    9.1452
   11.070    8.7063
   11.100    6.9686
   11.130    6.0032
   11.160    5.6521
   11.190    5.9681
   11.220    5.8452
   11.250    5.6872
   11.280    5.6872
   11.310    5.4064
   11.340    5.5643
   11.370    5.8101
   11.400    5.6345
   11.430    6.0909
   11.460    5.5819
   11.490    5.7399
   11.520    6.1085
   11.550    6.0734
   11.580    6.0032
   11.610    6.3367
   11.640    6.6175
   11.670    8.2149
   11.700    9.5138
   11.730    8.7941
   11.760    7.6356
   11.790    6.6877
   11.820    6.3367
   11.850    5.8978
   11.880    5.4941
   11.910    5.6345
   11.940    5.6697
   11.970    5.5643
   12.000    5.5117
   12.030    5.8978
   12.060    5.2484
   12.090    5.9329
   12.120    5.7223
   12.150    5.1957
   12.180    5.2133
   12.210    5.4064
   12.240    5.4239
   12.270    5.7048
   12.300    5.3888
   12.330    5.7750
   12.360    5.8978
   12.390    5.8101
   12.420    5.7750
   12.450    5.1080
   12.480    5.2659
   12.510    5.0904
   12.540    5.4239
   12.570    5.3186
   12.600    5.3537
   12.630    5.4415
   12.660    5.0553
   12.690    5.3010
   12.720    5.4415
   12.750    5.5117
   12.780    5.4941
   12.810    5.5819
   12.840    5.5643
   12.870    6.1787
   12.900    6.3016
   12.930    7.2494
   12.960    7.6180
   12.990    6.8457
   13.020    6.1085
   13.050    6.0734
   13.080    5.1606
   13.110    5.4064
   13.140    5.0904
   13.170    5.3712
   13.200    5.3712
   13.230    4.9324
   13.260    5.5468
   13.290    6.0032
   13.320    5.5292
   13.350    5.2484
   13.380    5.5117
   13.410    5.0553
   13.440    5.3010
   13.470    5.7048
   13.500    5.9856
   13.530    6.3367
   13.560    6.0207
   13.590    5.8276
   13.620    5.3186
   13.650    5.2835
   13.680    5.5117
   13.710    5.0202
   13.740    5.7574
   13.770    5.5292
   13.800    5.4941
   13.830    5.5117
   13.860    5.4590
   13.890    5.3888
   13.920    5.7223
   13.950    5.5468
   13.980    5.4415
   14.010    6.2138
   14.040    6.0558
   14.070    7.5127
   14.100    7.6532
   14.130    7.3196
   14.160    6.5649
   14.190    6.0558
   14.220    5.4239
   14.250    5.7925
   14.280    5.3888
   14.310    5.5117
   14.340    5.5994
   14.370    5.7925
   14.400    5.6521
   14.430    6.0558
   14.460    6.1436
   14.490    5.9856
   14.520    5.9329
   14.550    5.8276
   14.580    5.5819
   14.610    5.5994
   14.640    5.3010
   14.670    5.8101
   14.700    5.7048
   14.730    5.3186
   14.760    5.4415
   14.790    5.7399
   14.820    5.4766
   14.850    5.3010
   14.880    5.3361
   14.910    5.0904
   14.940    4.8447
   14.970    5.1957
   15.000    5.3712
   15.030    5.4239
   15.060    5.1255
   15.090    5.5292
   15.120    5.5468
   15.150    5.7223
   15.180    5.5117
   15.210    5.3888
   15.240    5.1782
   15.270    5.4766
   15.300    5.3361
   15.330    5.2659
   15.360    5.0202
   15.390    5.3537
   15.420    5.5643
   15.450    4.8095
   15.480    5.3537
   15.510    5.5468
   15.540    5.4941
   15.570    5.4064
   15.600    5.2659
   15.630    5.0904
   15.660    5.5117
   15.690    5.5117
   15.720    5.3888
   15.750    5.4239
   15.780    5.0026
   15.810    5.2835
   15.840    5.4766
   15.870    5.1255
   15.900    5.3712
   15.930    5.3186
   15.960    5.4415
   15.990    5.3186
   16.020    4.4936
   16.050    5.2133
   16.080    5.4766
   16.110    5.0202
   16.140    5.8276
   16.170    5.5643
   16.200    4.9675
   16.230    5.4415
   16.260    5.1080
   16.290    5.4415
   16.320    5.4941
   16.350    5.4415
   16.380    5.1957
   16.410    5.5994
   16.440    5.0728
   16.470    5.0728
   16.500    5.4239
   16.530    5.6345
   16.560    5.0728
   16.590    5.8978
   16.620    5.6872
   16.650    5.6170
   16.680    5.8627
   16.710    5.2835
   16.740    5.4590
   16.770    5.8978
   16.800    5.3712
   16.830    5.4064
   16.860    5.0377
   16.890    4.8095
   16.920    4.9675
   16.950    5.0202
   16.980    5.5643
   17.010    5.8803
   17.040    6.4595
   17.070    6.9159
   17.100    6.3893
   17.130    5.8627
   17.160    6.0032
   17.190    5.3010
   17.220    5.1431
   17.250    5.0728
   17.280    5.3186
   17.310    5.1431
   17.340    5.1080
   17.370    5.8452
   17.400    5.4239
   17.430    5.5292
   17.460    5.1782
   17.490    5.4239
   17.520    5.7925
   17.550    5.6697
   17.580    5.1431
   17.610    5.6345
   17.640    5.3537
   17.670    5.0904
   17.700    5.1080
   17.730    5.3361
   17.760    4.7920
   17.790    5.4239
   17.820    5.3712
   17.850    5.2835
   17.880    5.0202
   17.910    5.0553
   17.940    5.4766
   17.970    5.6872
   18.000    5.2835
   18.030    5.3010
   18.060    5.0202
   18.090    4.6516
   18.120    5.3361
   18.150    5.1431
   18.180    5.5117
   18.210    5.2133
   18.240    5.2308
   18.270    5.4415
   18.300    5.1606
   18.330    5.0553
   18.360    5.7048
   18.390    5.4941
   18.420    5.2133
   18.450    5.3010
   18.480    5.3712
   18.510    5.1782
   18.540    5.2133
   18.570    5.2308
   18.600    5.4590
   18.630    5.2659
   18.660    5.3888
   18.690    5.1782
   18.720    5.4415
   18.750    5.0553
   18.780    5.3712
   18.810    5.2835
   18.840    5.1431
   18.870    5.3888
   18.900    5.5819
   18.930    5.6345
   18.960    6.1787
   18.990    6.8457
   19.020    6.3367
   19.050    5.4239
   19.080    4.8798
   19.110    4.9149
   19.140    4.6516
   19.170    5.1431
   19.200    5.2659
   19.230    4.9851
   19.260    5.0377
   19.290    4.9149
   19.320    4.9500
   19.350    4.8973
   19.380    4.6165
   19.410    5.4415
   19.440    5.1782
   19.470    4.5814
   19.500    4.9149
   19.530    5.1080
   19.560    5.4239
   19.590    5.3010
   19.620    5.3888
   19.650    5.1957
   19.680    5.2133
   19.710    5.2659
   19.740    4.9500
   19.770    4.5463
   19.800    4.9675
   19.830    5.2133
   19.860    5.0377
   19.890    5.1255
   19.920    4.9851
   19.950    5.0377
   19.980    5.3010
   20.010    5.0026
   20.040    4.8271
   20.070    4.9675
   20.100    4.9675
   20.130    4.8095
   20.160    4.7042
   20.190    4.8271
   20.220    4.7393
   20.250    5.0728
   20.280    4.8095
   20.310    4.7744
   20.340    5.1255
   20.370    5.7048
   20.400    5.7223
   20.430    5.6345
   20.460    5.6872
   20.490    5.0026
   20.520    4.6691
   20.550    4.6691
   20.580    4.7393
   20.610    5.2484
   20.640    5.0026
   20.670    4.9149
   20.700    4.9324
   20.730    4.5814
   20.760    4.3356
   20.790    4.4409
   20.820    4.9500
   20.850    5.1957
   20.880    4.8095
   20.910    4.5638
   20.940    4.4409
   20.970    4.6340
   21.000    4.4936
   21.030    4.6691
   21.060    4.5463
   21.090    4.9324
   21.120    4.4409
   21.150    5.0202
   21.180    4.7744
   21.210    4.6691
   21.240    4.9149
   21.270    4.7920
   21.300    4.8798
   21.330    4.2478
   21.360    4.3532
   21.390    4.4058
   21.420    4.6516
   21.450    4.6516
   21.480    4.5111
   21.510    4.5287
   21.540    4.7920
   21.570    5.0202
   21.600    4.8798
   21.630    4.8095
   21.660    4.7218
   21.690    4.7744
   21.720    4.5814
   21.750    4.7393
   21.780    4.8798
   21.810    4.8622
   21.840    5.1431
   21.870    5.3888
   21.900    4.8447
   21.930    5.3010
   21.960    4.7218
   21.990    5.0904
   22.020    4.8095
   22.050    4.5287
   22.080    4.5111
   22.110    4.6165
   22.140    4.6516
   22.170    4.9675
   22.200    5.0377
   22.230    4.8622
   22.260    4.7042
   22.290    4.5638
   22.320    4.6340
   22.350    4.3005
   22.380    4.8798
   22.410    4.5814
   22.440    4.9149
   22.470    4.9324
   22.500    4.9324
   22.530    5.0202
   22.560    5.8978
   22.590    6.6526
   22.620    5.5643
   22.650    5.1606
   22.680    4.7042
   22.710    4.7920
   22.740    4.7393
   22.770    4.0723
   22.800    4.4234
   22.830    4.6165
   22.860    4.6340
   22.890    5.0026
   22.920    5.5468
   22.950    5.5292
   22.980    5.6345
   23.010    4.8973
   23.040    4.5463
   23.070    5.0377
   23.100    4.7744
   23.130    5.0377
   23.160    4.7218
   23.190    4.6691
   23.220    4.8095
   23.250    4.6165
   23.280    5.0202
   23.310    5.0202
   23.340    4.4585
   23.370    4.5463
   23.400    4.0899
   23.430    4.4409
   23.460    4.2830
   23.490    4.2478
   23.520    4.2478
   23.550    4.4760
   23.580    4.3883
   23.610    4.3532
   23.640    4.3532
   23.670    4.5814
   23.700    4.3532
   23.730    3.9319
   23.760    4.2127
   23.790    4.1250
   23.820    4.5463
   23.850    4.3883
   23.880    4.0723
   23.910    4.1952
   23.940    4.5463
   23.970    4.9149
   24.000    4.5638
   24.030    4.1425
   24.060    4.0372
   24.090    4.5111
   24.120    4.3707
   24.150    4.4058
   24.180    3.9143
   24.210    3.8968
   24.240    4.2303
   24.270    4.5111
   24.300    4.1074
   24.330    3.9670
   24.360    4.2127
   24.390    4.1250
   24.420    4.3356
   24.450    4.2654
   24.480    4.4585
   24.510    4.6867
   24.540    4.0723
   24.570    3.8968
   24.600    4.4234
   24.630    4.0899
   24.660    4.0021
   24.690    4.7218
   24.720    4.1776
   24.750    4.2478
   24.780    4.2478
   24.810    4.3005
   24.840    3.7037
   24.870    4.5111
   24.900    4.3707
   24.930    4.1952
   24.960    4.4936
   24.990    4.2303
   25.020    3.9143
   25.050    4.3005
   25.080    3.9494
   25.110    4.2830
   25.140    4.0723
   25.170    4.0372
   25.200    3.8441
   25.230    4.3532
   25.260    4.3707
   25.290    4.2830
   25.320    3.7037
   25.350    3.9670
   25.380    4.0723
   25.410    3.7564
   25.440    4.0021
   25.470    3.8266
   25.500    4.4058
   25.530    4.2830
   25.560    4.4409
   25.590    4.2478
   25.620    4.2654
   25.650    3.8792
   25.680    4.3532
   25.710    3.9670
   25.740    4.2303
   25.770    4.3707
   25.800    4.2830
   25.830    5.1606
   25.860    4.8447
   25.890    5.2835
   25.920    4.5814
   25.950    4.0548
   25.980    4.3005
   26.010    4.3532
   26.040    3.8792
   26.070    4.0899
   26.100    4.3532
   26.130    3.6686
   26.160    4.1776
   26.190    4.0723
   26.220    3.9846
   26.250    4.1425
   26.280    4.2830
   26.310    3.6862
   26.340    3.9143
   26.370    4.0899
   26.400    3.7739
   26.430    4.3532
   26.460    3.9670
   26.490    3.8792
   26.520    4.1776
   26.550    3.6510
   26.580    4.0372
   26.610    4.1776
   26.640    3.4404
   26.670    3.9494
   26.700    3.6862
   26.730    3.9670
   26.760    4.0548
   26.790    3.8266
   26.820    4.1601
   26.850    3.6510
   26.880    3.7564
   26.910    3.9846
   26.940    3.8792
   26.970    4.1952
   27.000    4.2654
   27.030    3.9143
   27.060    4.4585
   27.090    4.3707
   27.120    3.6510
   27.150    3.9670
   27.180    3.8090
   27.210    4.0372
   27.240    3.8617
   27.270    3.6510
   27.300    4.0021
   27.330    3.7388
   27.360    3.6159
   27.390    3.8792
   27.420    3.6335
   27.450    3.6510
   27.480    3.6862
   27.510    3.6335
   27.540    3.8441
   27.570    4.1250
   27.600    3.7037
   27.630    4.1074
   27.660    4.2303
   27.690    3.9670
   27.720    3.6159
   27.750    3.4931
   27.780    3.8617
   27.810    3.7388
   27.840    3.3702
   27.870    3.4229
   27.900    4.1425
   27.930    4.1601
   27.960    4.5638
   27.990    5.1431
   28.020    4.8095
   28.050    4.0548
   28.080    3.9143
   28.110    3.6510
   28.140    4.0021
   28.170    3.9494
   28.200    4.1601
   28.230    4.1250
   28.260    4.0021
   28.290    3.9494
   28.320    3.5633
   28.350    3.5984
   28.380    4.1601
   28.410    3.7739
   28.440    3.8617
   28.470    3.9319
   28.500    4.0197
   28.530    3.7739
   28.560    3.8968
   28.590    3.6510
   28.620    3.6686
   28.650    3.6686
   28.680    3.5457
   28.710    3.7915
   28.740    3.6510
   28.770    3.7915
   28.800    3.6335
   28.830    3.5282
   28.860    3.6862
   28.890    4.0372
   28.920    4.3005
   28.950    5.1957
   28.980    4.9851
   29.010    4.5638
   29.040    4.2127
   29.070    3.9670
   29.100    3.7037
   29.130    3.6335
   29.160    3.5808
   29.190    3.6159
   29.220    3.9494
   29.250    3.5808
   29.280    3.7037
   29.310    3.8441
   29.340    3.8617
   29.370    3.9494
   29.400    4.0899
   29.430    3.7739
   29.460    3.5633
   29.490    3.5808
   29.520    3.8792
   29.550    3.5633
   29.580    3.7739
   29.610    3.4580
   29.640    3.2298
   29.670    3.4404
   29.700    3.6159
   29.730    3.0367
   29.760    3.2473
   29.790    3.4229
   29.820    3.5106
   29.850    3.5984
   29.880    3.6159
   29.910    3.4229
   29.940    3.2473
   29.970    3.3526
   30.000    2.9314
   30.030    3.2473
   30.060    3.1420
   30.090    3.1245
   30.120    3.3000
   30.150    3.2122
   30.180    3.3175
   30.210    2.9489
   30.240    3.2473
   30.270    3.1245
   30.300    3.1069
   30.330    3.1420
   30.360    3.3351
   30.390    3.0718
   30.420    2.8963
   30.450    3.0893
   30.480    3.4580
   30.510    2.7909
   30.540    3.1771
   30.570    3.1245
   30.600    3.1947
   30.630    3.4053
   30.660    3.4580
   30.690    3.0542
   30.720    3.3702
   30.750    3.1420
   30.780    3.3000
   30.810    3.0367
   30.840    3.5633
   30.870    3.0191
   30.900    3.5457
   30.930    3.1069
   30.960    3.2122
   30.990    3.3877
   31.020    3.0367
   31.050    2.8260
   31.080    3.3526
   31.110    3.1771
   31.140    3.1596
   31.170    3.0542
   31.200    2.9489
   31.230    3.3526
   31.260    3.1596
   31.290    3.0893
   31.320    3.2473
   31.350    3.2824
   31.380    3.0893
   31.410    3.1947
   31.440    3.0016
   31.470    3.1420
   31.500    2.8436
   31.530    2.9138
   31.560    3.1420
   31.590    3.4053
   31.620    2.9489
   31.650    3.1596
   31.680    2.9489
   31.710    3.2824
   31.740    3.0718
   31.770    3.6335
   31.800    3.5282
   31.830    3.4755
   31.860    3.4229
   31.890    3.2122
   31.920    3.4755
   31.950    3.1947
   31.980    3.2298
   32.010    3.4053
   32.040    3.3702
   32.070    4.8798
   32.100    5.5117
   32.130    5.3537
   32.160    3.8090
   32.190    3.2298
   32.220    3.0542
   32.250    3.0367
   32.280    3.3526
   32.310    2.8612
   32.340    2.9489
   32.370    3.2298
   32.400    3.0191
   32.430    3.2122
   32.460    3.2649
   32.490    2.6154
   32.520    2.8260
   32.550    2.7032
   32.580    2.7909
   32.610    3.1596
   32.640    2.9489
   32.670    3.1245
   32.700    3.0367
   32.730    2.8963
   32.760    2.5979
   32.790    3.2649
   32.820    2.8787
   32.850    2.9665
   32.880    3.0542
   32.910    3.3000
   32.940    3.3000
   32.970    2.7383
   33.000    2.8787
   33.030    2.5803
   33.060    3.0191
   33.090    2.9138
   33.120    2.9138
   33.150    3.1596
   33.180    3.0191
   33.210    2.8260
   33.240    2.8963
   33.270    2.7909
   33.300    2.9489
   33.330    2.5628
   33.360    2.8085
   33.390    2.8787
   33.420    2.9314
   33.450    2.5276
   33.480    3.0718
   33.510    2.6154
   33.540    3.0367
   33.570    2.7558
   33.600    2.8963
   33.630    2.9665
   33.660    2.9840
   33.690    3.0718
   33.720    3.1245
   33.750    3.0191
   33.780    3.1420
   33.810    3.7564
   33.840    3.7564
   33.870    3.1771
   33.900    2.9138
   33.930    2.8963
   33.960    2.9665
   33.990    2.9138
   34.020    3.4404
   34.050    2.7734
   34.080    2.5628
   34.110    2.7207
   34.140    2.7207
   34.170    2.7207
   34.200    3.0893
   34.230    2.8260
   34.260    2.7909
   34.290    2.7207
   34.320    2.7383
   34.350    2.3346
   34.380    2.6856
   34.410    2.5979
   34.440    2.4750
   34.470    2.6505
   34.500    2.4399
   34.530    2.7734
   34.560    2.7383
   34.590    2.8085
   34.620    2.7558
   34.650    2.8436
   34.680    2.7032
   34.710    2.5803
   34.740    2.6154
   34.770    2.5628
   34.800    2.8085
   34.830    2.7909
   34.860    2.8260
   34.890    2.9138
   34.920    2.4750
   34.950    2.8260
   34.980    2.4574
   35.010    2.7558
   35.040    2.6330
   35.070    2.6154
   35.100    2.3521
   35.130    2.7032
   35.160    3.0893
   35.190    2.7558
   35.220    2.7558
   35.250    2.8612
   35.280    2.8612
   35.310    2.5628
   35.340    2.8260
   35.370    2.9489
   35.400    2.7207
   35.430    2.5803
   35.460    2.8260
   35.490    2.7383
   35.520    2.6154
   35.550    2.3872
   35.580    2.8085
   35.610    2.7558
   35.640    2.4925
   35.670    2.4399
   35.700    2.5452
   35.730    2.5276
   35.760    2.9665
   35.790    2.7383
   35.820    2.5803
   35.850    3.2649
   35.880    2.5979
   35.910    2.7734
   35.940    2.7558
   35.970    2.4399
   36.000    2.4574
   36.030    3.0542
   36.060    2.8436
   36.090    2.6681
   36.120    2.3521
   36.150    2.4223
   36.180    2.8963
   36.210    2.8085
   36.240    2.5628
   36.270    2.6856
   36.300    2.7734
   36.330    2.8085
   36.360    2.6505
   36.390    2.5276
   36.420    2.5803
   36.450    2.3872
   36.480    2.6154
   36.510    2.9665
   36.540    2.9489
   36.570    2.4750
   36.600    2.7207
   36.630    2.5803
   36.660    2.7383
   36.690    3.0367
   36.720    2.8787
   36.750    2.5979
   36.780    2.7207
   36.810    2.5979
   36.840    2.5803
   36.870    2.8612
   36.900    2.6154
   36.930    2.2995
   36.960    2.7558
   36.990    2.7383
   37.020    2.6681
   37.050    2.7909
   37.080    2.8787
   37.110    2.7383
   37.140    2.5452
   37.170    2.2819
   37.200    2.6856
   37.230    2.4750
   37.260    2.7032
   37.290    2.4750
   37.320    2.6154
   37.350    2.8436
   37.380    2.4750
   37.410    2.6681
   37.440    2.6505
   37.470    2.5452
   37.500    2.7734
   37.530    2.4750
   37.560    2.4223
   37.590    2.4574
   37.620    2.6330
   37.650    2.6856
   37.680    2.5979
   37.710    2.8085
   37.740    2.5803
   37.770    2.6681
   37.800    2.9665
   37.830    2.5628
   37.860    2.4925
   37.890    2.4925
   37.920    2.6856
   37.950    2.4048
   37.980    2.9314
   38.010    2.6681
   38.040    2.7383
   38.070    2.7734
   38.100    2.7032
   38.130    2.2468
   38.160    2.1590
   38.190    2.5979
   38.220    2.3697
   38.250    2.3521
   38.280    2.7909
   38.310    2.8085
   38.340    2.8963
   38.370    2.7383
   38.400    2.5452
   38.430    2.4574
   38.460    2.5101
   38.490    2.5452
   38.520    2.5276
   38.550    2.7032
   38.580    3.2473
   38.610    3.7213
   38.640    3.2473
   38.670    2.9665
   38.700    2.4750
   38.730    2.6330
   38.760    2.7909
   38.790    2.4399
   38.820    2.3170
   38.850    2.3346
   38.880    2.4399
   38.910    2.7558
   38.940    3.0367
   38.970    2.4048
   39.000    2.6154
   39.030    2.4750
   39.060    2.6154
   39.090    2.1239
   39.120    2.6856
   39.150    2.4048
   39.180    2.5979
   39.210    2.4925
   39.240    2.4574
   39.270    2.6154
   39.300    2.3521
   39.330    2.6330
   39.360    2.7383
   39.390    2.4223
   39.420    2.6681
   39.450    2.6154
   39.480    2.8436
   39.510    2.6856
   39.540    2.5628
   39.570    2.7383
   39.600    2.7032
   39.630    2.8963
   39.660    2.4750
   39.690    2.2995
   39.720    2.6154
   39.750    2.6856
   39.780    2.5803
   39.810    2.6856
   39.840    2.7383
   39.870    2.6505
   39.900    2.4925
   39.930    2.6154
   39.960    2.5979
   39.990    2.4574