File: data/MOCOF-1/PXRD/PXRD_KE-259_Co-Ka1_film-3mm_3s-deg.xyd
    1.500    3.1924
    1.530    3.1746
    1.560    3.1746
    1.590    3.5491
    1.620    3.0854
    1.650    3.1568
    1.680    2.6931
    1.710    3.0854
    1.740    2.7109
    1.770    3.2103
    1.800    2.7466
    1.830    2.6931
    1.860    2.8714
    1.890    2.4612
    1.920    2.8357
    1.950    2.6039
    1.980    2.6039
    2.010    2.7822
    2.040    2.5147
    2.070    2.4434
    2.100    2.4255
    2.130    2.1402
    2.160    2.3542
    2.190    2.4255
    2.220    2.1402
    2.250    2.2829
    2.280    2.2829
    2.310    2.3007
    2.340    2.1580
    2.370    2.0153
    2.400    1.9440
    2.430    1.9618
    2.460    1.9440
    2.490    1.9262
    2.520    2.0688
    2.550    1.9440
    2.580    1.8013
    2.610    1.9083
    2.640    1.9440
    2.670    1.8548
    2.700    2.0153
    2.730    1.9975
    2.760    1.6051
    2.790    1.9975
    2.820    1.6586
    2.850    2.0688
    2.880    1.4446
    2.910    1.5695
    2.940    2.1045
    2.970    1.8548
    3.000    1.5873
    3.030    1.5160
    3.060    1.7121
    3.090    1.9440
    3.120    1.7121
    3.150    1.7657
    3.180    1.6230
    3.210    1.6408
    3.240    1.4446
    3.270    1.5516
    3.300    1.6051
    3.330    1.4625
    3.360    1.4981
    3.390    1.4803
    3.420    1.8192
    3.450    1.6586
    3.480    1.6408
    3.510    1.6765
    3.540    1.3911
    3.570    1.6408
    3.600    1.5338
    3.630    1.5873
    3.660    1.5695
    3.690    1.4981
    3.720    1.4625
    3.750    1.3198
    3.780    1.7300
    3.810    1.4090
    3.840    1.4268
    3.870    1.4981
    3.900    1.4268
    3.930    1.4625
    3.960    1.4090
    3.990    1.6230
    4.020    1.8013
    4.050    1.4803
    4.080    1.7835
    4.110    1.6943
    4.140    1.4803
    4.170    1.7478
    4.200    1.5516
    4.230    1.5516
    4.260    1.8192
    4.290    1.8548
    4.320    2.0510
    4.350    1.9083
    4.380    1.8548
    4.410    2.2294
    4.440    2.6217
    4.470    2.9963
    4.500    3.2816
    4.530    4.3160
    4.560    4.5836
    4.590    1.8727
    4.620    1.4090
    4.650    1.6943
    4.680    1.2484
    4.710    1.5873
    4.740    1.4803
    4.770    1.4803
    4.800    1.6943
    4.830    1.5516
    4.860    1.4268
    4.890    1.5160
    4.920    1.7478
    4.950    1.6765
    4.980    1.5160
    5.010    1.4268
    5.040    1.3733
    5.070    1.3019
    5.100    1.2128
    5.130    1.2484
    5.160    1.6765
    5.190    1.4803
    5.220    1.5695
    5.250    1.3554
    5.280    1.3911
    5.310    1.4268
    5.340    1.3198
    5.370    1.5516
    5.400    1.4446
    5.430    1.5873
    5.460    1.5160
    5.490    1.5160
    5.520    1.7121
    5.550    1.3911
    5.580    1.5516
    5.610    1.5160
    5.640    1.2663
    5.670    1.3733
    5.700    1.3198
    5.730    1.4446
    5.760    1.4981
    5.790    1.6586
    5.820    1.6943
    5.850    1.7657
    5.880    1.8727
    5.910    1.4446
    5.940    1.7121
    5.970    1.9975
    6.000    1.6586
    6.030    1.6765
    6.060    1.7300
    6.090    1.8370
    6.120    1.9440
    6.150    1.7835
    6.180    1.9618
    6.210    1.9262
    6.240    1.9262
    6.270    2.0510
    6.300    2.0867
    6.330    2.1759
    6.360    2.1223
    6.390    2.4612
    6.420    2.3364
    6.450    2.6217
    6.480    2.0153
    6.510    2.1402
    6.540    2.0332
    6.570    2.1045
    6.600    1.8548
    6.630    1.7657
    6.660    1.6408
    6.690    1.6765
    6.720    1.7300
    6.750    1.9440
    6.780    1.7835
    6.810    1.8013
    6.840    1.5516
    6.870    1.5516
    6.900    1.6943
    6.930    1.6051
    6.960    1.8013
    6.990    1.6943
    7.020    1.6051
    7.050    1.3733
    7.080    1.3376
    7.110    1.3376
    7.140    1.5516
    7.170    1.4625
    7.200    1.3733
    7.230    1.1414
    7.260    1.4981
    7.290    1.6943
    7.320    1.6943
    7.350    1.4090
    7.380    1.3376
    7.410    1.5695
    7.440    1.4268
    7.470    1.2484
    7.500    1.3554
    7.530    1.3376
    7.560    1.3019
    7.590    1.1771
    7.620    1.2663
    7.650    1.4446
    7.680    1.1414
    7.710    1.2306
    7.740    1.2306
    7.770    1.1414
    7.800    1.4446
    7.830    1.2663
    7.860    1.5873
    7.890    1.0879
    7.920    1.1236
    7.950    0.8917
    7.980    1.3733
    8.010    1.1771
    8.040    1.3198
    8.070    1.1236
    8.100    1.2128
    8.130    1.0344
    8.160    1.1058
    8.190    1.1414
    8.220    1.2128
    8.250    1.1949
    8.280    1.2663
    8.310    1.1058
    8.340    1.0879
    8.370    1.1414
    8.400    1.1949
    8.430    0.9631
    8.460    1.3198
    8.490    1.1949
    8.520    0.9809
    8.550    1.0344
    8.580    1.0166
    8.610    1.2128
    8.640    0.9809
    8.670    0.9809
    8.700    0.9809
    8.730    0.9988
    8.760    0.9631
    8.790    1.0166
    8.820    1.1236
    8.850    1.0166
    8.880    1.1414
    8.910    1.2306
    8.940    0.9452
    8.970    0.9631
    9.000    0.9452
    9.030    1.0344
    9.060    1.1236
    9.090    1.1414
    9.120    1.3733
    9.150    0.9809
    9.180    0.9988
    9.210    0.9809
    9.240    1.0523
    9.270    1.0166
    9.300    0.9096
    9.330    1.0879
    9.360    0.7669
    9.390    0.9096
    9.420    0.9631
    9.450    1.0523
    9.480    0.7491
    9.510    0.6956
    9.540    0.9274
    9.570    0.8026
    9.600    0.8382
    9.630    0.8382
    9.660    0.8739
    9.690    0.9274
    9.720    0.7847
    9.750    0.7669
    9.780    0.8026
    9.810    0.8382
    9.840    0.5707
    9.870    0.9274
    9.900    0.7669
    9.930    0.8026
    9.960    0.8739
    9.990    0.8917
   10.020    0.8917
   10.050    0.7847
   10.080    1.0166
   10.110    0.8382
   10.140    0.8561
   10.170    0.9274
   10.200    0.8026
   10.230    0.6064
   10.260    0.7847
   10.290    0.6599
   10.320    0.9809
   10.350    0.8917
   10.380    0.8917
   10.410    0.9631
   10.440    0.8382
   10.470    0.7312
   10.500    0.8561
   10.530    0.5707
   10.560    0.8739
   10.590    0.8917
   10.620    0.8026
   10.650    0.6777
   10.680    0.8026
   10.710    0.8739
   10.740    0.7491
   10.770    0.7669
   10.800    0.8026
   10.830    0.8739
   10.860    0.6421
   10.890    0.8739
   10.920    0.8739
   10.950    0.9274
   10.980    1.1058
   11.010    0.9631
   11.040    0.9096
   11.070    0.9452
   11.100    0.9452
   11.130    1.1414
   11.160    1.3019
   11.190    1.0523
   11.220    0.9452
   11.250    0.8739
   11.280    0.9809
   11.310    0.8026
   11.340    0.8382
   11.370    0.8739
   11.400    0.5886
   11.430    0.8739
   11.460    0.7669
   11.490    0.7491
   11.520    0.7669
   11.550    0.7491
   11.580    0.8382
   11.610    0.7669
   11.640    0.7847
   11.670    0.6599
   11.700    0.6242
   11.730    0.8739
   11.760    0.8026
   11.790    0.8561
   11.820    0.7491
   11.850    0.8561
   11.880    0.9096
   11.910    0.8382
   11.940    0.9809
   11.970    0.5886
   12.000    0.9274
   12.030    0.7669
   12.060    0.8204
   12.090    0.9988
   12.120    0.7669
   12.150    0.7312
   12.180    0.7669
   12.210    0.7669
   12.240    1.0166
   12.270    1.0166
   12.300    0.8026
   12.330    0.7312
   12.360    0.7669
   12.390    0.7847
   12.420    0.8917
   12.450    0.8382
   12.480    0.8561
   12.510    0.7669
   12.540    0.7312
   12.570    0.7847
   12.600    0.6242
   12.630    0.8917
   12.660    1.0879
   12.690    0.7134
   12.720    0.7847
   12.750    0.9096
   12.780    0.8204
   12.810    0.7847
   12.840    0.8382
   12.870    0.9452
   12.900    0.8739
   12.930    1.0879
   12.960    1.0701
   12.990    0.9096
   13.020    0.7491
   13.050    0.8561
   13.080    0.9809
   13.110    0.9988
   13.140    0.8204
   13.170    0.7491
   13.200    0.8204
   13.230    0.8204
   13.260    0.9096
   13.290    0.7134
   13.320    0.7847
   13.350    0.8917
   13.380    0.8382
   13.410    0.9452
   13.440    0.8739
   13.470    0.8382
   13.500    0.9274
   13.530    0.8204
   13.560    0.9274
   13.590    0.9274
   13.620    0.9631
   13.650    0.7669
   13.680    0.9274
   13.710    1.0879
   13.740    0.9096
   13.770    0.8382
   13.800    0.9096
   13.830    0.7491
   13.860    0.8917
   13.890    0.7669
   13.920    0.8382
   13.950    0.8739
   13.980    1.0701
   14.010    0.7847
   14.040    0.7491
   14.070    0.8739
   14.100    0.8026
   14.130    0.8026
   14.160    0.8204
   14.190    0.7669
   14.220    0.8204
   14.250    0.9274
   14.280    0.9096
   14.310    0.9096
   14.340    0.8026
   14.370    0.8382
   14.400    0.7669
   14.430    0.8917
   14.460    0.8382
   14.490    0.7134
   14.520    0.7134
   14.550    0.8917
   14.580    0.8739
   14.610    0.8204
   14.640    0.7312
   14.670    0.8382
   14.700    0.6777
   14.730    0.7669
   14.760    0.6064
   14.790    0.8204
   14.820    0.7134
   14.850    0.7491
   14.880    0.7312
   14.910    0.8204
   14.940    0.6777
   14.970    0.7491
   15.000    0.6777
   15.030    0.7491
   15.060    0.7847
   15.090    0.9274
   15.120    0.8739
   15.150    0.8382
   15.180    0.8739
   15.210    0.9096
   15.240    0.8382
   15.270    0.8561
   15.300    0.8739
   15.330    0.8382
   15.360    0.8739
   15.390    0.7134
   15.420    0.7669
   15.450    0.6956
   15.480    0.9631
   15.510    0.6599
   15.540    0.8382
   15.570    0.8739
   15.600    0.8026
   15.630    0.8382
   15.660    0.6956
   15.690    0.6421
   15.720    0.9274
   15.750    0.6421
   15.780    0.7847
   15.810    0.9096
   15.840    0.8026
   15.870    0.7847
   15.900    0.7669
   15.930    0.8204
   15.960    0.9096
   15.990    0.9096
   16.020    1.1593
   16.050    0.6956
   16.080    0.8561
   16.110    0.7491
   16.140    0.7312
   16.170    0.7491
   16.200    0.7847
   16.230    0.6956
   16.260    0.8026
   16.290    0.6956
   16.320    0.8561
   16.350    0.7134
   16.380    0.9274
   16.410    0.7491
   16.440    0.7847
   16.470    0.8739
   16.500    0.9096
   16.530    0.8561
   16.560    0.8382
   16.590    0.8382
   16.620    0.7491
   16.650    0.8917
   16.680    0.8382
   16.710    0.9809
   16.740    0.8204
   16.770    0.9631
   16.800    0.8917
   16.830    0.7669
   16.860    0.7491
   16.890    0.9274
   16.920    0.7134
   16.950    0.8917
   16.980    0.9452
   17.010    0.9988
   17.040    0.8561
   17.070    0.9631
   17.100    0.8026
   17.130    0.9809
   17.160    0.8204
   17.190    0.5886
   17.220    0.6777
   17.250    0.9809
   17.280    0.7669
   17.310    0.8739
   17.340    0.7669
   17.370    0.9452
   17.400    0.9988
   17.430    0.8204
   17.460    0.8026
   17.490    0.7847
   17.520    0.6777
   17.550    0.7847
   17.580    0.8026
   17.610    0.6956
   17.640    1.0344
   17.670    0.8382
   17.700    0.9988
   17.730    0.7491
   17.760    0.7669
   17.790    0.7134
   17.820    0.6956
   17.850    0.7669
   17.880    0.6599
   17.910    0.7669
   17.940    0.8026
   17.970    0.8204
   18.000    0.6777
   18.030    0.6064
   18.060    0.7669
   18.090    0.6777
   18.120    0.8382
   18.150    0.8204
   18.180    0.8561
   18.210    0.6777
   18.240    0.6064
   18.270    0.6956
   18.300    0.9809
   18.330    0.7669
   18.360    0.7134
   18.390    0.7669
   18.420    0.7134
   18.450    0.8382
   18.480    0.7312
   18.510    0.6599
   18.540    0.7847
   18.570    0.8382
   18.600    0.7134
   18.630    0.5886
   18.660    0.8204
   18.690    0.8739
   18.720    0.6599
   18.750    0.7312
   18.780    1.0166
   18.810    0.7669
   18.840    0.7312
   18.870    0.6421
   18.900    0.8382
   18.930    0.7491
   18.960    0.8561
   18.990    0.7669
   19.020    0.7847
   19.050    0.7669
   19.080    0.6599
   19.110    0.9096
   19.140    0.7134
   19.170    0.7847
   19.200    0.7669
   19.230    0.9274
   19.260    0.6599
   19.290    0.8382
   19.320    0.7491
   19.350    0.8917
   19.380    0.7847
   19.410    0.8382
   19.440    0.6599
   19.470    0.6777
   19.500    0.7669
   19.530    0.5886
   19.560    0.6777
   19.590    0.7312
   19.620    0.8026
   19.650    0.8382
   19.680    0.7669
   19.710    0.7134
   19.740    0.6777
   19.770    0.6242
   19.800    0.8739
   19.830    0.6599
   19.860    0.6242
   19.890    0.7312
   19.920    0.9631
   19.950    0.7847
   19.980    0.7847
   20.010    0.7669
   20.040    0.7669
   20.070    0.8917
   20.100    0.6421
   20.130    0.6599
   20.160    0.8382
   20.190    0.7312
   20.220    0.7491
   20.250    0.6242
   20.280    0.8382
   20.310    0.6777
   20.340    0.7669
   20.370    0.8026
   20.400    0.6956
   20.430    0.7847
   20.460    0.8026
   20.490    0.7312
   20.520    0.7847
   20.550    0.8917
   20.580    0.7847
   20.610    0.8382
   20.640    0.7669
   20.670    0.6421
   20.700    0.7847
   20.730    0.6956
   20.760    0.6777
   20.790    0.7847
   20.820    0.6421
   20.850    0.8204
   20.880    0.6599
   20.910    0.8739
   20.940    0.6599
   20.970    0.6777
   21.000    0.5529
   21.030    0.5886
   21.060    0.8382
   21.090    0.8026
   21.120    0.7491
   21.150    0.8382
   21.180    0.8204
   21.210    0.6777
   21.240    0.6421
   21.270    0.7312
   21.300    0.6956
   21.330    0.7491
   21.360    0.6421
   21.390    0.7491
   21.420    0.8204
   21.450    0.7312
   21.480    0.7491
   21.510    0.8382
   21.540    0.9096
   21.570    0.7134
   21.600    0.5707
   21.630    0.7134
   21.660    0.7847
   21.690    0.7134
   21.720    0.6064
   21.750    0.6242
   21.780    0.6777
   21.810    0.7669
   21.840    0.5707
   21.870    0.6956
   21.900    0.7134
   21.930    0.5350
   21.960    0.7491
   21.990    0.8561
   22.020    0.8917
   22.050    0.7312
   22.080    0.7134
   22.110    0.6242
   22.140    0.7134
   22.170    0.7312
   22.200    0.6421
   22.230    0.7134
   22.260    0.6242
   22.290    0.6777
   22.320    0.5529
   22.350    0.8204
   22.380    0.6777
   22.410    0.6421
   22.440    0.7491
   22.470    0.6956
   22.500    0.6421
   22.530    0.7491
   22.560    0.7134
   22.590    0.6956
   22.620    0.8204
   22.650    0.7491
   22.680    0.5350
   22.710    0.5707
   22.740    0.5350
   22.770    0.6421
   22.800    0.6064
   22.830    0.7669
   22.860    0.7669
   22.890    0.6421
   22.920    0.9452
   22.950    0.5529
   22.980    0.8204
   23.010    0.7491
   23.040    0.6421
   23.070    0.6956
   23.100    0.6242
   23.130    0.6777
   23.160    0.6421
   23.190    0.5172
   23.220    0.6242
   23.250    0.6956
   23.280    0.5886
   23.310    0.5707
   23.340    0.6777
   23.370    0.7669
   23.400    0.7669
   23.430    0.7134
   23.460    0.8026
   23.490    0.6064
   23.520    0.5886
   23.550    0.7491
   23.580    0.6421
   23.610    0.7491
   23.640    0.7847
   23.670    0.8026
   23.700    0.4637
   23.730    0.9274
   23.760    0.5350
   23.790    0.6064
   23.820    0.6421
   23.850    0.6956
   23.880    0.6777
   23.910    0.6777
   23.940    0.5707
   23.970    0.5886
   24.000    0.7847
   24.030    0.5886
   24.060    0.6064
   24.090    0.8382
   24.120    0.5350
   24.150    0.7134
   24.180    0.7847
   24.210    0.5529
   24.240    0.8382
   24.270    0.6777
   24.300    0.4994
   24.330    0.6421
   24.360    0.6956
   24.390    0.6421
   24.420    0.6421
   24.450    0.6064
   24.480    0.8561
   24.510    0.6777
   24.540    0.4815
   24.570    0.5529
   24.600    0.7491
   24.630    0.8026
   24.660    0.5350
   24.690    0.4815
   24.720    0.4637
   24.750    0.7134
   24.780    0.5886
   24.810    0.4637
   24.840    0.6956
   24.870    0.4815
   24.900    0.5707
   24.930    0.6599
   24.960    0.5886
   24.990    0.6064
   25.020    0.7847
   25.050    0.4815
   25.080    0.5529
   25.110    0.4815
   25.140    0.6777
   25.170    0.6064
   25.200    0.5529
   25.230    0.4102
   25.260    0.5886
   25.290    0.8382
   25.320    0.6242
   25.350    0.7669
   25.380    0.6064
   25.410    0.6777
   25.440    0.5886
   25.470    0.5886
   25.500    0.4815
   25.530    0.5886
   25.560    0.6777
   25.590    0.6777
   25.620    0.6242
   25.650    0.6064
   25.680    0.4637
   25.710    0.6599
   25.740    0.5529
   25.770    0.5886
   25.800    0.7134
   25.830    0.5529
   25.860    0.4815
   25.890    0.6777
   25.920    0.5529
   25.950    0.5886
   25.980    0.5350
   26.010    0.4815
   26.040    0.5886
   26.070    0.6777
   26.100    0.6064
   26.130    0.5886
   26.160    0.6777
   26.190    0.5707
   26.220    0.7134
   26.250    0.6599
   26.280    0.6064
   26.310    0.5707
   26.340    0.7491
   26.370    0.5707
   26.400    0.6421
   26.430    0.5529
   26.460    0.4102
   26.490    0.5886
   26.520    0.7134
   26.550    0.6064
   26.580    0.6064
   26.610    0.5886
   26.640    0.6777
   26.670    0.6242
   26.700    0.6421
   26.730    0.5529
   26.760    0.7491
   26.790    0.6064
   26.820    0.5172
   26.850    0.4994
   26.880    0.6777
   26.910    0.6421
   26.940    0.5886
   26.970    0.7491
   27.000    0.4815
   27.030    0.3745
   27.060    0.5350
   27.090    0.5886
   27.120    0.5172
   27.150    0.6599
   27.180    0.4280
   27.210    0.5172
   27.240    0.4637
   27.270    0.5707
   27.300    0.5529
   27.330    0.5529
   27.360    0.5350
   27.390    0.4280
   27.420    0.6242
   27.450    0.4459
   27.480    0.6421
   27.510    0.4994
   27.540    0.6599
   27.570    0.6242
   27.600    0.6242
   27.630    0.6599
   27.660    0.4815
   27.690    0.4815
   27.720    0.6777
   27.750    0.5350
   27.780    0.5886
   27.810    0.3924
   27.840    0.4994
   27.870    0.5529
   27.900    0.5529
   27.930    0.5529
   27.960    0.5172
   27.990    0.5172
   28.020    0.5172
   28.050    0.3745
   28.080    0.4459
   28.110    0.7669
   28.140    0.4637
   28.170    0.4459
   28.200    0.3745
   28.230    0.5707
   28.260    0.5172
   28.290    0.4815
   28.320    0.6421
   28.350    0.5707
   28.380    0.5886
   28.410    0.7134
   28.440    0.6242
   28.470    0.6777
   28.500    0.5350
   28.530    0.5886
   28.560    0.6599
   28.590    0.4102
   28.620    0.5707
   28.650    0.4102
   28.680    0.6242
   28.710    0.5707
   28.740    0.4280
   28.770    0.3567
   28.800    0.4637
   28.830    0.5529
   28.860    0.4815
   28.890    0.4280
   28.920    0.4994
   28.950    0.6242
   28.980    0.6421
   29.010    0.4280
   29.040    0.4815
   29.070    0.5529
   29.100    0.5529
   29.130    0.4815
   29.160    0.4459
   29.190    0.4815
   29.220    0.5529
   29.250    0.7312
   29.280    0.3567
   29.310    0.4815
   29.340    0.4637
   29.370    0.5350
   29.400    0.4459
   29.430    0.4637
   29.460    0.4994
   29.490    0.5172
   29.520    0.4102
   29.550    0.4994
   29.580    0.5350
   29.610    0.5707
   29.640    0.5350
   29.670    0.4994
   29.700    0.5172
   29.730    0.4637
   29.760    0.4459
   29.790    0.3745
   29.820    0.6064
   29.850    0.4994
   29.880    0.4637
   29.910    0.5529
   29.940    0.4102
   29.970    0.5529
   30.000    0.5707
   30.030    0.5886
   30.060    0.5350
   30.090    0.4994
   30.120    0.4994
   30.150    0.5350
   30.180    0.6064
   30.210    0.5172
   30.240    0.4815
   30.270    0.4280
   30.300    0.5529
   30.330    0.4815
   30.360    0.4102
   30.390    0.4637
   30.420    0.4815
   30.450    0.4280
   30.480    0.5707
   30.510    0.5172
   30.540    0.5350
   30.570    0.4102
   30.600    0.5172
   30.630    0.4102
   30.660    0.4459
   30.690    0.3924
   30.720    0.4459
   30.750    0.4459
   30.780    0.3389
   30.810    0.6421
   30.840    0.3567
   30.870    0.4815
   30.900    0.4994
   30.930    0.5172
   30.960    0.4459
   30.990    0.3745
   31.020    0.6421
   31.050    0.5707
   31.080    0.3745
   31.110    0.4637
   31.140    0.4994
   31.170    0.5350
   31.200    0.4102
   31.230    0.5886
   31.260    0.3924
   31.290    0.4102
   31.320    0.4637
   31.350    0.3210
   31.380    0.5886
   31.410    0.4280
   31.440    0.4637
   31.470    0.4459
   31.500    0.6599
   31.530    0.3567
   31.560    0.4637
   31.590    0.4102
   31.620    0.4102
   31.650    0.5886
   31.680    0.4994
   31.710    0.4102
   31.740    0.3924
   31.770    0.4102
   31.800    0.4994
   31.830    0.4280
   31.860    0.4280
   31.890    0.3924
   31.920    0.5707
   31.950    0.2854
   31.980    0.4994
   32.010    0.3389
   32.040    0.5529
   32.070    0.5529
   32.100    0.2854
   32.130    0.2497
   32.160    0.4459
   32.190    0.4459
   32.220    0.5707
   32.250    0.3924
   32.280    0.3567
   32.310    0.4280
   32.340    0.4994
   32.370    0.4102
   32.400    0.4637
   32.430    0.4994
   32.460    0.4102
   32.490    0.4459
   32.520    0.3924
   32.550    0.3389
   32.580    0.3210
   32.610    0.3210
   32.640    0.4459
   32.670    0.5529
   32.700    0.4637
   32.730    0.3389
   32.760    0.3032
   32.790    0.4459
   32.820    0.3567
   32.850    0.4102
   32.880    0.4280
   32.910    0.4637
   32.940    0.4102
   32.970    0.4994
   33.000    0.5529
   33.030    0.3924
   33.060    0.4459
   33.090    0.3924
   33.120    0.3745
   33.150    0.3567
   33.180    0.3745
   33.210    0.2497
   33.240    0.4637
   33.270    0.3210
   33.300    0.4459
   33.330    0.3032
   33.360    0.5529
   33.390    0.4815
   33.420    0.3210
   33.450    0.4102
   33.480    0.4994
   33.510    0.3924
   33.540    0.4459
   33.570    0.4459
   33.600    0.4637
   33.630    0.4994
   33.660    0.3924
   33.690    0.5172
   33.720    0.3389
   33.750    0.4815
   33.780    0.1962
   33.810    0.5172
   33.840    0.4459
   33.870    0.3745
   33.900    0.4994
   33.930    0.4637
   33.960    0.3745
   33.990    0.3745
   34.020    0.4102
   34.050    0.4280
   34.080    0.3745
   34.110    0.4637
   34.140    0.3924
   34.170    0.3389
   34.200    0.3389
   34.230    0.2675
   34.260    0.4280
   34.290    0.3745
   34.320    0.4102
   34.350    0.4102
   34.380    0.4459
   34.410    0.3389
   34.440    0.3389
   34.470    0.3032
   34.500    0.4102
   34.530    0.3567
   34.560    0.4102
   34.590    0.3745
   34.620    0.3210
   34.650    0.4459
   34.680    0.3567
   34.710    0.3032
   34.740    0.2854
   34.770    0.2319
   34.800    0.2319
   34.830    0.3032
   34.860    0.3567
   34.890    0.2854
   34.920    0.2140
   34.950    0.3924
   34.980    0.4280
   35.010    0.5350
   35.040    0.2854
   35.070    0.3567
   35.100    0.1427
   35.130    0.3389
   35.160    0.4280
   35.190    0.4280
   35.220    0.3924
   35.250    0.3389
   35.280    0.3032
   35.310    0.2675
   35.340    0.4637
   35.370    0.2675
   35.400    0.3032
   35.430    0.3567
   35.460    0.2140
   35.490    0.2854
   35.520    0.3210
   35.550    0.2675
   35.580    0.4102
   35.610    0.2854
   35.640    0.2854
   35.670    0.2675
   35.700    0.2854
   35.730    0.3924
   35.760    0.2675
   35.790    0.3567
   35.820    0.2675
   35.850    0.3924
   35.880    0.3032
   35.910    0.3924
   35.940    0.3924
   35.970    0.3210
   36.000    0.3032
   36.030    0.2497
   36.060    0.3210
   36.090    0.2854
   36.120    0.3745
   36.150    0.4280
   36.180    0.2854
   36.210    0.4637
   36.240    0.4102
   36.270    0.3032
   36.300    0.3210
   36.330    0.2854
   36.360    0.2675
   36.390    0.2675
   36.420    0.2319
   36.450    0.2497
   36.480    0.1962
   36.510    0.3032
   36.540    0.4102
   36.570    0.2319
   36.600    0.3210
   36.630    0.3032
   36.660    0.2140
   36.690    0.2854
   36.720    0.2854
   36.750    0.2854
   36.780    0.3745
   36.810    0.2854
   36.840    0.3210
   36.870    0.2497
   36.900    0.3389
   36.930    0.1962
   36.960    0.2854
   36.990    0.3389
   37.020    0.3389
   37.050    0.3924
   37.080    0.2854
   37.110    0.3210
   37.140    0.4102
   37.170    0.3032
   37.200    0.3032
   37.230    0.2675
   37.260    0.4102
   37.290    0.1605
   37.320    0.2497
   37.350    0.2319
   37.380    0.3210
   37.410    0.2675
   37.440    0.2319
   37.470    0.3210
   37.500    0.3032
   37.530    0.3032
   37.560    0.2854
   37.590    0.3032
   37.620    0.2675
   37.650    0.2140
   37.680    0.1605
   37.710    0.1783
   37.740    0.3567
   37.770    0.2319
   37.800    0.2140
   37.830    0.3924
   37.860    0.2140
   37.890    0.3032
   37.920    0.3210
   37.950    0.2140
   37.980    0.2675
   38.010    0.3032
   38.040    0.2675
   38.070    0.3389
   38.100    0.2854
   38.130    0.2675
   38.160    0.2675
   38.190    0.3567
   38.220    0.2319
   38.250    0.3745
   38.280    0.1962
   38.310    0.2497
   38.340    0.2497
   38.370    0.2140
   38.400    0.2854
   38.430    0.2319
   38.460    0.2675
   38.490    0.2675
   38.520    0.2675
   38.550    0.3924
   38.580    0.3032
   38.610    0.2854
   38.640    0.3389
   38.670    0.2497
   38.700    0.1248
   38.730    0.1783
   38.760    0.3567
   38.790    0.1605
   38.820    0.1783
   38.850    0.2319
   38.880    0.3032
   38.910    0.1605
   38.940    0.2140
   38.970    0.2497
   39.000    0.2497
   39.030    0.3389
   39.060    0.2319
   39.090    0.3210
   39.120    0.3032
   39.150    0.2319
   39.180    0.3210
   39.210    0.2854
   39.240    0.3567
   39.270    0.2854
   39.300    0.2497
   39.330    0.1962
   39.360    0.2497
   39.390    0.1962
   39.420    0.2140
   39.450    0.2854
   39.480    0.2140
   39.510    0.2319
   39.540    0.2854
   39.570    0.2675
   39.600    0.2140
   39.630    0.2854
   39.660    0.2854
   39.690    0.1248
   39.720    0.2497
   39.750    0.2675
   39.780    0.2675
   39.810    0.1783
   39.840    0.1605
   39.870    0.2854
   39.900    0.2675
   39.930    0.3924
   39.960    0.3210
   39.990    0.1783