File: data/MOCOF-1/PXRD/PXRD_KE-112_Cu-Ka1_capillary-1mm_5s-deg.xyd
    1.500   16.3454
    1.530   16.4824
    1.560   16.1348
    1.590   15.8820
    1.620   14.9342
    1.650   15.4713
    1.680   15.0606
    1.710   14.7551
    1.740   14.6814
    1.770   14.8078
    1.800   15.2080
    1.830   13.7862
    1.860   14.0284
    1.890   13.6809
    1.920   13.5650
    1.950   13.0384
    1.980   13.0595
    2.010   12.6804
    2.040   12.4908
    2.070   12.7330
    2.100   12.3223
    2.130   12.4381
    2.160   12.5118
    2.190   12.0590
    2.220   12.0274
    2.250   12.3855
    2.280   11.3217
    2.310   11.6693
    2.340   11.6482
    2.370   10.9953
    2.400   11.1743
    2.430   11.2691
    2.460   11.2270
    2.490   10.8689
    2.520   10.7636
    2.550   11.2270
    2.580   11.3007
    2.610   10.8478
    2.640   10.5635
    2.670   10.8162
    2.700   10.5424
    2.730   10.8794
    2.760   10.2475
    2.790   10.2580
    2.820   10.8689
    2.850   10.4055
    2.880   10.4476
    2.910   10.1106
    2.940    9.9210
    2.970   10.3739
    3.000    9.7630
    3.030    9.9421
    3.060   10.0790
    3.090    9.8473
    3.120   10.4160
    3.150   10.3844
    3.180    9.9947
    3.210   10.6477
    3.240   10.7425
    3.270   10.5213
    3.300   10.3844
    3.330   10.9953
    3.360   10.8057
    3.390   11.3428
    3.420   11.5745
    3.450   11.7852
    3.480   11.4271
    3.510   11.1216
    3.540   10.3212
    3.570    9.5840
    3.600    9.8473
    3.630    9.8789
    3.660    9.2996
    3.690    9.6261
    3.720    9.0047
    3.750    8.9100
    3.780    9.0363
    3.810    9.1943
    3.840    9.0363
    3.870    8.9626
    3.900    8.8362
    3.930    9.1522
    3.960    8.6256
    3.990    9.2680
    4.020    8.7520
    4.050    9.0785
    4.080    8.7520
    4.110    8.9731
    4.140    8.3728
    4.170    8.8362
    4.200    8.4360
    4.230    7.7093
    4.260    8.0147
    4.290    7.6777
    4.320    7.3618
    4.350    7.7409
    4.380    7.2775
    4.410    7.2670
    4.440    7.2986
    4.470    7.3512
    4.500    7.4776
    4.530    7.5408
    4.560    7.3196
    4.590    7.2354
    4.620    7.0248
    4.650    6.8352
    4.680    7.2459
    4.710    6.9616
    4.740    7.2354
    4.770    7.0879
    4.800    6.9616
    4.830    7.5408
    4.860    6.8246
    4.890    6.6140
    4.920    7.0142
    4.950    7.2459
    4.980    6.5824
    5.010    6.5192
    5.040    7.3302
    5.070    6.5613
    5.100    6.6561
    5.130    7.0248
    5.160    6.4666
    5.190    6.3823
    5.220    6.4350
    5.250    6.3086
    5.280    6.6983
    5.310    6.5298
    5.340    6.0664
    5.370    6.9194
    5.400    6.4034
    5.430    6.3718
    5.460    6.1085
    5.490    6.2454
    5.520    6.4139
    5.550    6.3612
    5.580    6.3718
    5.610    6.3823
    5.640    6.5192
    5.670    6.1717
    5.700    6.3191
    5.730    6.1190
    5.760    5.8768
    5.790    6.2349
    5.820    6.2770
    5.850    6.3612
    5.880    6.4982
    5.910    6.2559
    5.940    6.1822
    5.970    6.2875
    6.000    5.8873
    6.030    6.5508
    6.060    6.5719
    6.090    5.7715
    6.120    6.7404
    6.150    6.4982
    6.180    6.3191
    6.210    6.1717
    6.240    6.0137
    6.270    6.3507
    6.300    6.0664
    6.330    6.4034
    6.360    5.8662
    6.390    6.2349
    6.420    6.0664
    6.450    6.0242
    6.480    6.4560
    6.510    6.2138
    6.540    6.4771
    6.570    6.1190
    6.600    6.4982
    6.630    6.2033
    6.660    6.1717
    6.690    6.4139
    6.720    6.3928
    6.750    6.2243
    6.780    6.4560
    6.810    6.5298
    6.840    6.5719
    6.870    6.6456
    6.900    6.6140
    6.930    6.5298
    6.960    6.4455
    6.990    6.4244
    7.020    6.0979
    7.050    6.6351
    7.080    6.3402
    7.110    6.4666
    7.140    6.2770
    7.170    6.2875
    7.200    6.3296
    7.230    6.3612
    7.260    6.7088
    7.290    6.4244
    7.320    6.3928
    7.350    6.3296
    7.380    6.5719
    7.410    6.2875
    7.440    6.5824
    7.470    6.3718
    7.500    6.3507
    7.530    6.4666
    7.560    6.2454
    7.590    6.7509
    7.620    6.6561
    7.650    6.4139
    7.680    6.8246
    7.710    6.6772
    7.740    6.6561
    7.770    6.7088
    7.800    6.0664
    7.830    6.6456
    7.860    6.6035
    7.890    6.7720
    7.920    6.5087
    7.950    6.6983
    7.980    6.5192
    8.010    6.7299
    8.040    6.5824
    8.070    6.6245
    8.100    6.6667
    8.130    6.3612
    8.160    6.8562
    8.190    6.2875
    8.220    6.4771
    8.250    6.8984
    8.280    6.5613
    8.310    6.6245
    8.340    6.3612
    8.370    6.8036
    8.400    6.4876
    8.430    7.0248
    8.460    6.7193
    8.490    6.5192
    8.520    6.8457
    8.550    6.6667
    8.580    6.5824
    8.610    6.5613
    8.640    6.6351
    8.670    6.2981
    8.700    6.3823
    8.730    6.7825
    8.760    6.7193
    8.790    6.7193
    8.820    6.5719
    8.850    6.4876
    8.880    6.9510
    8.910    6.7509
    8.940    6.6561
    8.970    6.6351
    9.000    6.4034
    9.030    6.4771
    9.060    6.3191
    9.090    6.7615
    9.120    6.2770
    9.150    6.7088
    9.180    6.6772
    9.210    6.5087
    9.240    6.5824
    9.270    6.7404
    9.300    6.4244
    9.330    6.5719
    9.360    6.5613
    9.390    6.4560
    9.420    6.7404
    9.450    6.2454
    9.480    6.3928
    9.510    6.3507
    9.540    6.4771
    9.570    6.0453
    9.600    6.1717
    9.630    6.8984
    9.660    6.4244
    9.690    6.3191
    9.720    6.8878
    9.750    6.0558
    9.780    6.3928
    9.810    6.2981
    9.840    6.4560
    9.870    6.3191
    9.900    6.6140
    9.930    6.0453
    9.960    5.8873
    9.990    6.7299
   10.020    6.1401
   10.050    6.3086
   10.080    6.3296
   10.110    6.2138
   10.140    6.6456
   10.170    6.4244
   10.200    6.4139
   10.230    6.1401
   10.260    6.3718
   10.290    5.9821
   10.320    6.0874
   10.350    6.4982
   10.380    6.2981
   10.410    6.2243
   10.440    6.5087
   10.470    6.1506
   10.500    6.5929
   10.530    6.4771
   10.560    6.1506
   10.590    6.5403
   10.620    6.2243
   10.650    6.0032
   10.680    6.3718
   10.710    6.5192
   10.740    6.2875
   10.770    6.6561
   10.800    6.4666
   10.830    6.0242
   10.860    6.1506
   10.890    6.0242
   10.920    6.0242
   10.950    5.9926
   10.980    6.0664
   11.010    6.1295
   11.040    6.2770
   11.070    5.8873
   11.100    6.1085
   11.130    6.1822
   11.160    6.3928
   11.190    6.0032
   11.220    6.2349
   11.250    6.0137
   11.280    5.7083
   11.310    6.3507
   11.340    6.2665
   11.370    6.0242
   11.400    6.0137
   11.430    6.1295
   11.460    6.0874
   11.490    5.8241
   11.520    6.2243
   11.550    5.8241
   11.580    5.6345
   11.610    6.1611
   11.640    5.7293
   11.670    5.6556
   11.700    6.3086
   11.730    6.0032
   11.760    5.9294
   11.790    6.0137
   11.820    5.9716
   11.850    5.6451
   11.880    5.5819
   11.910    5.5082
   11.940    6.1506
   11.970    6.2138
   12.000    5.9505
   12.030    5.4555
   12.060    5.8662
   12.090    5.9084
   12.120    5.3712
   12.150    5.6556
   12.180    5.8241
   12.210    6.0032
   12.240    5.4766
   12.270    5.7504
   12.300    5.6451
   12.330    5.7715
   12.360    5.4344
   12.390    5.6872
   12.420    5.6767
   12.450    5.7820
   12.480    5.6451
   12.510    5.6767
   12.540    5.8768
   12.570    5.8978
   12.600    5.9400
   12.630    5.3186
   12.660    5.5187
   12.690    5.2975
   12.720    5.7504
   12.750    5.9400
   12.780    5.7399
   12.810    5.6977
   12.840    5.6767
   12.870    5.8136
   12.900    5.4344
   12.930    5.8662
   12.960    5.7925
   12.990    5.9505
   13.020    5.7504
   13.050    5.7925
   13.080    5.7715
   13.110    5.6661
   13.140    5.5082
   13.170    5.5608
   13.200    5.3502
   13.230    5.3712
   13.260    5.6661
   13.290    5.4555
   13.320    5.6135
   13.350    5.6345
   13.380    5.6345
   13.410    5.4555
   13.440    5.5187
   13.470    5.7925
   13.500    5.8241
   13.530    5.6767
   13.560    5.6872
   13.590    5.6977
   13.620    5.7083
   13.650    5.8347
   13.680    5.2975
   13.710    5.8031
   13.740    5.8452
   13.770    5.6451
   13.800    6.0032
   13.830    5.6556
   13.860    5.5819
   13.890    5.8031
   13.920    5.8978
   13.950    5.8136
   13.980    5.8031
   14.010    5.6767
   14.040    5.3397
   14.070    5.9400
   14.100    5.2765
   14.130    5.4976
   14.160    5.7083
   14.190    5.6135
   14.220    5.5819
   14.250    6.1295
   14.280    5.8031
   14.310    5.4660
   14.340    5.3607
   14.370    5.7820
   14.400    5.3186
   14.430    5.4660
   14.460    5.7609
   14.490    5.5714
   14.520    4.9500
   14.550    5.7188
   14.580    5.6029
   14.610    5.7609
   14.640    5.5924
   14.670    5.6661
   14.700    5.5819
   14.730    5.7293
   14.760    5.5292
   14.790    5.5714
   14.820    5.6240
   14.850    5.9084
   14.880    5.5924
   14.910    5.8978
   14.940    6.0558
   14.970    5.6661
   15.000    5.6556
   15.030    5.6135
   15.060    5.6977
   15.090    5.5608
   15.120    5.8978
   15.150    5.3502
   15.180    5.7820
   15.210    5.6556
   15.240    5.7715
   15.270    5.7083
   15.300    5.2449
   15.330    5.9610
   15.360    5.6029
   15.390    5.2554
   15.420    5.6977
   15.450    5.6556
   15.480    5.5292
   15.510    5.7504
   15.540    5.5187
   15.570    5.4555
   15.600    5.7083
   15.630    5.5819
   15.660    5.4871
   15.690    5.4766
   15.720    5.5714
   15.750    5.3923
   15.780    5.6661
   15.810    5.5082
   15.840    5.6345
   15.870    5.5608
   15.900    5.6135
   15.930    5.8347
   15.960    5.7609
   15.990    5.8241
   16.020    5.5187
   16.050    5.4976
   16.080    5.8768
   16.110    5.9294
   16.140    5.4344
   16.170    5.5187
   16.200    5.6872
   16.230    5.5187
   16.260    5.6029
   16.290    5.6345
   16.320    5.9189
   16.350    5.8873
   16.380    5.7504
   16.410    5.6661
   16.440    6.0137
   16.470    5.8347
   16.500    5.6977
   16.530    5.9294
   16.560    5.5714
   16.590    5.4028
   16.620    5.5714
   16.650    5.6661
   16.680    5.5924
   16.710    5.6029
   16.740    5.8241
   16.770    5.9716
   16.800    5.6451
   16.830    5.3291
   16.860    5.9400
   16.890    5.6029
   16.920    5.8241
   16.950    5.5503
   16.980    6.0032
   17.010    5.7820
   17.040    5.4239
   17.070    5.4028
   17.100    5.9294
   17.130    5.7925
   17.160    5.6977
   17.190    5.6556
   17.220    5.5292
   17.250    6.0242
   17.280    5.7399
   17.310    5.4344
   17.340    5.9505
   17.370    5.4976
   17.400    5.2027
   17.430    5.8662
   17.460    5.7293
   17.490    5.7925
   17.520    5.6240
   17.550    5.5924
   17.580    5.5924
   17.610    5.4976
   17.640    5.7715
   17.670    5.7188
   17.700    5.5608
   17.730    5.8662
   17.760    5.5819
   17.790    5.4976
   17.820    5.7188
   17.850    6.0242
   17.880    5.4871
   17.910    5.6240
   17.940    5.6767
   17.970    5.3397
   18.000    5.7820
   18.030    5.5187
   18.060    5.7399
   18.090    5.8241
   18.120    5.8662
   18.150    5.6872
   18.180    5.6767
   18.210    5.8662
   18.240    5.7715
   18.270    5.7083
   18.300    6.0348
   18.330    5.6240
   18.360    5.6661
   18.390    5.6872
   18.420    5.9505
   18.450    5.8978
   18.480    5.5187
   18.510    5.5819
   18.540    5.6872
   18.570    6.0032
   18.600    5.7188
   18.630    6.0979
   18.660    5.4766
   18.690    6.0242
   18.720    5.5608
   18.750    6.2981
   18.780    5.9400
   18.810    5.6977
   18.840    5.7820
   18.870    6.1717
   18.900    5.5819
   18.930    5.4134
   18.960    5.6977
   18.990    5.7820
   19.020    5.8873
   19.050    5.6872
   19.080    5.6977
   19.110    5.8978
   19.140    5.7820
   19.170    5.6135
   19.200    5.6977
   19.230    5.7609
   19.260    6.0242
   19.290    5.7609
   19.320    6.1822
   19.350    5.9294
   19.380    5.7399
   19.410    5.6767
   19.440    5.7188
   19.470    5.9189
   19.500    6.0348
   19.530    6.0769
   19.560    5.8768
   19.590    5.5924
   19.620    5.9716
   19.650    5.9821
   19.680    6.1506
   19.710    5.9084
   19.740    5.5714
   19.770    5.9084
   19.800    6.3718
   19.830    5.6451
   19.860    6.1190
   19.890    5.9084
   19.920    5.8241
   19.950    5.9926
   19.980    5.7925
   20.010    5.3818
   20.040    5.9821
   20.070    5.7399
   20.100    6.2138
   20.130    5.7925
   20.160    5.8136
   20.190    5.7820
   20.220    5.8031
   20.250    5.6240
   20.280    5.7715
   20.310    6.0242
   20.340    5.9926
   20.370    5.2975
   20.400    5.8136
   20.430    5.8136
   20.460    5.9505
   20.490    5.7925
   20.520    5.9716
   20.550    5.8768
   20.580    5.8768
   20.610    5.7925
   20.640    5.6451
   20.670    5.8662
   20.700    6.3086
   20.730    5.8978
   20.760    5.7083
   20.790    5.8347
   20.820    5.9294
   20.850    5.7188
   20.880    6.0032
   20.910    6.0664
   20.940    5.9610
   20.970    5.9716
   21.000    5.6029
   21.030    6.0769
   21.060    5.8978
   21.090    5.8031
   21.120    6.0874
   21.150    5.7504
   21.180    5.7715
   21.210    5.8031
   21.240    5.9294
   21.270    5.8978
   21.300    5.7293
   21.330    6.0979
   21.360    6.2349
   21.390    5.6451
   21.420    5.5819
   21.450    5.7293
   21.480    5.9400
   21.510    5.8136
   21.540    5.9610
   21.570    5.5398
   21.600    5.8768
   21.630    5.8978
   21.660    6.0348
   21.690    5.8452
   21.720    6.1085
   21.750    5.8136
   21.780    5.7925
   21.810    5.9084
   21.840    5.8768
   21.870    5.8136
   21.900    5.8241
   21.930    5.6767
   21.960    6.0979
   21.990    5.9084
   22.020    6.0242
   22.050    5.8031
   22.080    5.9189
   22.110    6.0769
   22.140    6.0769
   22.170    5.6977
   22.200    5.8031
   22.230    5.8873
   22.260    5.6345
   22.290    6.1190
   22.320    6.2243
   22.350    5.7293
   22.380    5.6029
   22.410    5.9189
   22.440    6.0137
   22.470    5.6977
   22.500    5.8347
   22.530    5.6977
   22.560    5.8978
   22.590    5.8031
   22.620    6.1822
   22.650    5.9294
   22.680    6.0979
   22.710    5.5608
   22.740    5.9610
   22.770    5.8662
   22.800    5.9926
   22.830    5.6872
   22.860    6.1401
   22.890    5.6345
   22.920    5.8873
   22.950    5.8031
   22.980    6.0558
   23.010    5.8978
   23.040    5.8978
   23.070    5.4555
   23.100    5.9294
   23.130    5.6451
   23.160    5.7715
   23.190    5.4976
   23.220    5.7188
   23.250    5.7188
   23.280    5.7399
   23.310    6.1717
   23.340    6.1717
   23.370    5.6977
   23.400    5.6872
   23.430    5.6345
   23.460    5.6240
   23.490    5.7925
   23.520    5.6872
   23.550    5.7820
   23.580    6.0979
   23.610    5.5187
   23.640    5.6240
   23.670    5.8768
   23.700    5.9610
   23.730    6.1190
   23.760    5.5398
   23.790    5.6977
   23.820    5.5924
   23.850    5.7715
   23.880    5.4450
   23.910    5.9189
   23.940    5.5819
   23.970    5.6661
   24.000    5.9505
   24.030    5.4239
   24.060    5.6977
   24.090    5.7504
   24.120    5.6029
   24.150    5.8136
   24.180    5.6345
   24.210    5.8662
   24.240    5.8873
   24.270    5.7188
   24.300    5.8557
   24.330    5.8873
   24.360    5.5398
   24.390    5.3923
   24.420    5.6345
   24.450    5.3923
   24.480    5.5819
   24.510    5.8978
   24.540    5.7820
   24.570    5.6135
   24.600    5.6345
   24.630    5.3291
   24.660    5.6661
   24.690    5.5292
   24.720    5.8136
   24.750    5.4871
   24.780    5.3923
   24.810    5.8347
   24.840    5.7293
   24.870    5.5714
   24.900    5.5608
   24.930    5.1290
   24.960    5.3607
   24.990    5.5819
   25.020    5.2133
   25.050    5.3923
   25.080    5.3818
   25.110    5.3712
   25.140    5.6135
   25.170    5.4976
   25.200    5.7715
   25.230    5.2554
   25.260    5.6135
   25.290    5.8662
   25.320    5.5714
   25.350    5.6767
   25.380    5.5398
   25.410    5.3397
   25.440    5.5187
   25.470    5.4766
   25.500    5.3186
   25.530    5.5924
   25.560    5.7399
   25.590    5.5924
   25.620    5.7083
   25.650    5.5503
   25.680    5.2765
   25.710    5.3818
   25.740    5.0448
   25.770    5.4766
   25.800    5.5714
   25.830    5.5187
   25.860    5.6661
   25.890    5.4134
   25.920    5.6345
   25.950    5.7083
   25.980    5.3712
   26.010    5.3923
   26.040    5.4766
   26.070    5.1922
   26.100    4.8868
   26.130    5.1922
   26.160    5.1922
   26.190    5.0132
   26.220    5.1922
   26.250    5.1711
   26.280    5.8347
   26.310    5.2554
   26.340    5.2343
   26.370    5.5398
   26.400    5.1817
   26.430    5.2975
   26.460    5.2238
   26.490    5.1711
   26.520    5.0026
   26.550    5.2449
   26.580    5.3607
   26.610    5.4344
   26.640    5.1395
   26.670    5.5082
   26.700    5.4450
   26.730    5.3186
   26.760    5.4555
   26.790    5.2238
   26.820    5.2659
   26.850    5.4239
   26.880    5.1922
   26.910    5.1606
   26.940    5.0764
   26.970    5.2343
   27.000    4.8763
   27.030    5.0342
   27.060    5.2238
   27.090    5.3502
   27.120    5.3923
   27.150    5.1606
   27.180    5.0869
   27.210    5.3081
   27.240    5.2449
   27.270    5.2449
   27.300    5.0132
   27.330    5.3397
   27.360    5.5398
   27.390    5.3081
   27.420    5.1185
   27.450    4.9289
   27.480    5.1185
   27.510    5.3081
   27.540    5.0553
   27.570    5.2238
   27.600    5.0764
   27.630    4.8025
   27.660    5.2975
   27.690    5.2133
   27.720    5.0764
   27.750    4.9394
   27.780    4.9710
   27.810    5.3081
   27.840    4.9816
   27.870    4.9394
   27.900    4.9710
   27.930    5.3186
   27.960    4.9816
   27.990    5.0658
   28.020    5.3081
   28.050    4.9816
   28.080    4.6761
   28.110    5.1711
   28.140    4.9394
   28.170    5.1185
   28.200    4.8025
   28.230    5.1080
   28.260    5.2027
   28.290    4.6235
   28.320    4.9816
   28.350    5.0342
   28.380    4.8025
   28.410    5.2238
   28.440    5.2870
   28.470    4.9921
   28.500    5.0553
   28.530    5.2027
   28.560    5.1080
   28.590    4.9921
   28.620    5.1501
   28.650    5.0026
   28.680    5.0132
   28.710    5.1185
   28.740    4.8868
   28.770    4.7815
   28.800    4.8763
   28.830    4.6235
   28.860    4.8868
   28.890    5.0764
   28.920    5.1922
   28.950    4.9500
   28.980    5.1922
   29.010    4.8868
   29.040    5.0764
   29.070    4.7288
   29.100    4.9078
   29.130    4.7393
   29.160    4.9500
   29.190    5.0342
   29.220    4.7815
   29.250    4.6340
   29.280    4.6130
   29.310    4.8025
   29.340    5.0869
   29.370    4.6551
   29.400    5.2027
   29.430    5.0553
   29.460    4.9289
   29.490    4.8025
   29.520    5.2343
   29.550    4.9394
   29.580    4.8763
   29.610    4.9289
   29.640    4.9078
   29.670    5.1185
   29.700    4.6972
   29.730    5.2449
   29.760    4.7604
   29.790    4.8868
   29.820    4.4760
   29.850    4.7393
   29.880    4.5392
   29.910    4.3813
   29.940    5.0869
   29.970    4.6972
   30.000    4.7393
   30.030    4.9078
   30.060    4.9184
   30.090    5.0237
   30.120    4.7604
   30.150    4.8657
   30.180    4.4971
   30.210    4.6445
   30.240    4.5498
   30.270    4.7288
   30.300    4.7499
   30.330    4.8131
   30.360    4.6972
   30.390    4.9289
   30.420    4.7393
   30.450    4.9184
   30.480    5.3081
   30.510    4.8131
   30.540    4.7183
   30.570    4.6867
   30.600    4.9816
   30.630    4.7393
   30.660    4.5182
   30.690    4.4444
   30.720    4.4971
   30.750    5.0342
   30.780    4.2549
   30.810    4.8341
   30.840    4.5287
   30.870    4.4760
   30.900    4.7709
   30.930    4.5708
   30.960    4.5392
   30.990    4.7604
   31.020    4.3181
   31.050    4.4128
   31.080    4.7499
   31.110    4.7709
   31.140    4.5182
   31.170    4.5603
   31.200    4.7077
   31.230    4.7288
   31.260    4.6972
   31.290    4.6340
   31.320    4.6445
   31.350    4.5919
   31.380    4.7604
   31.410    4.5708
   31.440    4.5287
   31.470    4.5603
   31.500    4.4339
   31.530    4.6445
   31.560    4.4339
   31.590    4.7709
   31.620    4.5708
   31.650    4.8447
   31.680    4.4655
   31.710    4.9289
   31.740    4.2443
   31.770    4.6656
   31.800    4.5392
   31.830    4.3181
   31.860    4.3918
   31.890    4.8657
   31.920    4.4234
   31.950    4.8131
   31.980    4.7393
   32.010    4.4550
   32.040    4.5919
   32.070    4.2759
   32.100    4.6551
   32.130    4.3497
   32.160    4.4444
   32.190    4.3075
   32.220    4.1706
   32.250    4.2022
   32.280    4.3181
   32.310    4.3813
   32.340    4.2865
   32.370    4.4760
   32.400    4.8447
   32.430    4.4866
   32.460    4.4760
   32.490    4.5708
   32.520    4.5814
   32.550    4.7183
   32.580    4.2233
   32.610    4.7288
   32.640    4.5076
   32.670    4.0442
   32.700    4.6024
   32.730    4.5708
   32.760    4.2022
   32.790    4.2970
   32.820    4.6445
   32.850    4.7183
   32.880    4.4234
   32.910    4.6340
   32.940    4.2233
   32.970    4.4550
   33.000    4.0864
   33.030    4.3075
   33.060    4.5814
   33.090    4.2970
   33.120    3.9810
   33.150    4.5076
   33.180    4.3181
   33.210    4.0232
   33.240    4.2865
   33.270    4.1180
   33.300    4.1390
   33.330    4.6024
   33.360    4.6024
   33.390    4.4971
   33.420    3.9600
   33.450    4.3602
   33.480    4.3602
   33.510    4.1390
   33.540    4.0653
   33.570    4.2654
   33.600    4.1285
   33.630    4.3286
   33.660    4.6656
   33.690    4.1285
   33.720    3.8547
   33.750    4.3813
   33.780    3.8336
   33.810    4.2338
   33.840    4.2338
   33.870    4.0653
   33.900    3.9073
   33.930    4.6551
   33.960    3.8547
   33.990    4.0969
   34.020    4.3286
   34.050    4.0126
   34.080    4.2865
   34.110    3.9916
   34.140    4.2022
   34.170    4.3707
   34.200    4.2970
   34.230    4.0653
   34.260    4.4128
   34.290    4.1390
   34.320    4.0021
   34.350    4.6340
   34.380    4.2865
   34.410    4.3181
   34.440    4.0969
   34.470    4.1390
   34.500    4.2654
   34.530    4.1180
   34.560    3.8757
   34.590    4.0864
   34.620    4.0758
   34.650    4.2338
   34.680    3.8968
   34.710    4.1180
   34.740    4.7077
   34.770    4.1601
   34.800    4.2233
   34.830    4.2865
   34.860    4.2865
   34.890    4.2338
   34.920    4.4655
   34.950    3.8547
   34.980    4.0337
   35.010    3.8547
   35.040    4.0969
   35.070    4.0864
   35.100    4.4128
   35.130    4.2443
   35.160    3.9284
   35.190    4.1496
   35.220    4.2759
   35.250    4.2022
   35.280    4.0337
   35.310    3.7809
   35.340    3.9179
   35.370    4.0442
   35.400    4.3707
   35.430    4.1390
   35.460    4.0548
   35.490    3.9705
   35.520    4.1180
   35.550    4.2865
   35.580    3.9284
   35.610    4.2022
   35.640    4.0021
   35.670    3.9916
   35.700    4.0864
   35.730    4.0758
   35.760    3.9600
   35.790    3.7177
   35.820    4.1917
   35.850    4.1601
   35.880    4.1390
   35.910    3.9389
   35.940    4.2338
   35.970    4.0442
   36.000    3.8652
   36.030    4.2865
   36.060    4.2127
   36.090    3.7283
   36.120    4.1180
   36.150    4.0969
   36.180    3.7704
   36.210    4.1285
   36.240    4.0021
   36.270    4.0864
   36.300    4.2127
   36.330    3.9916
   36.360    3.8441
   36.390    3.7599
   36.420    4.0969
   36.450    4.0653
   36.480    3.6335
   36.510    4.0021
   36.540    3.9916
   36.570    3.7599
   36.600    3.9389
   36.630    3.9810
   36.660    3.8757
   36.690    3.9284
   36.720    3.8968
   36.750    4.0126
   36.780    3.6335
   36.810    3.8125
   36.840    3.6862
   36.870    4.1811
   36.900    3.7599
   36.930    3.7072
   36.960    4.0864
   36.990    3.5703
   37.020    3.7704
   37.050    3.6335
   37.080    3.9284
   37.110    3.8336
   37.140    3.8547
   37.170    4.0021
   37.200    3.8863
   37.230    3.6967
   37.260    3.7283
   37.290    3.7072
   37.320    3.9705
   37.350    3.8968
   37.380    3.7283
   37.410    4.0653
   37.440    3.9600
   37.470    3.8441
   37.500    3.8757
   37.530    3.8336
   37.560    3.8652
   37.590    3.8757
   37.620    3.9810
   37.650    3.9073
   37.680    3.8231
   37.710    3.9494
   37.740    4.2970
   37.770    4.0126
   37.800    3.7915
   37.830    4.0548
   37.860    3.4966
   37.890    4.0337
   37.920    3.9073
   37.950    3.8863
   37.980    3.9284
   38.010    3.5808
   38.040    3.9916
   38.070    3.7493
   38.100    3.8652
   38.130    3.6124
   38.160    3.8231
   38.190    3.9916
   38.220    3.9073
   38.250    3.8125
   38.280    3.5387
   38.310    3.7388
   38.340    3.6124
   38.370    3.7072
   38.400    3.7704
   38.430    4.0021
   38.460    3.7599
   38.490    3.6546
   38.520    4.0442
   38.550    4.0232
   38.580    4.0442
   38.610    4.0126
   38.640    3.5492
   38.670    3.4650
   38.700    3.6651
   38.730    3.8336
   38.760    3.8863
   38.790    3.6230
   38.820    3.9073
   38.850    3.9073
   38.880    3.6862
   38.910    3.8968
   38.940    4.1811
   38.970    3.7809
   39.000    3.9916
   39.030    3.9600
   39.060    3.7915
   39.090    3.7177
   39.120    3.8757
   39.150    3.8968
   39.180    3.8441
   39.210    3.9073
   39.240    3.7599
   39.270    4.0969
   39.300    3.8441
   39.330    3.5808
   39.360    3.7809
   39.390    3.5176
   39.420    3.9179
   39.450    3.8441
   39.480    3.7388
   39.510    3.5808
   39.540    3.5808
   39.570    3.8757
   39.600    3.7388
   39.630    3.9284
   39.660    4.0758
   39.690    3.7283
   39.720    3.7493
   39.750    3.7493
   39.780    4.0864
   39.810    3.7809
   39.840    3.8757
   39.870    3.8441
   39.900    3.7809
   39.930    3.8231
   39.960    3.6651
   39.990    4.1706