File: data/MOCOF-1/PXRD/PXRD_KE-060-2_Cu-Ka1_capillary-1mm_35s-deg.xyd
    1.500    4.4038
    1.530    4.4008
    1.560    4.4520
    1.590    4.4520
    1.620    4.3993
    1.650    4.2097
    1.680    4.2067
    1.710    4.2067
    1.740    4.2594
    1.770    4.1345
    1.800    4.1119
    1.830    4.0818
    1.860    4.0984
    1.890    4.1285
    1.920    3.9765
    1.950    4.0788
    1.980    3.9946
    2.010    4.0337
    2.040    4.1270
    2.070    3.8878
    2.100    3.9630
    2.130    3.8486
    2.160    3.9284
    2.190    3.9389
    2.220    3.8622
    2.250    3.8110
    2.280    3.6892
    2.310    3.7524
    2.340    3.8110
    2.370    3.8832
    2.400    3.7900
    2.430    3.9163
    2.460    3.7719
    2.490    3.7328
    2.520    3.7794
    2.550    3.8216
    2.580    3.7072
    2.610    3.7373
    2.640    3.7779
    2.670    3.6831
    2.700    3.7313
    2.730    3.7478
    2.760    3.7087
    2.790    3.6696
    2.820    3.6395
    2.850    3.7719
    2.880    3.8261
    2.910    3.8080
    2.940    3.6290
    2.970    3.7208
    3.000    3.7328
    3.030    3.7493
    3.060    3.7132
    3.090    3.6515
    3.120    3.6531
    3.150    3.7659
    3.180    3.7629
    3.210    3.6741
    3.240    3.6606
    3.270    3.6666
    3.300    3.6636
    3.330    3.6846
    3.360    3.7885
    3.390    3.7478
    3.420    3.7418
    3.450    3.7373
    3.480    3.8020
    3.510    3.7614
    3.540    3.6591
    3.570    3.8321
    3.600    3.7087
    3.630    3.9314
    3.660    3.7930
    3.690    3.9825
    3.720    3.8863
    3.750    3.8712
    3.780    4.0352
    3.810    4.0999
    3.840    4.1902
    3.870    4.1736
    3.900    4.0638
    3.930    3.7539
    3.960    3.6455
    3.990    3.6546
    4.020    3.5282
    4.050    3.5477
    4.080    3.5282
    4.110    3.5869
    4.140    3.6245
    4.170    3.5342
    4.200    3.5899
    4.230    3.6275
    4.260    3.5507
    4.290    3.4876
    4.320    3.5237
    4.350    3.5869
    4.380    3.5628
    4.410    3.5207
    4.440    3.5959
    4.470    3.5492
    4.500    3.5477
    4.530    3.5718
    4.560    3.5026
    4.590    3.5357
    4.620    3.3582
    4.650    3.5688
    4.680    3.5207
    4.710    3.4304
    4.740    3.5327
    4.770    3.5477
    4.800    3.5643
    4.830    3.4229
    4.860    3.6019
    4.890    3.4966
    4.920    3.4725
    4.950    3.6109
    4.980    3.5312
    5.010    3.4891
    5.040    3.5568
    5.070    3.4560
    5.100    3.4966
    5.130    3.4876
    5.160    3.4951
    5.190    3.4906
    5.220    3.4424
    5.250    3.4740
    5.280    3.4244
    5.310    3.4830
    5.340    3.6124
    5.370    3.4725
    5.400    3.7418
    5.430    3.5884
    5.460    3.7343
    5.490    3.5884
    5.520    3.6395
    5.550    3.5568
    5.580    3.5974
    5.610    3.4439
    5.640    3.4951
    5.670    3.5282
    5.700    3.5733
    5.730    3.5492
    5.760    3.4695
    5.790    3.3807
    5.820    3.6049
    5.850    3.4891
    5.880    3.5237
    5.910    3.5222
    5.940    3.6049
    5.970    3.5763
    6.000    3.5191
    6.030    3.4936
    6.060    3.4590
    6.090    3.5131
    6.120    3.4560
    6.150    3.6169
    6.180    3.4755
    6.210    3.4785
    6.240    3.4168
    6.270    3.5703
    6.300    3.6485
    6.330    3.4740
    6.360    3.5673
    6.390    3.5658
    6.420    3.5718
    6.450    3.7463
    6.480    3.6440
    6.510    3.7268
    6.540    3.7162
    6.570    3.5718
    6.600    3.7027
    6.630    3.7689
    6.660    3.6576
    6.690    3.7779
    6.720    3.8276
    6.750    3.7945
    6.780    3.5793
    6.810    3.6275
    6.840    3.6756
    6.870    3.6576
    6.900    3.6937
    6.930    3.5869
    6.960    3.7268
    6.990    3.6094
    7.020    3.6922
    7.050    3.6305
    7.080    3.6786
    7.110    3.6440
    7.140    3.5613
    7.170    3.6500
    7.200    3.5703
    7.230    3.6320
    7.260    3.5808
    7.290    3.6561
    7.320    3.7599
    7.350    3.6004
    7.380    3.6154
    7.410    3.7027
    7.440    3.6922
    7.470    3.7193
    7.500    3.7839
    7.530    3.7809
    7.560    3.7749
    7.590    3.7253
    7.620    3.7147
    7.650    3.7824
    7.680    3.8261
    7.710    3.8411
    7.740    3.8005
    7.770    3.8938
    7.800    3.8622
    7.830    3.8095
    7.860    3.7027
    7.890    3.8411
    7.920    3.7794
    7.950    3.8321
    7.980    3.7734
    8.010    3.8065
    8.040    3.8848
    8.070    3.8381
    8.100    3.8923
    8.130    3.7268
    8.160    3.8727
    8.190    3.8291
    8.220    3.9133
    8.250    3.8637
    8.280    3.8005
    8.310    3.8712
    8.340    3.8772
    8.370    3.8336
    8.400    3.8547
    8.430    3.9479
    8.460    3.8456
    8.490    3.8908
    8.520    3.8351
    8.550    3.9570
    8.580    3.8923
    8.610    3.9555
    8.640    3.9344
    8.670    3.8757
    8.700    4.0172
    8.730    3.9976
    8.760    3.9013
    8.790    4.0172
    8.820    4.0066
    8.850    3.9555
    8.880    4.0533
    8.910    4.0322
    8.940    3.9961
    8.970    3.9886
    9.000    4.0623
    9.030    4.0126
    9.060    4.0156
    9.090    4.2443
    9.120    4.0653
    9.150    3.9991
    9.180    4.0442
    9.210    4.2639
    9.240    4.1736
    9.270    4.0593
    9.300    4.1992
    9.330    4.1240
    9.360    4.2022
    9.390    3.9991
    9.420    4.2368
    9.450    4.3090
    9.480    4.3707
    9.510    4.3376
    9.540    4.2729
    9.570    4.3421
    9.600    4.1315
    9.630    4.0879
    9.660    4.0999
    9.690    4.1977
    9.720    4.1676
    9.750    4.2624
    9.780    4.1541
    9.810    4.1827
    9.840    4.2022
    9.870    4.2428
    9.900    4.1781
    9.930    4.2067
    9.960    4.3406
    9.990    4.2865
   10.020    4.3271
   10.050    4.2985
   10.080    4.3241
   10.110    4.3060
   10.140    4.3632
   10.170    4.4625
   10.200    4.3135
   10.230    4.4083
   10.260    4.5061
   10.290    4.5678
   10.320    4.5452
   10.350    4.3978
   10.380    4.3256
   10.410    4.3271
   10.440    4.3797
   10.470    4.4625
   10.500    4.4113
   10.530    4.4565
   10.560    4.5723
   10.590    4.4264
   10.620    4.5287
   10.650    4.5498
   10.680    4.4339
   10.710    4.4083
   10.740    4.5347
   10.770    4.6641
   10.800    4.6054
   10.830    4.5513
   10.860    4.7108
   10.890    4.4294
   10.920    4.6190
   10.950    4.8040
   10.980    4.7754
   11.010    4.6521
   11.040    4.6009
   11.070    4.5468
   11.100    4.6792
   11.130    4.5708
   11.160    4.7499
   11.190    4.6987
   11.220    4.7123
   11.250    4.7634
   11.280    4.6777
   11.310    4.6867
   11.340    4.7198
   11.370    4.6671
   11.400    4.7484
   11.430    4.6506
   11.460    4.6852
   11.490    4.7017
   11.520    4.8477
   11.550    4.7679
   11.580    4.9876
   11.610    5.0011
   11.640    4.9304
   11.670    4.9485
   11.700    4.9936
   11.730    5.1531
   11.760    4.9139
   11.790    5.0041
   11.820    4.9740
   11.850    4.9394
   11.880    4.8943
   11.910    4.9966
   11.940    5.0132
   11.970    5.0162
   12.000    5.0267
   12.030    5.2148
   12.060    5.0658
   12.090    5.0779
   12.120    4.9861
   12.150    5.1170
   12.180    5.1787
   12.210    5.2659
   12.240    5.1922
   12.270    5.4374
   12.300    5.2088
   12.330    5.1847
   12.360    5.2464
   12.390    5.2584
   12.420    5.1651
   12.450    5.3366
   12.480    5.4645
   12.510    5.2704
   12.540    5.3592
   12.570    5.3246
   12.600    5.3682
   12.630    5.3532
   12.660    5.5337
   12.690    5.3833
   12.720    5.4585
   12.750    5.5262
   12.780    5.5894
   12.810    5.5503
   12.840    5.5202
   12.870    5.6436
   12.900    5.7038
   12.930    5.6451
   12.960    5.7594
   12.990    5.7669
   13.020    5.6797
   13.050    5.5894
   13.080    5.7203
   13.110    5.8061
   13.140    5.8181
   13.170    5.8708
   13.200    5.7293
   13.230    5.7534
   13.260    5.8662
   13.290    5.7820
   13.320    5.9851
   13.350    5.9535
   13.380    5.7835
   13.410    5.9776
   13.440    5.9821
   13.470    5.9535
   13.500    6.1672
   13.530    6.0633
   13.560    6.0197
   13.590    6.1115
   13.620    6.1581
   13.650    6.3312
   13.680    6.2695
   13.710    6.3763
   13.740    6.3597
   13.770    6.2634
   13.800    6.4545
   13.830    6.4214
   13.860    6.2574
   13.890    6.4425
   13.920    6.4831
   13.950    6.3989
   13.980    6.6005
   14.010    6.5794
   14.040    6.5147
   14.070    6.5433
   14.100    6.6170
   14.130    6.8036
   14.160    6.7690
   14.190    6.6125
   14.220    6.7584
   14.250    6.8036
   14.280    6.8592
   14.310    6.9465
   14.340    6.9525
   14.370    6.9721
   14.400    6.8623
   14.430    6.9164
   14.460    7.2580
   14.490    7.0458
   14.520    7.1241
   14.550    7.2264
   14.580    7.3693
   14.610    7.2324
   14.640    7.1316
   14.670    7.3227
   14.700    7.3573
   14.730    7.4535
   14.760    7.4701
   14.790    7.3377
   14.820    7.4144
   14.850    7.5649
   14.880    7.4701
   14.910    7.6160
   14.940    7.6145
   14.970    7.7108
   15.000    7.7499
   15.030    7.9109
   15.060    7.8222
   15.090    7.8884
   15.120    7.9350
   15.150    8.0524
   15.180    8.0674
   15.210    8.1953
   15.240    8.3412
   15.270    8.1065
   15.300    8.0524
   15.330    8.2675
   15.360    8.3172
   15.390    8.3412
   15.420    8.2690
   15.450    8.3457
   15.480    8.4089
   15.510    8.8272
   15.540    8.5082
   15.570    8.5489
   15.600    8.8076
   15.630    8.9175
   15.660    8.8648
   15.690    8.7595
   15.720    8.7610
   15.750    8.9415
   15.780    9.0108
   15.810    8.9491
   15.840    9.1913
   15.870    9.0770
   15.900    9.0920
   15.930    9.3869
   15.960    9.2635
   15.990    9.5780
   16.020    9.5795
   16.050    9.6938
   16.080    9.6502
   16.110    9.8232
   16.140    9.8022
   16.170    9.7826
   16.200    9.8623
   16.230    9.7600
   16.260   10.0053
   16.290   10.0654
   16.320   10.2099
   16.350   10.2264
   16.380   10.1422
   16.410   10.5394
   16.440   10.1768
   16.470   10.4145
   16.500   10.4777
   16.530   10.5785
   16.560   10.5198
   16.590   10.6387
   16.620   10.9486
   16.650   10.9321
   16.680   10.7982
   16.710   10.8358
   16.740   11.0509
   16.770   10.7711
   16.800   11.0344
   16.830   11.2586
   16.860   11.3774
   16.890   11.4857
   16.920   11.4662
   16.950   11.5550
   16.980   11.4557
   17.010   11.7445
   17.040   11.6919
   17.070   11.7430
   17.100   11.8950
   17.130   11.9025
   17.160   11.8604
   17.190   12.0334
   17.220   12.0123
   17.250   12.0003
   17.280   12.2230
   17.310   12.3313
   17.340   12.3403
   17.370   12.3012
   17.400   12.5043
   17.430   12.5916
   17.460   12.6819
   17.490   12.7255
   17.520   12.9030
   17.550   12.8278
   17.580   12.8052
   17.610   13.0023
   17.640   12.9602
   17.670   13.1588
   17.700   13.1994
   17.730   13.2777
   17.760   13.2551
   17.790   13.2852
   17.820   13.3995
   17.850   13.6794
   17.880   13.5801
   17.910   13.7125
   17.940   13.5334
   17.970   13.6342
   18.000   13.7772
   18.030   13.7967
   18.060   14.0164
   18.090   13.9261
   18.120   13.9728
   18.150   14.0811
   18.180   13.9321
   18.210   14.3790
   18.240   14.1623
   18.270   14.2647
   18.300   14.4633
   18.330   14.4392
   18.360   14.5866
   18.390   14.3745
   18.420   14.3564
   18.450   14.4933
   18.480   14.6679
   18.510   14.4783
   18.540   14.5671
   18.570   14.6573
   18.600   14.9492
   18.630   14.7657
   18.660   14.9552
   18.690   14.9086
   18.720   14.9778
   18.750   15.1042
   18.780   15.1012
   18.810   14.9598
   18.840   15.0350
   18.870   15.2080
   18.900   14.9914
   18.930   15.1599
   18.960   14.9733
   18.990   15.1569
   19.020   15.3103
   19.050   15.1599
   19.080   15.1388
   19.110   15.4969
   19.140   15.3299
   19.170   15.2546
   19.200   15.4006
   19.230   15.3464
   19.260   15.3178
   19.290   15.1388
   19.320   15.4457
   19.350   15.3043
   19.380   15.2306
   19.410   15.3645
   19.440   15.2170
   19.470   15.2832
   19.500   15.3825
   19.530   15.3224
   19.560   15.3208
   19.590   15.3509
   19.620   15.5375
   19.650   15.2577
   19.680   15.5210
   19.710   15.1042
   19.740   15.1674
   19.770   15.1192
   19.800   15.1734
   19.830   15.3088
   19.860   15.3585
   19.890   15.0064
   19.920   15.4156
   19.950   15.2953
   19.980   15.1418
   20.010   15.2742
   20.040   15.2787
   20.070   15.1463
   20.100   15.2095
   20.130   15.0335
   20.160   15.2050
   20.190   14.9763
   20.220   15.0621
   20.250   14.9643
   20.280   14.8936
   20.310   14.9868
   20.340   15.0305
   20.370   15.0515
   20.400   14.8243
   20.430   14.6904
   20.460   14.8379
   20.490   14.9628
   20.520   14.6995
   20.550   14.7175
   20.580   14.8875
   20.610   14.6588
   20.640   14.7566
   20.670   14.5731
   20.700   14.5626
   20.730   14.4979
   20.760   14.2586
   20.790   14.1473
   20.820   14.2782
   20.850   14.2707
   20.880   14.3760
   20.910   14.1759
   20.940   14.1533
   20.970   14.2571
   21.000   14.1699
   21.030   14.2541
   21.060   14.1007
   21.090   13.9261
   21.120   14.3113
   21.150   13.6839
   21.180   13.9051
   21.210   13.7802
   21.240   13.8885
   21.270   13.9021
   21.300   13.7260
   21.330   13.7982
   21.360   13.7742
   21.390   13.6989
   21.420   13.5485
   21.450   13.6388
   21.480   13.6327
   21.510   13.5921
   21.540   13.3258
   21.570   13.4793
   21.600   13.3348
   21.630   13.5410
   21.660   13.4913
   21.690   13.2521
   21.720   13.2145
   21.750   13.2115
   21.780   13.1092
   21.810   13.1648
   21.840   12.9632
   21.870   13.1949
   21.900   12.9060
   21.930   12.8248
   21.960   13.1468
   21.990   12.8113
   22.020   12.8820
   22.050   12.9737
   22.080   12.6111
   22.110   12.7992
   22.140   12.6849
   22.170   12.6337
   22.200   12.6503
   22.230   12.6006
   22.260   12.5073
   22.290   12.4908
   22.320   12.5344
   22.350   12.5344
   22.380   12.3779
   22.410   12.2997
   22.440   12.5465
   22.470   12.3238
   22.500   12.2832
   22.530   12.1192
   22.560   12.2230
   22.590   11.9777
   22.620   12.1733
   22.650   12.1237
   22.680   12.3178
   22.710   11.9281
   22.740   11.9491
   22.770   11.7942
   22.800   12.0635
   22.830   11.9913
   22.860   11.9100
   22.890   11.9672
   22.920   11.7596
   22.950   11.5369
   22.980   11.8664
   23.010   11.7611
   23.040   11.8333
   23.070   11.6753
   23.100   11.7957
   23.130   11.6512
   23.160   11.4903
   23.190   11.6949
   23.220   11.4090
   23.250   11.5158
   23.280   11.4797
   23.310   11.4301
   23.340   11.3774
   23.370   11.2089
   23.400   11.1201
   23.430   11.1728
   23.460   11.1728
   23.490   11.3172
   23.520   11.1893
   23.550   11.2450
   23.580   10.9140
   23.610   10.9907
   23.640   10.9652
   23.670   10.9652
   23.700   10.9847
   23.730   10.7666
   23.760   10.9426
   23.790   10.8899
   23.820   10.8313
   23.850   10.8463
   23.880   10.8087
   23.910   10.8102
   23.940   10.8764
   23.970   10.5996
   24.000   10.6944
   24.030   10.4566
   24.060   10.6582
   24.090   10.6056
   24.120   10.7259
   24.150   10.5093
   24.180   10.5996
   24.210   10.3995
   24.240   10.5033
   24.270   10.2836
   24.300   10.5213
   24.330   10.1933
   24.360   10.4792
   24.390   10.2490
   24.420   10.2505
   24.450   10.2505
   24.480   10.1316
   24.510   10.2009
   24.540   10.2475
   24.570   10.2370
   24.600   10.2550
   24.630   10.0609
   24.660    9.9466
   24.690   10.2415
   24.720   10.1843
   24.750   10.1933
   24.780   10.0278
   24.810    9.9857
   24.840    9.8699
   24.870   10.0685
   24.900    9.7826
   24.930    9.8849
   24.960    9.8232
   24.990    9.8322
   25.020    9.7991
   25.050    9.7841
   25.080    9.7209
   25.110    9.8157
   25.140    9.8262
   25.170    9.5027
   25.200    9.5840
   25.230    9.7299
   25.260    9.4742
   25.290    9.5238
   25.320    9.6607
   25.350    9.6111
   25.380    9.5268
   25.410    9.6397
   25.440    9.5990
   25.470    9.4501
   25.500    9.3011
   25.530    9.3944
   25.560    9.3403
   25.590    9.3628
   25.620    9.4832
   25.650    9.3026
   25.680    9.2906
   25.710    9.3252
   25.740    9.3959
   25.770    9.2033
   25.800    9.2515
   25.830    9.1191
   25.860    9.1793
   25.890    9.1161
   25.920    9.1928
   25.950    9.2048
   25.980    9.0755
   26.010    9.1040
   26.040    8.8904
   26.070    9.0243
   26.100    9.0469
   26.130    8.9987
   26.160    8.8799
   26.190    8.9205
   26.220    9.0153
   26.250    8.8107
   26.280    8.9626
   26.310    8.8588
   26.340    8.7760
   26.370    8.8438
   26.400    8.9446
   26.430    9.0288
   26.460    8.8122
   26.490    8.8498
   26.520    8.8347
   26.550    8.7369
   26.580    8.8693
   26.610    8.6948
   26.640    8.7309
   26.670    8.5729
   26.700    8.6331
   26.730    8.4781
   26.760    8.4751
   26.790    8.5233
   26.820    8.6587
   26.850    8.6572
   26.880    8.6467
   26.910    8.5128
   26.940    8.5729
   26.970    8.6406
   27.000    8.4210
   27.030    8.4827
   27.060    8.1878
   27.090    8.5037
   27.120    8.5248
   27.150    8.3126
   27.180    8.4195
   27.210    8.3412
   27.240    8.4496
   27.270    8.2720
   27.300    8.2780
   27.330    8.2705
   27.360    8.4450
   27.390    8.3743
   27.420    8.2660
   27.450    8.2780
   27.480    8.0870
   27.510    7.9937
   27.540    8.1607
   27.570    8.2735
   27.600    8.1321
   27.630    8.0012
   27.660    8.1065
   27.690    8.0313
   27.720    8.1125
   27.750    8.1456
   27.780    8.1802
   27.810    7.8673
   27.840    7.9831
   27.870    8.0689
   27.900    8.0253
   27.930    7.9425
   27.960    7.8598
   27.990    8.1125
   28.020    8.0764
   28.050    8.1261
   28.080    7.9681
   28.110    7.9455
   28.140    8.0087
   28.170    7.8297
   28.200    7.8041
   28.230    7.9019
   28.260    7.8071
   28.290    7.9245
   28.320    7.8252
   28.350    7.8372
   28.380    7.8432
   28.410    7.7815
   28.440    7.6537
   28.470    7.7966
   28.500    7.8131
   28.530    7.5784
   28.560    7.5859
   28.590    7.5423
   28.620    7.4129
   28.650    7.6792
   28.680    7.6627
   28.710    7.6010
   28.740    7.4596
   28.770    7.5784
   28.800    7.4159
   28.830    7.5017
   28.860    7.4460
   28.890    7.6582
   28.920    7.5002
   28.950    7.4099
   28.980    7.4430
   29.010    7.3121
   29.040    7.5137
   29.070    7.4851
   29.100    7.3738
   29.130    7.3588
   29.160    7.3693
   29.190    7.1963
   29.220    7.3046
   29.250    7.5062
   29.280    7.3362
   29.310    7.1993
   29.340    7.1346
   29.370    7.3302
   29.400    7.3317
   29.430    7.3512
   29.460    7.2805
   29.490    7.1722
   29.520    7.2519
   29.550    7.1948
   29.580    7.1857
   29.610    7.1767
   29.640    7.0849
   29.670    7.0654
   29.700    6.9029
   29.730    7.0714
   29.760    7.0849
   29.790    7.0308
   29.820    6.9465
   29.850    6.8893
   29.880    6.9932
   29.910    7.0293
   29.940    6.8562
   29.970    6.9420
   30.000    6.8442
   30.030    6.8939
   30.060    6.8277
   30.090    6.8292
   30.120    6.8397
   30.150    6.9285
   30.180    6.9149
   30.210    6.6907
   30.240    6.7554
   30.270    6.7193
   30.300    6.8713
   30.330    6.8216
   30.360    6.6486
   30.390    6.7419
   30.420    6.5598
   30.450    6.6652
   30.480    6.8081
   30.510    6.7043
   30.540    6.4967
   30.570    6.5704
   30.600    6.5629
   30.630    6.6020
   30.660    6.6922
   30.690    6.5388
   30.720    6.6396
   30.750    6.5749
   30.780    6.4079
   30.810    6.5042
   30.840    6.5373
   30.870    6.4575
   30.900    6.6381
   30.930    6.3041
   30.960    6.3898
   30.990    6.4801
   31.020    6.3417
   31.050    6.3176
   31.080    6.3567
   31.110    6.2063
   31.140    6.3688
   31.170    6.2454
   31.200    6.2559
   31.230    6.2303
   31.260    6.2514
   31.290    6.1837
   31.320    6.1897
   31.350    6.4064
   31.380    6.1070
   31.410    6.1220
   31.440    6.1220
   31.470    6.1807
   31.500    5.9896
   31.530    6.0302
   31.560    6.0317
   31.590    5.9550
   31.620    5.8738
   31.650    5.9565
   31.680    5.9415
   31.710    6.0934
   31.740    6.0513
   31.770    5.9219
   31.800    5.9761
   31.830    6.0483
   31.860    5.8377
   31.890    5.9340
   31.920    5.8632
   31.950    5.8467
   31.980    5.7639
   32.010    5.8046
   32.040    5.8031
   32.070    5.8362
   32.100    5.7639
   32.130    5.8467
   32.160    5.7293
   32.190    5.7669
   32.220    5.6481
   32.250    5.5127
   32.280    5.7730
   32.310    5.5909
   32.340    5.6872
   32.370    5.7113
   32.400    5.5849
   32.430    5.5638
   32.460    5.6090
   32.490    5.5352
   32.520    5.5307
   32.550    5.3773
   32.580    5.5819
   32.610    5.5322
   32.640    5.4164
   32.670    5.4059
   32.700    5.4179
   32.730    5.3968
   32.760    5.4480
   32.790    5.2900
   32.820    5.3096
   32.850    5.3983
   32.880    5.4224
   32.910    5.2945
   32.940    5.2614
   32.970    5.2930
   33.000    5.3652
   33.030    5.1395
   33.060    5.2148
   33.090    5.2840
   33.120    5.3276
   33.150    5.2118
   33.180    5.2178
   33.210    5.1576
   33.240    5.1200
   33.270    5.2659
   33.300    5.1230
   33.330    5.0764
   33.360    5.1486
   33.390    5.1651
   33.420    5.1711
   33.450    5.0357
   33.480    5.0418
   33.510    5.2073
   33.540    5.0087
   33.570    4.9831
   33.600    5.0282
   33.630    5.1892
   33.660    4.9394
   33.690    4.9620
   33.720    4.8853
   33.750    4.9605
   33.780    4.8432
   33.810    4.9695
   33.840    4.8447
   33.870    4.8657
   33.900    4.9018
   33.930    4.9033
   33.960    4.8793
   33.990    4.8101
   34.020    4.7739
   34.050    4.8657
   34.080    4.9078
   34.110    4.8040
   34.140    4.8281
   34.170    4.7017
   34.200    4.6671
   34.230    4.7770
   34.260    4.8266
   34.290    4.8161
   34.320    4.7047
   34.350    4.7273
   34.380    4.6235
   34.410    4.7213
   34.440    4.6355
   34.470    4.7258
   34.500    4.6280
   34.530    4.5317
   34.560    4.6009
   34.590    4.5227
   34.620    4.7529
   34.650    4.4896
   34.680    4.5407
   34.710    4.6340
   34.740    4.6551
   34.770    4.4565
   34.800    4.5332
   34.830    4.5061
   34.860    4.4384
   34.890    4.4505
   34.920    4.5227
   34.950    4.5362
   34.980    4.4580
   35.010    4.3843
   35.040    4.4640
   35.070    4.3752
   35.100    4.3767
   35.130    4.3000
   35.160    4.5362
   35.190    4.4008
   35.220    4.4881
   35.250    4.2489
   35.280    4.3391
   35.310    4.3120
   35.340    4.4159
   35.370    4.3271
   35.400    4.3948
   35.430    4.6054
   35.460    4.3497
   35.490    4.2233
   35.520    4.2323
   35.550    4.2880
   35.580    4.3993
   35.610    4.2774
   35.640    4.3512
   35.670    4.1947
   35.700    4.2564
   35.730    4.3421
   35.760    4.3120
   35.790    4.2504
   35.820    4.1616
   35.850    4.2519
   35.880    4.2759
   35.910    4.1375
   35.940    4.1405
   35.970    4.2473
   36.000    4.2007
   36.030    4.0849
   36.060    4.1706
   36.090    4.1977
   36.120    4.1180
   36.150    4.1962
   36.180    4.0803
   36.210    4.1450
   36.240    4.1571
   36.270    4.1781
   36.300    4.1270
   36.330    4.1646
   36.360    4.1029
   36.390    4.0232
   36.420    4.1074
   36.450    4.0999
   36.480    4.0412
   36.510    4.1134
   36.540    4.0803
   36.570    3.9871
   36.600    4.0006
   36.630    4.1420
   36.660    4.0442
   36.690    3.9540
   36.720    4.0232
   36.750    4.0487
   36.780    3.9194
   36.810    3.9871
   36.840    4.0653
   36.870    3.9494
   36.900    3.9780
   36.930    3.8757
   36.960    3.8863
   36.990    3.8938
   37.020    3.9871
   37.050    3.9901
   37.080    3.7870
   37.110    3.9525
   37.140    3.9510
   37.170    3.8396
   37.200    3.8712
   37.230    3.8667
   37.260    3.8231
   37.290    3.8998
   37.320    3.7584
   37.350    3.9434
   37.380    3.7704
   37.410    3.8787
   37.440    4.0578
   37.470    3.8186
   37.500    3.8667
   37.530    3.8953
   37.560    3.8953
   37.590    3.8547
   37.620    3.7719
   37.650    3.8080
   37.680    3.8246
   37.710    3.7689
   37.740    3.7057
   37.770    3.7779
   37.800    3.7644
   37.830    3.8035
   37.860    3.7704
   37.890    3.8336
   37.920    3.7268
   37.950    3.7749
   37.980    3.8396
   38.010    3.8261
   38.040    3.7554
   38.070    3.7539
   38.100    3.7779
   38.130    3.8201
   38.160    3.7448
   38.190    3.8170
   38.220    3.6862
   38.250    3.7373
   38.280    3.7403
   38.310    3.7824
   38.340    3.6230
   38.370    3.6967
   38.400    3.7478
   38.430    3.6967
   38.460    3.5748
   38.490    3.6862
   38.520    3.7418
   38.550    3.7057
   38.580    3.8441
   38.610    3.6034
   38.640    3.6455
   38.670    3.6320
   38.700    3.5312
   38.730    3.6922
   38.760    3.6726
   38.790    3.7102
   38.820    3.6997
   38.850    3.5402
   38.880    3.6455
   38.910    3.6801
   38.940    3.6831
   38.970    3.6109
   39.000    3.6711
   39.030    3.7177
   39.060    3.4800
   39.090    3.6380
   39.120    3.5176
   39.150    3.5688
   39.180    3.4966
   39.210    3.6952
   39.240    3.4860
   39.270    3.5718
   39.300    3.6440
   39.330    3.6275
   39.360    3.5297
   39.390    3.6515
   39.420    3.5417
   39.450    3.5011
   39.480    3.5884
   39.510    3.4319
   39.540    3.4484
   39.570    3.6154
   39.600    3.5432
   39.630    3.5959
   39.660    3.5282
   39.690    3.5026
   39.720    3.5944
   39.750    3.5462
   39.780    3.5312
   39.810    3.5778
   39.840    3.6139
   39.870    3.5808
   39.900    3.4665
   39.930    3.5161
   39.960    3.5522
   39.990    3.4620