File: data/MOCOF-1/PXRD/PXRD_KE-177_Cu-Ka1_capillary-1mm_5s-deg.xyd
    1.500   25.0658
    1.530   24.8341
    1.560   22.8436
    1.590   22.4539
    1.620   21.5798
    1.650   20.6424
    1.680   19.4313
    1.710   18.4518
    1.740   17.8410
    1.770   17.7251
    1.800   17.1248
    1.830   16.0400
    1.860   15.6082
    1.890   15.3765
    1.920   14.9974
    1.950   13.8389
    1.980   13.5861
    2.010   13.6388
    2.040   13.0279
    2.070   13.3755
    2.100   12.5540
    2.130   12.1327
    2.160   12.2380
    2.190   11.7325
    2.220   11.1216
    2.250   10.8373
    2.280   11.5850
    2.310   11.0479
    2.340   11.2059
    2.370   10.9847
    2.400   10.3528
    2.430   10.5529
    2.460   10.1843
    2.490   10.2475
    2.520   10.6793
    2.550   10.7214
    2.580   10.1527
    2.610   10.0158
    2.640    9.8789
    2.670    9.9842
    2.700   10.3002
    2.730   10.2475
    2.760    9.9631
    2.790   10.1001
    2.820    9.6156
    2.850   10.0369
    2.880   10.0158
    2.910   10.2791
    2.940    9.7420
    2.970    9.8684
    3.000   10.5108
    3.030   10.0790
    3.060   10.4581
    3.090   10.4371
    3.120   10.6477
    3.150   10.7214
    3.180   10.6056
    3.210   11.0058
    3.240   11.4903
    3.270   11.6272
    3.300   11.6904
    3.330   12.3749
    3.360   12.7225
    3.390   13.0911
    3.420   13.5229
    3.450   13.8705
    3.480   14.3444
    3.510   14.7341
    3.540   15.8715
    3.570   16.5877
    3.600   18.3992
    3.630   18.5887
    3.660   19.5577
    3.690   21.2849
    3.720   23.3070
    3.750   25.0553
    3.780   28.7414
    3.810   32.9647
    3.840   40.9479
    3.870   52.4276
    3.900   54.2180
    3.930   39.7894
    3.960   16.1032
    3.990    9.0469
    4.020    8.0147
    4.050    8.2991
    4.080    7.6040
    4.110    7.3407
    4.140    7.0458
    4.170    6.9510
    4.200    6.9826
    4.230    7.1195
    4.260    7.4355
    4.290    7.1195
    4.320    7.1933
    4.350    6.9721
    4.380    6.9826
    4.410    7.5513
    4.440    6.8878
    4.470    6.6456
    4.500    6.8984
    4.530    6.7720
    4.560    7.3723
    4.590    7.1511
    4.620    6.8246
    4.650    7.3196
    4.680    6.8773
    4.710    6.7825
    4.740    7.4039
    4.770    7.0563
    4.800    6.7509
    4.830    6.8562
    4.860    6.8984
    4.890    7.2249
    4.920    7.2249
    4.950    7.0985
    4.980    7.4776
    5.010    7.3302
    5.040    7.3618
    5.070    7.6777
    5.100    7.3618
    5.130    7.6988
    5.160    7.4460
    5.190    8.1201
    5.220    8.3834
    5.250    8.2991
    5.280    8.3834
    5.310    8.6361
    5.340    8.9521
    5.370    8.7098
    5.400    9.5524
    5.430   10.0895
    5.460   11.5219
    5.490   13.5545
    5.520   14.2496
    5.550   11.7430
    5.580    8.8152
    5.610    7.4566
    5.640    6.6983
    5.670    7.0985
    5.700    6.6667
    5.730    6.9089
    5.760    6.9194
    5.790    6.8246
    5.820    6.6983
    5.850    6.6351
    5.880    6.5719
    5.910    6.7404
    5.940    6.7299
    5.970    6.7509
    6.000    6.8036
    6.030    6.4876
    6.060    6.7825
    6.090    7.1617
    6.120    6.9300
    6.150    6.6140
    6.180    6.3296
    6.210    6.7193
    6.240    6.2454
    6.270    6.4560
    6.300    6.4876
    6.330    6.6983
    6.360    6.4876
    6.390    6.1295
    6.420    6.8668
    6.450    6.8773
    6.480    6.7720
    6.510    6.5192
    6.540    6.7720
    6.570    7.1406
    6.600    6.7720
    6.630    6.8773
    6.660    7.0563
    6.690    7.2249
    6.720    6.9826
    6.750    6.9405
    6.780    7.6040
    6.810    7.2038
    6.840    6.8352
    6.870    6.7825
    6.900    6.5719
    6.930    6.6667
    6.960    6.4876
    6.990    6.7509
    7.020    6.3612
    7.050    6.4350
    7.080    6.7404
    7.110    7.0879
    7.140    6.6983
    7.170    6.3191
    7.200    6.7509
    7.230    6.6245
    7.260    6.6035
    7.290    6.9405
    7.320    6.6245
    7.350    6.6983
    7.380    6.6245
    7.410    6.9194
    7.440    6.7193
    7.470    6.9932
    7.500    6.7509
    7.530    6.9405
    7.560    6.9826
    7.590    7.3091
    7.620    7.2565
    7.650    7.3723
    7.680    7.2459
    7.710    7.4776
    7.740    8.1622
    7.770    8.3518
    7.800    9.2364
    7.830    9.1311
    7.860    7.8252
    7.890    7.0985
    7.920    7.2565
    7.950    7.1511
    7.980    6.8246
    8.010    6.7088
    8.040    6.7509
    8.070    6.8562
    8.100    6.8036
    8.130    6.9194
    8.160    6.6351
    8.190    6.7930
    8.220    7.0458
    8.250    6.7088
    8.280    6.7720
    8.310    6.7509
    8.340    7.0458
    8.370    6.8562
    8.400    6.8773
    8.430    6.5298
    8.460    7.0879
    8.490    6.9405
    8.520    6.4876
    8.550    7.1195
    8.580    6.8246
    8.610    7.0774
    8.640    7.0458
    8.670    7.0037
    8.700    7.5513
    8.730    7.2354
    8.760    7.4776
    8.790    7.2354
    8.820    7.1195
    8.850    7.0037
    8.880    6.9510
    8.910    7.0142
    8.940    6.9089
    8.970    7.1827
    9.000    7.4882
    9.030    7.3618
    9.060    7.2249
    9.090    7.3091
    9.120    7.1301
    9.150    7.0037
    9.180    7.2880
    9.210    7.2670
    9.240    7.0037
    9.270    7.1301
    9.300    7.4776
    9.330    7.1090
    9.360    7.8146
    9.390    8.2043
    9.420    7.6145
    9.450    8.3307
    9.480    8.3412
    9.510    8.8468
    9.540    9.1206
    9.570    9.5313
    9.600    9.6682
    9.630    8.5097
    9.660    7.7199
    9.690    7.1301
    9.720    7.4355
    9.750    7.1301
    9.780    7.3091
    9.810    7.3723
    9.840    7.6356
    9.870    7.2565
    9.900    7.1406
    9.930    7.1195
    9.960    7.7409
    9.990    7.4355
   10.020    7.5092
   10.050    7.4144
   10.080    7.6672
   10.110    7.3934
   10.140    7.5303
   10.170    7.6461
   10.200    7.8778
   10.230    7.4776
   10.260    7.5303
   10.290    8.0147
   10.320    7.7514
   10.350    8.0885
   10.380    7.9410
   10.410    7.7304
   10.440    7.5619
   10.470    7.3091
   10.500    7.3407
   10.530    7.2354
   10.560    7.3407
   10.590    7.3723
   10.620    7.1722
   10.650    7.3618
   10.680    7.4776
   10.710    7.4144
   10.740    7.4566
   10.770    7.2038
   10.800    7.2354
   10.830    7.4250
   10.860    7.1090
   10.890    7.2249
   10.920    7.4039
   10.950    7.5724
   10.980    7.5829
   11.010    7.6356
   11.040    7.9305
   11.070    7.8778
   11.100    8.1095
   11.130    7.2775
   11.160    7.3407
   11.190    7.0353
   11.220    6.6245
   11.250    6.6351
   11.280    7.2986
   11.310    7.2670
   11.340    6.9616
   11.370    7.0879
   11.400    6.8352
   11.430    6.8984
   11.460    7.0879
   11.490    7.0353
   11.520    6.8457
   11.550    7.1827
   11.580    6.7299
   11.610    7.3618
   11.640    7.1406
   11.670    7.1617
   11.700    7.6251
   11.730    7.6883
   11.760    7.9200
   11.790    7.2986
   11.820    6.7299
   11.850    6.7615
   11.880    6.6877
   11.910    6.3823
   11.940    6.5508
   11.970    6.5508
   12.000    6.3718
   12.030    6.7509
   12.060    6.6245
   12.090    6.5929
   12.120    6.5613
   12.150    6.4455
   12.180    6.5298
   12.210    6.4982
   12.240    6.6456
   12.270    6.3086
   12.300    6.8457
   12.330    6.7825
   12.360    6.0348
   12.390    6.4034
   12.420    6.5719
   12.450    6.3507
   12.480    6.3612
   12.510    6.0348
   12.540    6.5613
   12.570    6.4244
   12.600    6.4982
   12.630    5.7293
   12.660    6.0979
   12.690    5.9400
   12.720    6.1927
   12.750    6.6140
   12.780    6.3086
   12.810    6.2349
   12.840    6.1611
   12.870    6.6245
   12.900    5.8031
   12.930    6.3928
   12.960    6.5824
   12.990    7.0563
   13.020    6.5192
   13.050    6.7088
   13.080    6.1085
   13.110    6.0769
   13.140    5.7399
   13.170    6.5298
   13.200    5.8031
   13.230    5.9505
   13.260    6.2349
   13.290    6.0664
   13.320    5.9400
   13.350    5.6661
   13.380    6.2138
   13.410    6.3191
   13.440    6.1506
   13.470    5.7609
   13.500    6.1085
   13.530    5.9716
   13.560    6.5192
   13.590    6.1401
   13.620    6.3086
   13.650    6.3507
   13.680    6.0242
   13.710    6.1822
   13.740    6.0979
   13.770    5.9294
   13.800    5.5292
   13.830    6.1927
   13.860    5.8031
   13.890    6.0453
   13.920    5.8031
   13.950    5.5503
   13.980    6.1927
   14.010    6.2349
   14.040    6.2349
   14.070    6.7193
   14.100    6.6667
   14.130    6.7615
   14.160    6.5403
   14.190    6.2033
   14.220    6.3191
   14.250    6.1822
   14.280    6.1401
   14.310    5.9716
   14.340    6.1190
   14.370    6.2033
   14.400    6.1927
   14.430    5.8768
   14.460    6.0348
   14.490    6.1611
   14.520    5.9926
   14.550    6.1611
   14.580    6.0032
   14.610    6.0769
   14.640    5.9821
   14.670    6.3612
   14.700    6.0032
   14.730    6.0558
   14.760    6.2033
   14.790    6.2033
   14.820    5.6872
   14.850    5.7820
   14.880    5.7820
   14.910    5.6977
   14.940    6.0453
   14.970    6.1822
   15.000    5.8347
   15.030    5.9294
   15.060    6.1506
   15.090    5.8768
   15.120    6.1295
   15.150    6.1611
   15.180    6.2981
   15.210    6.2243
   15.240    6.0558
   15.270    6.2349
   15.300    5.9400
   15.330    5.8452
   15.360    5.7925
   15.390    5.9294
   15.420    6.0664
   15.450    6.0769
   15.480    6.0453
   15.510    6.0558
   15.540    6.0348
   15.570    5.5292
   15.600    5.8662
   15.630    5.6451
   15.660    5.9084
   15.690    5.8662
   15.720    6.0453
   15.750    6.0769
   15.780    5.6451
   15.810    5.9084
   15.840    5.4450
   15.870    5.8662
   15.900    5.7504
   15.930    5.9189
   15.960    5.8136
   15.990    5.8557
   16.020    5.6556
   16.050    5.9821
   16.080    5.8241
   16.110    6.3507
   16.140    6.1295
   16.170    6.2981
   16.200    6.3612
   16.230    5.8452
   16.260    6.1717
   16.290    6.0874
   16.320    5.8452
   16.350    5.9189
   16.380    5.8241
   16.410    6.5403
   16.440    6.0558
   16.470    5.9084
   16.500    5.8452
   16.530    6.0453
   16.560    6.3191
   16.590    6.2665
   16.620    6.4034
   16.650    6.0664
   16.680    6.4139
   16.710    6.3612
   16.740    6.2349
   16.770    6.2243
   16.800    6.2454
   16.830    6.0242
   16.860    6.0979
   16.890    5.9505
   16.920    6.0664
   16.950    6.0348
   16.980    6.1190
   17.010    6.3402
   17.040    6.2243
   17.070    6.3507
   17.100    6.2875
   17.130    6.6772
   17.160    6.1822
   17.190    5.8031
   17.220    5.9505
   17.250    6.1506
   17.280    5.9610
   17.310    5.9821
   17.340    6.0664
   17.370    5.8136
   17.400    5.8452
   17.430    5.9084
   17.460    5.8136
   17.490    5.8241
   17.520    6.0137
   17.550    6.2243
   17.580    6.1822
   17.610    6.0664
   17.640    6.3823
   17.670    5.4555
   17.700    5.8452
   17.730    5.9821
   17.760    6.0558
   17.790    6.2454
   17.820    5.8978
   17.850    6.0769
   17.880    5.8347
   17.910    5.8557
   17.940    5.8557
   17.970    5.9400
   18.000    6.1085
   18.030    5.9400
   18.060    5.7715
   18.090    5.9189
   18.120    6.2559
   18.150    5.6977
   18.180    5.9716
   18.210    5.9294
   18.240    5.8031
   18.270    5.8557
   18.300    5.7820
   18.330    5.8031
   18.360    6.4560
   18.390    6.2981
   18.420    5.9716
   18.450    6.2875
   18.480    5.8768
   18.510    6.1085
   18.540    5.9084
   18.570    6.0664
   18.600    6.2138
   18.630    5.9716
   18.660    5.8031
   18.690    5.8452
   18.720    5.9505
   18.750    6.1506
   18.780    6.0242
   18.810    6.2138
   18.840    6.0453
   18.870    6.2559
   18.900    6.3191
   18.930    5.7293
   18.960    6.2454
   18.990    6.1401
   19.020    6.5298
   19.050    6.0664
   19.080    5.8241
   19.110    5.8452
   19.140    6.1401
   19.170    5.8768
   19.200    5.6135
   19.230    6.0137
   19.260    5.7715
   19.290    5.9505
   19.320    6.2138
   19.350    6.7193
   19.380    6.1927
   19.410    6.3612
   19.440    6.4771
   19.470    6.0453
   19.500    6.2138
   19.530    6.0348
   19.560    5.7083
   19.590    6.2875
   19.620    6.6140
   19.650    6.5192
   19.680    6.1506
   19.710    6.7299
   19.740    6.3507
   19.770    6.4139
   19.800    6.2454
   19.830    6.5613
   19.860    6.4139
   19.890    6.0558
   19.920    6.2559
   19.950    6.1822
   19.980    6.2138
   20.010    6.1506
   20.040    6.3086
   20.070    6.5087
   20.100    6.2559
   20.130    6.4876
   20.160    6.2875
   20.190    6.2138
   20.220    6.2349
   20.250    6.6245
   20.280    6.3296
   20.310    6.6035
   20.340    6.5824
   20.370    6.4560
   20.400    6.5508
   20.430    6.7299
   20.460    6.9089
   20.490    6.7509
   20.520    6.5298
   20.550    6.4244
   20.580    5.8768
   20.610    6.2243
   20.640    6.3612
   20.670    6.1190
   20.700    6.4350
   20.730    6.4982
   20.760    5.9610
   20.790    6.3296
   20.820    6.4350
   20.850    6.1506
   20.880    6.1085
   20.910    6.3402
   20.940    6.4560
   20.970    6.4982
   21.000    6.4139
   21.030    5.9821
   21.060    6.5192
   21.090    5.8978
   21.120    6.3086
   21.150    6.5929
   21.180    6.2770
   21.210    6.0453
   21.240    6.2138
   21.270    6.0769
   21.300    6.0979
   21.330    6.0664
   21.360    6.3718
   21.390    6.1717
   21.420    6.1401
   21.450    6.0348
   21.480    6.0032
   21.510    6.4244
   21.540    6.3823
   21.570    6.5403
   21.600    6.5087
   21.630    6.3928
   21.660    6.2138
   21.690    6.2665
   21.720    6.3928
   21.750    6.5298
   21.780    6.6456
   21.810    6.9089
   21.840    6.3086
   21.870    6.3928
   21.900    6.5719
   21.930    6.8668
   21.960    6.5719
   21.990    6.2349
   22.020    6.6140
   22.050    6.5824
   22.080    6.6667
   22.110    6.6035
   22.140    6.4244
   22.170    5.9610
   22.200    6.7299
   22.230    7.2775
   22.260    6.4139
   22.290    6.0348
   22.320    6.2665
   22.350    6.3086
   22.380    6.5087
   22.410    6.5087
   22.440    6.3507
   22.470    6.3612
   22.500    6.4455
   22.530    6.6561
   22.560    6.7088
   22.590    6.7720
   22.620    7.1195
   22.650    7.0985
   22.680    6.9194
   22.710    6.5613
   22.740    6.6140
   22.770    6.9089
   22.800    6.8352
   22.830    6.5613
   22.860    6.2770
   22.890    6.8668
   22.920    7.2249
   22.950    7.1406
   22.980    7.2249
   23.010    7.4144
   23.040    6.9721
   23.070    6.6772
   23.100    6.5087
   23.130    6.4982
   23.160    6.3402
   23.190    6.3718
   23.220    6.6035
   23.250    6.7193
   23.280    6.6035
   23.310    6.5298
   23.340    6.5824
   23.370    6.6245
   23.400    6.6877
   23.430    6.6035
   23.460    6.5087
   23.490    5.9716
   23.520    6.6035
   23.550    6.8036
   23.580    6.5192
   23.610    6.2243
   23.640    6.3296
   23.670    6.3191
   23.700    6.5403
   23.730    6.4244
   23.760    6.1190
   23.790    6.1506
   23.820    6.4350
   23.850    6.5719
   23.880    6.4350
   23.910    6.6772
   23.940    6.7930
   23.970    6.7088
   24.000    7.0142
   24.030    6.3718
   24.060    6.3718
   24.090    6.4666
   24.120    6.3402
   24.150    6.0032
   24.180    6.1927
   24.210    6.2138
   24.240    6.4771
   24.270    6.2981
   24.300    6.2770
   24.330    6.2770
   24.360    6.5087
   24.390    6.5719
   24.420    6.2033
   24.450    6.5824
   24.480    6.0979
   24.510    6.4034
   24.540    6.4560
   24.570    6.3718
   24.600    6.2454
   24.630    6.4982
   24.660    6.3823
   24.690    6.1611
   24.720    6.3507
   24.750    6.0242
   24.780    6.4350
   24.810    6.0664
   24.840    6.1190
   24.870    6.3718
   24.900    6.2243
   24.930    6.0453
   24.960    6.3402
   24.990    6.3823
   25.020    6.3191
   25.050    6.3086
   25.080    6.1717
   25.110    6.2033
   25.140    6.0874
   25.170    6.1401
   25.200    6.2875
   25.230    6.4350
   25.260    6.2454
   25.290    6.0137
   25.320    5.8978
   25.350    6.0874
   25.380    6.3402
   25.410    6.4244
   25.440    6.0979
   25.470    6.2454
   25.500    6.4139
   25.530    6.1295
   25.560    6.3928
   25.590    6.2349
   25.620    6.1295
   25.650    6.2559
   25.680    6.4034
   25.710    6.2349
   25.740    6.0348
   25.770    6.6983
   25.800    6.4350
   25.830    6.1717
   25.860    6.1506
   25.890    6.3086
   25.920    6.4666
   25.950    6.1611
   25.980    6.2138
   26.010    6.2138
   26.040    5.6135
   26.070    6.4982
   26.100    6.4350
   26.130    6.3928
   26.160    6.4244
   26.190    6.2243
   26.220    6.4244
   26.250    6.3928
   26.280    5.9084
   26.310    6.1822
   26.340    5.7083
   26.370    6.0242
   26.400    6.1295
   26.430    6.0242
   26.460    6.2138
   26.490    5.8768
   26.520    6.3086
   26.550    6.4560
   26.580    6.1401
   26.610    5.7399
   26.640    5.9821
   26.670    5.9926
   26.700    5.9821
   26.730    5.9505
   26.760    5.6872
   26.790    6.1401
   26.820    5.9400
   26.850    5.9716
   26.880    5.5398
   26.910    6.1401
   26.940    6.1295
   26.970    6.0242
   27.000    6.0874
   27.030    6.3612
   27.060    5.8873
   27.090    6.0979
   27.120    6.4560
   27.150    6.2349
   27.180    6.2665
   27.210    5.7609
   27.240    5.7715
   27.270    5.9400
   27.300    5.7293
   27.330    6.1190
   27.360    5.9926
   27.390    5.8031
   27.420    5.7609
   27.450    6.0979
   27.480    6.0979
   27.510    5.6767
   27.540    5.8662
   27.570    5.9400
   27.600    5.8557
   27.630    5.8452
   27.660    5.8768
   27.690    5.9294
   27.720    5.6029
   27.750    6.0137
   27.780    5.7399
   27.810    5.8452
   27.840    5.5398
   27.870    5.9084
   27.900    5.9716
   27.930    5.5398
   27.960    5.5924
   27.990    5.6451
   28.020    5.8662
   28.050    5.7504
   28.080    5.5082
   28.110    5.5292
   28.140    5.8557
   28.170    5.7715
   28.200    6.0769
   28.230    6.0769
   28.260    5.6872
   28.290    5.9084
   28.320    5.5819
   28.350    5.8768
   28.380    6.2770
   28.410    5.7083
   28.440    5.7504
   28.470    6.2454
   28.500    5.9926
   28.530    6.1401
   28.560    5.3923
   28.590    6.1295
   28.620    5.6029
   28.650    5.6240
   28.680    5.5187
   28.710    5.4660
   28.740    5.7083
   28.770    5.7925
   28.800    5.4239
   28.830    5.1606
   28.860    5.5292
   28.890    5.8557
   28.920    5.5714
   28.950    5.4344
   28.980    5.5292
   29.010    5.2449
   29.040    5.8347
   29.070    5.7399
   29.100    5.7293
   29.130    5.8347
   29.160    5.7188
   29.190    5.7504
   29.220    5.5608
   29.250    5.4344
   29.280    5.8768
   29.310    5.5924
   29.340    5.9926
   29.370    5.1817
   29.400    5.6451
   29.430    5.8873
   29.460    5.3607
   29.490    5.2659
   29.520    5.4766
   29.550    5.2449
   29.580    5.7820
   29.610    5.3291
   29.640    5.4871
   29.670    5.7188
   29.700    5.6029
   29.730    5.6451
   29.760    5.5292
   29.790    5.6661
   29.820    5.4555
   29.850    5.2659
   29.880    5.5398
   29.910    5.5292
   29.940    5.6451
   29.970    5.4660
   30.000    5.1395
   30.030    5.1290
   30.060    5.4134
   30.090    4.9500
   30.120    5.7083
   30.150    5.1711
   30.180    5.7188
   30.210    5.4450
   30.240    5.7609
   30.270    5.7715
   30.300    5.2343
   30.330    5.2659
   30.360    5.4660
   30.390    5.6345
   30.420    5.7188
   30.450    5.6977
   30.480    5.5714
   30.510    5.2975
   30.540    5.6029
   30.570    5.7083
   30.600    5.6661
   30.630    5.7609
   30.660    5.7609
   30.690    5.6451
   30.720    5.4344
   30.750    5.4028
   30.780    5.3081
   30.810    5.3081
   30.840    5.4134
   30.870    5.1922
   30.900    5.3923
   30.930    5.3607
   30.960    5.3502
   30.990    5.2238
   31.020    5.3502
   31.050    5.4766
   31.080    5.3291
   31.110    5.5924
   31.140    5.0132
   31.170    5.2133
   31.200    5.0237
   31.230    4.9921
   31.260    5.3397
   31.290    5.4871
   31.320    5.2343
   31.350    5.2238
   31.380    5.1501
   31.410    5.1711
   31.440    5.3607
   31.470    5.6872
   31.500    5.4344
   31.530    5.2975
   31.560    5.3818
   31.590    4.7499
   31.620    5.0342
   31.650    5.4660
   31.680    5.0026
   31.710    5.1080
   31.740    5.1501
   31.770    5.2870
   31.800    5.1290
   31.830    5.1922
   31.860    5.2765
   31.890    4.9816
   31.920    5.1185
   31.950    5.0869
   31.980    5.3923
   32.010    4.7393
   32.040    5.1290
   32.070    4.9816
   32.100    5.1501
   32.130    5.3712
   32.160    5.0132
   32.190    4.8868
   32.220    5.4766
   32.250    5.3397
   32.280    5.1290
   32.310    5.0974
   32.340    5.0764
   32.370    4.8657
   32.400    4.7288
   32.430    5.0869
   32.460    5.0869
   32.490    4.9921
   32.520    4.9289
   32.550    4.9605
   32.580    4.5498
   32.610    5.1080
   32.640    5.1606
   32.670    5.1185
   32.700    5.1501
   32.730    5.1185
   32.760    5.1711
   32.790    4.8236
   32.820    5.0448
   32.850    4.8763
   32.880    4.8868
   32.910    5.2238
   32.940    5.4871
   32.970    4.9605
   33.000    5.0026
   33.030    5.1606
   33.060    5.1922
   33.090    4.9184
   33.120    5.2238
   33.150    4.8341
   33.180    5.2975
   33.210    4.8868
   33.240    4.8341
   33.270    4.9710
   33.300    5.1501
   33.330    4.6761
   33.360    4.8236
   33.390    4.9605
   33.420    4.7393
   33.450    4.7288
   33.480    4.9710
   33.510    4.6235
   33.540    4.7288
   33.570    5.0026
   33.600    4.7499
   33.630    4.9710
   33.660    4.8131
   33.690    4.7920
   33.720    4.8552
   33.750    5.0869
   33.780    4.8131
   33.810    4.7183
   33.840    4.6024
   33.870    4.7920
   33.900    4.7709
   33.930    4.8025
   33.960    4.4866
   33.990    4.9289
   34.020    4.7604
   34.050    4.6972
   34.080    4.7183
   34.110    4.4866
   34.140    4.5182
   34.170    4.6024
   34.200    4.7920
   34.230    4.6235
   34.260    4.7393
   34.290    4.7499
   34.320    4.8973
   34.350    4.7499
   34.380    4.9710
   34.410    4.6340
   34.440    4.7920
   34.470    4.8657
   34.500    4.8341
   34.530    4.9500
   34.560    4.8552
   34.590    4.8025
   34.620    4.8868
   34.650    4.8552
   34.680    5.0869
   34.710    4.5076
   34.740    4.7604
   34.770    4.8447
   34.800    4.5919
   34.830    4.6972
   34.860    4.7920
   34.890    4.9184
   34.920    4.7288
   34.950    4.8025
   34.980    4.4444
   35.010    4.9500
   35.040    4.7077
   35.070    4.7288
   35.100    4.6656
   35.130    4.6340
   35.160    4.7499
   35.190    5.2238
   35.220    4.6235
   35.250    4.6024
   35.280    5.1290
   35.310    4.6656
   35.340    5.1501
   35.370    4.3286
   35.400    4.4866
   35.430    4.8341
   35.460    4.6972
   35.490    4.6340
   35.520    4.3918
   35.550    4.9921
   35.580    4.8657
   35.610    4.4971
   35.640    4.6867
   35.670    4.0758
   35.700    4.5919
   35.730    5.0658
   35.760    4.6235
   35.790    4.5814
   35.820    4.6445
   35.850    4.7183
   35.880    4.6445
   35.910    4.4655
   35.940    4.8236
   35.970    4.5392
   36.000    4.5919
   36.030    4.5392
   36.060    4.6235
   36.090    4.7288
   36.120    4.5919
   36.150    4.5498
   36.180    4.9289
   36.210    4.3813
   36.240    4.6551
   36.270    4.4234
   36.300    4.7393
   36.330    4.4128
   36.360    4.7604
   36.390    4.6761
   36.420    4.7183
   36.450    4.6551
   36.480    4.8236
   36.510    4.7077
   36.540    4.6656
   36.570    4.4234
   36.600    4.6972
   36.630    4.6445
   36.660    4.5392
   36.690    4.5498
   36.720    4.4655
   36.750    4.4444
   36.780    4.5392
   36.810    4.3707
   36.840    5.0026
   36.870    4.5076
   36.900    4.3181
   36.930    4.7288
   36.960    4.6761
   36.990    4.3286
   37.020    4.6551
   37.050    4.4023
   37.080    4.4128
   37.110    4.5708
   37.140    4.5498
   37.170    4.6024
   37.200    4.6972
   37.230    4.7288
   37.260    4.6551
   37.290    4.5708
   37.320    4.4760
   37.350    4.5076
   37.380    4.5287
   37.410    4.5392
   37.440    4.5603
   37.470    4.6235
   37.500    4.6761
   37.530    4.3286
   37.560    4.8236
   37.590    4.4550
   37.620    4.7709
   37.650    4.8236
   37.680    4.3918
   37.710    4.2233
   37.740    4.7183
   37.770    4.6656
   37.800    4.4128
   37.830    4.1706
   37.860    4.4128
   37.890    4.5919
   37.920    4.3181
   37.950    4.5498
   37.980    4.4550
   38.010    4.6235
   38.040    4.6867
   38.070    4.3075
   38.100    4.8763
   38.130    4.2233
   38.160    4.6130
   38.190    4.6656
   38.220    4.4339
   38.250    4.4971
   38.280    4.4339
   38.310    4.4234
   38.340    4.9184
   38.370    4.7815
   38.400    4.5919
   38.430    4.2338
   38.460    4.4866
   38.490    4.6024
   38.520    4.3918
   38.550    4.6656
   38.580    4.5392
   38.610    4.6972
   38.640    4.3181
   38.670    4.3391
   38.700    4.4234
   38.730    4.7077
   38.760    4.4866
   38.790    4.3286
   38.820    4.6867
   38.850    4.4550
   38.880    4.3391
   38.910    4.6235
   38.940    3.9705
   38.970    4.3497
   39.000    4.8341
   39.030    4.2443
   39.060    4.2970
   39.090    4.2654
   39.120    4.3497
   39.150    4.2443
   39.180    4.3602
   39.210    4.4866
   39.240    4.4655
   39.270    4.5287
   39.300    4.6340
   39.330    4.5814
   39.360    4.4655
   39.390    4.4760
   39.420    4.3602
   39.450    4.1496
   39.480    4.3813
   39.510    4.1285
   39.540    4.5708
   39.570    4.4866
   39.600    4.4866
   39.630    4.2549
   39.660    4.3707
   39.690    4.2127
   39.720    4.6551
   39.750    4.2338
   39.780    4.4655
   39.810    4.5182
   39.840    4.4971
   39.870    4.6340
   39.900    4.4866
   39.930    4.3181
   39.960    4.3391
   39.990    4.1917