File: data/MOCOF-1/PXRD/PXRD_KE-305-2A_Cu-Ka1_capillary-1mm_3s-deg.xyd
    1.500   21.1164
    1.530   21.0637
    1.560   21.3270
    1.590   19.3084
    1.620   19.3260
    1.650   18.9398
    1.680   17.7111
    1.710   17.0265
    1.740   16.9387
    1.770   17.5531
    1.800   16.2191
    1.830   16.2015
    1.860   15.7802
    1.890   15.7978
    1.920   14.7446
    1.950   14.3935
    1.980   14.5866
    2.010   14.0425
    2.040   14.1829
    2.070   13.6212
    2.100   13.3228
    2.130   14.3233
    2.160   13.6212
    2.190   13.5334
    2.220   13.2526
    2.250   13.8494
    2.280   13.9196
    2.310   12.7611
    2.340   13.1648
    2.370   12.9191
    2.400   13.0244
    2.430   13.7441
    2.460   13.2526
    2.490   13.7967
    2.520   13.4808
    2.550   12.9015
    2.580   12.7962
    2.610   13.1297
    2.640   13.8845
    2.670   13.1648
    2.700   13.1297
    2.730   13.7616
    2.760   13.1648
    2.790   13.9723
    2.820   14.3584
    2.850   14.9728
    2.880   14.6042
    2.910   14.7797
    2.940   15.0781
    2.970   15.5520
    3.000   16.8334
    3.030   16.3419
    3.060   16.8685
    3.090   17.4478
    3.120   18.3956
    3.150   18.6765
    3.180   19.2206
    3.210   20.5020
    3.240   20.2212
    3.270   21.8361
    3.300   22.5031
    3.330   22.5382
    3.360   24.5392
    3.390   26.3999
    3.420   27.7339
    3.450   30.1211
    3.480   32.0169
    3.510   34.8780
    3.540   35.3870
    3.570   39.0732
    3.600   42.8822
    3.630   46.7966
    3.660   53.3439
    3.690   59.1364
    3.720   66.0699
    3.750   79.7086
    3.780   97.1564
    3.810  133.4211
    3.840  154.1864
    3.870  124.9605
    3.900   62.1555
    3.930   21.2217
    3.960   12.1292
    3.990   10.3212
    4.020    9.6367
    4.050    9.0398
    4.080    9.0398
    4.110    8.2324
    4.140    8.5659
    4.170    8.3904
    4.200    8.5484
    4.230    7.6707
    4.260    8.1095
    4.290    8.3553
    4.320    7.7936
    4.350    7.7585
    4.380    8.1095
    4.410    7.5478
    4.440    7.8813
    4.470    7.4074
    4.500    7.7760
    4.530    7.4601
    4.560    8.3904
    4.590    7.7936
    4.620    7.4250
    4.650    7.4601
    4.680    7.3196
    4.710    7.6883
    4.740    7.9516
    4.770    7.2319
    4.800    7.5303
    4.830    7.5478
    4.860    8.0569
    4.890    7.5654
    4.920    7.9691
    4.950    8.0042
    4.980    8.5133
    5.010    8.0569
    5.040    8.2500
    5.070    8.8117
    5.100    8.9170
    5.130    9.4787
    5.160    9.5138
    5.190   10.7776
    5.220   10.5143
    5.250    9.9526
    5.280   11.5675
    5.310   12.7787
    5.340   13.6388
    5.370   15.0430
    5.400   17.8866
    5.430   21.5903
    5.460   26.2243
    5.490   23.3456
    5.520   14.5691
    5.550    8.7590
    5.580    7.7234
    5.610    7.0037
    5.640    6.4946
    5.670    6.9686
    5.700    6.7930
    5.730    6.5298
    5.760    6.4595
    5.790    6.3542
    5.820    6.5122
    5.850    6.8106
    5.880    6.5298
    5.910    6.7228
    5.940    6.5649
    5.970    6.8808
    6.000    6.3542
    6.030    7.0037
    6.060    6.7404
    6.090    6.6877
    6.120    6.8282
    6.150    6.8984
    6.180    7.2670
    6.210    7.1792
    6.240    6.7930
    6.270    6.6526
    6.300    7.1266
    6.330    7.0388
    6.360    7.1441
    6.390    7.3723
    6.420    7.5829
    6.450    8.2324
    6.480    7.5478
    6.510    7.5303
    6.540    8.7590
    6.570    9.5489
    6.600    9.3207
    6.630   10.6196
    6.660   11.6202
    6.690   13.2526
    6.720   15.0255
    6.750   12.1819
    6.780    8.3728
    6.810    7.0739
    6.840    6.8808
    6.870    6.1611
    6.900    6.5473
    6.930    6.0909
    6.960    6.3016
    6.990    6.5122
    7.020    6.4420
    7.050    6.1611
    7.080    6.1962
    7.110    6.4069
    7.140    5.9154
    7.170    5.9329
    7.200    6.3893
    7.230    5.9681
    7.260    6.6526
    7.290    6.6877
    7.320    6.3191
    7.350    6.3016
    7.380    6.5824
    7.410    6.9686
    7.440    6.6526
    7.470    6.7930
    7.500    7.2845
    7.530    6.5122
    7.560    7.5654
    7.590    7.1441
    7.620    7.6883
    7.650    8.4957
    7.680    8.6537
    7.710    9.5138
    7.740   11.2691
    7.770   11.5499
    7.800   10.1281
    7.830    7.4776
    7.860    6.4595
    7.890    6.2665
    7.920    6.1260
    7.950    5.7048
    7.980    5.9329
    8.010    6.3718
    8.040    5.7574
    8.070    6.1085
    8.100    5.9856
    8.130    5.8978
    8.160    5.9329
    8.190    6.0207
    8.220    5.9681
    8.250    6.2313
    8.280    6.0207
    8.310    5.8803
    8.340    6.4946
    8.370    5.9154
    8.400    6.1085
    8.430    6.0207
    8.460    6.2840
    8.490    6.4946
    8.520    6.8633
    8.550    6.1085
    8.580    5.8803
    8.610    6.4244
    8.640    6.3718
    8.670    7.2143
    8.700    7.1968
    8.730    6.8106
    8.760    5.8452
    8.790    5.9329
    8.820    5.6872
    8.850    5.4941
    8.880    6.1085
    8.910    5.8452
    8.940    5.3537
    8.970    6.0558
    9.000    6.3016
    9.030    6.2489
    9.060    6.2489
    9.090    6.4946
    9.120    6.6351
    9.150    6.9159
    9.180    6.6877
    9.210    7.0212
    9.240    7.6005
    9.270    7.9164
    9.300    8.0042
    9.330    9.0925
    9.360    9.3734
    9.390   10.7776
    9.420   12.5329
    9.450   15.5345
    9.480   19.6068
    9.510   24.1531
    9.540   23.2579
    9.570   18.9925
    9.600   11.5675
    9.630    7.4074
    9.660    5.9681
    9.690    6.5122
    9.720    6.4946
    9.750    6.1085
    9.780    6.3718
    9.810    6.4069
    9.840    5.8452
    9.870    6.4244
    9.900    6.6351
    9.930    6.2665
    9.960    6.1787
    9.990    6.2665
   10.020    6.4069
   10.050    6.7228
   10.080    6.9861
   10.110    7.3899
   10.140    7.8989
   10.170    8.2500
   10.200    8.8292
   10.230   10.4090
   10.260   13.3228
   10.290   15.0255
   10.320   14.1829
   10.350   11.5675
   10.380    7.6883
   10.410    6.4595
   10.440    5.9154
   10.470    6.2665
   10.500    6.0032
   10.530    5.8978
   10.560    6.0032
   10.590    5.8101
   10.620    5.8101
   10.650    5.7223
   10.680    6.0734
   10.710    6.6526
   10.740    5.8627
   10.770    6.3016
   10.800    6.1085
   10.830    6.8106
   10.860    6.4069
   10.890    7.7409
   10.920    8.0218
   10.950    8.7239
   10.980   10.8829
   11.010   12.0765
   11.040   11.4973
   11.070    8.6712
   11.100    6.8106
   11.130    5.8803
   11.160    6.0734
   11.190    5.7048
   11.220    5.7574
   11.250    5.8803
   11.280    5.3888
   11.310    6.2313
   11.340    5.7399
   11.370    6.2313
   11.400    5.9856
   11.430    6.6175
   11.460    6.7755
   11.490    6.4595
   11.520    6.9510
   11.550    7.4601
   11.580    7.9516
   11.610    9.0223
   11.640   10.1808
   11.670   11.8659
   11.700   12.7962
   11.730   11.1462
   11.760    7.8287
   11.790    6.1260
   11.820    5.8803
   11.850    5.6521
   11.880    5.7750
   11.910    5.6521
   11.940    6.0558
   11.970    6.1611
   12.000    5.3712
   12.030    5.1782
   12.060    5.2484
   12.090    6.1962
   12.120    5.5819
   12.150    5.8803
   12.180    5.8452
   12.210    5.8452
   12.240    6.2138
   12.270    6.5649
   12.300    6.6702
   12.330    6.3718
   12.360    6.4946
   12.390    6.0207
   12.420    6.1436
   12.450    5.7399
   12.480    5.8452
   12.510    5.1957
   12.540    6.1085
   12.570    5.6872
   12.600    6.0558
   12.630    6.0558
   12.660    5.9329
   12.690    6.2489
   12.720    5.5292
   12.750    6.6000
   12.780    6.3367
   12.810    6.5298
   12.840    7.7936
   12.870    8.5835
   12.900    9.9351
   12.930   12.1116
   12.960   11.0409
   12.990    8.6010
   13.020    7.3196
   13.050    6.3191
   13.080    5.4064
   13.110    6.1787
   13.140    5.7399
   13.170    5.5117
   13.200    5.6521
   13.230    5.4415
   13.260    5.5994
   13.290    6.1085
   13.320    5.5819
   13.350    5.5994
   13.380    6.1436
   13.410    6.1436
   13.440    7.0915
   13.470    7.0915
   13.500    7.8813
   13.530    7.7936
   13.560    6.6702
   13.590    6.6702
   13.620    5.6345
   13.650    5.4064
   13.680    5.3888
   13.710    5.7048
   13.740    5.4239
   13.770    5.0904
   13.800    5.7399
   13.830    5.8101
   13.860    5.8452
   13.890    6.0207
   13.920    6.0207
   13.950    6.1962
   13.980    6.4946
   14.010    6.5298
   14.040    7.4250
   14.070    8.6186
   14.100    7.8813
   14.130    6.5122
   14.160    5.9856
   14.190    5.5292
   14.220    5.3888
   14.250    5.8978
   14.280    5.4590
   14.310    5.2835
   14.340    5.9505
   14.370    5.5292
   14.400    4.9500
   14.430    5.6521
   14.460    5.5994
   14.490    6.2489
   14.520    5.3010
   14.550    5.6697
   14.580    5.4239
   14.610    5.6697
   14.640    5.5994
   14.670    5.6345
   14.700    5.4239
   14.730    5.4766
   14.760    5.1431
   14.790    5.4766
   14.820    5.4415
   14.850    5.7399
   14.880    5.4239
   14.910    5.5994
   14.940    5.6521
   14.970    5.5819
   15.000    6.1436
   15.030    5.8627
   15.060    6.0383
   15.090    6.2840
   15.120    6.4595
   15.150    6.9686
   15.180    6.3542
   15.210    5.8276
   15.240    5.0553
   15.270    5.4064
   15.300    5.2659
   15.330    5.5468
   15.360    5.8276
   15.390    5.5468
   15.420    5.5117
   15.450    5.5643
   15.480    5.6345
   15.510    5.3186
   15.540    5.3361
   15.570    5.1957
   15.600    5.3361
   15.630    5.3888
   15.660    5.2835
   15.690    5.0728
   15.720    5.1782
   15.750    5.4064
   15.780    5.8276
   15.810    5.7925
   15.840    5.9329
   15.870    5.3010
   15.900    5.6170
   15.930    5.6170
   15.960    5.4941
   15.990    5.8978
   16.020    5.8101
   16.050    6.5649
   16.080    6.1611
   16.110    6.7579
   16.140    7.4601
   16.170    6.9335
   16.200    6.1611
   16.230    5.5819
   16.260    5.8978
   16.290    5.4239
   16.320    5.7048
   16.350    5.7223
   16.380    5.9505
   16.410    6.0909
   16.440    5.9329
   16.470    5.6697
   16.500    6.4420
   16.530    6.6175
   16.560    7.4425
   16.590    7.8287
   16.620    8.0569
   16.650    6.2489
   16.680    5.6345
   16.710    5.6697
   16.740    5.9505
   16.770    5.5292
   16.800    5.6170
   16.830    5.7399
   16.860    5.9856
   16.890    6.5473
   16.920    6.6526
   16.950    6.5824
   16.980    7.2494
   17.010    8.7941
   17.040    9.7771
   17.070    9.0750
   17.100    8.4079
   17.130    7.0915
   17.160    6.0909
   17.190    5.3010
   17.220    5.7048
   17.250    5.9329
   17.280    5.9329
   17.310    5.7399
   17.340    6.2313
   17.370    5.6521
   17.400    5.5292
   17.430    5.8978
   17.460    6.1085
   17.490    5.7223
   17.520    6.1260
   17.550    5.5643
   17.580    5.7574
   17.610    5.1431
   17.640    5.5819
   17.670    5.6697
   17.700    5.7750
   17.730    5.7223
   17.760    6.1085
   17.790    5.8978
   17.820    5.8276
   17.850    6.0558
   17.880    6.2489
   17.910    6.2840
   17.940    6.6351
   17.970    6.7053
   18.000    5.7048
   18.030    6.1085
   18.060    5.2659
   18.090    5.4766
   18.120    5.9681
   18.150    5.5468
   18.180    6.2489
   18.210    5.4941
   18.240    5.7574
   18.270    6.3191
   18.300    6.4595
   18.330    7.0037
   18.360    7.2670
   18.390    6.7755
   18.420    6.2665
   18.450    5.6872
   18.480    5.7574
   18.510    5.7750
   18.540    5.8978
   18.570    6.0207
   18.600    5.7399
   18.630    5.5468
   18.660    5.6697
   18.690    5.4941
   18.720    5.7048
   18.750    6.0032
   18.780    5.3537
   18.810    5.9681
   18.840    6.2138
   18.870    5.0553
   18.900    5.9681
   18.930    5.7223
   18.960    5.2133
   18.990    5.8276
   19.020    5.4590
   19.050    5.5468
   19.080    5.6170
   19.110    5.6170
   19.140    6.0032
   19.170    6.0032
   19.200    6.1962
   19.230    5.9856
   19.260    5.5994
   19.290    5.8452
   19.320    5.8276
   19.350    5.6521
   19.380    5.4590
   19.410    5.7925
   19.440    6.4771
   19.470    5.8978
   19.500    5.7574
   19.530    6.6702
   19.560    7.1266
   19.590    6.8808
   19.620    7.4952
   19.650    6.7404
   19.680    6.4946
   19.710    5.8627
   19.740    5.8803
   19.770    5.8101
   19.800    5.8627
   19.830    6.3367
   19.860    5.9681
   19.890    5.8803
   19.920    5.7399
   19.950    5.8627
   19.980    5.7750
   20.010    6.2665
   20.040    5.7399
   20.070    6.6702
   20.100    6.2313
   20.130    5.5994
   20.160    5.6872
   20.190    6.1436
   20.220    5.9856
   20.250    6.2489
   20.280    7.2143
   20.310    7.1266
   20.340    8.6186
   20.370    9.4962
   20.400    8.2149
   20.430    7.8287
   20.460    6.8808
   20.490    5.9154
   20.520    5.9329
   20.550    5.5819
   20.580    5.6872
   20.610    5.3888
   20.640    6.3016
   20.670    6.1260
   20.700    6.4946
   20.730    6.6000
   20.760    6.2313
   20.790    6.4595
   20.820    6.1611
   20.850    6.2665
   20.880    5.9329
   20.910    6.0558
   20.940    5.7574
   20.970    6.3542
   21.000    5.6170
   21.030    5.8803
   21.060    6.2313
   21.090    5.5994
   21.120    5.8452
   21.150    5.8276
   21.180    6.0734
   21.210    5.5819
   21.240    5.7048
   21.270    6.2138
   21.300    6.1962
   21.330    5.9856
   21.360    5.4239
   21.390    5.9681
   21.420    5.7399
   21.450    5.7223
   21.480    6.1611
   21.510    5.7925
   21.540    5.5819
   21.570    5.9856
   21.600    6.0909
   21.630    6.1611
   21.660    6.2840
   21.690    6.3367
   21.720    6.6000
   21.750    5.9856
   21.780    6.8106
   21.810    7.0388
   21.840    8.2324
   21.870    7.9340
   21.900    7.0212
   21.930    6.8633
   21.960    6.3718
   21.990    5.8101
   22.020    6.4771
   22.050    5.8276
   22.080    6.1436
   22.110    6.0909
   22.140    6.5122
   22.170    7.1441
   22.200    7.0037
   22.230    6.6351
   22.260    7.2143
   22.290    6.3893
   22.320    6.6877
   22.350    6.8282
   22.380    6.3718
   22.410    6.8457
   22.440    6.6351
   22.470    7.4601
   22.500    8.9170
   22.530   10.0579
   22.560   11.0409
   22.590   10.4616
   22.620    9.2505
   22.650    8.0042
   22.680    6.8457
   22.710    6.3542
   22.740    6.6000
   22.770    7.1266
   22.800    7.1441
   22.830    7.7585
   22.860    9.3734
   22.890   10.0228
   22.920   11.0233
   22.950    9.6367
   22.980    8.4606
   23.010    6.7404
   23.040    6.0207
   23.070    6.1962
   23.100    6.5824
   23.130    6.5824
   23.160    6.8808
   23.190    6.8633
   23.220    7.1090
   23.250    7.3547
   23.280    7.5829
   23.310    6.6351
   23.340    6.9335
   23.370    6.2665
   23.400    6.6526
   23.430    6.0558
   23.460    6.1611
   23.490    6.3542
   23.520    5.9154
   23.550    6.4244
   23.580    6.8984
   23.610    6.5649
   23.640    6.5824
   23.670    5.5117
   23.700    6.0207
   23.730    6.3893
   23.760    6.0734
   23.790    6.4244
   23.820    6.5298
   23.850    7.3021
   23.880    7.0388
   23.910    7.6005
   23.940    7.8989
   23.970    7.4425
   24.000    6.5298
   24.030    5.9154
   24.060    6.3542
   24.090    6.4595
   24.120    6.0909
   24.150    5.1080
   24.180    5.6697
   24.210    6.1962
   24.240    6.3718
   24.270    6.3542
   24.300    5.7925
   24.330    6.2489
   24.360    5.8803
   24.390    5.9681
   24.420    6.4420
   24.450    6.0207
   24.480    5.9681
   24.510    6.3191
   24.540    6.0032
   24.570    6.8808
   24.600    6.1085
   24.630    6.3893
   24.660    5.6170
   24.690    5.6697
   24.720    6.2840
   24.750    5.9154
   24.780    6.2665
   24.810    5.5468
   24.840    6.2840
   24.870    6.1260
   24.900    6.1611
   24.930    6.2138
   24.960    5.7574
   24.990    6.0734
   25.020    6.2840
   25.050    5.9329
   25.080    6.2840
   25.110    6.2313
   25.140    6.5473
   25.170    7.0212
   25.200    7.5127
   25.230    6.5122
   25.260    6.6000
   25.290    6.7404
   25.320    5.9681
   25.350    6.0734
   25.380    6.2138
   25.410    6.2138
   25.440    6.0383
   25.470    6.4946
   25.500    6.2665
   25.530    6.7228
   25.560    6.2489
   25.590    6.7053
   25.620    6.3191
   25.650    6.2313
   25.680    6.3542
   25.710    6.7755
   25.740    7.8287
   25.770    8.5659
   25.800    8.7239
   25.830    9.2329
   25.860    8.9521
   25.890    8.1797
   25.920    6.7228
   25.950    6.0207
   25.980    6.0558
   26.010    5.8452
   26.040    6.0383
   26.070    6.1260
   26.100    5.5468
   26.130    6.1260
   26.160    5.9505
   26.190    6.0558
   26.220    5.7574
   26.250    5.6697
   26.280    6.1787
   26.310    5.9856
   26.340    6.3718
   26.370    6.1085
   26.400    7.0563
   26.430    7.0388
   26.460    6.4244
   26.490    6.2313
   26.520    6.0383
   26.550    5.6697
   26.580    5.7048
   26.610    6.1787
   26.640    5.8276
   26.670    5.4766
   26.700    6.0032
   26.730    5.9154
   26.760    5.6345
   26.790    5.6521
   26.820    5.4064
   26.850    6.1962
   26.880    6.1085
   26.910    5.7750
   26.940    6.7579
   26.970    7.2670
   27.000    7.3021
   27.030    7.2319
   27.060    7.3372
   27.090    6.4595
   27.120    5.9856
   27.150    6.0383
   27.180    5.3712
   27.210    5.5292
   27.240    6.0032
   27.270    5.5292
   27.300    5.1957
   27.330    5.7925
   27.360    5.6521
   27.390    5.6872
   27.420    5.7399
   27.450    6.2138
   27.480    5.6521
   27.510    5.8803
   27.540    6.5122
   27.570    6.7228
   27.600    6.7228
   27.630    6.6702
   27.660    6.7755
   27.690    5.9856
   27.720    6.1611
   27.750    5.5994
   27.780    5.8452
   27.810    5.7574
   27.840    6.2665
   27.870    5.8101
   27.900    6.5298
   27.930    5.9329
   27.960    5.8627
   27.990    6.0032
   28.020    5.8276
   28.050    5.3361
   28.080    5.9681
   28.110    6.1436
   28.140    6.9686
   28.170    6.8808
   28.200    6.6702
   28.230    6.6175
   28.260    6.0734
   28.290    6.0032
   28.320    5.5468
   28.350    6.3191
   28.380    6.4069
   28.410    6.1962
   28.440    7.3547
   28.470    6.8457
   28.500    6.6526
   28.530    5.7750
   28.560    5.7925
   28.590    5.5292
   28.620    5.4239
   28.650    5.5117
   28.680    5.5292
   28.710    5.3186
   28.740    5.5643
   28.770    5.4415
   28.800    5.4415
   28.830    5.4766
   28.860    5.4415
   28.890    5.5819
   28.920    5.3010
   28.950    5.4064
   28.980    5.5994
   29.010    6.0207
   29.040    5.8803
   29.070    5.4941
   29.100    5.8627
   29.130    5.0904
   29.160    5.1957
   29.190    5.2659
   29.220    5.9154
   29.250    5.6872
   29.280    6.3016
   29.310    5.9329
   29.340    6.2313
   29.370    6.0558
   29.400    5.8452
   29.430    5.5819
   29.460    5.4941
   29.490    5.5994
   29.520    5.2133
   29.550    5.5643
   29.580    5.4941
   29.610    5.5117
   29.640    5.0377
   29.670    4.9675
   29.700    5.6697
   29.730    5.4415
   29.760    5.4766
   29.790    6.0383
   29.820    5.3010
   29.850    5.9856
   29.880    5.5643
   29.910    5.6521
   29.940    5.6345
   29.970    5.3888
   30.000    5.3888
   30.030    5.5643
   30.060    5.3888
   30.090    5.4590
   30.120    5.5292
   30.150    5.2659
   30.180    5.5819
   30.210    5.3361
   30.240    5.3361
   30.270    5.5819
   30.300    5.3361
   30.330    5.7925
   30.360    4.8095
   30.390    5.7048
   30.420    4.7042
   30.450    5.1080
   30.480    5.2133
   30.510    4.7393
   30.540    5.4590
   30.570    5.4941
   30.600    5.4590
   30.630    5.7223
   30.660    5.6345
   30.690    5.3010
   30.720    5.4064
   30.750    5.0377
   30.780    5.3010
   30.810    5.4239
   30.840    5.2133
   30.870    4.8973
   30.900    5.1431
   30.930    5.0553
   30.960    5.3888
   30.990    4.7042
   31.020    4.8447
   31.050    5.1431
   31.080    5.0377
   31.110    5.6697
   31.140    4.8622
   31.170    5.1606
   31.200    4.8095
   31.230    5.0728
   31.260    5.2133
   31.290    5.1080
   31.320    5.5117
   31.350    5.5643
   31.380    5.3537
   31.410    5.1255
   31.440    5.3010
   31.470    5.3361
   31.500    5.2835
   31.530    5.1255
   31.560    5.0728
   31.590    5.2308
   31.620    4.6165
   31.650    5.5117
   31.680    5.1080
   31.710    5.1782
   31.740    5.3010
   31.770    5.0202
   31.800    4.6340
   31.830    4.8447
   31.860    5.5292
   31.890    5.7750
   31.920    4.9675
   31.950    5.0202
   31.980    4.9675
   32.010    4.9500
   32.040    4.8271
   32.070    5.0553
   32.100    4.8973
   32.130    4.9324
   32.160    5.1606
   32.190    4.9500
   32.220    4.1776
   32.250    4.9851
   32.280    5.2308
   32.310    5.0202
   32.340    4.9500
   32.370    4.5463
   32.400    4.7920
   32.430    4.4409
   32.460    5.0553
   32.490    4.8622
   32.520    4.9851
   32.550    5.1431
   32.580    4.9149
   32.610    4.8973
   32.640    4.4234
   32.670    4.6516
   32.700    4.8973
   32.730    4.5814
   32.760    4.5287
   32.790    4.9149
   32.820    5.0377
   32.850    4.6516
   32.880    5.5643
   32.910    5.2308
   32.940    4.9324
   32.970    5.0377
   33.000    5.0553
   33.030    4.5989
   33.060    4.9324
   33.090    5.1957
   33.120    4.7393
   33.150    4.6340
   33.180    4.6691
   33.210    5.0904
   33.240    4.8622
   33.270    4.7393
   33.300    4.4936
   33.330    4.5463
   33.360    4.8798
   33.390    4.4234
   33.420    4.8622
   33.450    4.8271
   33.480    5.0377
   33.510    4.8622
   33.540    4.5989
   33.570    5.0728
   33.600    4.8622
   33.630    4.7218
   33.660    4.3005
   33.690    4.5463
   33.720    4.5989
   33.750    4.9675
   33.780    4.7920
   33.810    4.9675
   33.840    4.6340
   33.870    4.5989
   33.900    5.3010
   33.930    5.0202
   33.960    5.0728
   33.990    4.7569
   34.020    4.5989
   34.050    4.3707
   34.080    4.7042
   34.110    5.0377
   34.140    4.5814
   34.170    4.5814
   34.200    4.1074
   34.230    4.7042
   34.260    4.4409
   34.290    4.4234
   34.320    4.5814
   34.350    4.5638
   34.380    5.0202
   34.410    4.8447
   34.440    4.6340
   34.470    4.5463
   34.500    4.7042
   34.530    4.4585
   34.560    4.8973
   34.590    4.6340
   34.620    4.2127
   34.650    4.7218
   34.680    4.3707
   34.710    4.5111
   34.740    4.5638
   34.770    4.3707
   34.800    4.6691
   34.830    5.0202
   34.860    4.8271
   34.890    4.7744
   34.920    4.3883
   34.950    4.2654
   34.980    4.3005
   35.010    4.1074
   35.040    4.1601
   35.070    4.3356
   35.100    4.7218
   35.130    4.2303
   35.160    4.1425
   35.190    4.6165
   35.220    4.3707
   35.250    5.0026
   35.280    4.5814
   35.310    4.2830
   35.340    4.3532
   35.370    4.4409
   35.400    4.3532
   35.430    4.3532
   35.460    4.4234
   35.490    4.0021
   35.520    4.2478
   35.550    4.0197
   35.580    4.6691
   35.610    4.4585
   35.640    4.0548
   35.670    4.5463
   35.700    4.5111
   35.730    4.2830
   35.760    3.9494
   35.790    3.9670
   35.820    4.1776
   35.850    4.3883
   35.880    4.4585
   35.910    4.3356
   35.940    4.6165
   35.970    4.4234
   36.000    4.4058
   36.030    4.2654
   36.060    3.9319
   36.090    4.4585
   36.120    4.7042
   36.150    4.4936
   36.180    4.2478
   36.210    4.4936
   36.240    4.2654
   36.270    4.5989
   36.300    4.1250
   36.330    4.1776
   36.360    3.8617
   36.390    4.2127
   36.420    4.2830
   36.450    3.9494
   36.480    4.5638
   36.510    4.4409
   36.540    4.4234
   36.570    4.4585
   36.600    4.5814
   36.630    4.1250
   36.660    4.4058
   36.690    4.2654
   36.720    4.5638
   36.750    4.0372
   36.780    3.8090
   36.810    4.3005
   36.840    4.2127
   36.870    4.2303
   36.900    3.9670
   36.930    4.3883
   36.960    3.7915
   36.990    4.0548
   37.020    4.5111
   37.050    4.3707
   37.080    4.5814
   37.110    4.4936
   37.140    3.6686
   37.170    4.4936
   37.200    4.2127
   37.230    3.9846
   37.260    4.2654
   37.290    3.9319
   37.320    4.1601
   37.350    4.2303
   37.380    4.1952
   37.410    4.3883
   37.440    4.2830
   37.470    4.2127
   37.500    3.7037
   37.530    3.7915
   37.560    4.3181
   37.590    4.3707
   37.620    4.1952
   37.650    4.3532
   37.680    4.1250
   37.710    4.2654
   37.740    3.9670
   37.770    4.4585
   37.800    4.2654
   37.830    4.3005
   37.860    4.2830
   37.890    4.0548
   37.920    4.0899
   37.950    3.8617
   37.980    4.3005
   38.010    4.2830
   38.040    4.1776
   38.070    4.1952
   38.100    4.1601
   38.130    4.2127
   38.160    4.1776
   38.190    4.1250
   38.220    4.1601
   38.250    4.1074
   38.280    4.3005
   38.310    3.7739
   38.340    4.1074
   38.370    4.1425
   38.400    4.0548
   38.430    3.7564
   38.460    3.8792
   38.490    4.5463
   38.520    3.8617
   38.550    3.8792
   38.580    4.0372
   38.610    3.5633
   38.640    4.0899
   38.670    4.0899
   38.700    3.9143
   38.730    3.9143
   38.760    3.9143
   38.790    3.8090
   38.820    4.1425
   38.850    4.0723
   38.880    4.0548
   38.910    4.1250
   38.940    4.1074
   38.970    3.9494
   39.000    3.8617
   39.030    3.9670
   39.060    3.8441
   39.090    4.3181
   39.120    3.9319
   39.150    4.1425
   39.180    4.3005
   39.210    4.0899
   39.240    4.4760
   39.270    4.0723
   39.300    4.2830
   39.330    4.0723
   39.360    4.2830
   39.390    4.1425
   39.420    3.8266
   39.450    4.4058
   39.480    3.6159
   39.510    3.9143
   39.540    3.8792
   39.570    3.8266
   39.600    3.7388
   39.630    3.7739
   39.660    4.0723
   39.690    3.7388
   39.720    4.0723
   39.750    3.9846
   39.780    4.2830
   39.810    4.1776
   39.840    4.1952
   39.870    4.2654
   39.900    4.0197
   39.930    4.1776
   39.960    4.0197
   39.990    3.8792