File: data/MOCOF-1/PXRD/PXRD_KE-282_Cu-Ka1_film-3mm_3s-deg.xyd
    1.500   15.3590
    1.530   15.4818
    1.560   15.0781
    1.590   14.8850
    1.620   13.8494
    1.650   13.9021
    1.680   13.6914
    1.710   13.4983
    1.740   13.4808
    1.770   13.3052
    1.800   12.5154
    1.830   11.7430
    1.860   12.0590
    1.890   12.8138
    1.920   11.5324
    1.950   11.2691
    1.980   11.3042
    2.010   10.8127
    2.040   10.7600
    2.070   10.9531
    2.100   11.0585
    2.130   10.5670
    2.160   10.7600
    2.190   10.3739
    2.220    9.4611
    2.250   10.8654
    2.280   10.6547
    2.310    9.7946
    2.340    9.2154
    2.370   10.0053
    2.400    9.7946
    2.430    9.5138
    2.460    9.2154
    2.490    9.2856
    2.520    8.8819
    2.550    9.0574
    2.580    9.7244
    2.610    9.0574
    2.640    8.8117
    2.670    9.2154
    2.700    8.6712
    2.730    9.3031
    2.760    9.1627
    2.790    9.4787
    2.820    8.9696
    2.850    9.1276
    2.880    8.5659
    2.910    8.3904
    2.940    8.1973
    2.970    9.1627
    3.000    8.7063
    3.030    8.3202
    3.060    8.4606
    3.090    9.0750
    3.120    8.6010
    3.150    8.2324
    3.180    8.3026
    3.210    8.5835
    3.240    9.0925
    3.270    9.3031
    3.300    9.0047
    3.330    8.6186
    3.360    8.5835
    3.390    8.8994
    3.420    8.8819
    3.450    8.6537
    3.480    9.3558
    3.510    9.2154
    3.540    9.2856
    3.570    9.5489
    3.600   10.2510
    3.630    9.9351
    3.660   10.1106
    3.690   10.9180
    3.720   11.6377
    3.750   12.6207
    3.780   13.5159
    3.810   15.3414
    3.840   16.8685
    3.870   15.5520
    3.900   13.6212
    3.930   10.7074
    3.960    9.3382
    3.990    8.8117
    4.020    8.6712
    4.050    8.7765
    4.080    8.3728
    4.110    9.0398
    4.140    9.4787
    4.170    8.7941
    4.200    8.2851
    4.230    8.4430
    4.260    9.2505
    4.290    8.8643
    4.320    8.4781
    4.350    8.3553
    4.380    8.0218
    4.410    8.7239
    4.440    8.3377
    4.470    8.6361
    4.500    8.8643
    4.530    8.7590
    4.560    8.6361
    4.590    9.2680
    4.620    8.3377
    4.650    9.2680
    4.680    8.5835
    4.710    8.1622
    4.740    8.7063
    4.770    9.1276
    4.800    8.2149
    4.830    8.8468
    4.860    8.3904
    4.890    8.9345
    4.920    7.9691
    4.950    8.5133
    4.980    9.0750
    5.010    8.5484
    5.040    9.1627
    5.070    9.7946
    5.100    9.1627
    5.130    9.5313
    5.160    9.4611
    5.190    9.6542
    5.220    9.9702
    5.250   10.4265
    5.280   10.9531
    5.310   10.3563
    5.340   10.9005
    5.370   10.8654
    5.400   12.0765
    5.430   12.3574
    5.460   11.8659
    5.490   11.4797
    5.520   12.0941
    5.550   10.7952
    5.580   10.8303
    5.610   10.7249
    5.640   11.0058
    5.670   10.9180
    5.700   10.7600
    5.730   10.7425
    5.760    9.9351
    5.790    9.9526
    5.820    9.9175
    5.850    9.7420
    5.880    9.4436
    5.910    9.1276
    5.940    8.7239
    5.970    8.2149
    6.000    8.7941
    6.030    8.9696
    6.060    8.9521
    6.090    8.6712
    6.120    8.1095
    6.150    8.5308
    6.180    8.5484
    6.210    8.9170
    6.240    8.4430
    6.270    8.5484
    6.300    8.4255
    6.330    8.2500
    6.360    8.0042
    6.390    8.0744
    6.420    8.2149
    6.450    8.3202
    6.480    7.8111
    6.510    8.1095
    6.540    8.5659
    6.570    7.8813
    6.600    8.2675
    6.630    8.1271
    6.660    8.6010
    6.690    7.9691
    6.720    8.8994
    6.750    8.6186
    6.780    8.4079
    6.810    7.3899
    6.840    7.5478
    6.870    7.7409
    6.900    7.3723
    6.930    7.3372
    6.960    7.5303
    6.990    7.2845
    7.020    7.6883
    7.050    7.4074
    7.080    7.2494
    7.110    6.9159
    7.140    7.5303
    7.170    7.6707
    7.200    6.7053
    7.230    6.9335
    7.260    7.1617
    7.290    6.9335
    7.320    7.5478
    7.350    6.9159
    7.380    7.3196
    7.410    6.6000
    7.440    6.6877
    7.470    7.3723
    7.500    7.4250
    7.530    6.6877
    7.560    7.0388
    7.590    6.6877
    7.620    6.8106
    7.650    6.9686
    7.680    6.5824
    7.710    6.8282
    7.740    6.7755
    7.770    7.2319
    7.800    7.4074
    7.830    6.6000
    7.860    6.7755
    7.890    6.8106
    7.920    6.2665
    7.950    6.6702
    7.980    6.6702
    8.010    6.5824
    8.040    6.7579
    8.070    6.3367
    8.100    6.2840
    8.130    6.1962
    8.160    6.8282
    8.190    6.7755
    8.220    6.4595
    8.250    6.3367
    8.280    6.1787
    8.310    6.4595
    8.340    6.4595
    8.370    6.7053
    8.400    6.2840
    8.430    6.4420
    8.460    6.8106
    8.490    6.2138
    8.520    6.0558
    8.550    6.0909
    8.580    6.1436
    8.610    6.1611
    8.640    6.0909
    8.670    6.4946
    8.700    6.6702
    8.730    6.1962
    8.760    5.9681
    8.790    6.3016
    8.820    6.1260
    8.850    6.3893
    8.880    6.3542
    8.910    6.0734
    8.940    6.1787
    8.970    6.0909
    9.000    6.5122
    9.030    5.8978
    9.060    6.2840
    9.090    6.7404
    9.120    5.9505
    9.150    6.1260
    9.180    5.5643
    9.210    6.3893
    9.240    6.1787
    9.270    6.3542
    9.300    6.1436
    9.330    6.7053
    9.360    6.9159
    9.390    6.6000
    9.420    7.1617
    9.450    6.5824
    9.480    7.2670
    9.510    7.0388
    9.540    7.5654
    9.570    7.7058
    9.600    6.8282
    9.630    7.0739
    9.660    6.4244
    9.690    6.1962
    9.720    6.1962
    9.750    5.9154
    9.780    6.5298
    9.810    6.7228
    9.840    6.2313
    9.870    6.3016
    9.900    6.1436
    9.930    6.4244
    9.960    6.1787
    9.990    5.9856
   10.020    5.8276
   10.050    6.4771
   10.080    6.3893
   10.110    6.8633
   10.140    6.5473
   10.170    6.6175
   10.200    6.7930
   10.230    7.1090
   10.260    6.5824
   10.290    6.8633
   10.320    7.1617
   10.350    6.8984
   10.380    6.3191
   10.410    6.1787
   10.440    6.6175
   10.470    5.6170
   10.500    6.3718
   10.530    6.2489
   10.560    6.9510
   10.590    6.6000
   10.620    6.6877
   10.650    6.4595
   10.680    6.0207
   10.710    6.0207
   10.740    6.1787
   10.770    6.8106
   10.800    6.3893
   10.830    6.7053
   10.860    7.1617
   10.890    6.1611
   10.920    6.3893
   10.950    6.4595
   10.980    6.6877
   11.010    6.8984
   11.040    6.6175
   11.070    6.9861
   11.100    6.6175
   11.130    6.3191
   11.160    7.0212
   11.190    6.7228
   11.220    6.1962
   11.250    5.8978
   11.280    6.2313
   11.310    6.1085
   11.340    6.3718
   11.370    6.0032
   11.400    5.9681
   11.430    6.3016
   11.460    6.0207
   11.490    6.2840
   11.520    6.0032
   11.550    6.0558
   11.580    6.1962
   11.610    6.6175
   11.640    6.7930
   11.670    6.7930
   11.700    6.6877
   11.730    6.3542
   11.760    6.6175
   11.790    6.0207
   11.820    6.1787
   11.850    6.1436
   11.880    5.8803
   11.910    6.1436
   11.940    5.6170
   11.970    5.8276
   12.000    6.0032
   12.030    6.3367
   12.060    5.6170
   12.090    6.1611
   12.120    5.8101
   12.150    5.2835
   12.180    5.6521
   12.210    5.8452
   12.240    6.1787
   12.270    6.0558
   12.300    5.8803
   12.330    6.0383
   12.360    6.5473
   12.390    5.7048
   12.420    6.2489
   12.450    6.0734
   12.480    6.0032
   12.510    5.9681
   12.540    6.4595
   12.570    6.0032
   12.600    6.1260
   12.630    5.5819
   12.660    6.0032
   12.690    5.6345
   12.720    5.5643
   12.750    5.7399
   12.780    6.1085
   12.810    6.0383
   12.840    5.3537
   12.870    5.9681
   12.900    6.3367
   12.930    6.3016
   12.960    6.6175
   12.990    5.8978
   13.020    5.8276
   13.050    5.7048
   13.080    5.3010
   13.110    5.3888
   13.140    5.3010
   13.170    5.8276
   13.200    5.9505
   13.230    5.7223
   13.260    5.8627
   13.290    5.3537
   13.320    6.1611
   13.350    5.4415
   13.380    5.8101
   13.410    5.8452
   13.440    5.5994
   13.470    5.8803
   13.500    5.6521
   13.530    5.7399
   13.560    6.1787
   13.590    6.1787
   13.620    5.5117
   13.650    5.6170
   13.680    5.9856
   13.710    5.6697
   13.740    6.3016
   13.770    5.3010
   13.800    5.5468
   13.830    5.7048
   13.860    5.6872
   13.890    6.1260
   13.920    5.8101
   13.950    5.7399
   13.980    5.5292
   14.010    5.7574
   14.040    5.4766
   14.070    6.4420
   14.100    6.3718
   14.130    6.4946
   14.160    5.9329
   14.190    6.0207
   14.220    5.6521
   14.250    5.8101
   14.280    6.0909
   14.310    6.5298
   14.340    5.8101
   14.370    6.1085
   14.400    6.4771
   14.430    6.0558
   14.460    6.2840
   14.490    6.4069
   14.520    6.4595
   14.550    5.8803
   14.580    6.0032
   14.610    6.0558
   14.640    6.1085
   14.670    6.2489
   14.700    6.3191
   14.730    5.8101
   14.760    6.3016
   14.790    5.9681
   14.820    5.8978
   14.850    5.5468
   14.880    5.4064
   14.910    5.5643
   14.940    5.6170
   14.970    6.0734
   15.000    5.8978
   15.030    6.0207
   15.060    5.7750
   15.090    5.3712
   15.120    5.4239
   15.150    5.7925
   15.180    5.8101
   15.210    5.3186
   15.240    5.7223
   15.270    5.9505
   15.300    5.8452
   15.330    5.4941
   15.360    5.7399
   15.390    6.3367
   15.420    5.1606
   15.450    5.4941
   15.480    5.8452
   15.510    5.4590
   15.540    5.7399
   15.570    5.7750
   15.600    5.4415
   15.630    5.7223
   15.660    5.9329
   15.690    5.6521
   15.720    5.3537
   15.750    5.9154
   15.780    5.3888
   15.810    5.7048
   15.840    5.7925
   15.870    5.5643
   15.900    5.2308
   15.930    5.5468
   15.960    5.5643
   15.990    5.9329
   16.020    5.6697
   16.050    5.4239
   16.080    5.3537
   16.110    5.5643
   16.140    5.7750
   16.170    5.8276
   16.200    5.9681
   16.230    5.8276
   16.260    5.4239
   16.290    5.7399
   16.320    5.8101
   16.350    5.4415
   16.380    5.4941
   16.410    5.6170
   16.440    5.7574
   16.470    5.5819
   16.500    5.2308
   16.530    5.5819
   16.560    5.7223
   16.590    5.8276
   16.620    5.8452
   16.650    5.6521
   16.680    5.4590
   16.710    5.4766
   16.740    5.3888
   16.770    5.3010
   16.800    6.0032
   16.830    5.9681
   16.860    5.7574
   16.890    5.3537
   16.920    5.7574
   16.950    5.4239
   16.980    5.6697
   17.010    5.5292
   17.040    6.0734
   17.070    6.3718
   17.100    5.6872
   17.130    5.4239
   17.160    5.7223
   17.190    5.4239
   17.220    5.4415
   17.250    5.5994
   17.280    5.7399
   17.310    5.6345
   17.340    5.3888
   17.370    5.3361
   17.400    5.7574
   17.430    5.5468
   17.460    5.3537
   17.490    5.8627
   17.520    5.7399
   17.550    5.3712
   17.580    5.4766
   17.610    5.6872
   17.640    5.1431
   17.670    5.7750
   17.700    5.6872
   17.730    5.7574
   17.760    5.6345
   17.790    5.5994
   17.820    5.1606
   17.850    5.6872
   17.880    6.1962
   17.910    5.7399
   17.940    5.6697
   17.970    5.1782
   18.000    5.3888
   18.030    6.2138
   18.060    5.3888
   18.090    5.4064
   18.120    5.8452
   18.150    4.9851
   18.180    6.0383
   18.210    5.2835
   18.240    5.7750
   18.270    5.1606
   18.300    5.4766
   18.330    6.0558
   18.360    5.3186
   18.390    5.3712
   18.420    5.7399
   18.450    5.8452
   18.480    5.6872
   18.510    5.3186
   18.540    5.3888
   18.570    5.4239
   18.600    5.7925
   18.630    5.4415
   18.660    5.6170
   18.690    5.3888
   18.720    5.3361
   18.750    5.0202
   18.780    5.1606
   18.810    5.5292
   18.840    5.5643
   18.870    5.6170
   18.900    5.3537
   18.930    5.6170
   18.960    5.3010
   18.990    6.0207
   19.020    5.2133
   19.050    5.7574
   19.080    5.3888
   19.110    5.4590
   19.140    5.2484
   19.170    5.4239
   19.200    5.4064
   19.230    5.8452
   19.260    5.3010
   19.290    5.8101
   19.320    4.9851
   19.350    5.7223
   19.380    5.1606
   19.410    5.4941
   19.440    5.3537
   19.470    5.5292
   19.500    5.5468
   19.530    5.2308
   19.560    5.6697
   19.590    5.5292
   19.620    5.6345
   19.650    5.3537
   19.680    5.4941
   19.710    5.3888
   19.740    5.4941
   19.770    5.0026
   19.800    5.4766
   19.830    5.4766
   19.860    5.2133
   19.890    5.3712
   19.920    5.5117
   19.950    5.6872
   19.980    5.3537
   20.010    5.3361
   20.040    4.8798
   20.070    5.3361
   20.100    4.8973
   20.130    5.4239
   20.160    5.4239
   20.190    4.6165
   20.220    5.3712
   20.250    5.3712
   20.280    5.3537
   20.310    5.5117
   20.340    5.5643
   20.370    5.4239
   20.400    5.4766
   20.430    5.7750
   20.460    5.3010
   20.490    5.3888
   20.520    5.4590
   20.550    5.5292
   20.580    5.5292
   20.610    5.4941
   20.640    5.3186
   20.670    5.4239
   20.700    5.1255
   20.730    4.9851
   20.760    5.1606
   20.790    4.7042
   20.820    6.0207
   20.850    5.4590
   20.880    5.4766
   20.910    5.1431
   20.940    5.4590
   20.970    5.2484
   21.000    5.4941
   21.030    5.4064
   21.060    5.0728
   21.090    5.0202
   21.120    5.0377
   21.150    4.9500
   21.180    5.4415
   21.210    5.5994
   21.240    4.5463
   21.270    5.1431
   21.300    5.4064
   21.330    5.1957
   21.360    5.2308
   21.390    5.3010
   21.420    5.0202
   21.450    5.3010
   21.480    5.3186
   21.510    5.2484
   21.540    5.1080
   21.570    5.4064
   21.600    5.3010
   21.630    5.5117
   21.660    5.4941
   21.690    5.2659
   21.720    5.1255
   21.750    5.2308
   21.780    5.3888
   21.810    5.4239
   21.840    5.0377
   21.870    4.9149
   21.900    5.4064
   21.930    5.3361
   21.960    4.7218
   21.990    5.3010
   22.020    5.0904
   22.050    5.4415
   22.080    5.1782
   22.110    5.0202
   22.140    5.3712
   22.170    5.0553
   22.200    5.3712
   22.230    5.1431
   22.260    4.6516
   22.290    5.5117
   22.320    5.0904
   22.350    5.0026
   22.380    5.1782
   22.410    4.9324
   22.440    5.4064
   22.470    5.5117
   22.500    5.3186
   22.530    5.3712
   22.560    5.1255
   22.590    5.7048
   22.620    5.4941
   22.650    5.3361
   22.680    5.0026
   22.710    4.9851
   22.740    4.9500
   22.770    5.3186
   22.800    5.3361
   22.830    5.1431
   22.860    4.8271
   22.890    4.9149
   22.920    5.2308
   22.950    5.0553
   22.980    5.7223
   23.010    4.7393
   23.040    4.9851
   23.070    4.8447
   23.100    5.1782
   23.130    5.4064
   23.160    4.9500
   23.190    5.0553
   23.220    4.9851
   23.250    5.3010
   23.280    5.0202
   23.310    4.9149
   23.340    5.5117
   23.370    5.0904
   23.400    4.8798
   23.430    4.9324
   23.460    5.1606
   23.490    4.5989
   23.520    4.9324
   23.550    5.0377
   23.580    4.7744
   23.610    5.2308
   23.640    4.7920
   23.670    5.0904
   23.700    4.7042
   23.730    4.7744
   23.760    4.6691
   23.790    4.7393
   23.820    5.1957
   23.850    4.4409
   23.880    4.7569
   23.910    5.1080
   23.940    4.7920
   23.970    4.9149
   24.000    4.8095
   24.030    4.8798
   24.060    4.8973
   24.090    4.5287
   24.120    4.8798
   24.150    4.5814
   24.180    4.8622
   24.210    4.8973
   24.240    4.8622
   24.270    4.7920
   24.300    5.1782
   24.330    4.5111
   24.360    4.5989
   24.390    4.7393
   24.420    4.6165
   24.450    4.6165
   24.480    4.5989
   24.510    4.3883
   24.540    4.8798
   24.570    4.5111
   24.600    4.3532
   24.630    5.1255
   24.660    4.4058
   24.690    4.2654
   24.720    4.9851
   24.750    4.7042
   24.780    4.6165
   24.810    4.7393
   24.840    4.6516
   24.870    4.8973
   24.900    4.9149
   24.930    5.2659
   24.960    4.2654
   24.990    4.8622
   25.020    4.7569
   25.050    4.5989
   25.080    4.6516
   25.110    4.4936
   25.140    4.4234
   25.170    4.5814
   25.200    4.8798
   25.230    4.9500
   25.260    4.4058
   25.290    4.7393
   25.320    4.8095
   25.350    4.3532
   25.380    4.5638
   25.410    4.8095
   25.440    4.4058
   25.470    4.7569
   25.500    4.7744
   25.530    4.6516
   25.560    4.9675
   25.590    4.4234
   25.620    5.0728
   25.650    4.6516
   25.680    4.6691
   25.710    4.3883
   25.740    4.7218
   25.770    4.6340
   25.800    4.8271
   25.830    5.1606
   25.860    4.4760
   25.890    4.5814
   25.920    4.9500
   25.950    4.6867
   25.980    4.7920
   26.010    4.3883
   26.040    4.2478
   26.070    4.8447
   26.100    4.5111
   26.130    4.7569
   26.160    4.5638
   26.190    4.6340
   26.220    4.4585
   26.250    4.0021
   26.280    4.5989
   26.310    4.5638
   26.340    4.7744
   26.370    4.6691
   26.400    4.7042
   26.430    4.2478
   26.460    4.4409
   26.490    5.0026
   26.520    4.3356
   26.550    4.7393
   26.580    4.1074
   26.610    4.3707
   26.640    4.3707
   26.670    4.3883
   26.700    4.4234
   26.730    4.2303
   26.760    4.3005
   26.790    4.5463
   26.820    4.3707
   26.850    4.3707
   26.880    4.5111
   26.910    4.1601
   26.940    4.2303
   26.970    4.2127
   27.000    4.4409
   27.030    4.7920
   27.060    4.5463
   27.090    4.7218
   27.120    4.1250
   27.150    4.4585
   27.180    4.4760
   27.210    4.5111
   27.240    4.8622
   27.270    4.2303
   27.300    4.4585
   27.330    3.9494
   27.360    4.6340
   27.390    4.2303
   27.420    4.3356
   27.450    4.1425
   27.480    4.1776
   27.510    4.3181
   27.540    4.0899
   27.570    4.2830
   27.600    4.3883
   27.630    4.2830
   27.660    4.3532
   27.690    4.4409
   27.720    4.2830
   27.750    4.1250
   27.780    3.8792
   27.810    4.1952
   27.840    4.3005
   27.870    4.2478
   27.900    4.4585
   27.930    4.4234
   27.960    4.0372
   27.990    4.6691
   28.020    4.3181
   28.050    4.3532
   28.080    4.3005
   28.110    4.0723
   28.140    4.3181
   28.170    4.2127
   28.200    4.5111
   28.230    4.0723
   28.260    4.4760
   28.290    4.3532
   28.320    4.1250
   28.350    3.9319
   28.380    4.2127
   28.410    4.4409
   28.440    4.0197
   28.470    4.0021
   28.500    4.3181
   28.530    3.8266
   28.560    4.1952
   28.590    4.0899
   28.620    4.0021
   28.650    4.1601
   28.680    4.5463
   28.710    4.0899
   28.740    4.2127
   28.770    4.2478
   28.800    4.0723
   28.830    4.6165
   28.860    4.0372
   28.890    4.1425
   28.920    4.0548
   28.950    4.6867
   28.980    4.3181
   29.010    4.0548
   29.040    3.8617
   29.070    4.0548
   29.100    4.3883
   29.130    3.5282
   29.160    4.2303
   29.190    3.4580
   29.220    3.9846
   29.250    4.2127
   29.280    4.1074
   29.310    4.2478
   29.340    4.1776
   29.370    4.0548
   29.400    4.2303
   29.430    3.5457
   29.460    3.9494
   29.490    3.5984
   29.520    3.8441
   29.550    3.9846
   29.580    3.6510
   29.610    3.6159
   29.640    3.5984
   29.670    3.7564
   29.700    3.8090
   29.730    3.8792
   29.760    3.5984
   29.790    3.7915
   29.820    3.8617
   29.850    3.4229
   29.880    3.4580
   29.910    3.6335
   29.940    3.4404
   29.970    3.8441
   30.000    4.0372
   30.030    3.6335
   30.060    3.7037
   30.090    3.4404
   30.120    3.8441
   30.150    3.6159
   30.180    3.4229
   30.210    3.5808
   30.240    3.3175
   30.270    3.6862
   30.300    3.9143
   30.330    4.0723
   30.360    3.5282
   30.390    3.6862
   30.420    3.8090
   30.450    3.8968
   30.480    3.6686
   30.510    3.6862
   30.540    3.5282
   30.570    3.6862
   30.600    3.7388
   30.630    3.6159
   30.660    3.7915
   30.690    3.5106
   30.720    3.6335
   30.750    4.0021
   30.780    3.7915
   30.810    3.3175
   30.840    3.3351
   30.870    3.5984
   30.900    3.8617
   30.930    3.8792
   30.960    3.4404
   30.990    3.9319
   31.020    3.5457
   31.050    3.4931
   31.080    3.4229
   31.110    3.8968
   31.140    3.4931
   31.170    3.2824
   31.200    3.5282
   31.230    3.5633
   31.260    3.1420
   31.290    3.1069
   31.320    3.4931
   31.350    3.6159
   31.380    3.3702
   31.410    3.6335
   31.440    3.1596
   31.470    3.5984
   31.500    3.4931
   31.530    3.5282
   31.560    3.7915
   31.590    3.4404
   31.620    3.3000
   31.650    3.6159
   31.680    3.4053
   31.710    3.0542
   31.740    3.4404
   31.770    3.8266
   31.800    3.7213
   31.830    3.3351
   31.860    3.4404
   31.890    3.4931
   31.920    3.3702
   31.950    3.6335
   31.980    3.7213
   32.010    3.1947
   32.040    3.4404
   32.070    3.7564
   32.100    4.0372
   32.130    3.6159
   32.160    3.4755
   32.190    3.2473
   32.220    3.2473
   32.250    3.1596
   32.280    3.2298
   32.310    3.4229
   32.340    3.3526
   32.370    3.4931
   32.400    3.5457
   32.430    3.3175
   32.460    3.7915
   32.490    2.9489
   32.520    3.3526
   32.550    3.3175
   32.580    3.1771
   32.610    3.1947
   32.640    2.7558
   32.670    3.2649
   32.700    3.2824
   32.730    3.4580
   32.760    2.8963
   32.790    3.0016
   32.820    3.4755
   32.850    3.7037
   32.880    3.7037
   32.910    3.4404
   32.940    2.9314
   32.970    3.2649
   33.000    3.4931
   33.030    3.4404
   33.060    3.5106
   33.090    3.5457
   33.120    3.3526
   33.150    3.1596
   33.180    3.5633
   33.210    3.2824
   33.240    3.2298
   33.270    3.1245
   33.300    3.2122
   33.330    3.3000
   33.360    3.0367
   33.390    3.4931
   33.420    3.3175
   33.450    3.1771
   33.480    3.3702
   33.510    3.1771
   33.540    3.4580
   33.570    3.1420
   33.600    3.1245
   33.630    3.6335
   33.660    3.2824
   33.690    2.9840
   33.720    3.0718
   33.750    3.1420
   33.780    3.5282
   33.810    3.2649
   33.840    3.1947
   33.870    3.5457
   33.900    3.0718
   33.930    2.6856
   33.960    3.1245
   33.990    3.5282
   34.020    3.0191
   34.050    3.1069
   34.080    3.0191
   34.110    3.2473
   34.140    3.6159
   34.170    3.0191
   34.200    2.8963
   34.230    3.3175
   34.260    2.9314
   34.290    3.1245
   34.320    3.3877
   34.350    3.2298
   34.380    2.8260
   34.410    3.1420
   34.440    3.4755
   34.470    3.3351
   34.500    3.2122
   34.530    3.0893
   34.560    3.3000
   34.590    3.3175
   34.620    3.0367
   34.650    3.3351
   34.680    3.0191
   34.710    2.9138
   34.740    3.0367
   34.770    2.9665
   34.800    3.2298
   34.830    3.0718
   34.860    3.4404
   34.890    3.2473
   34.920    3.0191
   34.950    3.0367
   34.980    3.0893
   35.010    3.2473
   35.040    3.2824
   35.070    2.7032
   35.100    3.1069
   35.130    3.3526
   35.160    3.1245
   35.190    3.3000
   35.220    2.6505
   35.250    3.5457
   35.280    3.3702
   35.310    2.9314
   35.340    2.9314
   35.370    3.2122
   35.400    3.1245
   35.430    3.0191
   35.460    3.0542
   35.490    3.4229
   35.520    3.0718
   35.550    3.2649
   35.580    3.2122
   35.610    3.1947
   35.640    3.1420
   35.670    2.8963
   35.700    3.1771
   35.730    2.9840
   35.760    2.8612
   35.790    3.1596
   35.820    3.1771
   35.850    3.1947
   35.880    2.7909
   35.910    3.0542
   35.940    3.5457
   35.970    3.5457
   36.000    3.2824
   36.030    3.0191
   36.060    3.0718
   36.090    3.1771
   36.120    3.2649
   36.150    3.3175
   36.180    3.3000
   36.210    3.3175
   36.240    3.2298
   36.270    3.1596
   36.300    2.7558
   36.330    2.8787
   36.360    3.3877
   36.390    3.1245
   36.420    3.3526
   36.450    3.0191
   36.480    3.3175
   36.510    3.0718
   36.540    3.4755
   36.570    3.0718
   36.600    3.0893
   36.630    3.1245
   36.660    3.2298
   36.690    3.2122
   36.720    3.1069
   36.750    2.9840
   36.780    2.9489
   36.810    2.9665
   36.840    3.3526
   36.870    3.3877
   36.900    3.3000
   36.930    3.1069
   36.960    3.3877
   36.990    3.0191
   37.020    3.0542
   37.050    2.9665
   37.080    2.8787
   37.110    3.1420
   37.140    3.1069
   37.170    3.2122
   37.200    2.8612
   37.230    2.8963
   37.260    2.8612
   37.290    2.8787
   37.320    3.1596
   37.350    2.6856
   37.380    3.2122
   37.410    2.7734
   37.440    3.1245
   37.470    3.3351
   37.500    3.1245
   37.530    2.8085
   37.560    3.1771
   37.590    3.4755
   37.620    2.9840
   37.650    3.1947
   37.680    2.9665
   37.710    3.1771
   37.740    2.9840
   37.770    2.9489
   37.800    2.7558
   37.830    2.8436
   37.860    3.0718
   37.890    2.7734
   37.920    2.8612
   37.950    3.3351
   37.980    3.0542
   38.010    3.1245
   38.040    2.7558
   38.070    3.2649
   38.100    3.1771
   38.130    3.5808
   38.160    3.2122
   38.190    3.0367
   38.220    3.0191
   38.250    2.8963
   38.280    3.0191
   38.310    2.8612
   38.340    2.9314
   38.370    3.1245
   38.400    3.0893
   38.430    2.6505
   38.460    2.8963
   38.490    3.0893
   38.520    3.0718
   38.550    3.1596
   38.580    2.9314
   38.610    2.9665
   38.640    2.8787
   38.670    2.8436
   38.700    3.1596
   38.730    3.0191
   38.760    2.8612
   38.790    2.9840
   38.820    3.3702
   38.850    2.9840
   38.880    2.6856
   38.910    2.8260
   38.940    3.0718
   38.970    2.7207
   39.000    2.9840
   39.030    2.8963
   39.060    2.6856
   39.090    2.8436
   39.120    2.9840
   39.150    3.1245
   39.180    2.8085
   39.210    2.8612
   39.240    2.7909
   39.270    2.8787
   39.300    3.1069
   39.330    2.5803
   39.360    3.0542
   39.390    2.8260
   39.420    3.1771
   39.450    3.1420
   39.480    2.8436
   39.510    3.0367
   39.540    2.5452
   39.570    2.8787
   39.600    2.7383
   39.630    2.9489
   39.660    2.8963
   39.690    2.6330
   39.720    2.7734
   39.750    2.7207
   39.780    3.0191
   39.810    2.9314
   39.840    2.7734
   39.870    3.4053
   39.900    2.6505
   39.930    2.5101
   39.960    3.2122
   39.990    2.8787