File: data/MOCOF-1/PXRD/PXRD_KE-319_Cu-Ka1_capillary-1mm_3s-deg.xyd
    1.500   21.9940
    1.530   21.5728
    1.560   19.8877
    1.590   19.7999
    1.620   19.1680
    1.650   18.4308
    1.680   17.5882
    1.710   17.0265
    1.740   15.7451
    1.770   14.8499
    1.800   14.5164
    1.830   14.0951
    1.860   13.0068
    1.890   12.7787
    1.920   11.9712
    1.950   12.0414
    1.980   11.8834
    2.010   11.4622
    2.040   11.3217
    2.070   10.7074
    2.100    9.7069
    2.130    9.3558
    2.160   10.1281
    2.190    9.6191
    2.220    9.2680
    2.250    9.5138
    2.280    9.1276
    2.310    8.2851
    2.340    8.6888
    2.370    8.5484
    2.400    8.0042
    2.430    8.0042
    2.460    8.1095
    2.490    8.0393
    2.520    8.0393
    2.550    8.3553
    2.580    7.6707
    2.610    7.6180
    2.640    7.5127
    2.670    7.4074
    2.700    6.3718
    2.730    6.8984
    2.760    7.8638
    2.790    7.5654
    2.820    7.3196
    2.850    7.2845
    2.880    7.5829
    2.910    6.9686
    2.940    7.5127
    2.970    7.1266
    3.000    7.8287
    3.030    7.5303
    3.060    7.8111
    3.090    7.9340
    3.120    8.3026
    3.150    8.4255
    3.180    8.7063
    3.210    8.9170
    3.240    9.5138
    3.270    9.7771
    3.300   10.9180
    3.330   11.4271
    3.360   11.4973
    3.390   13.0420
    3.420   13.6037
    3.450   14.2180
    3.480   13.0595
    3.510   11.7079
    3.540    9.7595
    3.570    8.9872
    3.600    8.6712
    3.630    7.3372
    3.660    7.7409
    3.690    7.4425
    3.720    7.2494
    3.750    6.8106
    3.780    6.9861
    3.810    6.5824
    3.840    6.9686
    3.870    6.8808
    3.900    7.0037
    3.930    6.6000
    3.960    6.6702
    3.990    6.8457
    4.020    6.7404
    4.050    6.6000
    4.080    6.5122
    4.110    6.7930
    4.140    6.6351
    4.170    6.9510
    4.200    6.4946
    4.230    6.1611
    4.260    6.2665
    4.290    5.9329
    4.320    6.4069
    4.350    5.5819
    4.380    6.0558
    4.410    5.6345
    4.440    5.4590
    4.470    5.4415
    4.500    5.2133
    4.530    5.2308
    4.560    5.0202
    4.590    5.5468
    4.620    4.7920
    4.650    4.8798
    4.680    4.7920
    4.710    4.6516
    4.740    5.1431
    4.770    4.7042
    4.800    4.7569
    4.830    4.3532
    4.860    4.2830
    4.890    4.3005
    4.920    4.3356
    4.950    4.5111
    4.980    4.3707
    5.010    4.2127
    5.040    4.4058
    5.070    4.1250
    5.100    4.7744
    5.130    3.8968
    5.160    4.3356
    5.190    4.5814
    5.220    4.6691
    5.250    4.3356
    5.280    4.2654
    5.310    4.2127
    5.340    4.1425
    5.370    4.0548
    5.400    3.9494
    5.430    4.3356
    5.460    4.1425
    5.490    3.8968
    5.520    4.2303
    5.550    4.4585
    5.580    4.3356
    5.610    3.9319
    5.640    3.9494
    5.670    4.4409
    5.700    4.1425
    5.730    4.4585
    5.760    3.9846
    5.790    4.2654
    5.820    4.2127
    5.850    4.0372
    5.880    3.8441
    5.910    3.9143
    5.940    4.1425
    5.970    3.9670
    6.000    3.8441
    6.030    3.8617
    6.060    4.0021
    6.090    3.7739
    6.120    4.0723
    6.150    4.3707
    6.180    4.3532
    6.210    4.5463
    6.240    4.0548
    6.270    3.8792
    6.300    4.4234
    6.330    4.4409
    6.360    4.1074
    6.390    4.2654
    6.420    4.6691
    6.450    4.3005
    6.480    4.1074
    6.510    4.3181
    6.540    4.1425
    6.570    4.4585
    6.600    4.5814
    6.630    4.1425
    6.660    4.4058
    6.690    4.7042
    6.720    4.3005
    6.750    4.5638
    6.780    4.5111
    6.810    4.6165
    6.840    4.4409
    6.870    5.0202
    6.900    4.8095
    6.930    4.9324
    6.960    5.0904
    6.990    4.4409
    7.020    4.5111
    7.050    4.4058
    7.080    4.3883
    7.110    4.3181
    7.140    4.5111
    7.170    4.5638
    7.200    4.5111
    7.230    4.5814
    7.260    4.5638
    7.290    4.0723
    7.320    4.0723
    7.350    4.2830
    7.380    4.0021
    7.410    3.9670
    7.440    4.3005
    7.470    4.4409
    7.500    4.2303
    7.530    4.3883
    7.560    4.2830
    7.590    4.0899
    7.620    4.1250
    7.650    4.6340
    7.680    4.5111
    7.710    4.6340
    7.740    4.4058
    7.770    4.5814
    7.800    3.8792
    7.830    4.5814
    7.860    4.4234
    7.890    4.2303
    7.920    4.4760
    7.950    4.3883
    7.980    4.5989
    8.010    4.5111
    8.040    4.1074
    8.070    4.6691
    8.100    4.3707
    8.130    4.2654
    8.160    4.5989
    8.190    4.4936
    8.220    4.3181
    8.250    4.0548
    8.280    4.1250
    8.310    4.7744
    8.340    4.7042
    8.370    4.3883
    8.400    4.3707
    8.430    4.4409
    8.460    4.3181
    8.490    4.8973
    8.520    4.0197
    8.550    4.5814
    8.580    4.4234
    8.610    4.4936
    8.640    5.0728
    8.670    4.6165
    8.700    5.2308
    8.730    4.8271
    8.760    4.4409
    8.790    4.3181
    8.820    4.6691
    8.850    4.8271
    8.880    4.7393
    8.910    4.5463
    8.940    4.9324
    8.970    4.3707
    9.000    4.6691
    9.030    4.6165
    9.060    4.8095
    9.090    4.7920
    9.120    4.5287
    9.150    4.2303
    9.180    4.7569
    9.210    4.2478
    9.240    4.9149
    9.270    4.3181
    9.300    4.8447
    9.330    4.7744
    9.360    4.4409
    9.390    4.5638
    9.420    4.6691
    9.450    4.6691
    9.480    4.5638
    9.510    4.5638
    9.540    4.6516
    9.570    4.7569
    9.600    4.8973
    9.630    4.4760
    9.660    4.9324
    9.690    4.5989
    9.720    4.5814
    9.750    4.5111
    9.780    4.0548
    9.810    4.1601
    9.840    4.6691
    9.870    4.5638
    9.900    4.5989
    9.930    4.5814
    9.960    4.3532
    9.990    4.6691
   10.020    4.5287
   10.050    4.6867
   10.080    4.6165
   10.110    4.2654
   10.140    4.4760
   10.170    4.5111
   10.200    4.1601
   10.230    4.5463
   10.260    4.4585
   10.290    4.3707
   10.320    4.2303
   10.350    5.0026
   10.380    4.4234
   10.410    4.4234
   10.440    4.6867
   10.470    4.5989
   10.500    4.5111
   10.530    4.4936
   10.560    4.1776
   10.590    4.4760
   10.620    4.2127
   10.650    4.3707
   10.680    4.2303
   10.710    4.2830
   10.740    4.6165
   10.770    4.4760
   10.800    4.7042
   10.830    4.8447
   10.860    4.9500
   10.890    4.3707
   10.920    4.2654
   10.950    4.4234
   10.980    4.5463
   11.010    4.2127
   11.040    4.4058
   11.070    4.6516
   11.100    4.0899
   11.130    3.9846
   11.160    4.2478
   11.190    4.0723
   11.220    4.3707
   11.250    4.2654
   11.280    4.2127
   11.310    4.6340
   11.340    4.2654
   11.370    3.8090
   11.400    3.9846
   11.430    4.4585
   11.460    4.2127
   11.490    4.2127
   11.520    4.4234
   11.550    5.1080
   11.580    3.8968
   11.610    4.0899
   11.640    4.3356
   11.670    4.0723
   11.700    4.1425
   11.730    4.1425
   11.760    4.1776
   11.790    4.4585
   11.820    4.3005
   11.850    4.2830
   11.880    4.1952
   11.910    4.5814
   11.940    4.4234
   11.970    4.4409
   12.000    3.9319
   12.030    4.4058
   12.060    4.2830
   12.090    3.8792
   12.120    4.3356
   12.150    3.7037
   12.180    4.3883
   12.210    4.2127
   12.240    3.6686
   12.270    4.0899
   12.300    4.0723
   12.330    4.4058
   12.360    3.8090
   12.390    3.8792
   12.420    4.2127
   12.450    3.8617
   12.480    4.0197
   12.510    4.4234
   12.540    4.1425
   12.570    4.2654
   12.600    3.7739
   12.630    4.0548
   12.660    4.0197
   12.690    4.1425
   12.720    4.1425
   12.750    3.8968
   12.780    4.3356
   12.810    4.0548
   12.840    4.4234
   12.870    4.0021
   12.900    4.1952
   12.930    3.7213
   12.960    4.0899
   12.990    3.9319
   13.020    3.9143
   13.050    3.9494
   13.080    4.0197
   13.110    3.7388
   13.140    3.9846
   13.170    3.7037
   13.200    4.1074
   13.230    3.8090
   13.260    3.8266
   13.290    4.0197
   13.320    3.8617
   13.350    4.0372
   13.380    4.1074
   13.410    3.6335
   13.440    3.7388
   13.470    4.0548
   13.500    3.7564
   13.530    4.1074
   13.560    3.4229
   13.590    3.8792
   13.620    3.7037
   13.650    3.9319
   13.680    3.8617
   13.710    3.8968
   13.740    3.8441
   13.770    4.1601
   13.800    4.1425
   13.830    4.0372
   13.860    4.2127
   13.890    4.0899
   13.920    4.2478
   13.950    3.9319
   13.980    3.5633
   14.010    3.9319
   14.040    3.8441
   14.070    3.9319
   14.100    4.1776
   14.130    4.6340
   14.160    3.8792
   14.190    3.8617
   14.220    4.3707
   14.250    3.8617
   14.280    3.9846
   14.310    3.8441
   14.340    4.0021
   14.370    3.8792
   14.400    3.8792
   14.430    4.0021
   14.460    3.6862
   14.490    4.1952
   14.520    3.4229
   14.550    3.8617
   14.580    3.8617
   14.610    3.5106
   14.640    3.4229
   14.670    3.8090
   14.700    3.6686
   14.730    3.8792
   14.760    4.0021
   14.790    3.8266
   14.820    4.2127
   14.850    3.8266
   14.880    4.4409
   14.910    3.6159
   14.940    3.3877
   14.970    3.6335
   15.000    3.6335
   15.030    3.8792
   15.060    3.9494
   15.090    4.0723
   15.120    4.1074
   15.150    3.8617
   15.180    3.5106
   15.210    3.9670
   15.240    3.7564
   15.270    3.9846
   15.300    3.8968
   15.330    3.6335
   15.360    3.9670
   15.390    3.5106
   15.420    3.3702
   15.450    3.8968
   15.480    3.7037
   15.510    3.9319
   15.540    3.9670
   15.570    3.9319
   15.600    3.4931
   15.630    3.9494
   15.660    3.5808
   15.690    4.1776
   15.720    4.0723
   15.750    3.8441
   15.780    3.5808
   15.810    4.2303
   15.840    3.9143
   15.870    4.0372
   15.900    3.6686
   15.930    4.1776
   15.960    4.1074
   15.990    3.8968
   16.020    3.6862
   16.050    3.9143
   16.080    3.9143
   16.110    3.6159
   16.140    3.6686
   16.170    4.1776
   16.200    3.5984
   16.230    3.8090
   16.260    3.9846
   16.290    4.0899
   16.320    3.8266
   16.350    4.0197
   16.380    3.8441
   16.410    3.7915
   16.440    4.1601
   16.470    3.6159
   16.500    4.1250
   16.530    3.6335
   16.560    4.2303
   16.590    4.0548
   16.620    3.7564
   16.650    4.0899
   16.680    3.6862
   16.710    3.8441
   16.740    3.7739
   16.770    3.9846
   16.800    3.7915
   16.830    4.0021
   16.860    3.9319
   16.890    4.1074
   16.920    4.0899
   16.950    3.9670
   16.980    3.6862
   17.010    3.7388
   17.040    3.9670
   17.070    3.9494
   17.100    3.7388
   17.130    3.5984
   17.160    3.5282
   17.190    3.9319
   17.220    4.0548
   17.250    3.8090
   17.280    3.7564
   17.310    3.9670
   17.340    4.1952
   17.370    3.8266
   17.400    3.5282
   17.430    4.4760
   17.460    4.3005
   17.490    4.1601
   17.520    3.6335
   17.550    3.7564
   17.580    3.7213
   17.610    3.7564
   17.640    3.7739
   17.670    3.8266
   17.700    3.7739
   17.730    4.1250
   17.760    3.8266
   17.790    3.9494
   17.820    3.7564
   17.850    3.9670
   17.880    3.9319
   17.910    3.9319
   17.940    4.0548
   17.970    3.3702
   18.000    3.8441
   18.030    3.9670
   18.060    3.5984
   18.090    3.8968
   18.120    3.5633
   18.150    3.6686
   18.180    3.8792
   18.210    3.7915
   18.240    4.0899
   18.270    3.8090
   18.300    4.0723
   18.330    3.6510
   18.360    3.9319
   18.390    3.9846
   18.420    4.0021
   18.450    3.8968
   18.480    3.8266
   18.510    3.8441
   18.540    3.9143
   18.570    4.0723
   18.600    3.9670
   18.630    4.4234
   18.660    3.8792
   18.690    4.1776
   18.720    4.2654
   18.750    3.9319
   18.780    3.7388
   18.810    4.0548
   18.840    4.1425
   18.870    3.9143
   18.900    3.6862
   18.930    3.7388
   18.960    4.1250
   18.990    4.0372
   19.020    3.8090
   19.050    4.2654
   19.080    3.9846
   19.110    3.8617
   19.140    3.8968
   19.170    3.8441
   19.200    3.9143
   19.230    4.4760
   19.260    4.0723
   19.290    4.1601
   19.320    3.8441
   19.350    4.0899
   19.380    3.9143
   19.410    4.3005
   19.440    3.7915
   19.470    3.7213
   19.500    3.5282
   19.530    4.1952
   19.560    3.7213
   19.590    4.1425
   19.620    4.2830
   19.650    3.9319
   19.680    3.5633
   19.710    4.1250
   19.740    4.1425
   19.770    3.8792
   19.800    4.2654
   19.830    4.0021
   19.860    3.7564
   19.890    4.2303
   19.920    3.7213
   19.950    4.3356
   19.980    4.1776
   20.010    3.9846
   20.040    3.8090
   20.070    4.1776
   20.100    3.7213
   20.130    3.6510
   20.160    4.3707
   20.190    4.0021
   20.220    4.1250
   20.250    4.0899
   20.280    3.9670
   20.310    3.7037
   20.340    3.8792
   20.370    4.3356
   20.400    3.6335
   20.430    4.0372
   20.460    3.8617
   20.490    4.3883
   20.520    4.2127
   20.550    3.9494
   20.580    4.1425
   20.610    3.9319
   20.640    4.0723
   20.670    4.1250
   20.700    4.1776
   20.730    4.1601
   20.760    4.1776
   20.790    3.8266
   20.820    4.3005
   20.850    3.8792
   20.880    4.1250
   20.910    4.0372
   20.940    4.1425
   20.970    4.5463
   21.000    4.0372
   21.030    4.4409
   21.060    4.1776
   21.090    4.0899
   21.120    4.0548
   21.150    4.2654
   21.180    4.2478
   21.210    4.3883
   21.240    4.5463
   21.270    4.1425
   21.300    4.3883
   21.330    4.7569
   21.360    4.0372
   21.390    4.4936
   21.420    4.3005
   21.450    4.3356
   21.480    4.4409
   21.510    4.3883
   21.540    3.8792
   21.570    3.9143
   21.600    4.1952
   21.630    3.9494
   21.660    4.1425
   21.690    4.4234
   21.720    4.1601
   21.750    3.9319
   21.780    4.0197
   21.810    3.9494
   21.840    3.9846
   21.870    4.1952
   21.900    4.2654
   21.930    4.4234
   21.960    4.3356
   21.990    4.2830
   22.020    4.0548
   22.050    4.0197
   22.080    4.3707
   22.110    4.3356
   22.140    3.5106
   22.170    4.4234
   22.200    4.2654
   22.230    4.2830
   22.260    4.3532
   22.290    3.9846
   22.320    4.1425
   22.350    4.2127
   22.380    4.4409
   22.410    4.3181
   22.440    4.3005
   22.470    4.0723
   22.500    4.2654
   22.530    4.1776
   22.560    4.3883
   22.590    4.3181
   22.620    3.9846
   22.650    3.8792
   22.680    4.4058
   22.710    4.3883
   22.740    4.2127
   22.770    4.1952
   22.800    4.4409
   22.830    4.2478
   22.860    4.1250
   22.890    4.2830
   22.920    4.4058
   22.950    4.3181
   22.980    4.4234
   23.010    4.2654
   23.040    4.1425
   23.070    4.5287
   23.100    3.8441
   23.130    4.4760
   23.160    4.3532
   23.190    4.0021
   23.220    4.3181
   23.250    4.3181
   23.280    4.0899
   23.310    4.2127
   23.340    4.3532
   23.370    4.1952
   23.400    4.0372
   23.430    4.2830
   23.460    4.4585
   23.490    4.2127
   23.520    4.2127
   23.550    4.4058
   23.580    4.6691
   23.610    4.3883
   23.640    4.3707
   23.670    4.5287
   23.700    4.3181
   23.730    4.0548
   23.760    3.8968
   23.790    3.9846
   23.820    3.9319
   23.850    3.7915
   23.880    4.0372
   23.910    3.6510
   23.940    4.8095
   23.970    4.4760
   24.000    4.2654
   24.030    4.4058
   24.060    4.1425
   24.090    3.9494
   24.120    4.0723
   24.150    3.9143
   24.180    3.9319
   24.210    3.9670
   24.240    4.2478
   24.270    4.3181
   24.300    4.1776
   24.330    4.2478
   24.360    4.1601
   24.390    4.0548
   24.420    4.3532
   24.450    4.0548
   24.480    3.9494
   24.510    3.8968
   24.540    4.2654
   24.570    3.9670
   24.600    4.1776
   24.630    4.6340
   24.660    4.2127
   24.690    4.3005
   24.720    3.7564
   24.750    3.8266
   24.780    3.9846
   24.810    4.0372
   24.840    4.1601
   24.870    4.3883
   24.900    4.5814
   24.930    3.9143
   24.960    3.9846
   24.990    4.3005
   25.020    4.3005
   25.050    4.2478
   25.080    3.9494
   25.110    4.0372
   25.140    4.1250
   25.170    3.7564
   25.200    3.8792
   25.230    3.7564
   25.260    4.1952
   25.290    4.0197
   25.320    3.8617
   25.350    3.7037
   25.380    3.7388
   25.410    4.1250
   25.440    3.9143
   25.470    4.1074
   25.500    3.6510
   25.530    4.3707
   25.560    4.0197
   25.590    3.9670
   25.620    3.9846
   25.650    4.3707
   25.680    3.7564
   25.710    3.9670
   25.740    3.8617
   25.770    3.8266
   25.800    3.8617
   25.830    3.9670
   25.860    4.1250
   25.890    4.2478
   25.920    4.1776
   25.950    4.0197
   25.980    3.7564
   26.010    4.1952
   26.040    3.9670
   26.070    3.9670
   26.100    4.0021
   26.130    3.7388
   26.160    3.3000
   26.190    4.2478
   26.220    3.7388
   26.250    3.6159
   26.280    4.0021
   26.310    4.2654
   26.340    4.0548
   26.370    4.1776
   26.400    3.6335
   26.430    3.4404
   26.460    3.7564
   26.490    3.8968
   26.520    3.6335
   26.550    4.0021
   26.580    3.6862
   26.610    4.0021
   26.640    3.4580
   26.670    3.5984
   26.700    3.9846
   26.730    3.5984
   26.760    3.5282
   26.790    3.5633
   26.820    3.5457
   26.850    3.8617
   26.880    3.7739
   26.910    3.9143
   26.940    3.8968
   26.970    3.6335
   27.000    3.9846
   27.030    3.9846
   27.060    3.8266
   27.090    3.8792
   27.120    3.9494
   27.150    3.9846
   27.180    3.2649
   27.210    3.8266
   27.240    3.5457
   27.270    4.1250
   27.300    3.5984
   27.330    3.7915
   27.360    3.5808
   27.390    4.0197
   27.420    3.7739
   27.450    3.5984
   27.480    3.8266
   27.510    3.6510
   27.540    3.3526
   27.570    3.7213
   27.600    3.9143
   27.630    3.9846
   27.660    3.6862
   27.690    3.7213
   27.720    4.0548
   27.750    3.2824
   27.780    3.8968
   27.810    3.7388
   27.840    3.5282
   27.870    3.4931
   27.900    3.5457
   27.930    3.6862
   27.960    3.6862
   27.990    3.6686
   28.020    4.1250
   28.050    3.4755
   28.080    3.8090
   28.110    3.7564
   28.140    3.4580
   28.170    3.4053
   28.200    4.0899
   28.230    3.5282
   28.260    3.7213
   28.290    3.8441
   28.320    3.4755
   28.350    3.4755
   28.380    3.7388
   28.410    3.8968
   28.440    3.5282
   28.470    3.3175
   28.500    3.2824
   28.530    4.0021
   28.560    3.3702
   28.590    3.5282
   28.620    3.7739
   28.650    3.3702
   28.680    3.9143
   28.710    3.8617
   28.740    3.7388
   28.770    3.6335
   28.800    3.5984
   28.830    3.2473
   28.860    3.7915
   28.890    3.2122
   28.920    3.7915
   28.950    3.8090
   28.980    3.3526
   29.010    4.0021
   29.040    3.4931
   29.070    3.8441
   29.100    3.3526
   29.130    3.1596
   29.160    3.3526
   29.190    3.3877
   29.220    3.2649
   29.250    3.2473
   29.280    3.5457
   29.310    3.5633
   29.340    3.3351
   29.370    3.3000
   29.400    3.3175
   29.430    3.5633
   29.460    4.1776
   29.490    3.6510
   29.520    3.4053
   29.550    3.6335
   29.580    3.4931
   29.610    3.6510
   29.640    3.3877
   29.670    3.6159
   29.700    3.4229
   29.730    3.4229
   29.760    3.5106
   29.790    3.7213
   29.820    3.3000
   29.850    3.4404
   29.880    3.7915
   29.910    3.3877
   29.940    3.7388
   29.970    3.6510
   30.000    3.5984
   30.030    3.3000
   30.060    3.5808
   30.090    3.5282
   30.120    3.3526
   30.150    3.3351
   30.180    3.2824
   30.210    3.1771
   30.240    3.5984
   30.270    3.5457
   30.300    3.0016
   30.330    3.1596
   30.360    3.3351
   30.390    3.2824
   30.420    3.5633
   30.450    3.4580
   30.480    3.5106
   30.510    3.3877
   30.540    3.6510
   30.570    3.3000
   30.600    3.3702
   30.630    3.2473
   30.660    3.6335
   30.690    3.0191
   30.720    3.0542
   30.750    3.3702
   30.780    3.2824
   30.810    3.3175
   30.840    3.3526
   30.870    3.2649
   30.900    3.5282
   30.930    3.0542
   30.960    3.3702
   30.990    3.4053
   31.020    3.5457
   31.050    3.1069
   31.080    3.3702
   31.110    3.7388
   31.140    3.2298
   31.170    3.3702
   31.200    3.1245
   31.230    3.3877
   31.260    3.7213
   31.290    3.5106
   31.320    3.4404
   31.350    3.4931
   31.380    3.4931
   31.410    3.0718
   31.440    3.4755
   31.470    3.2473
   31.500    3.5457
   31.530    3.1771
   31.560    3.3175
   31.590    2.8085
   31.620    3.0016
   31.650    3.2649
   31.680    3.4053
   31.710    3.5633
   31.740    3.5633
   31.770    3.5984
   31.800    3.3351
   31.830    3.2298
   31.860    3.1771
   31.890    3.2298
   31.920    3.3877
   31.950    3.6159
   31.980    3.2122
   32.010    3.0718
   32.040    2.8963
   32.070    2.9840
   32.100    2.7909
   32.130    3.2649
   32.160    3.0542
   32.190    3.4229
   32.220    3.3000
   32.250    3.2122
   32.280    2.8787
   32.310    3.2473
   32.340    3.0367
   32.370    3.2473
   32.400    3.0191
   32.430    2.9840
   32.460    3.1771
   32.490    3.1245
   32.520    3.1245
   32.550    2.7909
   32.580    3.1596
   32.610    3.1069
   32.640    3.0542
   32.670    2.9314
   32.700    3.0191
   32.730    3.3351
   32.760    3.0893
   32.790    3.5282
   32.820    3.1420
   32.850    2.8436
   32.880    3.0718
   32.910    3.1596
   32.940    3.2649
   32.970    3.2473
   33.000    3.3351
   33.030    2.8612
   33.060    3.3351
   33.090    3.0367
   33.120    3.2473
   33.150    2.8963
   33.180    3.2473
   33.210    3.0016
   33.240    2.8436
   33.270    3.3000
   33.300    3.2473
   33.330    3.1596
   33.360    2.9138
   33.390    3.0542
   33.420    3.1596
   33.450    2.8963
   33.480    3.1596
   33.510    3.2473
   33.540    3.1420
   33.570    2.8085
   33.600    3.0191
   33.630    3.1245
   33.660    3.3351
   33.690    3.0893
   33.720    3.1245
   33.750    3.1420
   33.780    3.4053
   33.810    3.3526
   33.840    3.0191
   33.870    3.0016
   33.900    3.0893
   33.930    3.3000
   33.960    2.8612
   33.990    2.9489
   34.020    2.9138
   34.050    2.8436
   34.080    2.9314
   34.110    3.2473
   34.140    3.2298
   34.170    3.0367
   34.200    3.1771
   34.230    3.3175
   34.260    3.0718
   34.290    2.7909
   34.320    2.9138
   34.350    2.9314
   34.380    2.7734
   34.410    3.2473
   34.440    2.9665
   34.470    2.8260
   34.500    2.7558
   34.530    3.1947
   34.560    2.7207
   34.590    2.9314
   34.620    3.0542
   34.650    2.9314
   34.680    2.6154
   34.710    3.1420
   34.740    2.7558
   34.770    2.8612
   34.800    2.8085
   34.830    2.8260
   34.860    2.6154
   34.890    2.9665
   34.920    2.9489
   34.950    2.6154
   34.980    2.5979
   35.010    2.9665
   35.040    2.8787
   35.070    2.8260
   35.100    3.0893
   35.130    2.6505
   35.160    3.2122
   35.190    2.8260
   35.220    2.9138
   35.250    2.6505
   35.280    2.4399
   35.310    2.7909
   35.340    3.3000
   35.370    3.0542
   35.400    2.8963
   35.430    2.9489
   35.460    2.8436
   35.490    2.8436
   35.520    2.8612
   35.550    2.9314
   35.580    2.7558
   35.610    2.5628
   35.640    2.7734
   35.670    2.8260
   35.700    2.5979
   35.730    3.0016
   35.760    2.5452
   35.790    2.8085
   35.820    2.9489
   35.850    2.7558
   35.880    3.0542
   35.910    3.0191
   35.940    2.6681
   35.970    2.9489
   36.000    2.6505
   36.030    2.7383
   36.060    2.7558
   36.090    2.8260
   36.120    2.7909
   36.150    2.4750
   36.180    2.8085
   36.210    2.8085
   36.240    2.7558
   36.270    2.6681
   36.300    2.7558
   36.330    2.9840
   36.360    2.8260
   36.390    2.6856
   36.420    2.7909
   36.450    2.4750
   36.480    2.7383
   36.510    2.9840
   36.540    2.8436
   36.570    2.4925
   36.600    2.6681
   36.630    2.8436
   36.660    2.6154
   36.690    2.6681
   36.720    2.8963
   36.750    2.7909
   36.780    2.6505
   36.810    2.1239
   36.840    2.5101
   36.870    2.9840
   36.900    2.8260
   36.930    3.0542
   36.960    2.6505
   36.990    2.6681
   37.020    2.6154
   37.050    2.8787
   37.080    2.7383
   37.110    2.6505
   37.140    2.4574
   37.170    2.7383
   37.200    2.8260
   37.230    2.6330
   37.260    2.7909
   37.290    2.6330
   37.320    2.3872
   37.350    2.4925
   37.380    2.8260
   37.410    2.6505
   37.440    2.4574
   37.470    3.0718
   37.500    2.6856
   37.530    2.9138
   37.560    2.6330
   37.590    2.8787
   37.620    2.3872
   37.650    2.8260
   37.680    2.5276
   37.710    2.7909
   37.740    2.7558
   37.770    3.0542
   37.800    2.6154
   37.830    2.9840
   37.860    3.0016
   37.890    2.9138
   37.920    3.1245
   37.950    2.7383
   37.980    2.5628
   38.010    2.2468
   38.040    2.6330
   38.070    2.9840
   38.100    2.7734
   38.130    2.5101
   38.160    2.6330
   38.190    2.4048
   38.220    2.7207
   38.250    2.7032
   38.280    2.8436
   38.310    2.8436
   38.340    2.7207
   38.370    2.8085
   38.400    2.8787
   38.430    2.4925
   38.460    2.4574
   38.490    2.7734
   38.520    2.7032
   38.550    2.3697
   38.580    2.4048
   38.610    2.2995
   38.640    2.2819
   38.670    3.0016
   38.700    2.6856
   38.730    2.5452
   38.760    2.6505
   38.790    2.8436
   38.820    2.9489
   38.850    2.3697
   38.880    2.6154
   38.910    3.0718
   38.940    2.8260
   38.970    2.9489
   39.000    2.3521
   39.030    2.4574
   39.060    2.5803
   39.090    2.5628
   39.120    2.3872
   39.150    3.1245
   39.180    2.4750
   39.210    2.5101
   39.240    2.7909
   39.270    3.0718
   39.300    2.6505
   39.330    2.2819
   39.360    2.4574
   39.390    2.5803
   39.420    2.5276
   39.450    3.0016
   39.480    2.6154
   39.510    2.6330
   39.540    2.5276
   39.570    2.8787
   39.600    2.6856
   39.630    2.9138
   39.660    2.7734
   39.690    2.3170
   39.720    2.5979
   39.750    2.7207
   39.780    2.5628
   39.810    2.7032
   39.840    2.5979
   39.870    2.7383
   39.900    2.7558
   39.930    2.5628
   39.960    2.5452
   39.990    2.6681