File: data/MOCOF-1/PXRD/PXRD_KE-193_Cu-Ka1_capillary-1mm_5s-deg.xyd
    1.500   16.4824
    1.530   16.6614
    1.560   15.7135
    1.590   15.2396
    1.620   14.9658
    1.650   15.3028
    1.680   14.1654
    1.710   13.9863
    1.740   13.3860
    1.770   13.0384
    1.800   12.8699
    1.830   13.4071
    1.860   12.9542
    1.890   12.4487
    1.920   12.1011
    1.950   11.6166
    1.980   11.6798
    2.010   11.5534
    2.040   11.3112
    2.070   10.9531
    2.100   10.2370
    2.130   10.9637
    2.160   10.5108
    2.190   10.2791
    2.220   10.0685
    2.250   10.1632
    2.280    9.2364
    2.310    9.8894
    2.340    9.4892
    2.370    9.0469
    2.400    9.0574
    2.430    9.0995
    2.460    9.0890
    2.490    9.1311
    2.520    8.8573
    2.550    8.6888
    2.580    8.7730
    2.610    9.0995
    2.640    8.7625
    2.670    8.5097
    2.700    8.2780
    2.730    8.2675
    2.760    8.2991
    2.790    8.1833
    2.820    8.6045
    2.850    8.5519
    2.880    8.6256
    2.910    9.1943
    2.940    8.4150
    2.970    9.1311
    3.000    9.3418
    3.030    9.3418
    3.060    9.6577
    3.090   10.7214
    3.120   11.1532
    3.150   11.3323
    3.180   12.5645
    3.210   12.8383
    3.240   14.1443
    3.270   15.6187
    3.300   17.1037
    3.330   18.6098
    3.360   21.0216
    3.390   23.6230
    3.420   26.1822
    3.450   29.6998
    3.480   33.2807
    3.510   37.8410
    3.540   43.5387
    3.570   49.1101
    3.600   56.9352
    3.630   65.2449
    3.660   77.8515
    3.690   90.8373
    3.720  110.2054
    3.750  135.1027
    3.780  171.4903
    3.810  229.8052
    3.840  319.0416
    3.870  338.1359
    3.900  231.2480
    3.930   69.0890
    3.960   18.3465
    3.990   10.7425
    4.020    8.0990
    4.050    7.6988
    4.080    7.0037
    4.110    6.5613
    4.140    6.1295
    4.170    6.0769
    4.200    5.9610
    4.230    5.6556
    4.260    5.5398
    4.290    5.6345
    4.320    5.6240
    4.350    5.2870
    4.380    5.5608
    4.410    5.2343
    4.440    5.4976
    4.470    5.0764
    4.500    5.1711
    4.530    5.1395
    4.560    5.1290
    4.590    4.9184
    4.620    5.0237
    4.650    4.6972
    4.680    5.0764
    4.710    5.1290
    4.740    5.2133
    4.770    4.8236
    4.800    5.0342
    4.830    4.8552
    4.860    5.2870
    4.890    4.7499
    4.920    4.8657
    4.950    5.4766
    4.980    4.9184
    5.010    5.6556
    5.040    6.2454
    5.070    6.4876
    5.100    6.7193
    5.130    7.1301
    5.160    7.8673
    5.190    8.6467
    5.220   10.1211
    5.250   10.9426
    5.280   12.3012
    5.310   15.3660
    5.340   17.3249
    5.370   21.5377
    5.400   27.5619
    5.430   37.6830
    5.460   52.5224
    5.490   59.7262
    5.520   45.3081
    5.550   19.3576
    5.580    7.5935
    5.610    5.5082
    5.640    5.3818
    5.670    4.8763
    5.700    4.8447
    5.730    4.6867
    5.760    4.5603
    5.790    4.9500
    5.820    4.4128
    5.850    4.4234
    5.880    4.3813
    5.910    4.3602
    5.940    4.7183
    5.970    4.3075
    6.000    4.1180
    6.030    4.2022
    6.060    4.5076
    6.090    4.3813
    6.120    4.5287
    6.150    4.5498
    6.180    4.4655
    6.210    4.2233
    6.240    4.5603
    6.270    4.7604
    6.300    4.2338
    6.330    4.5182
    6.360    4.2549
    6.390    4.2759
    6.420    4.5182
    6.450    4.6972
    6.480    4.6235
    6.510    4.7183
    6.540    4.7920
    6.570    5.4766
    6.600    5.0448
    6.630    5.7083
    6.660    6.4771
    6.690    7.8462
    6.720    9.7841
    6.750    8.7625
    6.780    7.2143
    6.810    4.8657
    6.840    4.1706
    6.870    4.6235
    6.900    4.4655
    6.930    4.3181
    6.960    4.6024
    6.990    4.0969
    7.020    4.4339
    7.050    4.2233
    7.080    4.3075
    7.110    4.3181
    7.140    4.6867
    7.170    4.2549
    7.200    3.8757
    7.230    4.6761
    7.260    4.3181
    7.290    3.6756
    7.320    4.1706
    7.350    4.2127
    7.380    4.4234
    7.410    4.0442
    7.440    4.5498
    7.470    4.4971
    7.500    4.8868
    7.530    4.9394
    7.560    5.3186
    7.590    5.9926
    7.620    6.4560
    7.650    7.7304
    7.680    9.2048
    7.710   11.1638
    7.740   16.1348
    7.770   20.5898
    7.800   21.0005
    7.830   14.3760
    7.860    6.8246
    7.890    4.8131
    7.920    4.2022
    7.950    4.0758
    7.980    4.0758
    8.010    4.2127
    8.040    4.1496
    8.070    4.2549
    8.100    3.8863
    8.130    4.0442
    8.160    4.1074
    8.190    3.8652
    8.220    3.9389
    8.250    4.0758
    8.280    4.2022
    8.310    4.0021
    8.340    3.8968
    8.370    4.0864
    8.400    3.8441
    8.430    4.0442
    8.460    4.2970
    8.490    3.8968
    8.520    3.9389
    8.550    4.1496
    8.580    4.3181
    8.610    4.7077
    8.640    4.9921
    8.670    5.4555
    8.700    7.3407
    8.730    6.6877
    8.760    5.5398
    8.790    4.1601
    8.820    3.8125
    8.850    3.8336
    8.880    3.6230
    8.910    4.1074
    8.940    3.8652
    8.970    3.9389
    9.000    3.9600
    9.030    4.1601
    9.060    4.0653
    9.090    4.0442
    9.120    4.1074
    9.150    3.7493
    9.180    4.1180
    9.210    3.9600
    9.240    4.2443
    9.270    4.2022
    9.300    4.1180
    9.330    4.8868
    9.360    5.3186
    9.390    6.1506
    9.420    7.1090
    9.450    9.4681
    9.480   12.8383
    9.510   18.5571
    9.540   24.7393
    9.570   22.7172
    9.600   15.4081
    9.630    6.8457
    9.660    4.4655
    9.690    4.1285
    9.720    3.8231
    9.750    3.8863
    9.780    3.7809
    9.810    3.8125
    9.840    4.0548
    9.870    3.6440
    9.900    3.9916
    9.930    3.9073
    9.960    3.9600
    9.990    3.5914
   10.020    3.9389
   10.050    4.0442
   10.080    4.1285
   10.110    4.2443
   10.140    4.1074
   10.170    4.7077
   10.200    4.9816
   10.230    5.7820
   10.260    7.6883
   10.290    9.4892
   10.320   11.2586
   10.350   10.5951
   10.380    7.2565
   10.410    4.5603
   10.440    3.8968
   10.470    3.8020
   10.500    3.6230
   10.530    3.6230
   10.560    3.7599
   10.590    3.8863
   10.620    3.8968
   10.650    3.4650
   10.680    3.6651
   10.710    3.8968
   10.740    3.6862
   10.770    3.6546
   10.800    3.6019
   10.830    3.8441
   10.860    4.2549
   10.890    4.8868
   10.920    4.9710
   10.950    5.7820
   10.980    7.1722
   11.010   10.6582
   11.040   11.9747
   11.070   10.2475
   11.100    7.5513
   11.130    4.3075
   11.160    4.0337
   11.190    3.7915
   11.220    3.5914
   11.250    3.7072
   11.280    3.6756
   11.310    3.5914
   11.340    3.7177
   11.370    3.8020
   11.400    3.5387
   11.430    3.6440
   11.460    3.6019
   11.490    3.6862
   11.520    4.1706
   11.550    4.3602
   11.580    4.7077
   11.610    5.4134
   11.640    6.6456
   11.670    8.9731
   11.700   11.3744
   11.730   12.3012
   11.760   10.0158
   11.790    5.7609
   11.820    3.8652
   11.850    3.8757
   11.880    3.5492
   11.910    3.6651
   11.940    3.6019
   11.970    3.4860
   12.000    3.3491
   12.030    3.7915
   12.060    3.5071
   12.090    3.6967
   12.120    3.3913
   12.150    3.7704
   12.180    3.4650
   12.210    3.8757
   12.240    3.7283
   12.270    4.2233
   12.300    4.4971
   12.330    5.1711
   12.360    5.4344
   12.390    5.4871
   12.420    4.2127
   12.450    3.7599
   12.480    3.3702
   12.510    3.5703
   12.540    3.4650
   12.570    3.3070
   12.600    3.6651
   12.630    3.3702
   12.660    3.5808
   12.690    3.3491
   12.720    3.4334
   12.750    3.6967
   12.780    3.7704
   12.810    3.7388
   12.840    4.4023
   12.870    4.2970
   12.900    5.9084
   12.930    7.3196
   12.960    8.6151
   12.990    7.8673
   13.020    6.2559
   13.050    4.2970
   13.080    3.5492
   13.110    3.8020
   13.140    3.9916
   13.170    3.6862
   13.200    3.6967
   13.230    3.2543
   13.260    3.5808
   13.290    3.4334
   13.320    3.6335
   13.350    3.3386
   13.380    3.6651
   13.410    3.7177
   13.440    3.9810
   13.470    4.5603
   13.500    5.1080
   13.530    6.4244
   13.560    6.3612
   13.590    5.6135
   13.620    4.0758
   13.650    3.4966
   13.680    3.6124
   13.710    3.4860
   13.740    3.4018
   13.770    3.2333
   13.800    3.5176
   13.830    3.3597
   13.860    3.4334
   13.890    3.3597
   13.920    3.6546
   13.950    3.5914
   13.980    3.9705
   14.010    4.8973
   14.040    5.0132
   14.070    6.7615
   14.100    7.9094
   14.130    7.4039
   14.160    6.0769
   14.190    4.2127
   14.220    3.8125
   14.250    3.6862
   14.280    3.4229
   14.310    3.5282
   14.340    3.0437
   14.370    3.4018
   14.400    3.4966
   14.430    3.6230
   14.460    3.3807
   14.490    3.5282
   14.520    3.4229
   14.550    3.5176
   14.580    3.2859
   14.610    3.4544
   14.640    3.0858
   14.670    3.6440
   14.700    3.4650
   14.730    3.4018
   14.760    3.4650
   14.790    3.3597
   14.820    3.6019
   14.850    3.3702
   14.880    3.5598
   14.910    3.4860
   14.940    3.5071
   14.970    3.3175
   15.000    3.5808
   15.030    3.4123
   15.060    3.6967
   15.090    4.3391
   15.120    5.0658
   15.150    5.2659
   15.180    5.0237
   15.210    4.6656
   15.240    3.6124
   15.270    3.4123
   15.300    3.2438
   15.330    3.3386
   15.360    3.4544
   15.390    3.2754
   15.420    3.4755
   15.450    3.4018
   15.480    3.4650
   15.510    3.5914
   15.540    3.3807
   15.570    3.5387
   15.600    3.3175
   15.630    3.7388
   15.660    3.3281
   15.690    3.3702
   15.720    3.4123
   15.750    3.3702
   15.780    3.3070
   15.810    3.5914
   15.840    3.3175
   15.870    3.4123
   15.900    3.2333
   15.930    3.6967
   15.960    3.3070
   15.990    3.6019
   16.020    3.6019
   16.050    3.7177
   16.080    4.1285
   16.110    4.7499
   16.140    5.0448
   16.170    4.7709
   16.200    4.3813
   16.230    3.7177
   16.260    3.5703
   16.290    3.2859
   16.320    3.3175
   16.350    3.4439
   16.380    3.4650
   16.410    3.6967
   16.440    3.3175
   16.470    3.4334
   16.500    3.6546
   16.530    4.2443
   16.560    4.0653
   16.590    4.8131
   16.620    5.3081
   16.650    5.1711
   16.680    4.4550
   16.710    3.6651
   16.740    3.4018
   16.770    3.5492
   16.800    3.2965
   16.830    3.7493
   16.860    3.4966
   16.890    3.6124
   16.920    3.7915
   16.950    3.8020
   16.980    4.2865
   17.010    4.3075
   17.040    6.0979
   17.070    6.7193
   17.100    7.1827
   17.130    6.0242
   17.160    4.9816
   17.190    3.6967
   17.220    3.5914
   17.250    3.4123
   17.280    3.4334
   17.310    3.7177
   17.340    3.2754
   17.370    3.4650
   17.400    3.4650
   17.430    3.5176
   17.460    3.4544
   17.490    3.9916
   17.520    4.4128
   17.550    4.2127
   17.580    4.0232
   17.610    3.9389
   17.640    3.5492
   17.670    3.4860
   17.700    3.4860
   17.730    3.3913
   17.760    3.5492
   17.790    3.4123
   17.820    3.6230
   17.850    3.7704
   17.880    3.4544
   17.910    3.8231
   17.940    4.1811
   17.970    4.1706
   18.000    4.2127
   18.030    3.7599
   18.060    3.4860
   18.090    3.8125
   18.120    3.4755
   18.150    3.4123
   18.180    3.5598
   18.210    3.6862
   18.240    3.2649
   18.270    3.4650
   18.300    3.7388
   18.330    3.9916
   18.360    4.1285
   18.390    4.3181
   18.420    4.4760
   18.450    4.2654
   18.480    3.7915
   18.510    3.5071
   18.540    3.2965
   18.570    3.6756
   18.600    3.7283
   18.630    3.4334
   18.660    3.2227
   18.690    3.3070
   18.720    3.5914
   18.750    3.5282
   18.780    3.8863
   18.810    4.2233
   18.840    3.9705
   18.870    3.6651
   18.900    3.4650
   18.930    3.4860
   18.960    3.2859
   18.990    3.5071
   19.020    3.0753
   19.050    3.3702
   19.080    3.6230
   19.110    3.2965
   19.140    3.3597
   19.170    3.2438
   19.200    3.3597
   19.230    3.6335
   19.260    3.7599
   19.290    3.3807
   19.320    3.2543
   19.350    3.5176
   19.380    3.3702
   19.410    3.3491
   19.440    3.6335
   19.470    3.7599
   19.500    3.4439
   19.530    3.7072
   19.560    3.9810
   19.590    4.9289
   19.620    5.0342
   19.650    4.9078
   19.680    4.5392
   19.710    3.7283
   19.740    3.6335
   19.770    3.2754
   19.800    3.5071
   19.830    3.7177
   19.860    3.2543
   19.890    3.4966
   19.920    3.5387
   19.950    3.7704
   19.980    3.9179
   20.010    3.6019
   20.040    3.6440
   20.070    3.7704
   20.100    3.6862
   20.130    3.3175
   20.160    3.4123
   20.190    3.4650
   20.220    3.4229
   20.250    3.3597
   20.280    3.6967
   20.310    3.9073
   20.340    4.8447
   20.370    5.8241
   20.400    6.8246
   20.430    6.9089
   20.460    5.6767
   20.490    4.8657
   20.520    4.1074
   20.550    3.7283
   20.580    3.5808
   20.610    3.5598
   20.640    3.7599
   20.670    3.3175
   20.700    3.1490
   20.730    3.4439
   20.760    3.6440
   20.790    3.7704
   20.820    3.3807
   20.850    3.4334
   20.880    3.6546
   20.910    3.6230
   20.940    3.0542
   20.970    3.2438
   21.000    3.6230
   21.030    3.5176
   21.060    3.5703
   21.090    3.3491
   21.120    3.4123
   21.150    3.3702
   21.180    3.4334
   21.210    3.4018
   21.240    3.5598
   21.270    3.2227
   21.300    3.6019
   21.330    3.0964
   21.360    3.0753
   21.390    3.3491
   21.420    3.5387
   21.450    3.4229
   21.480    3.4229
   21.510    3.2122
   21.540    3.6019
   21.570    3.4860
   21.600    3.4544
   21.630    3.6546
   21.660    3.6019
   21.690    3.2649
   21.720    3.5808
   21.750    3.5703
   21.780    3.4860
   21.810    3.9600
   21.840    4.2865
   21.870    5.0448
   21.900    5.1711
   21.930    4.9184
   21.960    4.3181
   21.990    3.4544
   22.020    3.7599
   22.050    3.5598
   22.080    3.4650
   22.110    3.2754
   22.140    3.5387
   22.170    3.6546
   22.200    3.6967
   22.230    3.8441
   22.260    4.4971
   22.290    3.7072
   22.320    4.0442
   22.350    3.7388
   22.380    3.4123
   22.410    3.8441
   22.440    3.7493
   22.470    3.7283
   22.500    4.3391
   22.530    4.9394
   22.560    6.0032
   22.590    6.7930
   22.620    6.8036
   22.650    5.9294
   22.680    4.9816
   22.710    3.7283
   22.740    3.4966
   22.770    3.5914
   22.800    3.7493
   22.830    3.8757
   22.860    4.5182
   22.890    6.2875
   22.920    7.0563
   22.950    7.7830
   22.980    7.3618
   23.010    5.9400
   23.040    4.2549
   23.070    3.8125
   23.100    3.4544
   23.130    3.0858
   23.160    4.0442
   23.190    3.6019
   23.220    3.9179
   23.250    4.1811
   23.280    4.6656
   23.310    4.7077
   23.340    4.4655
   23.370    3.7809
   23.400    3.7072
   23.430    3.7809
   23.460    3.4334
   23.490    3.3597
   23.520    3.2543
   23.550    3.8757
   23.580    3.8547
   23.610    3.8336
   23.640    3.6335
   23.670    3.7388
   23.700    3.4229
   23.730    3.7704
   23.760    3.5176
   23.790    3.5598
   23.820    3.6019
   23.850    3.3597
   23.880    3.6335
   23.910    4.5498
   23.940    4.5919
   23.970    4.6024
   24.000    4.3286
   24.030    3.8547
   24.060    3.5176
   24.090    3.6546
   24.120    3.3386
   24.150    3.5914
   24.180    3.8547
   24.210    3.3597
   24.240    3.3702
   24.270    3.4860
   24.300    3.5492
   24.330    3.4439
   24.360    3.2965
   24.390    3.5176
   24.420    3.2754
   24.450    3.5914
   24.480    3.1701
   24.510    3.3281
   24.540    3.5914
   24.570    3.6124
   24.600    3.4334
   24.630    3.5703
   24.660    3.3386
   24.690    3.4544
   24.720    3.4439
   24.750    3.6756
   24.780    3.4018
   24.810    3.4439
   24.840    3.6440
   24.870    3.3913
   24.900    3.8125
   24.930    3.3702
   24.960    3.6124
   24.990    3.6019
   25.020    3.1069
   25.050    3.5282
   25.080    3.2754
   25.110    3.4439
   25.140    3.2333
   25.170    3.8968
   25.200    3.7809
   25.230    3.9284
   25.260    3.9600
   25.290    3.6335
   25.320    3.7072
   25.350    3.6546
   25.380    3.6651
   25.410    3.3070
   25.440    3.5387
   25.470    3.5492
   25.500    3.7177
   25.530    3.3281
   25.560    4.1706
   25.590    3.5282
   25.620    3.6967
   25.650    3.4966
   25.680    3.3175
   25.710    3.4334
   25.740    3.5282
   25.770    3.7072
   25.800    4.5498
   25.830    5.3818
   25.860    6.3718
   25.890    5.5187
   25.920    5.2343
   25.950    4.1180
   25.980    3.4650
   26.010    3.3070
   26.040    3.4123
   26.070    3.3175
   26.100    3.6546
   26.130    3.4334
   26.160    3.4650
   26.190    3.5387
   26.220    3.3913
   26.250    3.7283
   26.280    3.2754
   26.310    3.2438
   26.340    3.0753
   26.370    3.6862
   26.400    3.7704
   26.430    3.9494
   26.460    4.2865
   26.490    3.9810
   26.520    3.5914
   26.550    3.6440
   26.580    3.3281
   26.610    3.3702
   26.640    3.4123
   26.670    3.4018
   26.700    3.4439
   26.730    3.3491
   26.760    3.2754
   26.790    3.1280
   26.820    3.5282
   26.850    3.3702
   26.880    3.3281
   26.910    3.3281
   26.940    3.3491
   26.970    3.5071
   27.000    3.9073
   27.030    4.2022
   27.060    4.4550
   27.090    4.1390
   27.120    4.2022
   27.150    3.8757
   27.180    3.4650
   27.210    3.3386
   27.240    3.3070
   27.270    3.4439
   27.300    3.3386
   27.330    3.1385
   27.360    3.6335
   27.390    3.5387
   27.420    3.4544
   27.450    3.1596
   27.480    3.4650
   27.510    3.4018
   27.540    3.0648
   27.570    3.5703
   27.600    3.6862
   27.630    3.9600
   27.660    3.8231
   27.690    3.6230
   27.720    3.5492
   27.750    3.5387
   27.780    2.9384
   27.810    3.3070
   27.840    3.3386
   27.870    3.5387
   27.900    3.3702
   27.930    3.5598
   27.960    4.0337
   27.990    3.3386
   28.020    3.5176
   28.050    3.4860
   28.080    3.3597
   28.110    3.4123
   28.140    3.5808
   28.170    4.1601
   28.200    4.2022
   28.230    4.2970
   28.260    4.1496
   28.290    3.7915
   28.320    3.6756
   28.350    3.3386
   28.380    3.7493
   28.410    3.4439
   28.440    3.8757
   28.470    4.2443
   28.500    4.3181
   28.530    4.2549
   28.560    3.8125
   28.590    3.3491
   28.620    3.3702
   28.650    3.2333
   28.680    3.2649
   28.710    3.4123
   28.740    3.1701
   28.770    3.2649
   28.800    3.2122
   28.830    3.4544
   28.860    3.1280
   28.890    3.3070
   28.920    3.3175
   28.950    2.9384
   28.980    3.3175
   29.010    3.6230
   29.040    3.6967
   29.070    3.5492
   29.100    3.4123
   29.130    3.4966
   29.160    3.4229
   29.190    3.2017
   29.220    3.0858
   29.250    3.7493
   29.280    3.7493
   29.310    3.8968
   29.340    4.1811
   29.370    4.1390
   29.400    3.6651
   29.430    3.4229
   29.460    3.0121
   29.490    3.1912
   29.520    3.4755
   29.550    3.1490
   29.580    3.2965
   29.610    3.2859
   29.640    3.2438
   29.670    2.9700
   29.700    3.2754
   29.730    3.2227
   29.760    3.2122
   29.790    3.3702
   29.820    3.5598
   29.850    3.4544
   29.880    3.5282
   29.910    3.4334
   29.940    3.4018
   29.970    3.5492
   30.000    3.1701
   30.030    3.2649
   30.060    3.2227
   30.090    3.1596
   30.120    3.5282
   30.150    3.4334
   30.180    3.2649
   30.210    3.2017
   30.240    3.0226
   30.270    2.9700
   30.300    3.0964
   30.330    3.1912
   30.360    3.0753
   30.390    3.6124
   30.420    3.3491
   30.450    3.4123
   30.480    3.0542
   30.510    3.3070
   30.540    3.2859
   30.570    3.3175
   30.600    3.3070
   30.630    3.3175
   30.660    3.8757
   30.690    3.6335
   30.720    3.7388
   30.750    3.1806
   30.780    3.4544
   30.810    3.0858
   30.840    3.3175
   30.870    3.0753
   30.900    3.2859
   30.930    3.4018
   30.960    3.2227
   30.990    3.3491
   31.020    3.1174
   31.050    3.0016
   31.080    3.0332
   31.110    2.8963
   31.140    2.7804
   31.170    3.0016
   31.200    2.9384
   31.230    2.9068
   31.260    3.1174
   31.290    2.8752
   31.320    3.1280
   31.350    2.9700
   31.380    3.2859
   31.410    3.5387
   31.440    3.6862
   31.470    3.1174
   31.500    3.4334
   31.530    3.4650
   31.560    3.2649
   31.590    3.0332
   31.620    3.1596
   31.650    3.1912
   31.680    3.2122
   31.710    3.2859
   31.740    3.1806
   31.770    2.9068
   31.800    3.0753
   31.830    3.0121
   31.860    3.0542
   31.890    3.2017
   31.920    2.9384
   31.950    3.3702
   31.980    3.2859
   32.010    2.9595
   32.040    2.8963
   32.070    3.0648
   32.100    3.1912
   32.130    3.0648
   32.160    3.3175
   32.190    2.9805
   32.220    2.6119
   32.250    3.2122
   32.280    3.0648
   32.310    3.0753
   32.340    2.8963
   32.370    2.9805
   32.400    3.0964
   32.430    3.3281
   32.460    3.0858
   32.490    3.0016
   32.520    2.8857
   32.550    3.1912
   32.580    2.9173
   32.610    3.0858
   32.640    3.0226
   32.670    3.0121
   32.700    3.0437
   32.730    2.9173
   32.760    2.9805
   32.790    2.9279
   32.820    3.0858
   32.850    3.1912
   32.880    3.0753
   32.910    3.3281
   32.940    3.2122
   32.970    3.1701
   33.000    3.3175
   33.030    3.0437
   33.060    2.9068
   33.090    2.7699
   33.120    2.8963
   33.150    2.7699
   33.180    2.7909
   33.210    2.9279
   33.240    2.9068
   33.270    2.7593
   33.300    2.8963
   33.330    3.0332
   33.360    2.7067
   33.390    2.8120
   33.420    2.4223
   33.450    2.8331
   33.480    2.8436
   33.510    2.7804
   33.540    3.0332
   33.570    2.6224
   33.600    2.9595
   33.630    2.6962
   33.660    2.8331
   33.690    2.9805
   33.720    3.1385
   33.750    2.7383
   33.780    2.9805
   33.810    2.7383
   33.840    3.0964
   33.870    2.8752
   33.900    3.4229
   33.930    3.6230
   33.960    3.2017
   33.990    3.2122
   34.020    3.0332
   34.050    3.2227
   34.080    3.1806
   34.110    2.7909
   34.140    2.8647
   34.170    3.1069
   34.200    3.1280
   34.230    3.0542
   34.260    3.0226
   34.290    3.1912
   34.320    2.9173
   34.350    2.9384
   34.380    2.8541
   34.410    2.9910
   34.440    2.7593
   34.470    3.0226
   34.500    2.7278
   34.530    2.7488
   34.560    2.8120
   34.590    2.6330
   34.620    2.8963
   34.650    2.6435
   34.680    3.0753
   34.710    3.0437
   34.740    3.0542
   34.770    2.8647
   34.800    2.8647
   34.830    3.0332
   34.860    3.2438
   34.890    3.0648
   34.920    3.1806
   34.950    3.1596
   34.980    2.8436
   35.010    2.9068
   35.040    2.9173
   35.070    2.9279
   35.100    3.0226
   35.130    2.6330
   35.160    2.8541
   35.190    2.8647
   35.220    2.7909
   35.250    2.7593
   35.280    2.5698
   35.310    2.9384
   35.340    2.6856
   35.370    2.8225
   35.400    2.8436
   35.430    2.6962
   35.460    2.6646
   35.490    2.4961
   35.520    2.8541
   35.550    3.1385
   35.580    2.8857
   35.610    2.8331
   35.640    2.6751
   35.670    2.8436
   35.700    2.8436
   35.730    2.7909
   35.760    2.9910
   35.790    2.8857
   35.820    2.8225
   35.850    2.7699
   35.880    2.7067
   35.910    2.7909
   35.940    2.9805
   35.970    2.8647
   36.000    2.7172
   36.030    2.8752
   36.060    3.0121
   36.090    2.8541
   36.120    2.7067
   36.150    2.9279
   36.180    2.7593
   36.210    2.9489
   36.240    3.0332
   36.270    3.0016
   36.300    2.8963
   36.330    2.6224
   36.360    2.8647
   36.390    2.8225
   36.420    2.8963
   36.450    2.6751
   36.480    2.7699
   36.510    2.7593
   36.540    2.7067
   36.570    2.6540
   36.600    2.7067
   36.630    2.8857
   36.660    2.8436
   36.690    2.6751
   36.720    2.7804
   36.750    2.9384
   36.780    2.7067
   36.810    2.6962
   36.840    2.7067
   36.870    2.7172
   36.900    2.5803
   36.930    2.5698
   36.960    2.6224
   36.990    2.9279
   37.020    2.9595
   37.050    2.8225
   37.080    2.9068
   37.110    3.1701
   37.140    3.1069
   37.170    3.1069
   37.200    3.1596
   37.230    2.8752
   37.260    2.8857
   37.290    2.8225
   37.320    2.7278
   37.350    2.7909
   37.380    2.6962
   37.410    2.9068
   37.440    2.6962
   37.470    2.6962
   37.500    2.9489
   37.530    2.7172
   37.560    2.7067
   37.590    2.7909
   37.620    2.9910
   37.650    2.8541
   37.680    2.6119
   37.710    2.5803
   37.740    2.8225
   37.770    2.6540
   37.800    2.6540
   37.830    2.6119
   37.860    2.7804
   37.890    2.7488
   37.920    2.8857
   37.950    2.7488
   37.980    2.8752
   38.010    2.5487
   38.040    2.8436
   38.070    2.4329
   38.100    2.7699
   38.130    2.7593
   38.160    2.8541
   38.190    2.8752
   38.220    2.6014
   38.250    2.5698
   38.280    2.6540
   38.310    2.9068
   38.340    2.8752
   38.370    2.9384
   38.400    2.8015
   38.430    2.8015
   38.460    2.7804
   38.490    2.9489
   38.520    2.6330
   38.550    2.6962
   38.580    2.4013
   38.610    2.5171
   38.640    2.4539
   38.670    2.4013
   38.700    2.7488
   38.730    2.6856
   38.760    2.7488
   38.790    2.7593
   38.820    2.8015
   38.850    2.5382
   38.880    2.9279
   38.910    2.7909
   38.940    2.5908
   38.970    2.5171
   39.000    2.3486
   39.030    2.7909
   39.060    2.3170
   39.090    2.5276
   39.120    2.3381
   39.150    2.4118
   39.180    3.0016
   39.210    2.9805
   39.240    2.8015
   39.270    2.9384
   39.300    2.8647
   39.330    2.7383
   39.360    2.7383
   39.390    2.5592
   39.420    3.1596
   39.450    2.6330
   39.480    2.8647
   39.510    2.9279
   39.540    2.7172
   39.570    2.7593
   39.600    2.3697
   39.630    2.5803
   39.660    2.4329
   39.690    2.8857
   39.720    2.9700
   39.750    2.7488
   39.780    2.8541
   39.810    2.5171
   39.840    2.8752
   39.870    2.6856
   39.900    2.5803
   39.930    2.5487
   39.960    2.8015
   39.990    2.8541