File: data/MOCOF-1/PXRD/PXRD_KE-305-3G_Cu-Ka1_capillary-1mm_3s-deg.xyd
    1.500   19.1680
    1.530   19.0802
    1.560   18.9925
    1.590   18.8696
    1.620   18.1499
    1.650   16.8159
    1.680   17.4127
    1.710   17.2547
    1.740   16.1664
    1.770   15.4292
    1.800   14.6568
    1.830   15.7978
    1.860   14.8850
    1.890   14.7622
    1.920   14.9026
    1.950   13.9723
    1.980   13.6212
    2.010   14.6217
    2.040   13.9372
    2.070   13.0946
    2.100   13.9898
    2.130   13.5861
    2.160   13.6914
    2.190   12.4100
    2.220   13.3404
    2.250   12.5505
    2.280   13.4632
    2.310   13.1999
    2.340   12.7787
    2.370   13.1648
    2.400   13.0068
    2.430   12.9542
    2.460   12.4978
    2.490   12.7962
    2.520   13.4281
    2.550   13.2175
    2.580   13.6914
    2.610   14.0600
    2.640   13.7265
    2.670   13.6037
    2.700   14.0951
    2.730   13.4632
    2.760   15.0255
    2.790   14.9903
    2.820   15.1308
    2.850   15.9733
    2.880   16.8510
    2.910   17.1318
    2.940   17.5531
    2.970   17.7286
    3.000   18.0095
    3.030   19.9228
    3.060   18.8871
    3.090   20.4494
    3.120   21.1164
    3.150   21.4499
    3.180   22.9419
    3.210   24.6797
    3.240   25.6100
    3.270   26.7860
    3.300   28.4009
    3.330   30.9110
    3.360   32.9472
    3.390   34.8780
    3.420   37.9498
    3.450   39.4594
    3.480   43.0578
    3.510   45.4801
    3.540   49.7279
    3.570   56.8194
    3.600   62.6821
    3.630   68.9310
    3.660   78.6905
    3.690   88.6080
    3.720  102.4048
    3.750  120.3967
    3.780  150.1317
    3.810  202.5101
    3.840  248.8678
    3.870  196.8580
    3.900   94.9798
    3.930   28.1025
    3.960   14.5340
    3.990   11.3744
    4.020    9.4787
    4.050    8.5659
    4.080    8.2851
    4.110    8.1797
    4.140    7.7058
    4.170    7.8638
    4.200    7.4952
    4.230    7.5303
    4.260    8.0744
    4.290    7.3547
    4.320    7.1792
    4.350    7.4776
    4.380    7.2494
    4.410    7.6356
    4.440    7.7760
    4.470    7.4250
    4.500    7.6356
    4.530    7.1968
    4.560    7.6005
    4.590    7.9867
    4.620    7.8638
    4.650    8.1271
    4.680    8.4079
    4.710    8.3026
    4.740    8.7941
    4.770    8.6361
    4.800    9.3382
    4.830    9.5840
    4.860   10.1106
    4.890   10.1983
    4.920   10.5494
    4.950   11.2340
    4.980   11.4973
    5.010   11.6026
    5.040   13.3228
    5.070   13.1297
    5.100   14.8324
    5.130   14.4813
    5.160   16.7457
    5.190   19.0276
    5.220   19.4137
    5.250   22.0994
    5.280   25.1009
    5.310   28.7169
    5.340   33.1578
    5.370   38.2306
    5.400   47.1476
    5.430   64.5076
    5.460   80.8145
    5.490   71.5113
    5.520   40.1088
    5.550   14.4286
    5.580    8.6186
    5.610    7.7585
    5.640    6.9335
    5.670    6.7228
    5.700    6.3718
    5.730    6.2840
    5.760    6.1436
    5.790    6.9861
    5.820    6.2313
    5.850    6.1962
    5.880    6.4244
    5.910    6.5122
    5.940    6.1962
    5.970    6.0207
    6.000    6.1962
    6.030    6.1962
    6.060    6.0383
    6.090    6.3367
    6.120    6.9686
    6.150    6.4946
    6.180    6.4946
    6.210    6.6175
    6.240    6.7930
    6.270    6.7930
    6.300    7.7936
    6.330    7.3196
    6.360    8.2324
    6.390    7.7234
    6.420    8.5308
    6.450    8.1622
    6.480    9.4260
    6.510    9.9702
    6.540   10.4616
    6.570   11.6904
    6.600   13.0068
    6.630   15.9909
    6.660   19.7121
    6.690   23.6265
    6.720   26.2770
    6.750   19.7648
    6.780   11.0585
    6.810    7.0037
    6.840    6.6175
    6.870    5.8452
    6.900    6.4069
    6.930    5.9505
    6.960    5.4239
    6.990    6.3542
    7.020    5.6872
    7.050    5.6345
    7.080    6.3191
    7.110    6.0558
    7.140    5.9856
    7.170    6.2489
    7.200    5.7223
    7.230    6.3718
    7.260    5.8276
    7.290    6.0909
    7.320    6.1436
    7.350    6.0909
    7.380    6.3718
    7.410    6.9335
    7.440    6.9861
    7.470    7.0037
    7.500    6.7755
    7.530    8.1622
    7.560    7.8989
    7.590    8.6361
    7.620    9.0223
    7.650   10.0228
    7.680   11.8132
    7.710   14.4813
    7.740   18.0095
    7.770   20.2563
    7.800   15.6749
    7.830   10.2686
    7.860    6.8984
    7.890    5.5468
    7.920    6.2840
    7.950    5.1957
    7.980    5.5117
    8.010    5.8101
    8.040    5.4239
    8.070    5.6170
    8.100    5.9505
    8.130    5.2835
    8.160    5.8276
    8.190    5.5994
    8.220    5.9856
    8.250    5.0553
    8.280    5.6170
    8.310    5.1431
    8.340    5.6170
    8.370    5.4941
    8.400    5.5819
    8.430    5.3361
    8.460    5.9154
    8.490    5.8978
    8.520    5.5819
    8.550    6.4069
    8.580    6.4244
    8.610    6.2665
    8.640    6.9686
    8.670    7.5829
    8.700    7.5829
    8.730    6.9335
    8.760    6.2840
    8.790    5.5468
    8.820    5.6345
    8.850    5.4590
    8.880    5.5819
    8.910    5.3186
    8.940    5.5468
    8.970    5.4590
    9.000    5.6521
    9.030    6.2138
    9.060    5.9505
    9.090    6.3893
    9.120    5.9329
    9.150    6.4244
    9.180    6.4771
    9.210    7.4074
    9.240    8.0569
    9.270    8.0393
    9.300    9.1101
    9.330    9.8999
    9.360   10.9180
    9.390   12.8489
    9.420   14.4462
    9.450   18.5185
    9.480   23.6967
    9.510   31.7009
    9.540   33.4913
    9.570   25.4344
    9.600   13.3930
    9.630    6.8808
    9.660    5.5819
    9.690    5.5468
    9.720    5.2133
    9.750    5.9154
    9.780    5.4590
    9.810    5.5117
    9.840    5.5994
    9.870    5.7223
    9.900    5.6345
    9.930    6.3718
    9.960    6.0207
    9.990    6.1436
   10.020    6.5473
   10.050    6.5824
   10.080    6.4771
   10.110    6.9686
   10.140    7.2494
   10.170    7.8462
   10.200    9.4436
   10.230   11.0760
   10.260   13.6563
   10.290   15.4994
   10.320   15.6925
   10.350   11.1813
   10.380    7.0915
   10.410    5.8978
   10.440    5.6872
   10.470    5.5292
   10.500    5.3537
   10.530    5.1957
   10.560    4.9675
   10.590    5.2659
   10.620    5.2133
   10.650    5.0553
   10.680    5.4415
   10.710    5.4590
   10.740    6.0734
   10.770    6.0734
   10.800    5.6170
   10.830    6.6526
   10.860    6.2489
   10.890    6.4771
   10.920    7.8111
   10.950    8.5484
   10.980   11.0585
   11.010   12.3398
   11.040   12.1819
   11.070    9.1452
   11.100    6.4244
   11.130    5.6521
   11.160    5.3361
   11.190    5.3712
   11.220    5.4590
   11.250    5.5468
   11.280    5.4941
   11.310    5.0202
   11.340    5.1957
   11.370    5.3712
   11.400    5.3888
   11.430    5.2484
   11.460    5.5117
   11.490    6.0734
   11.520    6.4069
   11.550    7.4250
   11.580    7.9340
   11.610    8.1622
   11.640   10.0053
   11.670   11.5499
   11.700   13.6563
   11.730   12.1819
   11.760    8.8643
   11.790    6.3016
   11.820    5.0377
   11.850    5.2659
   11.880    5.1606
   11.910    5.2308
   11.940    5.1431
   11.970    5.0377
   12.000    5.4590
   12.030    5.2133
   12.060    5.2659
   12.090    4.6516
   12.120    5.1080
   12.150    5.2308
   12.180    4.9324
   12.210    5.1606
   12.240    5.4941
   12.270    5.7048
   12.300    6.4069
   12.330    6.3718
   12.360    6.0558
   12.390    6.1260
   12.420    5.1431
   12.450    5.3186
   12.480    4.9149
   12.510    4.6691
   12.540    5.0553
   12.570    4.9149
   12.600    5.0553
   12.630    5.3010
   12.660    4.9500
   12.690    4.9851
   12.720    5.4415
   12.750    5.3537
   12.780    6.0383
   12.810    6.0383
   12.840    6.3367
   12.870    6.8984
   12.900    9.0223
   12.930   10.2335
   12.960   10.3739
   12.990    8.3026
   13.020    6.6877
   13.050    5.3537
   13.080    5.1606
   13.110    4.6691
   13.140    5.2133
   13.170    5.0904
   13.200    5.1080
   13.230    5.1782
   13.260    4.9324
   13.290    4.9324
   13.320    4.6691
   13.350    5.1255
   13.380    5.3712
   13.410    4.9324
   13.440    5.8276
   13.470    6.3893
   13.500    7.1441
   13.530    8.1271
   13.560    6.8808
   13.590    5.7574
   13.620    5.0026
   13.650    5.3537
   13.680    4.8271
   13.710    5.5292
   13.740    5.0377
   13.770    4.9675
   13.800    5.3537
   13.830    5.4941
   13.860    5.1782
   13.890    5.5468
   13.920    6.0207
   13.950    6.4420
   13.980    6.8457
   14.010    7.0915
   14.040    8.7239
   14.070   10.1983
   14.100   10.3037
   14.130    8.6361
   14.160    6.7053
   14.190    5.3010
   14.220    4.9675
   14.250    4.6867
   14.280    4.8622
   14.310    4.5463
   14.340    4.6867
   14.370    4.8973
   14.400    4.8271
   14.430    4.5814
   14.460    4.8973
   14.490    4.8095
   14.520    4.6867
   14.550    4.7744
   14.580    4.9675
   14.610    4.9851
   14.640    4.9500
   14.670    4.7218
   14.700    4.9675
   14.730    4.6340
   14.760    4.9675
   14.790    4.6516
   14.820    5.3712
   14.850    4.2654
   14.880    4.4760
   14.910    4.4760
   14.940    5.0202
   14.970    5.2835
   15.000    4.5814
   15.030    5.3888
   15.060    5.0202
   15.090    5.8276
   15.120    5.1431
   15.150    5.7925
   15.180    5.7399
   15.210    4.6691
   15.240    4.7042
   15.270    4.8973
   15.300    4.8095
   15.330    4.8271
   15.360    4.6867
   15.390    4.7569
   15.420    5.4064
   15.450    4.6340
   15.480    4.9324
   15.510    5.3712
   15.540    4.9500
   15.570    5.1080
   15.600    4.7393
   15.630    4.9851
   15.660    4.3181
   15.690    4.5463
   15.720    4.7920
   15.750    4.5638
   15.780    5.2308
   15.810    4.4234
   15.840    4.7393
   15.870    4.9675
   15.900    5.3361
   15.930    5.1080
   15.960    4.8095
   15.990    5.0377
   16.020    4.9675
   16.050    5.1080
   16.080    5.6170
   16.110    6.1787
   16.140    6.0734
   16.170    5.3186
   16.200    5.0553
   16.230    5.4239
   16.260    4.9675
   16.290    4.5814
   16.320    5.1782
   16.350    5.0026
   16.380    4.9675
   16.410    5.0904
   16.440    5.0904
   16.470    5.1255
   16.500    4.9851
   16.530    5.2133
   16.560    5.7750
   16.590    5.9154
   16.620    5.6521
   16.650    5.7925
   16.680    4.9851
   16.710    5.3537
   16.740    4.9500
   16.770    5.5292
   16.800    5.1255
   16.830    5.1431
   16.860    5.3712
   16.890    5.0026
   16.920    5.6170
   16.950    5.7925
   16.980    6.7755
   17.010    7.5478
   17.040    8.3377
   17.070    8.5133
   17.100    7.8462
   17.130    6.6175
   17.160    5.6170
   17.190    5.5117
   17.220    4.8271
   17.250    4.8095
   17.280    5.0904
   17.310    5.0728
   17.340    5.1606
   17.370    4.4936
   17.400    5.0553
   17.430    5.3361
   17.460    5.2659
   17.490    5.9681
   17.520    5.7048
   17.550    5.8276
   17.580    5.0728
   17.610    4.9851
   17.640    5.0728
   17.670    5.1957
   17.700    4.9324
   17.730    5.3888
   17.760    4.9851
   17.790    4.8271
   17.820    4.8447
   17.850    5.1606
   17.880    5.0377
   17.910    5.5468
   17.940    5.5994
   17.970    5.7574
   18.000    5.4590
   18.030    5.2133
   18.060    5.0377
   18.090    4.7218
   18.120    5.1606
   18.150    5.0553
   18.180    4.8798
   18.210    5.0728
   18.240    5.1957
   18.270    5.4239
   18.300    4.7920
   18.330    5.4941
   18.360    5.5117
   18.390    6.0558
   18.420    5.5643
   18.450    5.5994
   18.480    5.0553
   18.510    4.6691
   18.540    5.2133
   18.570    5.3888
   18.600    5.2835
   18.630    4.8798
   18.660    4.4409
   18.690    4.9675
   18.720    5.1606
   18.750    5.1606
   18.780    5.5117
   18.810    5.5643
   18.840    4.9851
   18.870    4.7744
   18.900    4.9500
   18.930    4.7393
   18.960    5.5292
   18.990    4.8095
   19.020    4.5287
   19.050    4.8973
   19.080    4.4760
   19.110    5.3010
   19.140    5.0728
   19.170    4.6691
   19.200    5.3010
   19.230    4.8973
   19.260    5.3712
   19.290    4.9675
   19.320    5.1782
   19.350    4.8095
   19.380    4.9675
   19.410    5.0026
   19.440    4.9324
   19.470    4.9851
   19.500    4.9675
   19.530    5.4941
   19.560    5.8452
   19.590    6.0909
   19.620    6.7053
   19.650    5.4941
   19.680    4.9851
   19.710    5.4941
   19.740    4.7218
   19.770    5.3361
   19.800    4.9675
   19.830    4.9675
   19.860    4.8798
   19.890    4.7744
   19.920    4.8095
   19.950    4.9851
   19.980    5.4941
   20.010    5.3888
   20.040    4.6516
   20.070    5.1782
   20.100    4.9851
   20.130    5.0904
   20.160    5.1431
   20.190    5.2308
   20.220    5.1782
   20.250    5.5468
   20.280    6.0909
   20.310    6.2313
   20.340    7.0739
   20.370    8.4079
   20.400    7.9516
   20.430    6.7404
   20.460    5.8627
   20.490    5.6170
   20.520    4.9851
   20.550    5.1431
   20.580    4.7920
   20.610    4.8798
   20.640    4.6867
   20.670    5.0377
   20.700    5.1431
   20.730    4.8973
   20.760    4.6691
   20.790    4.9500
   20.820    4.6867
   20.850    4.6516
   20.880    5.1782
   20.910    5.4590
   20.940    4.8271
   20.970    5.0026
   21.000    5.0904
   21.030    5.0728
   21.060    4.7920
   21.090    4.8447
   21.120    5.0728
   21.150    4.6340
   21.180    4.9851
   21.210    4.9675
   21.240    5.0202
   21.270    4.8798
   21.300    4.8798
   21.330    5.1957
   21.360    4.9500
   21.390    5.2484
   21.420    5.2835
   21.450    5.1080
   21.480    5.1255
   21.510    4.5814
   21.540    5.1606
   21.570    4.7393
   21.600    4.8271
   21.630    5.2133
   21.660    5.0904
   21.690    4.7393
   21.720    4.9675
   21.750    4.8271
   21.780    5.6521
   21.810    5.3712
   21.840    5.5819
   21.870    5.4766
   21.900    6.0558
   21.930    5.7223
   21.960    5.2484
   21.990    5.0553
   22.020    5.0377
   22.050    5.0553
   22.080    5.0728
   22.110    4.8447
   22.140    5.3361
   22.170    5.3712
   22.200    6.0207
   22.230    5.3361
   22.260    5.0553
   22.290    5.6170
   22.320    5.1782
   22.350    5.0202
   22.380    5.4239
   22.410    5.3712
   22.440    4.9324
   22.470    6.0383
   22.500    6.6702
   22.530    8.0393
   22.560    8.4781
   22.590    8.6361
   22.620    7.1968
   22.650    6.4771
   22.680    5.8276
   22.710    5.2659
   22.740    5.3186
   22.770    5.2308
   22.800    5.7750
   22.830    6.1611
   22.860    6.6175
   22.890    8.3553
   22.920    8.7063
   22.950    8.0218
   22.980    6.9686
   23.010    5.4064
   23.040    5.1782
   23.070    5.3186
   23.100    4.9500
   23.130    5.3186
   23.160    4.8973
   23.190    5.9329
   23.220    5.7750
   23.250    5.4941
   23.280    6.0207
   23.310    5.7223
   23.340    5.5819
   23.370    5.4239
   23.400    5.3888
   23.430    4.9500
   23.460    5.2484
   23.490    5.4064
   23.520    4.9851
   23.550    5.6521
   23.580    5.0728
   23.610    5.3361
   23.640    5.0728
   23.670    5.0377
   23.700    5.0026
   23.730    5.2308
   23.760    4.6516
   23.790    5.2308
   23.820    5.8978
   23.850    5.5819
   23.880    5.4590
   23.910    5.6697
   23.940    5.8978
   23.970    5.4239
   24.000    5.4590
   24.030    5.2484
   24.060    4.7920
   24.090    4.7744
   24.120    4.7920
   24.150    4.8271
   24.180    4.9675
   24.210    4.8095
   24.240    4.9324
   24.270    4.9500
   24.300    5.0553
   24.330    5.4941
   24.360    4.9149
   24.390    5.1431
   24.420    5.1782
   24.450    4.8798
   24.480    5.0202
   24.510    5.0728
   24.540    5.1080
   24.570    5.1606
   24.600    5.2484
   24.630    4.7920
   24.660    5.0026
   24.690    5.2835
   24.720    5.2484
   24.750    4.8973
   24.780    4.4058
   24.810    4.7569
   24.840    5.0377
   24.870    5.5994
   24.900    5.2133
   24.930    4.9675
   24.960    4.3181
   24.990    4.7569
   25.020    4.7042
   25.050    5.2133
   25.080    4.8973
   25.110    4.4585
   25.140    4.6691
   25.170    5.5468
   25.200    5.4064
   25.230    5.5994
   25.260    5.7223
   25.290    5.4590
   25.320    5.1080
   25.350    5.1080
   25.380    4.7218
   25.410    4.7042
   25.440    5.0728
   25.470    5.3186
   25.500    5.6697
   25.530    5.7750
   25.560    5.1606
   25.590    4.5989
   25.620    5.1957
   25.650    4.7218
   25.680    4.9675
   25.710    5.2835
   25.740    5.6521
   25.770    5.7399
   25.800    7.0739
   25.830    7.5303
   25.860    7.4074
   25.890    7.1792
   25.920    5.6697
   25.950    5.3010
   25.980    5.1080
   26.010    5.0553
   26.040    4.6867
   26.070    4.9149
   26.100    5.0026
   26.130    4.9149
   26.160    5.4064
   26.190    4.5463
   26.220    5.2659
   26.250    4.7569
   26.280    4.7744
   26.310    5.1255
   26.340    5.1606
   26.370    5.0377
   26.400    5.0202
   26.430    5.6521
   26.460    5.2835
   26.490    5.2308
   26.520    5.2308
   26.550    4.7569
   26.580    4.8095
   26.610    4.9675
   26.640    4.7042
   26.670    4.4585
   26.700    4.6516
   26.730    4.3532
   26.760    4.5463
   26.790    4.8798
   26.820    4.7393
   26.850    4.7393
   26.880    4.5287
   26.910    5.0553
   26.940    5.3888
   26.970    5.1957
   27.000    5.7574
   27.030    5.7925
   27.060    6.2138
   27.090    5.6697
   27.120    4.8973
   27.150    5.1431
   27.180    4.7569
   27.210    4.2654
   27.240    4.6165
   27.270    4.8447
   27.300    4.4760
   27.330    4.7218
   27.360    4.5989
   27.390    4.6340
   27.420    4.9324
   27.450    4.6340
   27.480    4.6340
   27.510    5.0202
   27.540    5.0728
   27.570    4.6867
   27.600    4.5814
   27.630    5.6872
   27.660    5.5292
   27.690    5.1782
   27.720    4.9500
   27.750    4.3532
   27.780    4.7042
   27.810    4.7569
   27.840    4.4234
   27.870    4.4760
   27.900    4.8447
   27.930    5.1782
   27.960    4.9500
   27.990    4.9675
   28.020    4.7920
   28.050    4.8271
   28.080    4.6867
   28.110    5.7750
   28.140    5.3361
   28.170    5.6521
   28.200    5.7048
   28.230    5.2659
   28.260    5.0553
   28.290    4.6691
   28.320    4.4936
   28.350    5.3712
   28.380    5.2133
   28.410    5.2308
   28.440    5.3186
   28.470    5.3888
   28.500    5.9681
   28.530    5.5819
   28.560    4.5814
   28.590    4.4760
   28.620    4.2654
   28.650    4.8271
   28.680    4.5463
   28.710    4.8622
   28.740    4.5638
   28.770    4.9149
   28.800    4.7218
   28.830    4.5111
   28.860    4.4234
   28.890    4.8095
   28.920    4.8798
   28.950    4.8798
   28.980    4.6867
   29.010    4.0899
   29.040    4.5287
   29.070    4.6516
   29.100    4.8271
   29.130    4.3532
   29.160    4.6516
   29.190    4.2654
   29.220    5.0377
   29.250    5.1782
   29.280    5.5643
   29.310    4.4936
   29.340    5.1782
   29.370    4.8622
   29.400    4.7042
   29.430    5.0904
   29.460    4.5287
   29.490    4.3181
   29.520    4.4409
   29.550    4.4936
   29.580    4.7218
   29.610    4.1601
   29.640    4.4409
   29.670    4.7569
   29.700    4.2830
   29.730    4.6691
   29.760    4.3005
   29.790    4.4234
   29.820    4.3532
   29.850    4.8447
   29.880    4.4760
   29.910    4.8271
   29.940    4.4585
   29.970    4.7042
   30.000    4.2654
   30.030    4.4409
   30.060    4.2830
   30.090    4.6165
   30.120    4.8095
   30.150    4.3883
   30.180    4.4585
   30.210    4.1776
   30.240    4.2478
   30.270    4.8973
   30.300    4.2478
   30.330    4.6165
   30.360    4.6165
   30.390    4.9149
   30.420    4.6165
   30.450    4.4409
   30.480    4.1250
   30.510    4.4760
   30.540    4.2478
   30.570    4.7393
   30.600    5.1782
   30.630    4.9324
   30.660    4.4585
   30.690    4.7920
   30.720    4.8095
   30.750    4.9149
   30.780    4.4936
   30.810    4.7042
   30.840    4.3883
   30.870    4.1250
   30.900    4.3005
   30.930    4.4936
   30.960    4.6165
   30.990    4.4936
   31.020    4.4585
   31.050    4.8447
   31.080    4.3356
   31.110    4.3707
   31.140    3.8617
   31.170    4.1601
   31.200    4.7042
   31.230    4.6516
   31.260    4.4234
   31.290    4.1250
   31.320    4.1952
   31.350    4.5989
   31.380    4.3883
   31.410    4.8271
   31.440    4.7393
   31.470    4.5111
   31.500    4.3707
   31.530    4.3356
   31.560    4.1601
   31.590    4.5111
   31.620    4.8622
   31.650    4.3005
   31.680    4.9851
   31.710    4.5989
   31.740    4.9675
   31.770    4.8798
   31.800    5.1080
   31.830    4.4760
   31.860    4.7218
   31.890    4.5989
   31.920    4.6516
   31.950    4.0723
   31.980    4.1952
   32.010    4.1601
   32.040    4.1074
   32.070    4.0372
   32.100    4.2127
   32.130    4.2127
   32.160    4.3883
   32.190    4.4234
   32.220    4.3883
   32.250    4.3883
   32.280    4.6165
   32.310    3.9319
   32.340    4.0723
   32.370    4.3181
   32.400    4.0021
   32.430    4.4936
   32.460    4.3532
   32.490    4.2830
   32.520    4.1250
   32.550    4.1250
   32.580    4.1952
   32.610    4.1776
   32.640    4.5814
   32.670    4.1776
   32.700    4.1601
   32.730    3.9670
   32.760    4.2478
   32.790    4.0197
   32.820    4.4760
   32.850    4.1952
   32.880    4.7042
   32.910    4.5111
   32.940    4.3883
   32.970    4.3356
   33.000    4.0197
   33.030    3.7739
   33.060    3.8441
   33.090    3.8266
   33.120    3.7915
   33.150    4.0021
   33.180    3.9846
   33.210    4.2830
   33.240    3.6862
   33.270    3.5457
   33.300    3.7915
   33.330    3.8441
   33.360    4.0723
   33.390    4.1425
   33.420    3.8441
   33.450    4.2830
   33.480    3.7213
   33.510    3.8266
   33.540    3.9319
   33.570    4.0021
   33.600    4.2654
   33.630    4.2303
   33.660    4.3532
   33.690    4.2303
   33.720    3.7915
   33.750    4.1425
   33.780    3.9670
   33.810    4.5814
   33.840    4.1250
   33.870    4.8447
   33.900    4.9324
   33.930    5.3010
   33.960    5.4239
   33.990    4.7569
   34.020    4.2654
   34.050    3.9319
   34.080    3.8968
   34.110    4.0372
   34.140    3.9494
   34.170    4.0723
   34.200    4.0197
   34.230    3.8617
   34.260    4.0021
   34.290    3.5282
   34.320    4.2478
   34.350    4.1601
   34.380    4.0723
   34.410    3.9846
   34.440    4.1776
   34.470    3.7915
   34.500    4.1250
   34.530    4.0548
   34.560    3.6686
   34.590    3.7915
   34.620    3.6862
   34.650    4.2127
   34.680    3.7915
   34.710    3.8441
   34.740    3.9846
   34.770    4.2654
   34.800    4.1074
   34.830    3.8792
   34.860    4.2127
   34.890    4.2127
   34.920    3.4931
   34.950    3.5282
   34.980    4.1250
   35.010    3.7037
   35.040    3.7915
   35.070    3.5808
   35.100    3.5984
   35.130    3.7388
   35.160    3.7915
   35.190    3.5808
   35.220    3.7388
   35.250    4.1250
   35.280    4.2303
   35.310    3.7213
   35.340    3.2649
   35.370    4.0548
   35.400    3.5106
   35.430    3.6686
   35.460    3.6686
   35.490    3.5808
   35.520    3.8968
   35.550    3.4755
   35.580    3.6335
   35.610    3.6335
   35.640    3.4229
   35.670    3.8968
   35.700    3.7739
   35.730    3.7213
   35.760    4.0197
   35.790    3.5457
   35.820    3.6510
   35.850    4.1425
   35.880    4.0197
   35.910    3.6862
   35.940    3.5633
   35.970    3.5457
   36.000    3.8090
   36.030    4.0548
   36.060    3.8441
   36.090    3.5633
   36.120    3.8441
   36.150    3.6335
   36.180    3.9143
   36.210    3.3351
   36.240    3.8266
   36.270    3.9494
   36.300    3.8617
   36.330    4.0723
   36.360    3.7739
   36.390    4.0021
   36.420    4.1601
   36.450    3.8441
   36.480    3.5984
   36.510    3.8617
   36.540    4.0899
   36.570    3.7037
   36.600    3.5808
   36.630    3.6510
   36.660    3.5984
   36.690    3.8968
   36.720    3.7388
   36.750    3.4053
   36.780    3.7564
   36.810    3.6159
   36.840    3.5633
   36.870    3.5808
   36.900    3.4580
   36.930    3.4404
   36.960    3.7213
   36.990    3.6686
   37.020    4.0548
   37.050    3.7739
   37.080    4.0899
   37.110    3.9670
   37.140    3.9846
   37.170    3.7739
   37.200    4.1425
   37.230    3.8441
   37.260    3.4931
   37.290    3.6159
   37.320    3.5808
   37.350    3.5984
   37.380    3.4053
   37.410    3.6159
   37.440    3.6510
   37.470    3.7388
   37.500    3.5808
   37.530    3.5457
   37.560    3.5984
   37.590    3.5984
   37.620    3.5457
   37.650    3.6159
   37.680    3.4755
   37.710    3.7915
   37.740    3.9494
   37.770    3.4931
   37.800    3.1596
   37.830    3.8968
   37.860    3.4755
   37.890    3.6335
   37.920    3.4755
   37.950    3.9319
   37.980    3.8266
   38.010    4.0723
   38.040    3.6159
   38.070    3.9143
   38.100    3.8266
   38.130    3.4229
   38.160    3.4053
   38.190    3.6862
   38.220    3.7037
   38.250    3.3877
   38.280    3.4755
   38.310    3.3877
   38.340    3.4755
   38.370    3.2298
   38.400    3.5457
   38.430    3.5457
   38.460    3.7915
   38.490    3.4404
   38.520    3.4053
   38.550    3.4229
   38.580    3.2473
   38.610    3.3000
   38.640    3.4931
   38.670    3.7037
   38.700    3.7564
   38.730    3.3877
   38.760    3.3175
   38.790    3.7739
   38.820    3.8090
   38.850    3.5633
   38.880    3.8968
   38.910    3.5282
   38.940    3.5106
   38.970    3.0542
   39.000    3.4229
   39.030    3.4931
   39.060    3.4755
   39.090    3.2473
   39.120    3.1947
   39.150    3.2649
   39.180    3.4755
   39.210    3.6510
   39.240    3.7213
   39.270    3.6510
   39.300    3.6862
   39.330    3.7739
   39.360    3.3175
   39.390    3.5633
   39.420    3.2298
   39.450    3.7564
   39.480    3.1245
   39.510    3.3702
   39.540    3.0718
   39.570    3.4755
   39.600    3.5633
   39.630    3.4053
   39.660    3.6335
   39.690    3.3877
   39.720    3.8792
   39.750    3.8968
   39.780    3.7037
   39.810    3.1947
   39.840    3.4580
   39.870    3.1596
   39.900    3.3175
   39.930    3.3877
   39.960    3.1771
   39.990    3.8266