File: data/MOCOF-1/PXRD/PXRD_KE-043_Cu-Ka1_capillary-1mm_5s-deg.xyd
    1.500   17.3986
    1.530   17.1248
    1.560   16.8404
    1.590   16.1769
    1.620   15.1869
    1.650   14.8078
    1.680   13.8494
    1.710   13.3544
    1.740   13.2280
    1.770   12.5329
    1.800   12.5434
    1.830   12.0695
    1.860   11.8483
    1.890   10.8794
    1.920   10.7425
    1.950   11.0900
    1.980   10.7425
    2.010   10.5740
    2.040   10.0369
    2.070    9.8578
    2.100    9.8894
    2.130    9.6788
    2.160    8.5203
    2.190    9.1101
    2.220    8.7204
    2.250    8.5940
    2.280    9.0469
    2.310    8.9521
    2.340    8.4360
    2.370    8.4360
    2.400    8.1201
    2.430    8.4255
    2.460    7.8989
    2.490    8.2359
    2.520    8.7730
    2.550    7.9726
    2.580    8.2149
    2.610    7.8357
    2.640    7.8884
    2.670    8.0885
    2.700    8.2359
    2.730    8.4466
    2.760    8.1306
    2.790    8.2464
    2.820    8.3834
    2.850    8.1306
    2.880    8.6045
    2.910    8.5729
    2.940    8.6151
    2.970    8.8889
    3.000    9.4471
    3.030    8.8573
    3.060    9.2048
    3.090    9.8999
    3.120   10.3528
    3.150    9.8368
    3.180   10.9847
    3.210   11.3428
    3.240   12.0169
    3.270   11.5745
    3.300   12.6277
    3.330   13.0384
    3.360   14.2391
    3.390   14.8078
    3.420   16.0611
    3.450   16.7983
    3.480   17.2196
    3.510   18.2728
    3.540   18.3992
    3.570   18.3886
    3.600   18.0832
    3.630   18.2201
    3.660   17.6303
    3.690   16.7983
    3.720   16.1980
    3.750   15.4924
    3.780   14.7657
    3.810   14.4286
    3.840   13.2807
    3.870   12.3433
    3.900   11.5640
    3.930   11.4271
    3.960   10.5319
    3.990   10.0579
    4.020    9.5524
    4.050    9.4050
    4.080    8.7520
    4.110    8.4676
    4.140    8.2675
    4.170    8.5519
    4.200    7.6988
    4.230    7.8778
    4.260    7.4987
    4.290    7.3302
    4.320    7.4776
    4.350    7.3196
    4.380    7.4882
    4.410    7.2038
    4.440    7.3407
    4.470    7.0669
    4.500    7.1827
    4.530    6.7930
    4.560    6.8773
    4.590    6.9194
    4.620    6.7930
    4.650    6.7299
    4.680    7.0037
    4.710    6.8984
    4.740    7.0458
    4.770    6.5508
    4.800    6.6456
    4.830    6.3296
    4.860    6.5087
    4.890    6.2981
    4.920    6.7509
    4.950    6.9089
    4.980    6.6140
    5.010    6.9194
    5.040    6.1717
    5.070    6.8457
    5.100    6.9510
    5.130    6.8246
    5.160    6.8246
    5.190    6.6140
    5.220    6.4350
    5.250    6.0769
    5.280    6.5719
    5.310    6.3507
    5.340    6.5403
    5.370    6.1295
    5.400    6.5719
    5.430    6.3928
    5.460    6.6877
    5.490    6.0348
    5.520    6.1190
    5.550    6.2349
    5.580    6.1927
    5.610    6.3296
    5.640    5.9400
    5.670    5.8978
    5.700    6.0032
    5.730    5.9084
    5.760    5.9610
    5.790    5.2870
    5.820    5.4766
    5.850    5.7820
    5.880    5.7083
    5.910    5.4976
    5.940    5.4660
    5.970    5.3818
    6.000    5.2343
    6.030    5.2238
    6.060    5.2554
    6.090    5.3397
    6.120    5.3291
    6.150    5.3818
    6.180    5.5292
    6.210    5.3607
    6.240    5.1922
    6.270    5.0342
    6.300    4.6656
    6.330    5.1185
    6.360    4.8552
    6.390    4.9500
    6.420    5.2343
    6.450    4.8552
    6.480    4.8868
    6.510    4.9921
    6.540    4.9710
    6.570    5.0342
    6.600    5.2343
    6.630    4.9394
    6.660    4.8236
    6.690    5.1185
    6.720    5.1501
    6.750    5.0869
    6.780    5.1501
    6.810    5.1606
    6.840    5.5608
    6.870    5.3923
    6.900    5.4660
    6.930    5.5819
    6.960    5.7715
    6.990    6.2665
    7.020    5.8873
    7.050    5.8662
    7.080    5.8452
    7.110    6.4244
    7.140    6.4560
    7.170    6.2138
    7.200    6.6351
    7.230    6.2770
    7.260    5.8662
    7.290    5.8768
    7.320    6.3296
    7.350    5.9189
    7.380    5.9505
    7.410    5.4871
    7.440    5.7715
    7.470    5.4766
    7.500    5.4344
    7.530    5.2554
    7.560    4.9184
    7.590    5.5608
    7.620    4.8236
    7.650    5.1185
    7.680    4.9500
    7.710    4.7920
    7.740    4.6656
    7.770    4.4023
    7.800    4.5603
    7.830    4.1917
    7.860    4.5287
    7.890    4.9605
    7.920    4.5392
    7.950    4.4234
    7.980    4.4550
    8.010    4.5498
    8.040    4.3602
    8.070    4.6024
    8.100    4.2233
    8.130    4.1601
    8.160    4.0864
    8.190    4.1074
    8.220    4.0021
    8.250    4.4339
    8.280    4.3075
    8.310    4.0021
    8.340    4.0232
    8.370    4.2022
    8.400    3.7915
    8.430    4.0021
    8.460    3.5598
    8.490    3.4755
    8.520    3.8336
    8.550    3.7915
    8.580    3.8547
    8.610    4.1390
    8.640    3.9073
    8.670    3.6651
    8.700    3.5071
    8.730    4.0126
    8.760    3.6230
    8.790    4.1390
    8.820    3.8968
    8.850    3.8547
    8.880    3.7388
    8.910    3.8652
    8.940    3.3175
    8.970    3.6546
    9.000    3.7177
    9.030    3.7388
    9.060    3.8231
    9.090    3.5808
    9.120    3.6651
    9.150    3.6440
    9.180    3.5387
    9.210    3.7809
    9.240    3.4544
    9.270    3.8652
    9.300    4.0232
    9.330    3.6124
    9.360    3.6546
    9.390    3.8547
    9.420    3.3913
    9.450    3.5387
    9.480    3.4755
    9.510    3.6019
    9.540    3.4229
    9.570    3.8020
    9.600    3.7704
    9.630    3.2965
    9.660    3.6651
    9.690    3.2859
    9.720    3.6546
    9.750    3.6546
    9.780    3.6967
    9.810    3.3597
    9.840    3.2859
    9.870    3.4439
    9.900    3.6335
    9.930    3.3386
    9.960    3.4334
    9.990    3.5808
   10.020    3.5598
   10.050    3.7283
   10.080    3.6335
   10.110    3.5808
   10.140    3.6440
   10.170    3.6124
   10.200    3.6862
   10.230    3.5492
   10.260    3.3175
   10.290    3.3070
   10.320    3.5598
   10.350    3.5598
   10.380    3.5808
   10.410    3.6862
   10.440    3.9389
   10.470    3.6546
   10.500    3.4123
   10.530    3.7915
   10.560    3.4860
   10.590    3.7599
   10.620    3.4334
   10.650    3.4334
   10.680    3.6756
   10.710    3.7809
   10.740    3.6862
   10.770    3.7915
   10.800    3.7388
   10.830    3.6651
   10.860    3.5808
   10.890    3.7915
   10.920    3.8968
   10.950    3.5914
   10.980    3.6440
   11.010    3.7809
   11.040    3.5387
   11.070    3.6862
   11.100    3.7599
   11.130    3.7177
   11.160    3.7493
   11.190    3.3281
   11.220    3.8547
   11.250    3.6862
   11.280    3.5914
   11.310    3.7599
   11.340    3.6124
   11.370    3.7915
   11.400    4.0126
   11.430    3.6546
   11.460    3.6335
   11.490    3.4650
   11.520    3.6862
   11.550    3.6019
   11.580    3.6230
   11.610    3.4860
   11.640    3.7493
   11.670    3.7809
   11.700    3.8020
   11.730    3.9284
   11.760    3.5808
   11.790    3.8231
   11.820    3.5703
   11.850    3.5703
   11.880    3.3807
   11.910    3.6019
   11.940    3.6440
   11.970    3.7388
   12.000    3.4334
   12.030    3.4229
   12.060    3.5808
   12.090    3.7809
   12.120    3.4966
   12.150    3.5176
   12.180    3.6019
   12.210    3.7388
   12.240    3.6440
   12.270    3.6230
   12.300    3.3175
   12.330    3.6651
   12.360    3.7493
   12.390    3.5176
   12.420    3.3807
   12.450    3.3386
   12.480    3.6335
   12.510    3.7388
   12.540    3.3807
   12.570    3.6967
   12.600    3.6756
   12.630    3.8757
   12.660    3.7177
   12.690    3.6756
   12.720    3.6440
   12.750    3.4966
   12.780    3.6335
   12.810    3.4966
   12.840    3.5071
   12.870    3.7493
   12.900    3.4544
   12.930    3.3913
   12.960    3.3807
   12.990    3.4650
   13.020    3.3281
   13.050    3.4334
   13.080    3.3597
   13.110    3.4334
   13.140    3.7177
   13.170    3.4860
   13.200    3.6124
   13.230    3.2227
   13.260    3.5282
   13.290    3.1280
   13.320    3.4123
   13.350    3.8125
   13.380    3.4755
   13.410    3.6546
   13.440    3.4229
   13.470    3.5703
   13.500    3.5176
   13.530    3.4229
   13.560    3.6230
   13.590    3.6440
   13.620    3.5703
   13.650    3.5282
   13.680    3.2965
   13.710    3.1385
   13.740    3.4229
   13.770    3.6440
   13.800    3.5071
   13.830    3.8231
   13.860    3.4966
   13.890    3.6230
   13.920    3.2754
   13.950    3.6335
   13.980    3.4018
   14.010    3.3281
   14.040    3.5282
   14.070    3.4860
   14.100    3.5914
   14.130    3.6124
   14.160    3.6019
   14.190    3.6862
   14.220    3.3913
   14.250    3.8863
   14.280    3.5703
   14.310    3.6230
   14.340    3.9284
   14.370    3.4860
   14.400    3.5176
   14.430    3.5071
   14.460    3.2438
   14.490    3.6019
   14.520    3.4544
   14.550    3.4860
   14.580    3.4966
   14.610    3.8020
   14.640    3.6967
   14.670    3.3175
   14.700    3.7388
   14.730    3.4229
   14.760    3.3807
   14.790    3.6019
   14.820    3.8863
   14.850    3.8547
   14.880    3.4229
   14.910    3.5598
   14.940    3.5703
   14.970    3.5914
   15.000    3.3702
   15.030    3.6756
   15.060    3.5808
   15.090    3.7599
   15.120    3.6019
   15.150    3.6440
   15.180    3.5914
   15.210    3.6019
   15.240    3.5282
   15.270    3.6230
   15.300    3.5914
   15.330    3.5176
   15.360    3.5492
   15.390    3.6967
   15.420    3.3070
   15.450    3.6756
   15.480    3.5071
   15.510    3.4544
   15.540    3.5808
   15.570    3.4755
   15.600    3.6230
   15.630    3.5071
   15.660    3.4018
   15.690    3.7388
   15.720    3.8547
   15.750    3.6335
   15.780    4.0021
   15.810    3.4439
   15.840    3.9600
   15.870    3.5387
   15.900    3.8652
   15.930    3.8652
   15.960    3.5808
   15.990    3.8441
   16.020    3.9494
   16.050    3.8547
   16.080    3.8336
   16.110    3.5492
   16.140    3.7072
   16.170    3.7704
   16.200    3.8020
   16.230    3.8652
   16.260    3.8968
   16.290    4.0126
   16.320    3.9600
   16.350    3.6124
   16.380    3.8125
   16.410    3.6019
   16.440    3.6862
   16.470    3.4018
   16.500    3.5492
   16.530    3.8125
   16.560    3.7388
   16.590    3.6440
   16.620    3.6440
   16.650    3.3913
   16.680    3.8125
   16.710    3.3913
   16.740    3.8125
   16.770    3.6335
   16.800    3.5387
   16.830    3.7599
   16.860    3.5914
   16.890    3.6546
   16.920    3.4334
   16.950    3.6651
   16.980    3.7599
   17.010    3.6756
   17.040    3.7283
   17.070    3.8231
   17.100    3.5914
   17.130    3.8336
   17.160    3.5387
   17.190    3.7283
   17.220    3.7809
   17.250    3.8652
   17.280    3.4544
   17.310    3.8547
   17.340    3.6651
   17.370    3.8652
   17.400    3.9916
   17.430    3.4966
   17.460    3.7177
   17.490    3.6124
   17.520    3.9600
   17.550    3.6967
   17.580    3.8863
   17.610    4.0864
   17.640    3.9916
   17.670    3.9705
   17.700    4.0337
   17.730    4.0021
   17.760    4.1285
   17.790    4.0548
   17.820    3.8231
   17.850    4.0653
   17.880    4.3602
   17.910    4.4444
   17.940    4.0337
   17.970    4.1180
   18.000    4.1917
   18.030    4.1074
   18.060    3.9494
   18.090    4.3391
   18.120    4.0969
   18.150    3.9916
   18.180    4.1285
   18.210    4.0126
   18.240    4.2759
   18.270    4.1285
   18.300    4.1285
   18.330    4.3286
   18.360    4.3181
   18.390    4.0442
   18.420    4.2759
   18.450    4.0548
   18.480    4.6235
   18.510    4.2127
   18.540    4.2233
   18.570    3.7599
   18.600    4.1917
   18.630    4.6024
   18.660    4.4444
   18.690    4.2654
   18.720    4.0758
   18.750    4.0864
   18.780    4.3707
   18.810    4.1074
   18.840    4.1390
   18.870    4.0442
   18.900    4.2443
   18.930    4.1390
   18.960    4.4339
   18.990    3.9284
   19.020    4.5392
   19.050    4.3707
   19.080    4.1811
   19.110    4.0864
   19.140    4.2127
   19.170    4.2022
   19.200    4.2233
   19.230    4.1180
   19.260    4.0232
   19.290    4.2022
   19.320    4.0653
   19.350    4.1180
   19.380    4.0337
   19.410    4.0758
   19.440    4.2443
   19.470    4.1706
   19.500    4.1180
   19.530    3.9600
   19.560    4.1601
   19.590    4.1074
   19.620    4.0232
   19.650    3.7283
   19.680    4.0864
   19.710    4.3181
   19.740    3.9073
   19.770    4.1390
   19.800    3.8020
   19.830    4.1706
   19.860    4.0969
   19.890    4.3075
   19.920    3.8125
   19.950    3.6651
   19.980    4.1601
   20.010    3.9494
   20.040    3.6546
   20.070    4.2549
   20.100    4.2022
   20.130    4.2549
   20.160    3.9389
   20.190    3.9705
   20.220    4.1074
   20.250    4.1601
   20.280    4.4234
   20.310    4.1917
   20.340    4.1074
   20.370    4.0548
   20.400    4.1811
   20.430    3.9179
   20.460    4.1917
   20.490    3.9705
   20.520    3.9494
   20.550    4.0864
   20.580    3.8757
   20.610    4.0653
   20.640    3.9705
   20.670    3.7493
   20.700    3.9600
   20.730    3.9600
   20.760    3.9705
   20.790    4.1601
   20.820    4.0969
   20.850    4.0758
   20.880    4.0232
   20.910    4.0969
   20.940    4.1074
   20.970    4.1390
   21.000    4.0232
   21.030    4.1074
   21.060    3.9073
   21.090    4.1180
   21.120    4.0969
   21.150    4.1811
   21.180    4.0758
   21.210    4.1390
   21.240    4.1601
   21.270    4.4234
   21.300    4.2233
   21.330    4.0442
   21.360    4.0126
   21.390    4.0653
   21.420    4.0232
   21.450    4.1496
   21.480    4.0126
   21.510    4.0126
   21.540    3.9389
   21.570    4.3813
   21.600    4.0758
   21.630    4.1285
   21.660    3.7809
   21.690    3.9284
   21.720    4.1706
   21.750    4.2970
   21.780    3.9916
   21.810    4.3602
   21.840    3.9916
   21.870    4.3391
   21.900    4.2022
   21.930    4.0126
   21.960    4.0548
   21.990    4.2865
   22.020    4.1917
   22.050    4.1180
   22.080    4.2970
   22.110    4.1285
   22.140    4.3707
   22.170    4.2549
   22.200    3.9600
   22.230    4.1601
   22.260    4.1811
   22.290    4.2654
   22.320    4.0969
   22.350    3.8231
   22.380    4.3918
   22.410    4.2549
   22.440    4.0864
   22.470    3.9600
   22.500    4.0864
   22.530    4.0653
   22.560    4.0758
   22.590    3.9073
   22.620    3.8547
   22.650    3.7915
   22.680    3.9810
   22.710    3.9705
   22.740    3.7493
   22.770    4.1811
   22.800    4.2338
   22.830    4.0758
   22.860    3.8441
   22.890    4.2654
   22.920    3.9600
   22.950    3.9284
   22.980    3.9073
   23.010    4.0758
   23.040    3.7388
   23.070    3.9179
   23.100    3.6230
   23.130    4.0126
   23.160    3.9705
   23.190    3.9389
   23.220    4.0126
   23.250    3.8652
   23.280    3.7388
   23.310    4.0021
   23.340    4.1496
   23.370    4.0232
   23.400    3.9810
   23.430    3.9600
   23.460    4.2865
   23.490    3.7809
   23.520    3.6019
   23.550    3.9705
   23.580    3.9179
   23.610    4.1706
   23.640    4.0232
   23.670    4.2654
   23.700    3.8231
   23.730    4.0021
   23.760    4.0548
   23.790    3.9600
   23.820    3.8547
   23.850    3.8863
   23.880    3.6546
   23.910    4.2549
   23.940    3.8757
   23.970    3.6862
   24.000    4.0232
   24.030    3.8757
   24.060    3.6124
   24.090    3.9600
   24.120    3.8652
   24.150    3.5914
   24.180    3.6967
   24.210    3.7283
   24.240    4.0021
   24.270    4.0864
   24.300    3.6440
   24.330    3.6756
   24.360    3.8231
   24.390    3.8125
   24.420    3.6546
   24.450    3.6862
   24.480    3.8231
   24.510    3.7388
   24.540    3.8231
   24.570    3.6756
   24.600    3.9810
   24.630    3.6862
   24.660    3.6862
   24.690    3.4123
   24.720    3.8231
   24.750    3.6019
   24.780    3.8125
   24.810    3.5387
   24.840    3.8231
   24.870    3.6124
   24.900    3.8231
   24.930    3.5387
   24.960    3.7072
   24.990    3.4650
   25.020    3.5808
   25.050    3.8547
   25.080    3.3386
   25.110    3.7704
   25.140    3.7388
   25.170    3.4334
   25.200    3.7283
   25.230    3.7599
   25.260    3.5071
   25.290    3.6440
   25.320    3.3281
   25.350    3.6756
   25.380    3.8547
   25.410    3.6967
   25.440    3.6440
   25.470    3.5176
   25.500    3.6124
   25.530    3.6019
   25.560    3.7599
   25.590    3.4860
   25.620    3.4544
   25.650    3.4229
   25.680    3.7177
   25.710    3.5282
   25.740    3.3807
   25.770    3.2438
   25.800    3.8125
   25.830    3.3913
   25.860    3.4334
   25.890    3.4860
   25.920    3.4755
   25.950    3.1385
   25.980    3.5176
   26.010    3.3386
   26.040    3.5703
   26.070    3.2859
   26.100    3.1806
   26.130    3.3702
   26.160    3.2859
   26.190    3.3386
   26.220    3.1912
   26.250    3.2754
   26.280    3.3597
   26.310    3.1385
   26.340    3.4123
   26.370    3.0016
   26.400    3.3175
   26.430    3.4123
   26.460    3.0226
   26.490    3.4650
   26.520    3.1806
   26.550    3.3597
   26.580    2.8752
   26.610    3.5387
   26.640    3.2122
   26.670    3.3491
   26.700    3.3175
   26.730    3.0332
   26.760    2.7909
   26.790    3.3386
   26.820    3.0753
   26.850    3.2017
   26.880    3.2965
   26.910    3.3281
   26.940    3.2122
   26.970    3.2122
   27.000    3.4966
   27.030    3.2227
   27.060    3.1174
   27.090    3.3281
   27.120    3.1280
   27.150    3.2859
   27.180    3.0016
   27.210    3.4439
   27.240    3.1280
   27.270    3.3175
   27.300    3.0753
   27.330    3.1701
   27.360    3.2965
   27.390    3.1069
   27.420    3.0964
   27.450    3.1596
   27.480    3.1174
   27.510    3.1806
   27.540    3.3070
   27.570    3.0858
   27.600    3.2333
   27.630    2.8963
   27.660    3.1912
   27.690    3.0858
   27.720    3.3175
   27.750    3.0648
   27.780    3.0437
   27.810    3.1280
   27.840    3.0542
   27.870    3.1069
   27.900    2.9068
   27.930    2.8225
   27.960    3.2438
   27.990    3.0437
   28.020    2.6856
   28.050    2.9384
   28.080    3.1385
   28.110    3.0226
   28.140    2.7278
   28.170    3.0437
   28.200    3.0753
   28.230    3.1596
   28.260    2.9910
   28.290    2.7804
   28.320    2.9279
   28.350    2.9279
   28.380    3.0437
   28.410    3.1069
   28.440    2.9279
   28.470    2.9173
   28.500    2.6751
   28.530    3.2122
   28.560    2.8752
   28.590    2.9068
   28.620    2.7488
   28.650    2.9279
   28.680    2.9068
   28.710    2.7383
   28.740    2.9173
   28.770    2.8225
   28.800    2.8541
   28.830    2.9489
   28.860    2.6962
   28.890    2.8225
   28.920    2.7804
   28.950    2.8436
   28.980    2.6435
   29.010    2.7383
   29.040    2.7909
   29.070    2.7067
   29.100    2.9068
   29.130    2.9279
   29.160    2.9595
   29.190    3.0121
   29.220    3.0226
   29.250    2.5803
   29.280    2.7383
   29.310    2.6962
   29.340    2.7804
   29.370    2.6119
   29.400    2.6856
   29.430    2.8015
   29.460    2.8225
   29.490    2.6540
   29.520    2.8331
   29.550    2.8963
   29.580    2.7909
   29.610    3.0542
   29.640    2.7593
   29.670    2.6751
   29.700    2.6751
   29.730    2.9279
   29.760    2.5698
   29.790    2.6962
   29.820    2.4750
   29.850    2.9489
   29.880    2.5592
   29.910    2.6856
   29.940    2.6435
   29.970    2.8647
   30.000    2.5908
   30.030    2.8541
   30.060    2.4750
   30.090    2.6646
   30.120    2.6751
   30.150    2.6962
   30.180    2.6330
   30.210    2.5487
   30.240    2.6751
   30.270    2.8015
   30.300    2.4329
   30.330    2.4223
   30.360    2.9173
   30.390    2.9068
   30.420    2.4645
   30.450    2.6330
   30.480    2.5171
   30.510    2.4961
   30.540    2.6119
   30.570    2.5803
   30.600    2.3486
   30.630    2.4013
   30.660    2.4855
   30.690    2.6646
   30.720    2.4645
   30.750    2.6224
   30.780    2.6330
   30.810    2.4329
   30.840    2.6646
   30.870    2.5171
   30.900    2.4750
   30.930    2.3381
   30.960    2.4961
   30.990    2.3907
   31.020    2.4434
   31.050    2.5382
   31.080    2.5171
   31.110    2.5276
   31.140    2.4645
   31.170    2.5276
   31.200    2.6224
   31.230    2.4539
   31.260    2.3170
   31.290    2.3065
   31.320    2.4961
   31.350    2.5592
   31.380    2.4855
   31.410    2.6330
   31.440    2.4961
   31.470    2.5487
   31.500    2.3907
   31.530    2.3486
   31.560    2.7804
   31.590    2.3907
   31.620    2.6751
   31.650    2.4855
   31.680    2.5382
   31.710    2.6646
   31.740    2.3591
   31.770    2.1906
   31.800    2.3486
   31.830    2.4539
   31.860    2.5382
   31.890    2.3381
   31.920    2.2643
   31.950    2.3381
   31.980    2.4013
   32.010    2.1485
   32.040    2.3591
   32.070    2.1380
   32.100    2.3591
   32.130    2.4013
   32.160    2.3170
   32.190    2.2959
   32.220    2.1380
   32.250    2.3065
   32.280    2.1169
   32.310    2.3170
   32.340    2.3486
   32.370    2.1590
   32.400    2.2749
   32.430    2.4118
   32.460    2.2749
   32.490    2.1169
   32.520    2.1380
   32.550    2.2643
   32.580    2.3591
   32.610    2.3381
   32.640    2.2117
   32.670    2.2012
   32.700    2.1696
   32.730    2.2959
   32.760    1.9695
   32.790    2.2117
   32.820    2.1696
   32.850    2.2328
   32.880    2.0748
   32.910    2.0432
   32.940    2.2328
   32.970    2.0326
   33.000    1.9589
   33.030    2.2433
   33.060    2.0011
   33.090    2.0011
   33.120    2.0537
   33.150    2.0221
   33.180    1.9484
   33.210    1.8431
   33.240    2.1274
   33.270    2.0642
   33.300    2.0432
   33.330    2.1169
   33.360    2.2012
   33.390    1.9695
   33.420    2.0748
   33.450    1.9589
   33.480    1.7904
   33.510    2.0011
   33.540    2.1801
   33.570    2.0537
   33.600    1.9273
   33.630    2.0326
   33.660    1.9695
   33.690    1.9168
   33.720    2.0853
   33.750    2.1274
   33.780    1.9484
   33.810    1.8009
   33.840    2.0853
   33.870    2.2117
   33.900    1.8536
   33.930    2.0011
   33.960    2.0537
   33.990    1.9484
   34.020    2.2117
   34.050    2.1590
   34.080    1.9589
   34.110    1.9273
   34.140    2.0326
   34.170    1.6851
   34.200    1.7694
   34.230    1.8325
   34.260    2.1906
   34.290    1.9695
   34.320    1.8852
   34.350    1.7588
   34.380    2.0011
   34.410    1.8115
   34.440    1.8536
   34.470    1.8747
   34.500    1.7799
   34.530    1.8747
   34.560    1.7694
   34.590    1.8009
   34.620    2.0011
   34.650    1.9168
   34.680    1.8325
   34.710    1.9168
   34.740    1.9168
   34.770    1.5903
   34.800    1.7588
   34.830    1.8220
   34.860    1.8325
   34.890    1.7694
   34.920    1.6956
   34.950    1.8009
   34.980    1.7694
   35.010    1.7483
   35.040    1.7588
   35.070    1.7062
   35.100    1.8747
   35.130    1.8431
   35.160    1.6746
   35.190    1.7904
   35.220    1.8431
   35.250    1.8115
   35.280    1.6114
   35.310    1.6956
   35.340    1.6430
   35.370    1.8957
   35.400    1.9484
   35.430    1.8747
   35.460    1.7904
   35.490    1.7378
   35.520    1.8641
   35.550    1.8747
   35.580    1.6430
   35.610    1.7799
   35.640    1.8641
   35.670    1.8431
   35.700    1.7062
   35.730    1.6008
   35.760    1.6851
   35.790    1.5482
   35.820    1.6746
   35.850    1.6219
   35.880    1.7062
   35.910    1.4955
   35.940    1.6008
   35.970    1.6324
   36.000    1.6114
   36.030    1.7378
   36.060    1.4955
   36.090    1.6219
   36.120    1.6851
   36.150    1.6746
   36.180    1.8009
   36.210    1.7062
   36.240    1.7588
   36.270    1.6956
   36.300    1.5587
   36.330    1.6640
   36.360    1.7378
   36.390    1.6430
   36.420    1.6114
   36.450    1.4850
   36.480    1.4639
   36.510    1.6746
   36.540    1.5482
   36.570    1.5271
   36.600    1.5903
   36.630    1.4534
   36.660    1.6114
   36.690    1.5061
   36.720    1.5798
   36.750    1.5271
   36.780    1.6114
   36.810    1.4113
   36.840    1.5587
   36.870    1.3691
   36.900    1.5903
   36.930    1.4745
   36.960    1.6956
   36.990    1.6219
   37.020    1.3797
   37.050    1.5587
   37.080    1.4007
   37.110    1.5061
   37.140    1.5482
   37.170    1.4850
   37.200    1.5377
   37.230    1.6851
   37.260    1.4955
   37.290    1.7378
   37.320    1.5482
   37.350    1.5377
   37.380    1.4534
   37.410    1.5377
   37.440    1.4218
   37.470    1.7483
   37.500    1.4955
   37.530    1.7167
   37.560    1.3060
   37.590    1.4639
   37.620    1.4745
   37.650    1.6956
   37.680    1.6008
   37.710    1.4218
   37.740    1.4534
   37.770    1.4429
   37.800    1.3691
   37.830    1.4850
   37.860    1.5271
   37.890    1.5482
   37.920    1.5692
   37.950    1.5798
   37.980    1.2428
   38.010    1.3481
   38.040    1.4429
   38.070    1.2533
   38.100    1.6956
   38.130    1.6008
   38.160    1.3481
   38.190    1.3797
   38.220    1.3375
   38.250    1.5692
   38.280    1.4534
   38.310    1.2322
   38.340    1.4007
   38.370    1.4429
   38.400    1.3270
   38.430    1.4639
   38.460    1.3165
   38.490    1.3797
   38.520    1.4218
   38.550    1.4639
   38.580    1.3165
   38.610    1.5166
   38.640    1.6324
   38.670    1.3060
   38.700    1.3375
   38.730    1.3270
   38.760    1.4218
   38.790    1.4745
   38.820    1.5271
   38.850    1.5692
   38.880    1.4113
   38.910    1.5798
   38.940    1.3691
   38.970    1.3691
   39.000    1.4218
   39.030    1.2954
   39.060    1.5271
   39.090    1.4323
   39.120    1.3165
   39.150    1.2744
   39.180    1.5166
   39.210    1.3060
   39.240    1.3586
   39.270    1.4534
   39.300    1.4218
   39.330    1.3481
   39.360    1.4113
   39.390    1.3270
   39.420    1.6219
   39.450    1.4745
   39.480    1.3481
   39.510    1.3270
   39.540    1.4113
   39.570    1.5692
   39.600    1.3165
   39.630    1.3797
   39.660    1.3165
   39.690    1.4639
   39.720    1.4745
   39.750    1.4323
   39.780    1.4534
   39.810    1.4745
   39.840    1.2954
   39.870    1.3270
   39.900    1.4745
   39.930    1.3797
   39.960    1.3586
   39.990    1.4323