File: data/MOCOF-1/PXRD/PXRD_KE-044_Cu-Ka1_capillary-1mm_5s-deg.xyd
    1.500   15.7873
    1.530   15.6503
    1.560   15.9979
    1.590   15.1869
    1.620   14.9026
    1.650   14.7762
    1.680   14.4392
    1.710   14.5656
    1.740   14.7341
    1.770   14.6498
    1.800   14.0916
    1.830   13.6704
    1.860   14.2917
    1.890   14.1759
    1.920   13.7757
    1.950   14.5234
    1.980   14.1232
    2.010   13.8494
    2.040   14.6814
    2.070   14.7446
    2.100   14.8605
    2.130   13.8389
    2.160   14.7867
    2.190   14.5866
    2.220   15.5661
    2.250   15.4292
    2.280   15.4924
    2.310   15.4924
    2.340   16.2612
    2.370   16.8299
    2.400   15.9136
    2.430   16.6930
    2.460   17.8199
    2.490   18.0305
    2.520   18.1148
    2.550   17.9989
    2.580   19.5155
    2.610   20.0421
    2.640   20.5477
    2.670   20.8215
    2.700   22.0011
    2.730   22.4645
    2.760   22.6435
    2.790   24.1917
    2.820   25.4450
    2.850   25.0974
    2.880   27.9094
    2.910   28.7625
    2.940   30.0053
    2.970   31.0058
    3.000   33.0595
    3.030   35.6187
    3.060   36.4192
    3.090   38.4729
    3.120   40.3476
    3.150   44.1496
    3.180   48.0358
    3.210   50.7741
    3.240   54.2496
    3.270   59.2417
    3.300   66.2454
    3.330   70.6582
    3.360   79.0837
    3.390   88.7204
    3.420   96.8826
    3.450  104.0758
    3.480  106.2875
    3.510  100.7056
    3.540   86.4982
    3.570   70.9531
    3.600   60.2738
    3.630   53.7862
    3.660   52.0379
    3.690   52.8489
    3.720   53.8810
    3.750   56.8615
    3.780   61.1059
    3.810   63.2754
    3.840   65.0869
    3.870   65.2238
    3.900   63.9810
    3.930   58.6730
    3.960   51.8062
    3.990   40.4845
    4.020   34.5761
    4.050   27.6251
    4.080   22.7593
    4.110   18.1780
    4.140   15.3976
    4.170   13.6388
    4.200   11.9115
    4.230   10.6688
    4.260   10.2159
    4.290    8.8994
    4.320    8.3518
    4.350    8.2991
    4.380    7.9516
    4.410    7.4566
    4.440    7.0985
    4.470    6.6667
    4.500    6.2243
    4.530    6.0348
    4.560    6.0348
    4.590    5.7715
    4.620    6.1717
    4.650    5.8347
    4.680    6.0348
    4.710    5.5398
    4.740    5.7293
    4.770    5.5714
    4.800    5.5819
    4.830    5.7188
    4.860    5.4555
    4.890    5.3923
    4.920    5.5924
    4.950    5.7188
    4.980    5.6661
    5.010    5.5819
    5.040    5.3186
    5.070    5.4766
    5.100    5.4344
    5.130    5.6872
    5.160    5.5819
    5.190    5.4976
    5.220    5.7188
    5.250    5.6135
    5.280    5.9400
    5.310    5.8452
    5.340    5.9716
    5.370    5.7925
    5.400    5.5503
    5.430    5.6556
    5.460    5.8662
    5.490    6.3296
    5.520    6.6667
    5.550    7.0563
    5.580    5.8873
    5.610    5.0869
    5.640    4.7604
    5.670    4.7604
    5.700    4.8552
    5.730    4.9710
    5.760    4.7183
    5.790    4.6972
    5.820    4.9605
    5.850    4.6972
    5.880    4.7183
    5.910    4.6656
    5.940    4.7288
    5.970    4.6972
    6.000    4.8447
    6.030    5.1501
    6.060    5.2238
    6.090    4.7499
    6.120    4.9710
    6.150    5.1606
    6.180    5.2343
    6.210    5.1290
    6.240    5.3291
    6.270    5.2975
    6.300    5.4134
    6.330    5.4134
    6.360    5.1606
    6.390    5.8347
    6.420    5.7083
    6.450    5.8873
    6.480    6.1927
    6.510    6.3928
    6.540    6.5192
    6.570    7.3302
    6.600    7.3407
    6.630    7.2880
    6.660    7.8989
    6.690    8.8046
    6.720    9.0785
    6.750   10.4581
    6.780   11.5534
    6.810   12.5645
    6.840   13.5229
    6.870   14.9236
    6.900   15.9347
    6.930   17.8199
    6.960   18.2938
    6.990   18.2622
    7.020   16.0190
    7.050   14.3339
    7.080   11.0900
    7.110    9.0995
    7.140    8.0990
    7.170    7.3723
    7.200    6.9721
    7.230    6.6772
    7.260    6.7615
    7.290    6.5929
    7.320    6.9194
    7.350    7.0353
    7.380    6.6983
    7.410    7.1090
    7.440    7.9831
    7.470    8.0779
    7.500    8.3518
    7.530    8.8362
    7.560    9.2680
    7.590    9.8368
    7.620   10.6477
    7.650   11.8694
    7.680   12.4908
    7.710   13.6282
    7.740   14.6919
    7.770   14.7973
    7.800   15.2817
    7.830   15.0184
    7.860   14.2285
    7.890   13.4176
    7.920   11.7641
    7.950   10.8162
    7.980    9.5945
    8.010    8.4044
    8.040    8.2359
    8.070    7.2670
    8.100    6.7930
    8.130    6.0558
    8.160    5.9084
    8.190    5.6029
    8.220    5.6661
    8.250    5.4766
    8.280    5.1080
    8.310    5.5503
    8.340    5.2343
    8.370    5.0869
    8.400    4.8868
    8.430    4.7077
    8.460    4.5603
    8.490    4.9184
    8.520    4.8341
    8.550    4.6130
    8.580    4.1074
    8.610    4.6235
    8.640    4.4550
    8.670    4.7288
    8.700    4.6024
    8.730    4.2022
    8.760    4.5708
    8.790    4.2970
    8.820    4.2233
    8.850    4.5814
    8.880    4.4023
    8.910    4.2233
    8.940    4.1601
    8.970    4.4444
    9.000    4.1706
    9.030    4.2443
    9.060    4.4971
    9.090    4.3181
    9.120    4.0864
    9.150    4.6656
    9.180    4.3918
    9.210    4.1496
    9.240    4.4023
    9.270    4.2233
    9.300    4.3497
    9.330    4.6130
    9.360    4.0653
    9.390    4.5182
    9.420    4.3286
    9.450    4.4234
    9.480    4.3602
    9.510    4.4023
    9.540    4.6972
    9.570    4.9500
    9.600    4.8973
    9.630    5.5608
    9.660    4.5392
    9.690    4.3391
    9.720    4.3075
    9.750    4.5498
    9.780    4.2233
    9.810    4.0758
    9.840    4.3707
    9.870    4.3391
    9.900    4.5498
    9.930    4.2233
    9.960    4.3391
    9.990    4.0864
   10.020    4.2654
   10.050    4.3181
   10.080    4.2443
   10.110    4.0126
   10.140    4.5814
   10.170    4.4128
   10.200    4.2970
   10.230    4.2338
   10.260    4.4655
   10.290    4.4550
   10.320    4.6761
   10.350    4.4760
   10.380    4.7604
   10.410    4.6867
   10.440    4.8657
   10.470    5.0658
   10.500    4.4444
   10.530    4.5814
   10.560    4.7077
   10.590    4.4655
   10.620    4.3497
   10.650    4.0653
   10.680    4.4234
   10.710    4.3075
   10.740    4.5076
   10.770    4.3181
   10.800    4.2443
   10.830    4.2022
   10.860    4.3707
   10.890    4.0337
   10.920    4.5182
   10.950    4.3813
   10.980    4.2865
   11.010    4.4971
   11.040    4.6340
   11.070    4.3813
   11.100    4.4550
   11.130    4.7183
   11.160    4.4655
   11.190    4.5919
   11.220    4.3813
   11.250    4.3813
   11.280    4.6867
   11.310    4.4971
   11.340    4.3391
   11.370    4.6972
   11.400    4.5708
   11.430    4.8025
   11.460    4.8552
   11.490    4.7604
   11.520    4.7815
   11.550    4.9184
   11.580    5.2765
   11.610    5.6135
   11.640    5.4344
   11.670    5.5187
   11.700    5.3502
   11.730    5.6451
   11.760    5.7188
   11.790    5.4450
   11.820    5.6451
   11.850    5.2765
   11.880    5.0658
   11.910    5.0132
   11.940    5.2027
   11.970    5.0869
   12.000    5.0448
   12.030    4.4444
   12.060    4.5603
   12.090    4.7499
   12.120    4.8131
   12.150    4.4655
   12.180    4.6340
   12.210    4.4339
   12.240    4.3813
   12.270    4.4655
   12.300    4.6867
   12.330    4.3075
   12.360    4.2233
   12.390    4.4866
   12.420    4.2233
   12.450    4.6130
   12.480    4.6867
   12.510    4.6867
   12.540    4.7077
   12.570    4.3602
   12.600    4.3707
   12.630    4.3391
   12.660    4.4866
   12.690    4.4444
   12.720    4.2970
   12.750    4.6130
   12.780    4.3497
   12.810    4.8657
   12.840    4.6656
   12.870    4.5392
   12.900    4.4866
   12.930    4.6235
   12.960    4.3391
   12.990    4.5498
   13.020    4.8552
   13.050    4.8657
   13.080    4.7077
   13.110    4.5392
   13.140    4.3813
   13.170    4.4971
   13.200    4.4444
   13.230    4.4760
   13.260    4.4655
   13.290    4.7077
   13.320    4.5498
   13.350    4.6340
   13.380    4.4550
   13.410    4.7393
   13.440    4.2549
   13.470    4.9078
   13.500    4.5919
   13.530    4.6024
   13.560    4.2654
   13.590    4.4760
   13.620    4.5814
   13.650    4.2970
   13.680    4.4550
   13.710    4.4444
   13.740    4.4023
   13.770    4.3602
   13.800    4.4971
   13.830    4.4550
   13.860    4.5287
   13.890    4.3918
   13.920    4.5076
   13.950    4.6972
   13.980    4.1180
   14.010    4.2970
   14.040    4.7604
   14.070    4.2338
   14.100    4.8868
   14.130    4.3286
   14.160    4.3181
   14.190    4.1706
   14.220    4.3497
   14.250    4.1811
   14.280    4.2759
   14.310    4.2233
   14.340    4.3918
   14.370    4.0337
   14.400    4.3707
   14.430    4.4234
   14.460    4.0969
   14.490    4.3075
   14.520    4.0548
   14.550    4.4339
   14.580    4.3391
   14.610    4.3075
   14.640    4.0442
   14.670    4.0969
   14.700    4.1917
   14.730    4.2759
   14.760    4.1706
   14.790    4.5287
   14.820    4.5182
   14.850    4.4866
   14.880    4.6130
   14.910    4.5814
   14.940    4.4339
   14.970    4.3602
   15.000    4.3391
   15.030    4.6340
   15.060    4.4760
   15.090    4.6130
   15.120    4.2549
   15.150    4.2022
   15.180    4.2865
   15.210    4.2338
   15.240    4.4866
   15.270    4.2233
   15.300    4.6972
   15.330    4.5076
   15.360    4.2865
   15.390    4.2970
   15.420    4.6972
   15.450    4.2865
   15.480    4.2022
   15.510    4.6235
   15.540    4.7077
   15.570    4.6130
   15.600    4.7604
   15.630    4.5814
   15.660    4.6867
   15.690    4.4866
   15.720    4.6761
   15.750    4.6972
   15.780    4.5182
   15.810    4.2970
   15.840    4.3707
   15.870    4.4655
   15.900    4.5708
   15.930    4.5076
   15.960    4.5708
   15.990    4.1811
   16.020    4.3602
   16.050    4.2233
   16.080    4.3391
   16.110    4.5814
   16.140    4.2970
   16.170    4.4444
   16.200    4.6024
   16.230    4.6761
   16.260    4.1180
   16.290    4.4339
   16.320    4.1496
   16.350    3.8231
   16.380    4.1811
   16.410    4.2338
   16.440    4.2127
   16.470    4.2127
   16.500    4.1390
   16.530    4.4128
   16.560    4.3391
   16.590    4.3391
   16.620    3.8757
   16.650    4.4234
   16.680    4.4550
   16.710    4.4128
   16.740    4.2338
   16.770    4.3391
   16.800    4.2759
   16.830    4.4234
   16.860    4.2443
   16.890    4.4760
   16.920    4.1601
   16.950    4.2759
   16.980    4.2865
   17.010    4.5814
   17.040    4.4339
   17.070    4.4234
   17.100    4.4234
   17.130    4.3602
   17.160    4.5814
   17.190    4.4023
   17.220    4.2759
   17.250    4.1706
   17.280    4.4655
   17.310    4.3813
   17.340    4.4444
   17.370    4.4023
   17.400    4.6656
   17.430    4.6761
   17.460    4.3181
   17.490    4.6867
   17.520    4.3181
   17.550    4.4971
   17.580    4.2865
   17.610    4.2338
   17.640    4.6024
   17.670    4.1074
   17.700    4.3286
   17.730    4.3391
   17.760    4.4444
   17.790    4.1811
   17.820    4.2970
   17.850    4.6656
   17.880    4.3602
   17.910    4.2759
   17.940    4.2022
   17.970    4.6235
   18.000    4.3602
   18.030    4.7920
   18.060    4.6445
   18.090    4.3707
   18.120    4.8341
   18.150    4.4339
   18.180    4.6656
   18.210    4.4655
   18.240    4.4550
   18.270    4.4128
   18.300    4.6761
   18.330    4.6445
   18.360    4.3497
   18.390    4.3181
   18.420    4.5603
   18.450    4.3602
   18.480    4.5814
   18.510    4.3602
   18.540    4.8868
   18.570    4.3813
   18.600    4.2549
   18.630    4.6445
   18.660    4.4550
   18.690    3.9916
   18.720    4.1706
   18.750    4.5919
   18.780    4.4128
   18.810    4.6867
   18.840    4.4234
   18.870    4.4128
   18.900    4.4760
   18.930    4.5076
   18.960    4.5392
   18.990    4.4023
   19.020    4.5814
   19.050    4.2549
   19.080    4.4866
   19.110    4.2549
   19.140    4.6024
   19.170    4.5708
   19.200    4.4655
   19.230    4.7393
   19.260    4.4234
   19.290    4.1390
   19.320    4.3075
   19.350    4.5392
   19.380    4.3813
   19.410    4.5919
   19.440    4.8236
   19.470    4.7183
   19.500    4.6656
   19.530    4.4339
   19.560    4.7077
   19.590    4.6656
   19.620    4.5603
   19.650    4.5182
   19.680    4.6972
   19.710    4.4760
   19.740    4.7183
   19.770    4.7077
   19.800    4.9078
   19.830    4.7920
   19.860    4.5708
   19.890    4.7077
   19.920    5.1817
   19.950    4.8131
   19.980    5.0553
   20.010    4.8763
   20.040    4.6235
   20.070    4.6024
   20.100    4.9078
   20.130    4.8447
   20.160    5.1395
   20.190    4.6972
   20.220    5.0342
   20.250    4.8025
   20.280    5.1817
   20.310    5.2975
   20.340    4.9605
   20.370    5.2343
   20.400    4.9184
   20.430    5.1922
   20.460    5.0342
   20.490    5.1080
   20.520    4.9394
   20.550    4.8973
   20.580    4.6972
   20.610    5.0448
   20.640    4.7815
   20.670    4.8341
   20.700    5.0342
   20.730    4.7288
   20.760    5.0869
   20.790    5.1711
   20.820    5.0026
   20.850    5.2975
   20.880    5.2238
   20.910    5.1711
   20.940    5.1711
   20.970    5.3081
   21.000    4.9078
   21.030    4.9184
   21.060    5.1922
   21.090    5.0132
   21.120    5.3607
   21.150    5.5187
   21.180    5.8347
   21.210    5.2765
   21.240    5.1711
   21.270    5.3818
   21.300    4.9921
   21.330    5.5292
   21.360    5.3502
   21.390    5.0237
   21.420    5.1606
   21.450    5.1501
   21.480    5.1922
   21.510    5.1185
   21.540    5.3607
   21.570    4.5287
   21.600    5.3397
   21.630    5.3818
   21.660    5.0342
   21.690    4.9921
   21.720    5.0658
   21.750    4.7709
   21.780    5.0026
   21.810    4.7499
   21.840    5.0764
   21.870    5.0869
   21.900    4.7920
   21.930    4.9921
   21.960    4.9816
   21.990    5.2133
   22.020    5.0448
   22.050    5.0553
   22.080    4.9184
   22.110    5.3818
   22.140    5.1922
   22.170    5.1501
   22.200    4.8868
   22.230    5.3397
   22.260    5.2133
   22.290    5.2870
   22.320    5.0658
   22.350    5.1606
   22.380    5.1080
   22.410    4.9289
   22.440    5.6135
   22.470    5.2238
   22.500    4.9710
   22.530    5.0869
   22.560    5.3291
   22.590    5.2449
   22.620    5.5187
   22.650    5.7504
   22.680    5.3081
   22.710    5.5819
   22.740    5.5714
   22.770    5.2554
   22.800    5.8241
   22.830    5.4028
   22.860    5.4766
   22.890    5.1501
   22.920    5.3712
   22.950    5.5819
   22.980    5.6135
   23.010    5.0132
   23.040    5.4239
   23.070    5.4871
   23.100    5.1711
   23.130    5.2870
   23.160    5.2133
   23.190    5.3186
   23.220    4.9500
   23.250    4.7604
   23.280    4.9816
   23.310    4.6551
   23.340    5.1185
   23.370    5.2343
   23.400    4.9500
   23.430    5.1922
   23.460    4.9289
   23.490    4.8236
   23.520    4.7815
   23.550    4.8552
   23.580    4.9816
   23.610    5.0342
   23.640    4.7709
   23.670    4.8973
   23.700    4.8868
   23.730    4.5392
   23.760    4.5603
   23.790    4.6551
   23.820    5.0342
   23.850    5.0026
   23.880    4.6130
   23.910    5.0237
   23.940    4.7183
   23.970    5.0237
   24.000    4.6867
   24.030    4.7920
   24.060    4.7077
   24.090    4.9394
   24.120    4.9500
   24.150    4.9500
   24.180    4.6761
   24.210    4.6024
   24.240    4.5603
   24.270    4.4550
   24.300    4.6761
   24.330    4.9289
   24.360    4.7077
   24.390    4.5498
   24.420    4.7393
   24.450    4.7393
   24.480    5.0764
   24.510    5.0764
   24.540    4.8552
   24.570    4.8973
   24.600    5.1711
   24.630    4.8763
   24.660    4.9710
   24.690    4.7183
   24.720    4.7815
   24.750    4.8447
   24.780    4.8657
   24.810    4.7604
   24.840    5.1395
   24.870    4.6130
   24.900    5.0869
   24.930    4.6656
   24.960    4.8868
   24.990    4.6340
   25.020    4.6024
   25.050    4.6130
   25.080    4.9500
   25.110    4.6972
   25.140    4.5392
   25.170    4.5076
   25.200    4.6130
   25.230    5.0448
   25.260    4.3813
   25.290    4.4234
   25.320    4.2970
   25.350    4.6340
   25.380    4.2970
   25.410    4.4655
   25.440    4.3391
   25.470    4.4550
   25.500    4.5814
   25.530    4.0969
   25.560    4.3391
   25.590    4.5814
   25.620    4.2759
   25.650    4.3707
   25.680    4.5603
   25.710    4.5392
   25.740    4.4128
   25.770    4.2759
   25.800    4.4023
   25.830    4.3707
   25.860    4.4128
   25.890    4.4550
   25.920    4.4550
   25.950    4.5076
   25.980    4.3497
   26.010    4.7815
   26.040    4.4128
   26.070    4.0864
   26.100    4.5603
   26.130    4.2970
   26.160    4.3918
   26.190    4.1180
   26.220    4.0442
   26.250    4.4023
   26.280    4.1917
   26.310    4.8025
   26.340    4.2443
   26.370    4.2338
   26.400    4.2970
   26.430    4.2865
   26.460    4.3707
   26.490    4.4234
   26.520    4.4760
   26.550    4.5182
   26.580    4.3707
   26.610    4.3602
   26.640    4.2865
   26.670    4.2022
   26.700    4.5287
   26.730    4.3602
   26.760    4.4550
   26.790    4.2970
   26.820    4.2233
   26.850    4.4444
   26.880    4.4444
   26.910    4.6551
   26.940    4.4760
   26.970    4.2127
   27.000    4.6235
   27.030    4.0758
   27.060    4.3391
   27.090    4.2338
   27.120    4.1706
   27.150    4.5708
   27.180    4.2970
   27.210    4.3286
   27.240    4.2338
   27.270    4.0864
   27.300    4.2759
   27.330    3.9600
   27.360    4.3286
   27.390    4.1180
   27.420    4.0548
   27.450    4.4023
   27.480    4.1180
   27.510    4.3918
   27.540    4.2443
   27.570    4.2338
   27.600    4.2022
   27.630    4.1180
   27.660    4.0126
   27.690    4.2865
   27.720    4.1706
   27.750    4.0864
   27.780    4.1390
   27.810    4.1917
   27.840    4.3497
   27.870    3.9600
   27.900    4.2127
   27.930    4.2654
   27.960    4.1285
   27.990    4.4128
   28.020    4.4339
   28.050    4.4339
   28.080    4.1811
   28.110    3.8231
   28.140    4.3391
   28.170    3.9916
   28.200    4.3707
   28.230    4.3181
   28.260    4.0126
   28.290    4.2549
   28.320    4.1390
   28.350    4.0758
   28.380    4.1917
   28.410    4.3391
   28.440    4.0337
   28.470    4.2865
   28.500    4.1496
   28.530    4.0442
   28.560    4.0442
   28.590    4.3813
   28.620    4.1811
   28.650    3.9916
   28.680    4.1285
   28.710    3.8968
   28.740    3.9494
   28.770    4.0864
   28.800    4.0758
   28.830    3.8020
   28.860    4.0442
   28.890    4.1706
   28.920    4.1601
   28.950    3.9494
   28.980    3.9810
   29.010    4.0758
   29.040    3.9600
   29.070    3.7704
   29.100    3.9284
   29.130    4.3181
   29.160    4.1917
   29.190    4.1074
   29.220    3.8441
   29.250    3.8125
   29.280    3.9600
   29.310    4.0337
   29.340    4.2127
   29.370    4.0021
   29.400    4.0126
   29.430    3.8968
   29.460    4.2338
   29.490    3.9389
   29.520    4.1074
   29.550    3.8020
   29.580    4.1074
   29.610    4.0442
   29.640    3.8863
   29.670    3.9810
   29.700    3.9705
   29.730    3.8757
   29.760    3.8968
   29.790    3.9916
   29.820    3.8652
   29.850    3.9179
   29.880    3.9600
   29.910    3.9284
   29.940    3.6862
   29.970    3.6967
   30.000    3.7704
   30.030    3.8968
   30.060    3.9179
   30.090    4.0548
   30.120    3.7493
   30.150    3.9494
   30.180    4.0758
   30.210    4.0969
   30.240    3.9389
   30.270    4.0653
   30.300    3.7388
   30.330    4.1074
   30.360    3.9073
   30.390    4.0126
   30.420    3.8547
   30.450    3.8863
   30.480    3.7388
   30.510    3.8336
   30.540    3.8757
   30.570    4.1285
   30.600    3.8863
   30.630    3.6230
   30.660    3.7283
   30.690    3.8547
   30.720    3.5071
   30.750    3.6967
   30.780    3.9389
   30.810    3.9705
   30.840    3.6756
   30.870    3.8125
   30.900    3.5176
   30.930    3.9284
   30.960    3.7809
   30.990    3.6862
   31.020    3.8863
   31.050    3.6546
   31.080    3.9073
   31.110    3.7177
   31.140    3.8020
   31.170    3.8336
   31.200    3.7809
   31.230    4.0126
   31.260    3.7177
   31.290    3.6546
   31.320    3.7493
   31.350    3.8441
   31.380    3.9284
   31.410    3.6546
   31.440    3.6019
   31.470    4.0758
   31.500    3.7809
   31.530    3.7915
   31.560    3.7283
   31.590    3.9179
   31.620    3.8125
   31.650    3.7177
   31.680    3.6124
   31.710    3.9810
   31.740    3.8757
   31.770    3.8441
   31.800    3.8231
   31.830    3.8441
   31.860    3.8231
   31.890    3.6124
   31.920    4.0758
   31.950    3.6862
   31.980    3.5808
   32.010    3.5492
   32.040    3.4544
   32.070    3.5387
   32.100    3.6967
   32.130    3.5282
   32.160    3.7283
   32.190    3.6335
   32.220    4.0126
   32.250    3.8652
   32.280    3.7283
   32.310    3.2438
   32.340    3.7809
   32.370    3.3913
   32.400    3.6124
   32.430    3.7177
   32.460    3.7177
   32.490    3.4544
   32.520    3.7915
   32.550    3.5282
   32.580    3.3281
   32.610    3.4334
   32.640    3.7283
   32.670    3.8863
   32.700    3.5282
   32.730    3.5703
   32.760    3.8020
   32.790    3.2859
   32.820    3.7177
   32.850    3.5071
   32.880    3.6230
   32.910    3.4018
   32.940    3.6019
   32.970    3.3597
   33.000    3.5387
   33.030    3.4439
   33.060    3.3702
   33.090    3.6124
   33.120    3.6335
   33.150    3.1069
   33.180    3.3597
   33.210    3.4123
   33.240    3.2438
   33.270    3.7388
   33.300    3.2438
   33.330    3.1806
   33.360    3.4439
   33.390    3.4860
   33.420    3.1385
   33.450    3.1596
   33.480    3.2543
   33.510    3.5176
   33.540    3.3597
   33.570    3.0648
   33.600    3.4334
   33.630    3.1701
   33.660    3.3175
   33.690    3.2543
   33.720    3.2543
   33.750    3.0648
   33.780    3.5808
   33.810    3.2017
   33.840    3.1806
   33.870    3.3597
   33.900    3.2227
   33.930    3.3175
   33.960    3.2859
   33.990    3.1490
   34.020    3.1069
   34.050    3.1385
   34.080    3.2543
   34.110    3.2965
   34.140    3.4229
   34.170    3.3491
   34.200    3.0648
   34.230    3.0226
   34.260    3.0332
   34.290    3.3491
   34.320    3.2754
   34.350    3.1069
   34.380    3.2649
   34.410    3.1174
   34.440    3.0753
   34.470    3.0437
   34.500    3.2227
   34.530    3.2227
   34.560    2.9279
   34.590    3.1912
   34.620    2.9805
   34.650    3.0648
   34.680    3.3913
   34.710    2.9489
   34.740    2.7909
   34.770    3.2017
   34.800    3.3175
   34.830    3.0437
   34.860    2.8331
   34.890    3.2333
   34.920    2.8225
   34.950    3.2649
   34.980    3.1069
   35.010    3.3175
   35.040    3.2227
   35.070    3.0332
   35.100    3.0648
   35.130    3.0332
   35.160    3.1280
   35.190    3.2333
   35.220    3.1701
   35.250    3.3807
   35.280    2.8015
   35.310    3.2543
   35.340    3.1069
   35.370    3.1385
   35.400    3.1280
   35.430    2.7909
   35.460    2.9489
   35.490    3.0753
   35.520    3.1490
   35.550    3.2754
   35.580    3.0016
   35.610    3.0542
   35.640    3.0016
   35.670    2.8647
   35.700    2.9805
   35.730    3.2649
   35.760    2.9173
   35.790    2.9068
   35.820    2.9805
   35.850    2.8752
   35.880    2.8015
   35.910    3.3913
   35.940    2.6540
   35.970    3.0648
   36.000    2.9489
   36.030    3.0016
   36.060    2.6856
   36.090    2.9068
   36.120    3.2649
   36.150    3.0542
   36.180    2.9279
   36.210    3.2333
   36.240    2.8225
   36.270    2.8015
   36.300    3.1806
   36.330    2.8647
   36.360    2.6856
   36.390    3.0648
   36.420    2.8120
   36.450    3.1280
   36.480    2.9279
   36.510    2.9595
   36.540    2.8015
   36.570    3.1490
   36.600    2.8752
   36.630    2.9279
   36.660    2.8120
   36.690    2.7172
   36.720    2.5276
   36.750    2.8015
   36.780    2.7593
   36.810    3.0016
   36.840    2.7488
   36.870    2.8225
   36.900    2.9700
   36.930    2.8857
   36.960    2.7593
   36.990    2.9700
   37.020    3.0332
   37.050    2.7909
   37.080    2.8857
   37.110    2.9489
   37.140    2.8647
   37.170    2.8015
   37.200    2.9279
   37.230    2.9173
   37.260    2.8963
   37.290    2.8331
   37.320    2.8647
   37.350    2.7488
   37.380    2.6962
   37.410    3.0332
   37.440    2.8015
   37.470    2.9489
   37.500    2.8225
   37.530    2.8752
   37.560    2.7699
   37.590    2.7172
   37.620    2.7383
   37.650    2.7278
   37.680    2.9384
   37.710    2.6646
   37.740    2.6856
   37.770    2.6646
   37.800    2.8331
   37.830    2.8857
   37.860    2.7909
   37.890    2.7909
   37.920    2.8015
   37.950    2.6119
   37.980    2.8225
   38.010    2.7278
   38.040    2.8015
   38.070    2.7067
   38.100    2.6224
   38.130    2.8963
   38.160    2.6856
   38.190    2.8015
   38.220    2.5592
   38.250    2.7804
   38.280    2.8120
   38.310    2.6540
   38.340    2.6435
   38.370    2.8120
   38.400    2.8331
   38.430    2.7593
   38.460    3.0437
   38.490    2.5803
   38.520    2.8752
   38.550    2.9068
   38.580    2.8120
   38.610    2.9279
   38.640    2.8436
   38.670    3.0753
   38.700    2.6962
   38.730    2.8120
   38.760    2.6330
   38.790    2.8015
   38.820    2.6540
   38.850    2.7278
   38.880    2.7909
   38.910    2.5908
   38.940    2.3697
   38.970    2.7067
   39.000    2.7699
   39.030    2.7699
   39.060    2.8752
   39.090    2.9068
   39.120    2.9700
   39.150    2.6330
   39.180    2.8647
   39.210    2.6751
   39.240    2.8120
   39.270    2.6119
   39.300    2.7488
   39.330    2.8541
   39.360    2.6540
   39.390    2.5908
   39.420    2.6014
   39.450    2.7172
   39.480    2.9279
   39.510    2.4223
   39.540    2.6224
   39.570    2.6856
   39.600    2.5066
   39.630    2.6646
   39.660    2.6435
   39.690    2.8225
   39.720    2.8752
   39.750    2.7172
   39.780    2.7383
   39.810    2.6540
   39.840    2.5698
   39.870    3.0016
   39.900    2.9068
   39.930    2.3697
   39.960    2.6119
   39.990    2.7699