File: data/MOCOF-1/PXRD/PXRD_KE-066_Cu-Ka1_capillary-1mm_5s-deg.xyd
    1.500   22.1906
    1.530   21.8431
    1.560   22.2328
    1.590   21.1058
    1.620   21.7167
    1.650   21.2744
    1.680   20.5687
    1.710   20.4318
    1.740   19.8631
    1.770   20.4318
    1.800   19.6630
    1.830   19.5787
    1.860   19.4734
    1.890   19.2944
    1.920   19.6314
    1.950   19.3576
    1.980   18.9784
    2.010   19.4945
    2.040   18.6414
    2.070   19.0943
    2.100   19.2944
    2.130   18.7362
    2.160   19.3365
    2.190   19.5366
    2.220   19.3154
    2.250   18.8626
    2.280   19.1785
    2.310   19.3997
    2.340   19.0205
    2.370   19.6525
    2.400   20.1159
    2.430   19.8420
    2.460   20.1053
    2.490   19.6103
    2.520   19.4207
    2.550   18.3570
    2.580   17.2301
    2.610   17.0405
    2.640   16.5456
    2.670   16.9247
    2.700   15.9242
    2.730   16.1769
    2.760   16.6614
    2.790   15.6609
    2.820   16.1453
    2.850   15.8083
    2.880   15.3555
    2.910   14.8394
    2.940   14.8289
    2.970   14.4181
    3.000   14.4708
    3.030   13.7862
    3.060   13.8494
    3.090   13.3123
    3.120   14.0600
    3.150   13.3860
    3.180   13.2807
    3.210   13.0911
    3.240   13.0174
    3.270   13.0700
    3.300   12.4487
    3.330   12.7541
    3.360   12.4487
    3.390   12.7646
    3.420   12.6488
    3.450   11.7957
    3.480   11.5640
    3.510   12.2486
    3.540   11.6904
    3.570   11.4165
    3.600   10.9005
    3.630   12.0695
    3.660   11.4060
    3.690   11.1216
    3.720   10.9110
    3.750   11.1848
    3.780   11.1532
    3.810   10.6793
    3.840   11.2270
    3.870   11.0058
    3.900   10.5635
    3.930   10.6161
    3.960   10.6582
    3.990   10.5003
    4.020   10.7741
    4.050   10.6477
    4.080   11.2796
    4.110   10.7741
    4.140   10.8057
    4.170   10.9110
    4.200   10.5529
    4.230   10.3318
    4.260   10.8583
    4.290   10.6582
    4.320   10.3949
    4.350    9.9526
    4.380    9.9315
    4.410   10.3528
    4.440    9.9947
    4.470   10.3949
    4.500   10.6477
    4.530    9.9947
    4.560   10.4581
    4.590   10.9215
    4.620   10.6793
    4.650   10.2686
    4.680   10.6688
    4.710   10.7530
    4.740   10.1211
    4.770   10.5003
    4.800   10.2264
    4.830   10.9110
    4.860   10.6582
    4.890   10.8583
    4.920   11.1954
    4.950   11.6061
    4.980   12.1011
    5.010   12.2064
    5.040   11.8062
    5.070   12.1432
    5.100   10.8268
    5.130   10.9637
    5.160   10.8162
    5.190   10.8268
    5.220   10.2686
    5.250   10.6266
    5.280   10.1843
    5.310   10.5951
    5.340   10.2159
    5.370   10.0474
    5.400   10.2475
    5.430   10.3002
    5.460   10.5740
    5.490   10.6898
    5.520   10.6898
    5.550   10.8583
    5.580   10.9742
    5.610   10.8057
    5.640   10.8268
    5.670   10.7846
    5.700   10.5003
    5.730   10.3423
    5.760   10.3212
    5.790   10.4371
    5.820   10.5108
    5.850   11.1848
    5.880   11.0479
    5.910   10.6898
    5.940   10.3318
    5.970   10.3002
    6.000   10.1001
    6.030    9.9105
    6.060    9.4155
    6.090    9.3839
    6.120    9.2891
    6.150    9.6367
    6.180    9.8052
    6.210    9.4365
    6.240    9.3418
    6.270    9.4260
    6.300    9.8894
    6.330    9.7946
    6.360    9.8894
    6.390   10.0263
    6.420   10.0895
    6.450    9.7525
    6.480    9.8684
    6.510   10.1843
    6.540   10.5635
    6.570   10.4581
    6.600   11.0058
    6.630   10.1948
    6.660   10.7004
    6.690   10.9637
    6.720   11.0690
    6.750   11.5429
    6.780   11.4165
    6.810   12.0063
    6.840   12.3117
    6.870   11.8905
    6.900   12.1748
    6.930   12.2486
    6.960   12.0063
    6.990   11.4481
    7.020   11.8273
    7.050   11.4376
    7.080   11.5429
    7.110   10.7320
    7.140   10.3423
    7.170   10.3739
    7.200    9.9105
    7.230   10.2791
    7.260    9.9526
    7.290    9.7525
    7.320    9.7630
    7.350   10.1843
    7.380    9.6261
    7.410   10.2475
    7.440   10.3633
    7.470    9.8578
    7.500    9.9947
    7.530    9.7104
    7.560   10.0369
    7.590    9.6156
    7.620    9.8157
    7.650    9.6367
    7.680    9.8999
    7.710    9.7525
    7.740    9.6682
    7.770    9.6682
    7.800    9.5945
    7.830    9.4892
    7.860    9.8473
    7.890    9.7630
    7.920    9.2259
    7.950    9.9842
    7.980    9.5524
    8.010    9.7946
    8.040    9.9842
    8.070    9.6472
    8.100    9.7104
    8.130    9.3944
    8.160    9.4681
    8.190    9.2680
    8.220    9.5103
    8.250    9.4681
    8.280    9.2364
    8.310    9.5524
    8.340    9.6051
    8.370    9.5313
    8.400    9.5735
    8.430   10.0053
    8.460    9.6472
    8.490   10.0263
    8.520   10.0895
    8.550   10.0895
    8.580   10.2054
    8.610   10.7004
    8.640   11.3217
    8.670   11.5113
    8.700   11.3217
    8.730   10.3107
    8.760    9.9421
    8.790    9.9526
    8.820    9.9631
    8.850    9.5524
    8.880    9.2575
    8.910   10.0158
    8.940   10.0895
    8.970    9.8684
    9.000   10.0053
    9.030   10.1316
    9.060    9.6472
    9.090    9.6367
    9.120    9.5419
    9.150    9.2996
    9.180    9.5945
    9.210    9.5419
    9.240   10.1211
    9.270    9.7946
    9.300   10.0685
    9.330   10.5424
    9.360   10.1843
    9.390   10.3318
    9.420   10.5424
    9.450   10.2264
    9.480   10.4055
    9.510   10.1211
    9.540   10.1948
    9.570   10.1001
    9.600   10.9426
    9.630   11.0163
    9.660   11.0269
    9.690   10.9426
    9.720   10.5108
    9.750   10.5845
    9.780   10.6582
    9.810   10.4160
    9.840   10.6582
    9.870   10.4371
    9.900   10.3739
    9.930   11.0585
    9.960   11.0585
    9.990   11.6798
   10.020   10.7109
   10.050   11.1322
   10.080   10.6372
   10.110   10.7109
   10.140   10.8899
   10.170   11.1848
   10.200   11.0479
   10.230   10.8689
   10.260   12.0274
   10.290   12.3012
   10.320   13.4071
   10.350   12.3117
   10.380   12.1748
   10.410   12.0800
   10.440   11.6272
   10.470   11.8799
   10.500   11.1532
   10.530   11.0058
   10.560   10.7320
   10.590   10.6372
   10.620   10.1001
   10.650   10.5635
   10.680   10.6266
   10.710   10.2580
   10.740   10.6161
   10.770   10.3318
   10.800   10.2159
   10.830   10.6477
   10.860   10.4687
   10.890   10.2264
   10.920   10.5424
   10.950   10.9847
   10.980   11.0269
   11.010   11.3112
   11.040   11.1322
   11.070   11.8167
   11.100   11.8062
   11.130   12.1854
   11.160   11.7220
   11.190   11.7325
   11.220   11.4376
   11.250   11.2270
   11.280   10.3844
   11.310   10.2264
   11.340    9.7841
   11.370    9.6893
   11.400    9.4260
   11.430    9.3839
   11.460    9.8157
   11.490    9.2154
   11.520    9.3628
   11.550    9.7946
   11.580    9.7104
   11.610    9.8894
   11.640    9.1943
   11.670    9.6998
   11.700    9.2996
   11.730    9.5945
   11.760   10.4055
   11.790    9.7104
   11.820    9.5629
   11.850    9.3418
   11.880    9.2575
   11.910    9.1417
   11.940    9.0469
   11.970    8.8152
   12.000    8.8362
   12.030    9.0890
   12.060    9.2364
   12.090    8.2043
   12.120    8.6256
   12.150    8.9521
   12.180    8.6361
   12.210    8.8994
   12.240    8.7309
   12.270    8.9415
   12.300    8.8889
   12.330    8.8152
   12.360    9.1311
   12.390    9.0258
   12.420    9.5945
   12.450    9.4471
   12.480    9.3102
   12.510    9.6156
   12.540    8.7730
   12.570    8.9731
   12.600    8.9521
   12.630    9.4155
   12.660    8.7836
   12.690    9.1311
   12.720    8.7625
   12.750    9.0047
   12.780    8.9626
   12.810    8.6993
   12.840    8.7730
   12.870    8.3939
   12.900    8.3096
   12.930    8.2675
   12.960    8.7098
   12.990    8.2254
   13.020    8.4466
   13.050    8.2570
   13.080    8.8046
   13.110    8.1517
   13.140    8.5624
   13.170    8.8362
   13.200    8.6783
   13.230    8.5835
   13.260    8.7204
   13.290    9.2154
   13.320    8.7520
   13.350    8.8678
   13.380    8.4255
   13.410    8.8994
   13.440    9.2680
   13.470    9.0153
   13.500    8.4360
   13.530    8.5413
   13.560    8.3518
   13.590    7.9937
   13.620    8.1095
   13.650    8.8889
   13.680    8.0569
   13.710    8.4466
   13.740    8.2464
   13.770    8.6572
   13.800    8.4571
   13.830    8.3096
   13.860    8.7309
   13.890    8.4466
   13.920    8.3939
   13.950    8.5519
   13.980    8.3202
   14.010    8.2570
   14.040    8.2149
   14.070    8.2570
   14.100    8.5097
   14.130    8.3834
   14.160    8.7414
   14.190    8.1938
   14.220    8.7309
   14.250    8.3623
   14.280    8.3834
   14.310    8.7730
   14.340    8.8257
   14.370    8.2780
   14.400    8.3096
   14.430    8.4466
   14.460    8.7098
   14.490    8.6783
   14.520    8.3096
   14.550    8.0885
   14.580    8.4466
   14.610    8.7098
   14.640    8.2886
   14.670    7.9937
   14.700    8.2991
   14.730    8.0358
   14.760    8.6361
   14.790    8.4360
   14.820    8.3728
   14.850    8.3623
   14.880    8.3412
   14.910    8.9731
   14.940    8.8889
   14.970    9.4365
   15.000    9.6261
   15.030    9.4997
   15.060    9.7630
   15.090    9.5840
   15.120    8.8468
   15.150    8.8573
   15.180    8.2991
   15.210    8.3623
   15.240    8.6572
   15.270    8.7836
   15.300    8.3939
   15.330    8.3202
   15.360    8.3939
   15.390    8.3518
   15.420    8.4044
   15.450    8.2254
   15.480    8.3623
   15.510    8.2464
   15.540    8.2149
   15.570    8.2043
   15.600    8.2780
   15.630    8.3307
   15.660    8.2254
   15.690    8.8678
   15.720    8.3939
   15.750    8.0779
   15.780    8.3834
   15.810    8.6783
   15.840    8.5413
   15.870    9.1311
   15.900    8.4255
   15.930    9.4260
   15.960    9.1522
   15.990    9.2154
   16.020    9.1627
   16.050    9.2786
   16.080    8.9205
   16.110    8.6677
   16.140    8.6151
   16.170    8.8362
   16.200    8.6677
   16.230    8.5835
   16.260    8.1411
   16.290    8.3518
   16.320    8.5308
   16.350    8.4992
   16.380    8.6677
   16.410    8.5835
   16.440    8.6783
   16.470    8.9205
   16.500    8.1201
   16.530    8.6361
   16.560    8.4150
   16.590    8.8362
   16.620    8.3202
   16.650    8.4887
   16.680    8.3202
   16.710    8.5097
   16.740    8.5729
   16.770    8.3939
   16.800    8.6888
   16.830    8.3518
   16.860    8.3518
   16.890    8.6677
   16.920    8.2043
   16.950    8.6572
   16.980    8.3623
   17.010    8.5624
   17.040    8.2254
   17.070    8.2886
   17.100    8.1727
   17.130    8.2991
   17.160    8.3412
   17.190    8.4781
   17.220    8.5413
   17.250    8.4781
   17.280    8.4992
   17.310    8.8046
   17.340    8.8257
   17.370    9.1627
   17.400    9.2470
   17.430    8.9626
   17.460    8.9310
   17.490    8.4992
   17.520    8.6467
   17.550    8.4466
   17.580    8.9731
   17.610    8.7836
   17.640    8.4992
   17.670    8.4676
   17.700    8.5203
   17.730    8.4676
   17.760    8.7941
   17.790    8.5729
   17.820    8.7941
   17.850    8.8573
   17.880    9.0258
   17.910    8.9310
   17.940    9.2364
   17.970    9.1522
   18.000    9.1627
   18.030    9.2891
   18.060    9.3418
   18.090    9.3734
   18.120   10.2475
   18.150    9.9526
   18.180    9.9947
   18.210    9.6051
   18.240   10.0790
   18.270   10.1211
   18.300    9.4997
   18.330    9.3102
   18.360    9.4787
   18.390    9.3418
   18.420    8.6045
   18.450    8.7204
   18.480    8.4150
   18.510    8.3834
   18.540    8.6783
   18.570    8.5835
   18.600    8.4360
   18.630    8.4992
   18.660    8.2149
   18.690    8.3307
   18.720    7.9516
   18.750    8.5413
   18.780    8.3412
   18.810    8.0569
   18.840    8.2570
   18.870    9.0995
   18.900    9.1101
   18.930    8.5624
   18.960    9.3839
   18.990   10.3528
   19.020   10.6266
   19.050   10.6688
   19.080   10.0579
   19.110    9.1838
   19.140    8.3623
   19.170    8.3834
   19.200    8.6467
   19.230    8.8152
   19.260    8.5308
   19.290    8.4255
   19.320    8.3728
   19.350    8.5940
   19.380    8.8678
   19.410    8.3834
   19.440    8.3307
   19.470    8.9100
   19.500    8.5519
   19.530    8.9521
   19.560    8.8257
   19.590    8.7414
   19.620    8.6467
   19.650    8.1938
   19.680    8.7836
   19.710    8.6888
   19.740    8.2359
   19.770    8.8046
   19.800    8.5729
   19.830    8.6993
   19.860    8.7414
   19.890    8.9837
   19.920    8.3096
   19.950    9.0258
   19.980    8.0253
   20.010    8.2991
   20.040    8.2149
   20.070    8.8889
   20.100    8.4466
   20.130    8.7098
   20.160    8.1201
   20.190    8.3518
   20.220    8.3939
   20.250    8.5624
   20.280    8.2043
   20.310    8.6256
   20.340    8.6045
   20.370    8.6361
   20.400    8.5097
   20.430    8.5624
   20.460    8.5308
   20.490    8.1095
   20.520    8.7836
   20.550    8.4992
   20.580    8.5413
   20.610    8.7730
   20.640    8.3096
   20.670    8.4571
   20.700    8.8468
   20.730    8.5097
   20.760    8.2464
   20.790    8.9731
   20.820    8.8152
   20.850    8.8994
   20.880    8.4887
   20.910    8.8994
   20.940    8.5940
   20.970    8.9310
   21.000    8.0147
   21.030    8.9100
   21.060    8.3728
   21.090    8.6151
   21.120    9.2470
   21.150    8.8889
   21.180    9.3628
   21.210    8.8257
   21.240    9.0363
   21.270    8.7730
   21.300    8.8362
   21.330    8.4992
   21.360    8.8784
   21.390    8.7204
   21.420    8.4676
   21.450    9.1101
   21.480    8.8152
   21.510    9.3523
   21.540    8.9205
   21.570    8.4781
   21.600    8.7204
   21.630    9.0363
   21.660    8.5835
   21.690    8.8046
   21.720    8.5835
   21.750    8.5413
   21.780    9.0153
   21.810    9.2364
   21.840    8.5519
   21.870    9.0258
   21.900    9.3418
   21.930    8.9731
   21.960    8.9837
   21.990    8.4781
   22.020    8.3728
   22.050    8.5519
   22.080    8.4571
   22.110    8.8678
   22.140    8.5413
   22.170    8.1095
   22.200    8.8152
   22.230    8.8046
   22.260    8.6783
   22.290    8.5413
   22.320    9.0363
   22.350    8.8573
   22.380    8.5203
   22.410    9.2259
   22.440    8.6677
   22.470    8.8362
   22.500    9.1732
   22.530    8.6467
   22.560    8.6256
   22.590    8.9100
   22.620    8.6256
   22.650    8.7941
   22.680    8.7625
   22.710    8.8784
   22.740    8.7414
   22.770    8.4360
   22.800    8.7098
   22.830    8.7098
   22.860    8.5940
   22.890    8.7941
   22.920    9.1627
   22.950    8.6677
   22.980    8.8046
   23.010    9.2048
   23.040    9.1417
   23.070    9.2680
   23.100    9.6051
   23.130    9.4681
   23.160    9.4997
   23.190   10.2686
   23.220    9.7736
   23.250    9.0258
   23.280    9.2364
   23.310    8.2359
   23.340    9.2786
   23.370    9.1206
   23.400    8.7730
   23.430    9.5313
   23.460    8.8994
   23.490    8.8784
   23.520    8.3623
   23.550    8.9310
   23.580    8.9415
   23.610    8.7625
   23.640    9.1417
   23.670    8.8152
   23.700    8.6572
   23.730    8.6677
   23.760    8.0885
   23.790    8.5097
   23.820    8.7836
   23.850    8.6572
   23.880    8.9521
   23.910    8.7204
   23.940    8.3202
   23.970    8.3307
   24.000    8.6783
   24.030    9.2470
   24.060    8.5413
   24.090    8.7309
   24.120    8.5308
   24.150    8.7730
   24.180    8.5097
   24.210    8.7836
   24.240    8.5835
   24.270    8.3518
   24.300    8.4150
   24.330    8.4044
   24.360    8.6572
   24.390    8.0253
   24.420    8.7414
   24.450    8.4150
   24.480    8.2991
   24.510    8.2780
   24.540    8.4466
   24.570    8.5729
   24.600    8.2149
   24.630    8.5519
   24.660    8.4781
   24.690    8.6151
   24.720    8.3412
   24.750    8.8152
   24.780    8.6888
   24.810    8.4150
   24.840    8.8257
   24.870    8.6677
   24.900    8.8468
   24.930    8.8468
   24.960    8.7520
   24.990    8.6151
   25.020    9.0469
   25.050    9.0047
   25.080    8.8678
   25.110    9.0153
   25.140    9.1417
   25.170    9.0363
   25.200    9.2364
   25.230    9.3523
   25.260    9.2680
   25.290    9.5524
   25.320    9.0258
   25.350    8.6993
   25.380    9.1206
   25.410    8.9310
   25.440    8.3728
   25.470    8.5203
   25.500    8.9626
   25.530    8.7520
   25.560    8.5835
   25.590    8.8994
   25.620    8.8046
   25.650    8.8468
   25.680    8.6151
   25.710    8.5413
   25.740    8.6783
   25.770    8.4360
   25.800    8.2780
   25.830    8.2780
   25.860    8.2991
   25.890    8.3412
   25.920    8.3834
   25.950    8.4571
   25.980    7.9831
   26.010    8.2043
   26.040    8.3096
   26.070    8.5729
   26.100    8.7836
   26.130    8.2886
   26.160    8.2359
   26.190    8.3202
   26.220    8.4466
   26.250    8.5519
   26.280    8.1201
   26.310    8.5940
   26.340    8.2780
   26.370    8.4255
   26.400    8.4044
   26.430    8.2570
   26.460    8.2254
   26.490    8.5203
   26.520    7.9200
   26.550    8.2254
   26.580    8.2675
   26.610    8.3202
   26.640    8.4360
   26.670    8.3096
   26.700    8.6677
   26.730    8.4992
   26.760    8.5624
   26.790    9.0258
   26.820    8.9310
   26.850    8.6045
   26.880    8.2254
   26.910    8.3202
   26.940    8.5835
   26.970    8.1201
   27.000    8.1201
   27.030    7.9516
   27.060    8.2149
   27.090    8.0358
   27.120    8.5940
   27.150    8.1938
   27.180    8.7730
   27.210    8.3307
   27.240    8.8362
   27.270    8.0990
   27.300    7.7514
   27.330    8.1411
   27.360    8.2254
   27.390    7.9305
   27.420    8.2570
   27.450    8.0779
   27.480    7.6567
   27.510    8.2149
   27.540    8.3202
   27.570    7.7620
   27.600    8.2043
   27.630    7.6988
   27.660    8.1517
   27.690    8.2254
   27.720    7.8884
   27.750    8.0779
   27.780    7.7409
   27.810    7.7409
   27.840    7.7830
   27.870    8.1727
   27.900    8.2570
   27.930    7.9200
   27.960    8.0674
   27.990    9.0785
   28.020    9.3628
   28.050    9.3839
   28.080    9.5735
   28.110    9.0469
   28.140    8.5308
   28.170    8.1833
   28.200    7.9094
   28.230    8.0885
   28.260    7.9094
   28.290    8.0990
   28.320    8.2464
   28.350    7.9410
   28.380    7.8884
   28.410    7.7304
   28.440    8.0147
   28.470    8.0885
   28.500    8.0358
   28.530    8.1411
   28.560    7.6988
   28.590    7.5092
   28.620    7.6040
   28.650    8.0569
   28.680    7.7409
   28.710    7.6777
   28.740    7.7409
   28.770    7.3407
   28.800    7.6777
   28.830    7.6356
   28.860    7.0774
   28.890    7.8357
   28.920    8.2780
   28.950    8.3412
   28.980    9.0469
   29.010    8.7204
   29.040    9.2259
   29.070    8.9415
   29.100    8.1095
   29.130    7.9726
   29.160    7.4882
   29.190    7.5724
   29.220    7.5619
   29.250    7.5935
   29.280    7.9094
   29.310    7.8041
   29.340    7.5303
   29.370    7.8357
   29.400    8.0147
   29.430    7.7725
   29.460    7.6988
   29.490    8.0885
   29.520    7.2986
   29.550    7.4882
   29.580    7.7936
   29.610    7.6145
   29.640    7.3934
   29.670    7.7304
   29.700    7.1406
   29.730    7.8462
   29.760    7.5303
   29.790    7.3934
   29.820    7.6777
   29.850    7.8462
   29.880    7.8673
   29.910    7.1301
   29.940    7.9621
   29.970    7.5935
   30.000    7.7936
   30.030    7.9200
   30.060    7.1090
   30.090    7.5092
   30.120    7.1090
   30.150    7.7514
   30.180    7.4987
   30.210    7.4566
   30.240    7.4039
   30.270    7.4566
   30.300    7.5303
   30.330    7.3091
   30.360    7.5197
   30.390    7.7936
   30.420    7.6567
   30.450    7.6356
   30.480    7.6672
   30.510    7.4671
   30.540    7.4987
   30.570    7.1617
   30.600    7.4987
   30.630    7.6356
   30.660    7.5724
   30.690    7.1617
   30.720    7.2775
   30.750    7.6040
   30.780    7.5408
   30.810    7.3828
   30.840    7.4987
   30.870    7.8989
   30.900    7.5829
   30.930    7.4987
   30.960    7.6040
   30.990    7.1090
   31.020    7.3091
   31.050    7.6145
   31.080    7.2986
   31.110    7.5197
   31.140    7.4039
   31.170    7.3091
   31.200    7.3196
   31.230    7.1827
   31.260    7.1511
   31.290    7.7093
   31.320    7.3618
   31.350    7.4776
   31.380    7.3302
   31.410    7.4355
   31.440    7.0248
   31.470    7.4776
   31.500    7.4460
   31.530    7.1722
   31.560    6.8141
   31.590    7.1511
   31.620    7.6145
   31.650    7.4039
   31.680    7.2775
   31.710    7.4039
   31.740    7.2986
   31.770    7.7830
   31.800    7.1617
   31.830    7.3618
   31.860    7.4671
   31.890    7.4987
   31.920    7.6567
   31.950    7.3407
   31.980    7.3407
   32.010    7.8041
   32.040    8.9837
   32.070    9.4260
   32.100    9.9421
   32.130   10.1948
   32.160   10.0685
   32.190   10.4581
   32.220    8.4887
   32.250    8.3728
   32.280    7.6251
   32.310    7.4776
   32.340    7.3512
   32.370    7.2143
   32.400    7.3828
   32.430    7.6461
   32.460    7.3828
   32.490    8.2675
   32.520    6.8773
   32.550    7.4355
   32.580    7.4039
   32.610    7.2143
   32.640    6.8352
   32.670    7.4882
   32.700    6.7299
   32.730    7.0037
   32.760    7.7620
   32.790    7.3934
   32.820    7.0879
   32.850    7.3618
   32.880    7.1195
   32.910    7.1406
   32.940    7.0669
   32.970    6.9510
   33.000    7.2354
   33.030    6.6667
   33.060    6.9510
   33.090    7.1722
   33.120    7.0669
   33.150    6.8562
   33.180    6.8668
   33.210    7.0458
   33.240    7.1617
   33.270    7.0353
   33.300    7.0037
   33.330    6.9616
   33.360    7.1511
   33.390    6.7720
   33.420    7.1511
   33.450    6.7720
   33.480    7.3828
   33.510    7.4250
   33.540    6.9405
   33.570    6.5613
   33.600    7.3828
   33.630    6.9721
   33.660    7.4776
   33.690    7.4250
   33.720    7.2986
   33.750    7.1090
   33.780    7.7199
   33.810    8.1727
   33.840    8.5097
   33.870    8.7098
   33.900    7.9621
   33.930    8.0463
   33.960    7.8357
   33.990    7.4355
   34.020    7.2143
   34.050    7.2249
   34.080    7.4250
   34.110    7.1722
   34.140    7.2670
   34.170    7.1933
   34.200    7.0248
   34.230    6.9089
   34.260    7.0142
   34.290    6.9510
   34.320    6.9089
   34.350    6.8457
   34.380    7.1827
   34.410    7.0669
   34.440    6.6667
   34.470    6.8246
   34.500    6.8984
   34.530    6.8457
   34.560    6.8036
   34.590    7.0669
   34.620    6.7193
   34.650    7.1090
   34.680    7.0037
   34.710    6.4139
   34.740    7.2670
   34.770    6.9405
   34.800    6.7615
   34.830    6.6772
   34.860    6.8352
   34.890    6.8878
   34.920    6.9932
   34.950    6.8773
   34.980    6.9510
   35.010    7.3091
   35.040    6.4982
   35.070    7.0458
   35.100    6.9194
   35.130    6.6983
   35.160    6.7193
   35.190    6.5192
   35.220    6.9405
   35.250    7.0563
   35.280    7.0353
   35.310    6.6667
   35.340    7.2143
   35.370    6.8984
   35.400    7.3934
   35.430    6.8562
   35.460    6.7825
   35.490    6.8036
   35.520    7.1511
   35.550    7.0774
   35.580    6.9616
   35.610    7.4355
   35.640    6.7299
   35.670    6.8562
   35.700    7.0142
   35.730    6.7720
   35.760    7.1090
   35.790    7.1511
   35.820    6.8141
   35.850    7.1301
   35.880    7.0879
   35.910    6.7299
   35.940    7.1301
   35.970    7.0458
   36.000    6.7299
   36.030    7.1827
   36.060    6.9510
   36.090    6.6667
   36.120    6.7509
   36.150    6.6983
   36.180    6.9089
   36.210    6.7720
   36.240    6.8668
   36.270    6.9300
   36.300    7.0669
   36.330    6.6983
   36.360    7.4250
   36.390    6.9826
   36.420    6.9721
   36.450    6.7404
   36.480    6.4139
   36.510    6.6772
   36.540    6.9300
   36.570    6.8562
   36.600    6.8984
   36.630    6.7615
   36.660    6.8984
   36.690    6.7509
   36.720    7.0774
   36.750    6.9300
   36.780    6.7509
   36.810    6.5613
   36.840    6.7509
   36.870    6.7825
   36.900    7.0037
   36.930    7.0669
   36.960    6.4982
   36.990    6.8246
   37.020    6.2559
   37.050    7.1933
   37.080    6.8352
   37.110    6.9405
   37.140    6.7193
   37.170    6.9826
   37.200    6.8984
   37.230    6.6667
   37.260    6.8878
   37.290    6.5719
   37.320    6.4876
   37.350    6.4666
   37.380    6.3191
   37.410    6.9300
   37.440    7.1722
   37.470    6.7404
   37.500    6.4560
   37.530    6.6983
   37.560    6.9089
   37.590    6.7509
   37.620    6.6140
   37.650    6.9300
   37.680    6.6772
   37.710    6.6561
   37.740    6.6456
   37.770    6.4771
   37.800    6.7088
   37.830    6.4455
   37.860    6.9616
   37.890    6.8352
   37.920    6.4771
   37.950    6.7299
   37.980    6.8352
   38.010    6.4244
   38.040    6.8773
   38.070    6.6983
   38.100    6.6667
   38.130    6.8562
   38.160    6.8352
   38.190    6.7193
   38.220    6.6983
   38.250    6.2349
   38.280    6.5298
   38.310    6.7299
   38.340    6.7930
   38.370    7.1617
   38.400    7.0458
   38.430    6.7615
   38.460    6.6561
   38.490    7.0037
   38.520    7.1301
   38.550    7.0985
   38.580    6.9194
   38.610    7.1406
   38.640    7.5829
   38.670    7.8041
   38.700    7.6251
   38.730    7.0879
   38.760    6.8773
   38.790    6.1717
   38.820    7.0774
   38.850    6.8036
   38.880    6.7404
   38.910    6.6351
   38.940    6.8457
   38.970    7.0353
   39.000    6.7299
   39.030    6.5403
   39.060    6.5403
   39.090    6.3612
   39.120    6.6035
   39.150    6.8562
   39.180    6.8141
   39.210    7.0985
   39.240    6.6245
   39.270    6.6877
   39.300    6.3823
   39.330    6.7404
   39.360    6.3823
   39.390    6.4350
   39.420    6.6561
   39.450    6.5508
   39.480    6.8457
   39.510    6.8352
   39.540    6.8246
   39.570    6.5613
   39.600    6.5613
   39.630    6.6667
   39.660    6.8457
   39.690    6.7930
   39.720    6.8457
   39.750    6.7088
   39.780    6.7825
   39.810    6.3507
   39.840    6.4876
   39.870    6.9616
   39.900    6.3718
   39.930    6.6035
   39.960    6.5087
   39.990    6.5087