File: data/MOCOF-1/PXRD/PXRD_KE-338_Cu-Ka1_capillary-1mm_3s-deg_MOCOF-1.xyd
    1.500    3.6862
    1.545    3.5808
    1.590    3.2473
    1.635    3.3702
    1.680    3.2824
    1.725    3.0191
    1.770    3.2824
    1.815    3.0016
    1.860    2.8787
    1.905    2.8436
    1.950    2.7032
    1.995    2.8787
    2.040    2.4574
    2.085    2.5803
    2.130    2.2995
    2.175    2.4048
    2.220    2.4574
    2.265    2.5276
    2.310    2.2643
    2.355    2.4048
    2.400    2.1766
    2.445    1.9133
    2.490    2.0888
    2.535    2.1064
    2.580    2.1064
    2.625    2.2117
    2.670    1.7904
    2.715    1.9659
    2.760    1.9133
    2.805    2.0362
    2.850    1.9133
    2.895    2.1766
    2.940    2.2292
    2.985    2.4223
    3.030    2.7558
    3.075    2.1590
    3.120    3.2298
    3.165    2.9314
    3.210    3.0191
    3.255    3.3175
    3.300    3.8968
    3.345    3.9319
    3.390    5.0904
    3.435    5.6521
    3.480    6.9510
    3.525    8.0569
    3.570    9.6718
    3.615   10.8654
    3.660   13.8494
    3.705   18.3605
    3.750   23.9775
    3.795   37.6689
    3.840   53.2737
    3.885   23.2754
    3.930    4.6340
    3.975    2.5452
    4.020    2.0713
    4.065    1.7904
    4.110    1.8255
    4.155    1.4920
    4.200    1.5798
    4.245    1.6500
    4.290    1.6149
    4.335    1.4920
    4.380    1.4394
    4.425    1.3691
    4.470    1.5096
    4.515    1.8255
    4.560    1.3691
    4.605    1.3516
    4.650    1.5973
    4.695    1.6675
    4.740    1.3867
    4.785    1.4745
    4.830    1.7027
    4.875    1.9308
    4.920    1.2814
    4.965    1.9308
    5.010    2.0011
    5.055    1.9835
    5.100    2.4223
    5.145    2.7909
    5.190    3.0542
    5.235    3.8792
    5.280    5.0904
    5.325    5.7750
    5.370    7.9867
    5.415   12.2170
    5.460   18.1499
    5.505    8.6888
    5.550    2.3521
    5.595    1.5271
    5.640    1.5447
    5.685    1.5096
    5.730    1.5622
    5.775    1.5622
    5.820    1.1761
    5.865    1.3867
    5.910    1.2638
    5.955    1.4394
    6.000    1.4394
    6.045    1.3691
    6.090    1.3165
    6.135    1.5622
    6.180    1.3516
    6.225    1.3340
    6.270    1.5096
    6.315    1.4394
    6.360    1.7202
    6.405    1.7202
    6.450    1.7202
    6.495    1.8782
    6.540    2.3346
    6.585    2.2643
    6.630    3.3000
    6.675    4.7920
    6.720    4.9149
    6.765    2.3872
    6.810    1.4745
    6.855    1.4920
    6.900    1.3691
    6.945    1.2112
    6.990    1.2287
    7.035    1.4218
    7.080    1.4569
    7.125    1.3165
    7.170    1.4569
    7.215    1.2814
    7.260    1.3340
    7.305    1.0883
    7.350    1.6324
    7.395    1.4745
    7.440    1.3516
    7.485    1.4042
    7.530    1.6675
    7.575    1.8080
    7.620    2.0011
    7.665    2.4223
    7.710    3.8266
    7.755    5.1255
    7.800    2.7032
    7.845    1.5096
    7.890    1.1936
    7.935    1.4042
    7.980    1.2989
    8.025    1.2989
    8.070    1.4218
    8.115    1.3867
    8.160    1.3340
    8.205    1.2989
    8.250    1.1761
    8.295    1.6675
    8.340    1.0532
    8.385    1.1936
    8.430    1.3165
    8.475    1.1761
    8.520    1.4569
    8.565    1.4042
    8.610    1.4042
    8.655    1.7904
    8.700    1.6149
    8.745    1.3867
    8.790    1.3691
    8.835    1.0883
    8.880    1.5798
    8.925    1.3340
    8.970    1.2989
    9.015    1.1936
    9.060    1.4920
    9.105    1.2638
    9.150    1.4218
    9.195    1.2814
    9.240    1.5622
    9.285    1.5622
    9.330    1.9308
    9.375    2.2292
    9.420    3.0191
    9.465    5.3186
    9.510    8.1446
    9.555    4.4234
    9.600    1.8080
    9.645    1.2638
    9.690    1.2989
    9.735    1.2638
    9.780    1.2112
    9.825    1.2638
    9.870    1.1058
    9.915    1.4920
    9.960    1.2287
   10.005    1.3691
   10.050    1.2463
   10.095    1.4042
   10.140    1.6675
   10.185    2.1064
   10.230    2.1941
   10.275    3.2122
   10.320    2.6154
   10.365    1.2814
   10.410    1.2287
   10.455    1.3691
   10.500    1.1761
   10.545    1.1410
   10.590    1.2112
   10.635    1.4042
   10.680    1.0707
   10.725    1.1234
   10.770    1.0532
   10.815    1.3516
   10.860    1.7202
   10.905    1.7729
   10.950    2.6330
   10.995    2.9665
   11.040    2.5452
   11.085    1.3516
   11.130    1.3867
   11.175    1.0707
   11.220    1.4218
   11.265    1.0707
   11.310    1.3691
   11.355    1.2463
   11.400    1.2112
   11.445    1.4042
   11.490    1.2112
   11.535    1.6675
   11.580    1.7027
   11.625    2.4574
   11.670    3.3702
   11.715    2.2117
   11.760    1.2638
   11.805    1.2463
   11.850    1.1761
   11.895    1.1410
   11.940    1.1585
   11.985    1.2112
   12.030    1.1585
   12.075    1.1936
   12.120    1.2112
   12.165    1.5271
   12.210    1.3340
   12.255    1.4218
   12.300    1.8080
   12.345    1.7027
   12.390    1.1936
   12.435    1.2814
   12.480    1.2112
   12.525    1.3691
   12.570    1.2638
   12.615    1.3165
   12.660    1.1234
   12.705    1.2112
   12.750    1.3340
   12.795    1.1585
   12.840    1.7027
   12.885    2.7207
   12.930    2.2292
   12.975    1.5447
   13.020    1.2463
   13.065    1.2814
   13.110    1.0356
   13.155    1.2463
   13.200    1.0532
   13.245    1.0883
   13.290    1.0532
   13.335    1.0707
   13.380    1.2463
   13.425    1.6149
   13.470    1.5973
   13.515    1.5622
   13.560    1.3165
   13.605    1.1936
   13.650    1.0883
   13.695    1.1936
   13.740    1.1761
   13.785    1.4042
   13.830    0.8777
   13.875    1.1234
   13.920    1.3516
   13.965    1.7202
   14.010    2.2117
   14.055    2.3170
   14.100    1.7553
   14.145    1.0181
   14.190    1.1234
   14.235    1.0532
   14.280    1.0181
   14.325    0.9128
   14.370    1.1410
   14.415    1.2112
   14.460    1.1410
   14.505    0.9830
   14.550    1.1410
   14.595    1.1410
   14.640    1.0707
   14.685    1.0532
   14.730    1.1761
   14.775    0.9303
   14.820    1.0532
   14.865    1.1058
   14.910    1.1936
   14.955    0.9654
   15.000    1.3691
   15.045    1.2463
   15.090    1.5271
   15.135    1.3165
   15.180    1.1234
   15.225    1.0356
   15.270    0.9654
   15.315    1.1936
   15.360    1.1058
   15.405    1.1410
   15.450    0.9128
   15.495    1.2638
   15.540    0.8952
   15.585    1.0883
   15.630    1.2112
   15.675    1.1585
   15.720    1.4218
   15.765    1.2112
   15.810    1.0532
   15.855    1.0181
   15.900    1.0883
   15.945    1.2287
   15.990    1.1936
   16.035    1.2463
   16.080    1.4218
   16.125    1.2287
   16.170    1.2638
   16.215    1.0005
   16.260    1.0181
   16.305    1.1936
   16.350    1.1234
   16.395    1.1936
   16.440    1.0356
   16.485    1.4042
   16.530    1.5622
   16.575    1.6851
   16.620    1.0883
   16.665    1.1410
   16.710    1.0181
   16.755    1.2112
   16.800    1.0356
   16.845    1.0005
   16.890    1.3340
   16.935    1.6851
   16.980    1.6851
   17.025    2.3346
   17.070    1.7378
   17.115    1.2112
   17.160    1.1936
   17.205    1.0532
   17.250    1.1936
   17.295    1.1585
   17.340    1.0883
   17.385    1.2463
   17.430    1.2638
   17.475    1.2287
   17.520    1.2463
   17.565    1.0532
   17.610    1.4042
   17.655    1.2112
   17.700    1.1761
   17.745    1.2112
   17.790    1.2287
   17.835    1.2287
   17.880    1.1410
   17.925    1.3691
   17.970    1.2989
   18.015    1.2463
   18.060    1.1410
   18.105    1.1936
   18.150    1.1234
   18.195    1.1058
   18.240    1.2463
   18.285    1.2638
   18.330    1.4569
   18.375    1.2814
   18.420    1.3340
   18.465    1.1936
   18.510    1.3340
   18.555    1.2287
   18.600    1.0356
   18.645    1.1936
   18.690    1.3165
   18.735    1.2638
   18.780    1.1410
   18.825    1.1585
   18.870    1.1234
   18.915    1.0005
   18.960    1.0356
   19.005    1.2287
   19.050    1.3340
   19.095    0.9128
   19.140    1.0707
   19.185    1.1585
   19.230    1.2463
   19.275    1.2814
   19.320    0.9479
   19.365    1.1410
   19.410    1.1585
   19.455    1.0532
   19.500    1.3340
   19.545    1.4042
   19.590    1.2463
   19.635    1.1936
   19.680    1.1585
   19.725    1.2638
   19.770    1.0532
   19.815    1.1585
   19.860    1.2463
   19.905    1.1234
   19.950    1.2287
   19.995    1.0707
   20.040    1.1761
   20.085    1.3516
   20.130    1.3516
   20.175    1.4745
   20.220    1.0532
   20.265    1.4569
   20.310    1.9659
   20.355    2.0713
   20.400    1.3867
   20.445    1.2463
   20.490    1.2814
   20.535    0.8777
   20.580    1.2287
   20.625    1.1936
   20.670    1.3340
   20.715    1.2112
   20.760    1.2463
   20.805    1.0532
   20.850    1.0883
   20.895    1.1234
   20.940    1.0883
   20.985    1.2112
   21.030    1.2287
   21.075    1.2814
   21.120    1.2463
   21.165    1.1761
   21.210    1.1410
   21.255    1.1936
   21.300    1.2989
   21.345    1.2287
   21.390    1.3165
   21.435    1.2814
   21.480    1.1585
   21.525    1.3340
   21.570    1.2287
   21.615    1.3867
   21.660    1.2112
   21.705    1.0707
   21.750    1.1585
   21.795    1.3867
   21.840    1.3691
   21.885    1.3165
   21.930    1.2989
   21.975    1.2814
   22.020    1.1761
   22.065    1.1410
   22.110    1.4745
   22.155    1.3165
   22.200    1.5622
   22.245    1.0883
   22.290    1.0883
   22.335    1.1936
   22.380    1.1058
   22.425    1.5096
   22.470    1.6675
   22.515    2.1064
   22.560    1.7904
   22.605    1.2814
   22.650    1.3340
   22.695    1.2287
   22.740    1.2112
   22.785    1.7027
   22.830    1.8255
   22.875    1.8080
   22.920    1.8782
   22.965    1.3691
   23.010    1.2814
   23.055    1.1936
   23.100    1.1936
   23.145    1.5447
   23.190    1.7027
   23.235    1.4745
   23.280    1.0883
   23.325    1.0883
   23.370    1.3165
   23.415    1.1234
   23.460    1.0883
   23.505    1.3340
   23.550    1.1058
   23.595    1.4745
   23.640    1.0707
   23.685    1.1585
   23.730    1.0181
   23.775    1.2463
   23.820    1.3165
   23.865    1.1761
   23.910    1.5447
   23.955    1.2112
   24.000    1.0707
   24.045    0.9479
   24.090    1.2814
   24.135    1.1585
   24.180    1.2463
   24.225    1.2463
   24.270    1.1585
   24.315    1.1410
   24.360    1.0707
   24.405    1.0707
   24.450    1.3516
   24.495    1.3340
   24.540    1.1761
   24.585    1.3340
   24.630    0.9479
   24.675    1.1234
   24.720    1.2989
   24.765    1.3691
   24.810    1.2112
   24.855    1.0707
   24.900    1.0883
   24.945    1.0707
   24.990    1.2638
   25.035    1.3340
   25.080    1.1410
   25.125    1.1761
   25.170    1.1761
   25.215    1.1761
   25.260    1.1585
   25.305    1.2814
   25.350    1.1410
   25.395    1.0532
   25.440    1.1410
   25.485    1.0005
   25.530    1.1058
   25.575    1.2287
   25.620    1.1410
   25.665    1.2463
   25.710    1.5798
   25.755    1.6324
   25.800    1.4920
   25.845    1.2638
   25.890    1.2814
   25.935    1.1936
   25.980    1.1761
   26.025    1.1761
   26.070    1.1936
   26.115    1.2814
   26.160    1.2463
   26.205    1.0707
   26.250    1.2989
   26.295    1.1585
   26.340    1.3340
   26.385    1.1761
   26.430    1.2989
   26.475    0.9654
   26.520    1.2989
   26.565    1.0181
   26.610    1.1058
   26.655    1.1058
   26.700    1.0181
   26.745    1.1234
   26.790    1.0181
   26.835    1.1585
   26.880    0.8777
   26.925    1.2814
   26.970    1.4745
   27.015    1.1936
   27.060    0.9830
   27.105    1.0005
   27.150    1.0356
   27.195    1.1058
   27.240    0.9479
   27.285    1.1410
   27.330    1.1936
   27.375    1.1410
   27.420    1.2638
   27.465    1.0181
   27.510    1.2112
   27.555    1.0005
   27.600    1.1761
   27.645    1.2287
   27.690    1.2463
   27.735    1.1234
   27.780    1.1234
   27.825    1.0707
   27.870    1.1234
   27.915    1.2112
   27.960    1.0005
   28.005    0.9830
   28.050    1.2463
   28.095    1.3165
   28.140    1.3867
   28.185    1.1936
   28.230    0.9303
   28.275    1.0005
   28.320    1.0356
   28.365    1.1058
   28.410    1.2638
   28.455    1.1234
   28.500    1.1585
   28.545    1.1410
   28.590    1.0532
   28.635    0.9303
   28.680    1.1585
   28.725    0.9128
   28.770    1.1058
   28.815    1.1234
   28.860    1.1234
   28.905    1.0005
   28.950    1.2112
   28.995    1.0532
   29.040    1.1761
   29.085    1.1410
   29.130    1.0005
   29.175    1.0532
   29.220    1.1058
   29.265    1.1585
   29.310    1.1058
   29.355    1.0356
   29.400    1.1585
   29.445    1.2112
   29.490    1.1058
   29.535    1.1234
   29.580    0.9303
   29.625    1.0707
   29.670    0.9128
   29.715    0.8952
   29.760    1.2463
   29.805    1.0532
   29.850    1.0883
   29.895    0.9830
   29.940    1.1234
   29.985    1.2463
   30.030    1.1410
   30.075    1.0532
   30.120    0.8777
   30.165    1.0356
   30.210    0.8952
   30.255    0.9830
   30.300    0.9128
   30.345    1.1410
   30.390    1.1234
   30.435    1.1234
   30.480    0.9830
   30.525    1.0883
   30.570    0.8601
   30.615    1.0181
   30.660    1.0707
   30.705    1.3165
   30.750    1.1058
   30.795    0.9128
   30.840    1.1585
   30.885    0.8425
   30.930    1.1234
   30.975    0.8250
   31.020    0.8250
   31.065    0.8777
   31.110    0.9830
   31.155    1.0005
   31.200    0.9128
   31.245    1.2287
   31.290    0.9830
   31.335    0.8777
   31.380    0.8425
   31.425    1.0181
   31.470    0.9654
   31.515    0.9479
   31.560    0.8777
   31.605    1.0532
   31.650    0.9479
   31.695    1.0005
   31.740    0.9128
   31.785    0.9128
   31.830    1.0532
   31.875    0.9303
   31.920    1.1234
   31.965    0.7899
   32.010    0.8601
   32.055    0.9479
   32.100    1.2287
   32.145    1.0356
   32.190    0.9830
   32.235    0.9128
   32.280    0.9830
   32.325    0.8601
   32.370    1.0883
   32.415    1.1761
   32.460    1.0356
   32.505    0.8601
   32.550    0.9654
   32.595    1.0005
   32.640    0.8777
   32.685    1.0532
   32.730    0.9303
   32.775    0.9303
   32.820    0.8601
   32.865    0.8777
   32.910    1.1410
   32.955    0.8250
   33.000    0.7899
   33.045    0.6670
   33.090    0.9128
   33.135    0.9830
   33.180    0.9654
   33.225    0.9303
   33.270    0.9128
   33.315    1.0356
   33.360    0.7548
   33.405    0.9479
   33.450    0.8952
   33.495    1.0181
   33.540    0.8777
   33.585    0.8777
   33.630    1.0356
   33.675    0.8250
   33.720    1.0532
   33.765    0.9128
   33.810    1.0181
   33.855    1.0883
   33.900    0.8425
   33.945    1.0356
   33.990    0.8601
   34.035    0.9479
   34.080    0.7723
   34.125    1.0181
   34.170    0.9128
   34.215    0.9128
   34.260    0.7899
   34.305    0.7548
   34.350    0.7372
   34.395    0.8074
   34.440    0.8952
   34.485    0.7899
   34.530    0.9303
   34.575    0.9128
   34.620    0.7197
   34.665    0.7723
   34.710    0.9128
   34.755    0.9303
   34.800    0.9303
   34.845    0.8425
   34.890    0.8425
   34.935    0.7197
   34.980    0.8250
   35.025    0.7899
   35.070    0.6846
   35.115    0.8601
   35.160    0.7548
   35.205    0.8074
   35.250    0.7723
   35.295    0.8777
   35.340    0.7197
   35.385    0.9303
   35.430    0.8074
   35.475    0.8601
   35.520    0.7548
   35.565    0.7197
   35.610    0.9303
   35.655    0.7372
   35.700    0.7548
   35.745    0.7372
   35.790    0.7723
   35.835    0.6144
   35.880    0.8952
   35.925    0.7899
   35.970    0.7723
   36.015    0.7899
   36.060    0.8425
   36.105    0.7197
   36.150    0.8074
   36.195    0.5968
   36.240    0.8250
   36.285    0.7021
   36.330    0.6495
   36.375    0.8074
   36.420    0.8425
   36.465    0.8777
   36.510    0.8074
   36.555    0.9830
   36.600    0.8425
   36.645    0.7723
   36.690    0.7899
   36.735    0.8425
   36.780    0.7197
   36.825    0.6670
   36.870    0.8952
   36.915    0.8425
   36.960    0.8250
   37.005    0.7899
   37.050    0.7899
   37.095    0.6670
   37.140    0.8250
   37.185    0.6846
   37.230    0.6846
   37.275    0.6319
   37.320    0.7372
   37.365    0.8425
   37.410    0.7723
   37.455    0.7021
   37.500    0.9128
   37.545    0.5968
   37.590    1.0005
   37.635    0.6670
   37.680    0.8777
   37.725    0.8952
   37.770    0.6670
   37.815    0.6846
   37.860    0.8425
   37.905    0.7723
   37.950    0.7021
   37.995    0.6846
   38.040    0.7723
   38.085    0.7899
   38.130    0.7548
   38.175    0.9128
   38.220    0.7021
   38.265    0.8250
   38.310    0.7197
   38.355    0.7372
   38.400    0.9128
   38.445    0.5793
   38.490    0.8952
   38.535    0.7197
   38.580    0.7723
   38.625    0.7021
   38.670    0.7372
   38.715    0.7372
   38.760    0.5090
   38.805    0.6144
   38.850    0.7548
   38.895    0.6846
   38.940    0.6670
   38.985    0.6670
   39.030    0.7899
   39.075    0.6670
   39.120    0.6144
   39.165    0.7548
   39.210    0.5968
   39.255    0.8074
   39.300    0.6144
   39.345    0.6670
   39.390    0.7197
   39.435    0.7899
   39.480    0.8601
   39.525    0.7723
   39.570    0.7197
   39.615    0.7021
   39.660    0.7548
   39.705    0.9128
   39.750    0.6495
   39.795    0.8074
   39.840    0.7372
   39.885    0.6846
   39.930    0.7372
   39.975    0.6846
   40.020    0.6319
   40.065    0.6670
   40.110    0.7723
   40.155    0.7548
   40.200    0.8074
   40.245    0.8952
   40.290    0.6495
   40.335    0.8250
   40.380    0.8425
   40.425    0.7372
   40.470    1.0356
   40.515    0.8425
   40.560    0.8425
   40.605    0.6846
   40.650    0.7723
   40.695    0.6846
   40.740    0.7021
   40.785    0.6670
   40.830    0.6846
   40.875    0.8074
   40.920    0.6846
   40.965    0.7548
   41.010    0.6319
   41.055    0.8250
   41.100    0.6670
   41.145    0.7021
   41.190    0.7372
   41.235    0.6319
   41.280    0.6495
   41.325    0.6495
   41.370    0.8074
   41.415    0.6495
   41.460    0.8425
   41.505    0.5441
   41.550    0.5617
   41.595    0.6495
   41.640    0.6846
   41.685    0.8777
   41.730    0.7021
   41.775    0.6319
   41.820    0.7197
   41.865    0.6144
   41.910    0.6319
   41.955    0.7021
   42.000    0.6670
   42.045    0.8777
   42.090    0.7723
   42.135    0.7548
   42.180    0.6846
   42.225    0.7197
   42.270    0.6319
   42.315    0.5266
   42.360    0.7548
   42.405    0.7197
   42.450    0.7021
   42.495    0.6670
   42.540    0.7021
   42.585    0.6846
   42.630    0.6495
   42.675    0.5266
   42.720    0.7723
   42.765    0.7548
   42.810    0.8952
   42.855    0.5968
   42.900    0.7899
   42.945    0.6846
   42.990    0.7372
   43.035    0.5266
   43.080    0.7723
   43.125    0.7899
   43.170    0.7723
   43.215    0.7548
   43.260    0.9830
   43.305    0.8425
   43.350    0.6319
   43.395    0.6670
   43.440    0.7548
   43.485    0.7197
   43.530    0.7197
   43.575    0.7372
   43.620    0.6670
   43.665    0.7197
   43.710    0.7899
   43.755    0.7723
   43.800    0.7197
   43.845    0.8425
   43.890    0.8074
   43.935    0.8425
   43.980    0.7197
   44.025    0.8601
   44.070    0.6144
   44.115    0.7021
   44.160    0.9128
   44.205    0.5441
   44.250    0.8425
   44.295    0.6319
   44.340    0.7021
   44.385    0.7548
   44.430    0.8250
   44.475    0.5793
   44.520    0.7372
   44.565    0.5617
   44.610    0.9128
   44.655    0.7372
   44.700    0.8250
   44.745    0.7197
   44.790    0.5266
   44.835    0.6319
   44.880    0.5793
   44.925    0.6670
   44.970    0.6495
   45.015    0.5266
   45.060    0.7899
   45.105    0.7723
   45.150    0.6846
   45.195    0.6846
   45.240    0.6495
   45.285    0.7548
   45.330    0.6495
   45.375    0.7372
   45.420    0.5617
   45.465    0.6670
   45.510    0.4739
   45.555    0.8074
   45.600    0.5968
   45.645    0.4739
   45.690    0.6670
   45.735    0.5617
   45.780    0.6144
   45.825    0.8250
   45.870    0.6846
   45.915    0.6495
   45.960    0.4915
   46.005    0.5441
   46.050    0.5968
   46.095    0.7723
   46.140    0.6670
   46.185    0.6319
   46.230    0.9128
   46.275    0.8425
   46.320    0.5968
   46.365    0.5090
   46.410    0.6846
   46.455    0.6846
   46.500    0.5441
   46.545    0.5793
   46.590    0.6495
   46.635    0.7723
   46.680    0.7372
   46.725    0.6319
   46.770    0.7197
   46.815    0.6319
   46.860    0.7021
   46.905    0.6319
   46.950    0.4739
   46.995    0.7723
   47.040    0.7372
   47.085    0.5441
   47.130    0.5441
   47.175    0.5617
   47.220    0.6319
   47.265    0.8250
   47.310    0.7899
   47.355    0.5441
   47.400    0.5441
   47.445    0.5090
   47.490    0.4564
   47.535    0.5266
   47.580    0.5441
   47.625    0.7021
   47.670    0.8425
   47.715    0.6144
   47.760    0.6670
   47.805    0.7197
   47.850    0.7021
   47.895    0.6846
   47.940    0.7548
   47.985    0.5793
   48.030    0.6670
   48.075    0.7899
   48.120    0.5617
   48.165    0.5617
   48.210    0.7021
   48.255    0.6495
   48.300    0.6495
   48.345    0.7021
   48.390    0.7021
   48.435    0.7723
   48.480    0.6846
   48.525    0.7197
   48.570    0.6670
   48.615    0.6846
   48.660    0.6495
   48.705    0.8074
   48.750    0.5968
   48.795    0.5617
   48.840    0.6495
   48.885    0.5617
   48.930    0.6670
   48.975    0.7372
   49.020    0.6670
   49.065    0.6846
   49.110    0.7021
   49.155    0.5617
   49.200    0.6670
   49.245    0.5968
   49.290    0.6495
   49.335    0.7021
   49.380    0.5793
   49.425    0.5793
   49.470    0.6319
   49.515    0.4739
   49.560    0.7372
   49.605    0.6495
   49.650    0.7197
   49.695    0.5793
   49.740    0.5793
   49.785    0.5617
   49.830    0.5441
   49.875    0.4739
   49.920    0.6144
   49.965    0.6495
   49.980    0.7197