File: data/MOCOF-1/PXRD/PXRD_KE-321E_Cu-Ka1_capillary-1mm_3s-deg.xyd
    1.500   10.8829
    1.545   10.8303
    1.590   10.7425
    1.635    9.3382
    1.680    9.3031
    1.725    9.0925
    1.770    9.0574
    1.815    8.0744
    1.860    7.8638
    1.905    7.3547
    1.950    7.5478
    1.995    7.1792
    2.040    7.8638
    2.085    7.0563
    2.130    6.6000
    2.175    6.7404
    2.220    6.7579
    2.265    6.1436
    2.310    6.3016
    2.355    6.4244
    2.400    6.2138
    2.445    5.9154
    2.490    6.0207
    2.535    5.8101
    2.580    5.5468
    2.625    5.9329
    2.670    5.7925
    2.715    5.5468
    2.760    5.8101
    2.805    5.6872
    2.850    5.5819
    2.895    5.6872
    2.940    6.4771
    2.985    5.3361
    3.030    5.3361
    3.075    5.3537
    3.120    5.8978
    3.165    5.5117
    3.210    5.6697
    3.255    5.8276
    3.300    6.0558
    3.345    5.6170
    3.390    5.7048
    3.435    5.8803
    3.480    5.3186
    3.525    5.7574
    3.570    5.8452
    3.615    5.5117
    3.660    5.9505
    3.705    6.6000
    3.750    6.5649
    3.795    6.4069
    3.840    6.8984
    3.885    6.7930
    3.930    5.7574
    3.975    5.7223
    4.020    5.6170
    4.065    5.4941
    4.110    5.3361
    4.155    5.1782
    4.200    5.2308
    4.245    5.3712
    4.290    5.3888
    4.335    5.6345
    4.380    5.5819
    4.425    5.4941
    4.470    5.2308
    4.515    5.3712
    4.560    5.1431
    4.605    5.4239
    4.650    5.2133
    4.695    5.3361
    4.740    5.0728
    4.785    5.2308
    4.830    5.4064
    4.875    5.6697
    4.920    5.4064
    4.965    4.9324
    5.010    4.8798
    5.055    5.3888
    5.100    4.8271
    5.145    5.5468
    5.190    5.2308
    5.235    4.9324
    5.280    5.2484
    5.325    4.9324
    5.370    5.5117
    5.415    5.7048
    5.460    5.2133
    5.505    5.0553
    5.550    5.9856
    5.595    5.7223
    5.640    5.2308
    5.685    5.3712
    5.730    5.1782
    5.775    5.3186
    5.820    5.4941
    5.865    5.0202
    5.910    5.1255
    5.955    5.3186
    6.000    5.4239
    6.045    5.0553
    6.090    4.7569
    6.135    5.5117
    6.180    5.6345
    6.225    5.2133
    6.270    5.3537
    6.315    5.5994
    6.360    5.2484
    6.405    4.9149
    6.450    5.6872
    6.495    5.4766
    6.540    5.2133
    6.585    5.5468
    6.630    5.4064
    6.675    5.6872
    6.720    5.4064
    6.765    5.7574
    6.810    5.7750
    6.855    5.2133
    6.900    5.8101
    6.945    5.6521
    6.990    5.4064
    7.035    5.9505
    7.080    5.3537
    7.125    5.5643
    7.170    5.6521
    7.215    5.4590
    7.260    6.0032
    7.305    6.0207
    7.350    5.8627
    7.395    5.8101
    7.440    5.7223
    7.485    5.9856
    7.530    5.8803
    7.575    5.6521
    7.620    6.0909
    7.665    6.3718
    7.710    5.5117
    7.755    5.6872
    7.800    5.8803
    7.845    5.5292
    7.890    5.7223
    7.935    5.6697
    7.980    5.6521
    8.025    6.0558
    8.070    5.5292
    8.115    5.4590
    8.160    5.9329
    8.205    5.4590
    8.250    5.8276
    8.295    5.8627
    8.340    5.5819
    8.385    6.2138
    8.430    5.8978
    8.475    6.1260
    8.520    6.2665
    8.565    6.3542
    8.610    6.5824
    8.655    6.2313
    8.700    5.6521
    8.745    6.1260
    8.790    6.1085
    8.835    5.8101
    8.880    6.0207
    8.925    6.5298
    8.970    5.8803
    9.015    5.9856
    9.060    6.5824
    9.105    6.3016
    9.150    6.5298
    9.195    6.5824
    9.240    6.4420
    9.285    6.3542
    9.330    6.9510
    9.375    6.4946
    9.420    6.1611
    9.465    6.4420
    9.510    6.5649
    9.555    6.2840
    9.600    6.7579
    9.645    6.8984
    9.690    6.3367
    9.735    6.5298
    9.780    6.3191
    9.825    7.0388
    9.870    6.2138
    9.915    6.3893
    9.960    6.5122
   10.005    6.1962
   10.050    6.0734
   10.095    6.5473
   10.140    6.8808
   10.185    6.6000
   10.230    6.5122
   10.275    6.9159
   10.320    6.4244
   10.365    6.7053
   10.410    5.7048
   10.455    6.1260
   10.500    6.4069
   10.545    6.4244
   10.590    6.1085
   10.635    6.0558
   10.680    6.2489
   10.725    6.6000
   10.770    6.4595
   10.815    6.5824
   10.860    6.5649
   10.905    6.2665
   10.950    6.2489
   10.995    6.0734
   11.040    6.0032
   11.085    5.7574
   11.130    6.1260
   11.175    6.2313
   11.220    5.8978
   11.265    5.6170
   11.310    5.8978
   11.355    5.5994
   11.400    5.9329
   11.445    5.9856
   11.490    5.9154
   11.535    5.9329
   11.580    5.8627
   11.625    6.2138
   11.670    6.0909
   11.715    5.6697
   11.760    5.6170
   11.805    5.6521
   11.850    6.2138
   11.895    5.6345
   11.940    5.3186
   11.985    5.5292
   12.030    5.9329
   12.075    5.3186
   12.120    5.8803
   12.165    5.6521
   12.210    6.3367
   12.255    5.5292
   12.300    5.6872
   12.345    5.3361
   12.390    5.5643
   12.435    5.7399
   12.480    5.4941
   12.525    5.2133
   12.570    5.0553
   12.615    5.6170
   12.660    5.2308
   12.705    5.4941
   12.750    5.3186
   12.795    5.4415
   12.840    5.4064
   12.885    5.4239
   12.930    5.7750
   12.975    5.3712
   13.020    5.4766
   13.065    5.0553
   13.110    5.0026
   13.155    5.0377
   13.200    5.2835
   13.245    5.4590
   13.290    5.1606
   13.335    5.8101
   13.380    5.3010
   13.425    5.3186
   13.470    5.2308
   13.515    5.2484
   13.560    5.1431
   13.605    5.5292
   13.650    4.9851
   13.695    4.6691
   13.740    5.2308
   13.785    5.4239
   13.830    5.0026
   13.875    5.2308
   13.920    5.4766
   13.965    5.2133
   14.010    5.5819
   14.055    5.4415
   14.100    5.3010
   14.145    5.0904
   14.190    5.3888
   14.235    4.9675
   14.280    5.1957
   14.325    5.1255
   14.370    5.2835
   14.415    4.7569
   14.460    5.1255
   14.505    5.1080
   14.550    4.6165
   14.595    4.7920
   14.640    4.8973
   14.685    5.3537
   14.730    5.5468
   14.775    5.6521
   14.820    5.3186
   14.865    5.1782
   14.910    5.0377
   14.955    4.9149
   15.000    5.3712
   15.045    5.5994
   15.090    5.3186
   15.135    5.2659
   15.180    5.3888
   15.225    5.4415
   15.270    5.1606
   15.315    5.1080
   15.360    4.6867
   15.405    5.1255
   15.450    5.4590
   15.495    5.5117
   15.540    5.6345
   15.585    4.6691
   15.630    4.8798
   15.675    5.4239
   15.720    5.2835
   15.765    5.1782
   15.810    5.1255
   15.855    5.3712
   15.900    5.5292
   15.945    5.3537
   15.990    5.3010
   16.035    4.7042
   16.080    4.8271
   16.125    5.1080
   16.170    4.9500
   16.215    5.1957
   16.260    5.1431
   16.305    5.3010
   16.350    5.3010
   16.395    5.4415
   16.440    5.1957
   16.485    5.0728
   16.530    4.9675
   16.575    5.0026
   16.620    5.4064
   16.665    5.2835
   16.710    4.7393
   16.755    5.1431
   16.800    5.3186
   16.845    5.4590
   16.890    5.2659
   16.935    5.2133
   16.980    5.4766
   17.025    5.5468
   17.070    5.1957
   17.115    5.1606
   17.160    5.5994
   17.205    5.2308
   17.250    5.4941
   17.295    4.8447
   17.340    5.1255
   17.385    5.1255
   17.430    5.3712
   17.475    5.4415
   17.520    5.7399
   17.565    5.1957
   17.610    5.3186
   17.655    5.2484
   17.700    5.1255
   17.745    5.1431
   17.790    5.2484
   17.835    5.2133
   17.880    5.3186
   17.925    5.3537
   17.970    4.9500
   18.015    5.0728
   18.060    5.2835
   18.105    5.5643
   18.150    5.1782
   18.195    4.9149
   18.240    5.1957
   18.285    5.3361
   18.330    4.9324
   18.375    5.0728
   18.420    5.5468
   18.465    5.3361
   18.510    5.0377
   18.555    5.6521
   18.600    5.4766
   18.645    5.1080
   18.690    5.7925
   18.735    5.4590
   18.780    5.3888
   18.825    5.0728
   18.870    4.8447
   18.915    5.2308
   18.960    5.8276
   19.005    4.8973
   19.050    5.1431
   19.095    5.6345
   19.140    5.5994
   19.185    5.3010
   19.230    5.1782
   19.275    5.5819
   19.320    5.1606
   19.365    5.6345
   19.410    5.7574
   19.455    5.5292
   19.500    5.1255
   19.545    5.0728
   19.590    6.0734
   19.635    5.7048
   19.680    5.1080
   19.725    5.2308
   19.770    5.6872
   19.815    5.6170
   19.860    5.3888
   19.905    5.2308
   19.950    5.2484
   19.995    5.1255
   20.040    5.5468
   20.085    5.0728
   20.130    5.1080
   20.175    5.8627
   20.220    5.8276
   20.265    5.2659
   20.310    5.3186
   20.355    5.4590
   20.400    5.7048
   20.445    5.3537
   20.490    5.1782
   20.535    5.5994
   20.580    5.4941
   20.625    5.6872
   20.670    5.6170
   20.715    5.2659
   20.760    5.2659
   20.805    5.2484
   20.850    5.3888
   20.895    5.2133
   20.940    5.5643
   20.985    5.6697
   21.030    5.5819
   21.075    5.3010
   21.120    5.5117
   21.165    5.8627
   21.210    5.3712
   21.255    5.5468
   21.300    5.5819
   21.345    5.4064
   21.390    5.6345
   21.435    5.8627
   21.480    5.2133
   21.525    5.6872
   21.570    5.4941
   21.615    5.4415
   21.660    5.9681
   21.705    5.6872
   21.750    5.4064
   21.795    5.1957
   21.840    5.6345
   21.885    5.5468
   21.930    5.6170
   21.975    5.8276
   22.020    5.3010
   22.065    5.3537
   22.110    6.3016
   22.155    5.6170
   22.200    5.4064
   22.245    5.8276
   22.290    5.3888
   22.335    5.4590
   22.380    5.2308
   22.425    5.7223
   22.470    5.5643
   22.515    5.3712
   22.560    5.3361
   22.605    5.5994
   22.650    5.7223
   22.695    5.4766
   22.740    5.7223
   22.785    5.1255
   22.830    5.5994
   22.875    5.3888
   22.920    5.4941
   22.965    5.4941
   23.010    5.7048
   23.055    5.7399
   23.100    5.7048
   23.145    5.2659
   23.190    5.3010
   23.235    6.0383
   23.280    5.8101
   23.325    5.4941
   23.370    5.1255
   23.415    5.5117
   23.460    5.6697
   23.505    5.4239
   23.550    5.4415
   23.595    5.2659
   23.640    5.6521
   23.685    5.7399
   23.730    5.4064
   23.775    6.0207
   23.820    5.3186
   23.865    5.8101
   23.910    5.3186
   23.955    4.9675
   24.000    5.4766
   24.045    5.8978
   24.090    5.2133
   24.135    5.4239
   24.180    5.6697
   24.225    5.0553
   24.270    5.0553
   24.315    6.0032
   24.360    5.4590
   24.405    5.3888
   24.450    5.5468
   24.495    5.5819
   24.540    5.6521
   24.585    5.6697
   24.630    5.6872
   24.675    5.5117
   24.720    4.8271
   24.765    5.0904
   24.810    5.2484
   24.855    4.8271
   24.900    5.3712
   24.945    5.2484
   24.990    5.3186
   25.035    5.3537
   25.080    5.2308
   25.125    4.9851
   25.170    5.6170
   25.215    5.2484
   25.260    5.5292
   25.305    5.2659
   25.350    5.2308
   25.395    5.1957
   25.440    5.3010
   25.485    4.9500
   25.530    5.5292
   25.575    4.8447
   25.620    5.6345
   25.665    4.9324
   25.710    5.5117
   25.755    5.9154
   25.800    5.2659
   25.845    4.8447
   25.890    5.3537
   25.935    5.5117
   25.980    5.2133
   26.025    5.1606
   26.070    5.0728
   26.115    5.0202
   26.160    5.1957
   26.205    5.4766
   26.250    5.4239
   26.295    5.1606
   26.340    5.4590
   26.385    5.3712
   26.430    4.9851
   26.475    5.1255
   26.520    4.9851
   26.565    5.2484
   26.610    5.2133
   26.655    5.2308
   26.700    5.1957
   26.745    4.8095
   26.790    5.0026
   26.835    4.9500
   26.880    5.6170
   26.925    5.1255
   26.970    5.3361
   27.015    5.5468
   27.060    4.9500
   27.105    5.2133
   27.150    5.2133
   27.195    5.3010
   27.240    5.6170
   27.285    5.0377
   27.330    5.0553
   27.375    5.0553
   27.420    5.2484
   27.465    5.0026
   27.510    5.4239
   27.555    5.3537
   27.600    4.8798
   27.645    4.8973
   27.690    5.3712
   27.735    5.3361
   27.780    5.0728
   27.825    4.9500
   27.870    5.0904
   27.915    5.1431
   27.960    5.0377
   28.005    5.4941
   28.050    5.2308
   28.095    5.5468
   28.140    5.0202
   28.185    4.8798
   28.230    5.1957
   28.275    5.3186
   28.320    4.7920
   28.365    4.7920
   28.410    5.2659
   28.455    4.5989
   28.500    4.7920
   28.545    5.2133
   28.590    5.0377
   28.635    4.9149
   28.680    5.0728
   28.725    4.9675
   28.770    5.3010
   28.815    4.9675
   28.860    4.8622
   28.905    5.0553
   28.950    5.0728
   28.995    4.7920
   29.040    5.0553
   29.085    4.9500
   29.130    4.7393
   29.175    4.8798
   29.220    5.1080
   29.265    4.6340
   29.310    4.5287
   29.355    4.8095
   29.400    4.8447
   29.445    4.4936
   29.490    4.7920
   29.535    4.6867
   29.580    4.8622
   29.625    4.4058
   29.670    4.4058
   29.715    4.7920
   29.760    4.3181
   29.805    4.9851
   29.850    4.9851
   29.895    4.6516
   29.940    4.6691
   29.985    4.4936
   30.030    4.6340
   30.075    4.3883
   30.120    5.0202
   30.165    4.8095
   30.210    4.7920
   30.255    5.5643
   30.300    4.4058
   30.345    4.7920
   30.390    4.6691
   30.435    4.8095
   30.480    4.1601
   30.525    5.1080
   30.570    4.7744
   30.615    4.8447
   30.660    4.5989
   30.705    4.4234
   30.750    4.3356
   30.795    4.3883
   30.840    4.7920
   30.885    4.5989
   30.930    4.4409
   30.975    4.4058
   31.020    4.7744
   31.065    4.5814
   31.110    4.4058
   31.155    4.4936
   31.200    4.7569
   31.245    4.8973
   31.290    4.6691
   31.335    4.2478
   31.380    4.4409
   31.425    4.3005
   31.470    4.7569
   31.515    4.5638
   31.560    4.5463
   31.605    4.8622
   31.650    4.4409
   31.695    4.5287
   31.740    5.2308
   31.785    4.7744
   31.830    4.6691
   31.875    4.4585
   31.920    4.1952
   31.965    4.5638
   32.010    4.4585
   32.055    4.5287
   32.100    4.4585
   32.145    4.6867
   32.190    4.4936
   32.235    4.2478
   32.280    4.4585
   32.325    4.5111
   32.370    4.1601
   32.415    4.3707
   32.460    4.1074
   32.505    4.2654
   32.550    4.3883
   32.595    4.8095
   32.640    4.4409
   32.685    4.7042
   32.730    4.7042
   32.775    4.1601
   32.820    4.0899
   32.865    4.7042
   32.910    4.0899
   32.955    4.4234
   33.000    4.5111
   33.045    4.4234
   33.090    4.3356
   33.135    4.1952
   33.180    4.3532
   33.225    4.1425
   33.270    3.9846
   33.315    4.3181
   33.360    4.4585
   33.405    3.8968
   33.450    4.5814
   33.495    4.2830
   33.540    4.0548
   33.585    4.3883
   33.630    4.1250
   33.675    4.2654
   33.720    4.5989
   33.765    4.8973
   33.810    4.1776
   33.855    4.4760
   33.900    4.6867
   33.945    4.4936
   33.990    4.0372
   34.035    4.4760
   34.080    4.1250
   34.125    4.5287
   34.170    3.8090
   34.215    4.3707
   34.260    4.0723
   34.305    4.2654
   34.350    4.1250
   34.395    4.2478
   34.440    4.4409
   34.485    4.3883
   34.530    4.1601
   34.575    4.0021
   34.620    3.9319
   34.665    4.0548
   34.710    3.9319
   34.755    3.9846
   34.800    3.8090
   34.845    4.3005
   34.890    4.1074
   34.935    4.2478
   34.980    4.5638
   35.025    4.1952
   35.070    4.4585
   35.115    4.2478
   35.160    3.9494
   35.205    3.9143
   35.250    4.0723
   35.295    4.4585
   35.340    3.9494
   35.385    4.0723
   35.430    4.3707
   35.475    4.4234
   35.520    4.3532
   35.565    4.2654
   35.610    4.4058
   35.655    4.0723
   35.700    4.1250
   35.745    3.8792
   35.790    3.7915
   35.835    3.7037
   35.880    3.9846
   35.925    4.1952
   35.970    4.0372
   36.015    4.0723
   36.060    4.2830
   36.105    4.3005
   36.150    4.4585
   36.195    4.3532
   36.240    4.3707
   36.285    4.6867
   36.330    3.8266
   36.375    4.0021
   36.420    3.4755
   36.465    4.3005
   36.510    3.9143
   36.555    4.0548
   36.600    4.2127
   36.645    3.8617
   36.690    3.9670
   36.735    4.1601
   36.780    4.1952
   36.825    3.9670
   36.870    4.2830
   36.915    4.2127
   36.960    4.0197
   37.005    3.8090
   37.050    4.3883
   37.095    4.0372
   37.140    3.9670
   37.185    3.7915
   37.230    4.5814
   37.275    4.4585
   37.320    4.2478
   37.365    4.1074
   37.410    4.0021
   37.455    3.8266
   37.500    3.8266
   37.545    3.8441
   37.590    4.0548
   37.635    4.1074
   37.680    4.5814
   37.725    3.8090
   37.770    4.2127
   37.815    4.0899
   37.860    3.7037
   37.905    3.9846
   37.950    4.1250
   37.995    4.1601
   38.040    3.9319
   38.085    4.3181
   38.130    4.0899
   38.175    3.8266
   38.220    4.1601
   38.265    4.0548
   38.310    3.7388
   38.355    3.6862
   38.400    4.3356
   38.445    4.4409
   38.490    4.0197
   38.535    4.1250
   38.580    3.9319
   38.625    4.1074
   38.670    4.8973
   38.715    4.0021
   38.760    4.1250
   38.805    3.9494
   38.850    3.7564
   38.895    4.0372
   38.940    4.1425
   38.985    4.0197
   39.030    3.8968
   39.075    3.8266
   39.120    4.0197
   39.165    4.0723
   39.210    4.1425
   39.255    3.6862
   39.300    3.9319
   39.345    4.5638
   39.390    3.9494
   39.435    4.2303
   39.480    3.9670
   39.525    3.7739
   39.570    3.9846
   39.615    4.1601
   39.660    4.0021
   39.705    3.7915
   39.750    4.0899
   39.795    4.1601
   39.840    4.1952
   39.885    3.8968
   39.930    4.2830
   39.975    3.9846
   40.020    3.8792
   40.065    4.0723
   40.110    4.1776
   40.155    3.6686
   40.200    3.6686
   40.245    3.7388
   40.290    3.7739
   40.335    4.2478
   40.380    3.6510
   40.425    4.4058
   40.470    4.0548
   40.515    3.9670
   40.560    4.0372
   40.605    3.8617
   40.650    3.9670
   40.695    4.1601
   40.740    4.2478
   40.785    4.3707
   40.830    3.8792
   40.875    3.8792
   40.920    3.9319
   40.965    4.1776
   41.010    4.1601
   41.055    4.1425
   41.100    3.8090
   41.145    4.0548
   41.190    3.8441
   41.235    3.8266
   41.280    3.9319
   41.325    3.9670
   41.370    4.1074
   41.415    4.1250
   41.460    3.5457
   41.505    4.3532
   41.550    4.0372
   41.595    4.1425
   41.640    3.7213
   41.685    3.7739
   41.730    4.1250
   41.775    4.3532
   41.820    4.1601
   41.865    3.8090
   41.910    4.0723
   41.955    4.2127
   42.000    4.1074
   42.045    3.5984
   42.090    3.8617
   42.135    4.1074
   42.180    3.6510
   42.225    3.6862
   42.270    3.9846
   42.315    3.8968
   42.360    4.0372
   42.405    4.1776
   42.450    3.4931
   42.495    4.2478
   42.540    3.9846
   42.585    4.2303
   42.630    4.1250
   42.675    3.8792
   42.720    3.7213
   42.765    4.3883
   42.810    3.7213
   42.855    3.5457
   42.900    4.0899
   42.945    3.8968
   42.990    3.6686
   43.035    3.6862
   43.080    3.9670
   43.125    4.1425
   43.170    3.8090
   43.215    3.8617
   43.260    4.3005
   43.305    4.1250
   43.350    4.0021
   43.395    4.3707
   43.440    4.2303
   43.485    4.0899
   43.530    3.8792
   43.575    3.8968
   43.620    4.0548
   43.665    3.6686
   43.710    4.0372
   43.755    3.8090
   43.800    3.6686
   43.845    3.9846
   43.890    3.8441
   43.935    4.0899
   43.980    3.6335
   44.025    3.9319
   44.070    3.7037
   44.115    4.0548
   44.160    4.0021
   44.205    3.8090
   44.250    3.8617
   44.295    3.7915
   44.340    4.1074
   44.385    3.8968
   44.430    3.8617
   44.475    3.8090
   44.520    4.1074
   44.565    3.7915
   44.610    3.7564
   44.655    4.3181
   44.700    4.0372
   44.745    4.3707
   44.790    4.0197
   44.835    4.3532
   44.880    4.0021
   44.925    4.1952
   44.970    3.7915
   45.015    3.7388
   45.060    3.8441
   45.105    3.7739
   45.150    4.0723
   45.195    3.8617
   45.240    3.8968
   45.285    3.9494
   45.330    4.1250
   45.375    3.6686
   45.420    4.4409
   45.465    3.7564
   45.510    3.7564
   45.555    4.0723
   45.600    4.0372
   45.645    3.7213
   45.690    4.0548
   45.735    4.0723
   45.780    3.6335
   45.825    3.6686
   45.870    3.9494
   45.915    3.7213
   45.960    4.0021
   46.005    3.6686
   46.050    3.4580
   46.095    3.5808
   46.140    4.1952
   46.185    4.0021
   46.230    3.6862
   46.275    3.8266
   46.320    4.0548
   46.365    3.8617
   46.410    3.8968
   46.455    3.6159
   46.500    3.5106
   46.545    3.5282
   46.590    3.7037
   46.635    3.7388
   46.680    3.6686
   46.725    4.0723
   46.770    3.9846
   46.815    3.8266
   46.860    3.9143
   46.905    3.7915
   46.950    3.8266
   46.995    3.5106
   47.040    3.5282
   47.085    3.9494
   47.130    3.7037
   47.175    4.1601
   47.220    3.8617
   47.265    3.9319
   47.310    3.9494
   47.355    4.2478
   47.400    3.9319
   47.445    4.1425
   47.490    3.6159
   47.535    3.7915
   47.580    3.7915
   47.625    3.4053
   47.670    3.6159
   47.715    4.0021
   47.760    4.2127
   47.805    3.8266
   47.850    3.8090
   47.895    3.8266
   47.940    4.0372
   47.985    3.9494
   48.030    3.5106
   48.075    3.5808
   48.120    3.6862
   48.165    3.7915
   48.210    3.6159
   48.255    3.5984
   48.300    3.4755
   48.345    3.8266
   48.390    3.6335
   48.435    4.1074
   48.480    4.2303
   48.525    3.8617
   48.570    3.8090
   48.615    3.8968
   48.660    3.7739
   48.705    3.8090
   48.750    4.1250
   48.795    3.8792
   48.840    3.9670
   48.885    4.0021
   48.930    3.6335
   48.975    3.8090
   49.020    3.8617
   49.065    3.7388
   49.110    4.0372
   49.155    3.8090
   49.200    3.6335
   49.245    3.5808
   49.290    3.6686
   49.335    3.7739
   49.380    3.7564
   49.425    3.9670
   49.470    3.8968
   49.515    3.9319
   49.560    4.2127
   49.605    3.7739
   49.650    3.5282
   49.695    3.6686
   49.740    3.7915
   49.785    3.7564
   49.830    3.6862
   49.875    3.7037
   49.920    3.7213
   49.965    3.7915
   49.980    4.1425