File: data/MOCOF-1/PXRD/PXRD_KE-049-3_Cu-Ka1_capillary-1mm_5s-deg.xyd
    1.500   22.9279
    1.515   22.4013
    1.530   23.4545
    1.545   22.7067
    1.560   22.7699
    1.575   22.6646
    1.590   22.6119
    1.605   22.2433
    1.620   21.7904
    1.635   21.8852
    1.650   22.3802
    1.665   21.6956
    1.680   21.5587
    1.695   21.3165
    1.710   21.0005
    1.725   21.2638
    1.740   21.3797
    1.755   20.1790
    1.770   20.9479
    1.785   20.8636
    1.800   21.1585
    1.815   21.0743
    1.830   20.8847
    1.845   19.8947
    1.860   20.1474
    1.875   20.3791
    1.890   20.3476
    1.905   19.9789
    1.920   19.5577
    1.935   18.9995
    1.950   19.7472
    1.965   20.1053
    1.980   20.1580
    1.995   19.6525
    2.010   19.3681
    2.025   19.7156
    2.040   19.9473
    2.055   19.9263
    2.070   20.4002
    2.085   19.6630
    2.100   19.7367
    2.115   20.1053
    2.130   20.4002
    2.145   20.2528
    2.160   20.1896
    2.175   20.1264
    2.190   20.7162
    2.205   20.2844
    2.220   20.7688
    2.235   20.8110
    2.250   20.3370
    2.265   20.9163
    2.280   21.1269
    2.295   21.2217
    2.310   22.0011
    2.325   21.9589
    2.340   21.3586
    2.355   21.5166
    2.370   21.8009
    2.385   21.6008
    2.400   22.4118
    2.415   22.2854
    2.430   21.9905
    2.445   23.0437
    2.460   23.1596
    2.475   23.2649
    2.490   23.8020
    2.505   23.9494
    2.520   24.5919
    2.535   25.4344
    2.550   25.6451
    2.565   26.1401
    2.580   25.4976
    2.595   25.8662
    2.610   26.6772
    2.625   26.1190
    2.640   27.3407
    2.655   27.8568
    2.670   27.7093
    2.685   28.5624
    2.700   28.1833
    2.715   29.7209
    2.730   30.8162
    2.745   31.5113
    2.760   30.3844
    2.775   31.1427
    2.790   32.7014
    2.805   33.5756
    2.820   34.3760
    2.835   34.8710
    2.850   34.3233
    2.865   34.7446
    2.880   35.8820
    2.895   37.0721
    2.910   38.2306
    2.925   40.1474
    2.940   39.8526
    2.955   40.6635
    2.970   42.5908
    2.985   42.9279
    3.000   43.6756
    3.015   45.4555
    3.030   46.5403
    3.045   47.7409
    3.060   48.1517
    3.075   49.9000
    3.090   51.7536
    3.105   53.9968
    3.120   56.1980
    3.135   57.3670
    3.150   58.4308
    3.165   59.5050
    3.180   62.5908
    3.195   65.3502
    3.210   67.4776
    3.225   70.9215
    3.240   73.2175
    3.255   76.6087
    3.270   78.5255
    3.285   81.2638
    3.300   84.9605
    3.315   89.9210
    3.330   96.1453
    3.345  100.2738
    3.360  107.0248
    3.375  114.4708
    3.390  121.1796
    3.405  129.6577
    3.420  139.8210
    3.435  148.2991
    3.450  157.3671
    3.465  164.0653
    3.480  170.2686
    3.495  164.9289
    3.510  152.8278
    3.525  135.0922
    3.540  115.2607
    3.555   94.0811
    3.570   77.7778
    3.585   64.2233
    3.600   55.1343
    3.615   50.9637
    3.630   46.5929
    3.645   44.7288
    3.660   44.4655
    3.675   44.0021
    3.690   42.9489
    3.705   43.0648
    3.720   43.0542
    3.735   45.0764
    3.750   44.9710
    3.765   46.2875
    3.780   47.0669
    3.795   48.3096
    3.810   51.2270
    3.825   52.7962
    3.840   56.3139
    3.855   58.3465
    3.870   60.0105
    3.885   64.0232
    3.900   67.2670
    3.915   69.6367
    3.930   70.4160
    3.945   70.9321
    3.960   71.9958
    3.975   70.6056
    3.990   70.8373
    4.005   72.2170
    4.020   73.1438
    4.035   74.6919
    4.050   77.9463
    4.065   78.0727
    4.080   79.2522
    4.095   78.4308
    4.110   77.6514
    4.125   76.1453
    4.140   74.5340
    4.155   71.6798
    4.170   68.9731
    4.185   63.8020
    4.200   59.5998
    4.215   55.7557
    4.230   52.8910
    4.245   48.2991
    4.260   43.7493
    4.275   41.0743
    4.290   38.3465
    4.305   35.1132
    4.320   31.3007
    4.335   28.2886
    4.350   26.3402
    4.365   23.6440
    4.380   23.0332
    4.395   20.8426
    4.410   19.3681
    4.425   17.9252
    4.440   17.0300
    4.455   15.6187
    4.470   14.8078
    4.485   13.8810
    4.500   13.6072
    4.515   13.5229
    4.530   12.2380
    4.545   12.0800
    4.560   11.3955
    4.575   10.8057
    4.590   10.8373
    4.605   10.5003
    4.620   10.0474
    4.635    9.6261
    4.650    9.3628
    4.665    9.7736
    4.680    9.7209
    4.695    9.3944
    4.710    9.6261
    4.725    8.8784
    4.740    9.0047
    4.755    9.2048
    4.770    8.8573
    4.785    8.9310
    4.800    9.0890
    4.815    8.5624
    4.830    8.6361
    4.845    8.4676
    4.860    8.2886
    4.875    8.7309
    4.890    8.3412
    4.905    7.9410
    4.920    8.5624
    4.935    7.9937
    4.950    8.5308
    4.965    8.6256
    4.980    8.6783
    4.995    8.6151
    5.010    8.2675
    5.025    7.9726
    5.040    8.3834
    5.055    8.5308
    5.070    8.1833
    5.085    8.7941
    5.100    8.5519
    5.115    8.4150
    5.130    8.5729
    5.145    8.8362
    5.160    8.4044
    5.175    8.4044
    5.190    8.3307
    5.205    8.2570
    5.220    8.4360
    5.235    8.1095
    5.250    8.0042
    5.265    8.8573
    5.280    8.7730
    5.295    8.8046
    5.310    8.2570
    5.325    8.4044
    5.340    8.7520
    5.355    9.0469
    5.370    8.8468
    5.385    9.1522
    5.400    8.9731
    5.415    9.0574
    5.430    9.9631
    5.445    9.5840
    5.460    9.4787
    5.475    9.8052
    5.490   10.7214
    5.505   10.6688
    5.520   10.8057
    5.535   11.5850
    5.550   11.0163
    5.565   10.6372
    5.580   10.0263
    5.595    8.7730
    5.610    7.9305
    5.625    7.6145
    5.640    7.2565
    5.655    6.9510
    5.670    7.2459
    5.685    7.5197
    5.700    7.5935
    5.715    7.1301
    5.730    6.9300
    5.745    7.0142
    5.760    6.9616
    5.775    7.0879
    5.790    6.8036
    5.805    6.7615
    5.820    6.9194
    5.835    7.1617
    5.850    7.5619
    5.865    7.0248
    5.880    7.1722
    5.895    7.1722
    5.910    7.3091
    5.925    6.6983
    5.940    6.9089
    5.955    6.7509
    5.970    6.8141
    5.985    7.0669
    6.000    7.2775
    6.015    7.0037
    6.030    7.0248
    6.045    7.1827
    6.060    6.9616
    6.075    7.4460
    6.090    7.3512
    6.105    7.3828
    6.120    6.9300
    6.135    7.5092
    6.150    7.0879
    6.165    7.3196
    6.180    7.4460
    6.195    7.4250
    6.210    7.3091
    6.225    7.1301
    6.240    7.4250
    6.255    7.6988
    6.270    7.4144
    6.285    7.0142
    6.300    7.4355
    6.315    7.4144
    6.330    7.6356
    6.345    7.7514
    6.360    7.7514
    6.375    7.8673
    6.390    7.8146
    6.405    8.1411
    6.420    8.1622
    6.435    7.5935
    6.450    8.4044
    6.465    7.8884
    6.480    8.1622
    6.495    8.5413
    6.510    8.8889
    6.525    8.9310
    6.540    8.5940
    6.555    8.8784
    6.570    9.0258
    6.585   10.1316
    6.600   10.2791
    6.615    9.8999
    6.630   10.2264
    6.645   10.5845
    6.660   10.7320
    6.675   10.5740
    6.690   10.8794
    6.705   11.0269
    6.720   12.0906
    6.735   12.4908
    6.750   12.7436
    6.765   13.2807
    6.780   13.9126
    6.795   14.7973
    6.810   14.6919
    6.825   14.8920
    6.840   15.6925
    6.855   15.7346
    6.870   16.7667
    6.885   18.1991
    6.900   19.3154
    6.915   19.9579
    6.930   22.0537
    6.945   22.8015
    6.960   24.0337
    6.975   24.1811
    6.990   23.4123
    7.005   21.6535
    7.020   20.8320
    7.035   19.0732
    7.050   15.9768
    7.065   13.9126
    7.080   12.4697
    7.095   10.9742
    7.110   10.2054
    7.125    8.9626
    7.140    8.2991
    7.155    8.7414
    7.170    8.1517
    7.185    8.0885
    7.200    8.0042
    7.215    7.4250
    7.230    7.6567
    7.245    8.1727
    7.260    7.6672
    7.275    7.8041
    7.290    7.7409
    7.305    7.7409
    7.320    7.6988
    7.335    7.2670
    7.350    7.2880
    7.365    7.6988
    7.380    7.7620
    7.395    7.2143
    7.410    7.9516
    7.425    8.1938
    7.440    7.9621
    7.455    7.6040
    7.470    7.6988
    7.485    7.7725
    7.500    7.7514
    7.515    8.0779
    7.530    7.6883
    7.545    7.7304
    7.560    8.2149
    7.575    7.5935
    7.590    7.5619
    7.605    8.0990
    7.620    8.2570
    7.635    7.7304
    7.650    8.3623
    7.665    8.4466
    7.680    8.6361
    7.695    8.5203
    7.710    8.9521
    7.725    8.7625
    7.740    9.0363
    7.755    8.8994
    7.770    9.1417
    7.785    9.4050
    7.800    9.4155
    7.815    9.8999
    7.830    9.8368
    7.845    9.6998
    7.860   10.2159
    7.875   10.1316
    7.890   10.0579
    7.905    9.6893
    7.920   10.0369
    7.935   10.8057
    7.950   10.9847
    7.965   10.8899
    7.980   11.3428
    7.995   11.2796
    8.010   11.0269
    8.025   11.6061
    8.040   11.7430
    8.055   11.9115
    8.070   11.8273
    8.085   12.3644
    8.100   12.5434
    8.115   12.9121
    8.130   13.3860
    8.145   12.8699
    8.160   13.2175
    8.175   13.8389
    8.190   13.6598
    8.205   13.8915
    8.220   13.9547
    8.235   14.0074
    8.250   13.5018
    8.265   14.1232
    8.280   13.7757
    8.295   13.8810
    8.310   13.6914
    8.325   13.1964
    8.340   12.7120
    8.355   12.9015
    8.370   13.0174
    8.385   12.9963
    8.400   12.7225
    8.415   12.7225
    8.430   12.7541
    8.445   12.3328
    8.460   12.0274
    8.475   11.7114
    8.490   11.6588
    8.505   11.3428
    8.520   11.7852
    8.535   11.2059
    8.550   11.2164
    8.565   10.9110
    8.580   10.3107
    8.595   10.5635
    8.610   10.5213
    8.625   10.3633
    8.640   10.4687
    8.655    9.9421
    8.670    9.6788
    8.685    9.8262
    8.700    9.5945
    8.715    8.6361
    8.730    8.8784
    8.745    8.9942
    8.760    9.0469
    8.775    8.5940
    8.790    8.4676
    8.805    8.3518
    8.820    8.0042
    8.835    8.2254
    8.850    8.4044
    8.865    7.9831
    8.880    8.3518
    8.895    8.2254
    8.910    8.3939
    8.925    8.1622
    8.940    7.7830
    8.955    7.7725
    8.970    7.6883
    8.985    8.3412
    9.000    7.9200
    9.015    7.8568
    9.030    7.7199
    9.045    7.7620
    9.060    7.7199
    9.075    8.3939
    9.090    8.0358
    9.105    7.9410
    9.120    7.8989
    9.135    8.3096
    9.150    8.0885
    9.165    8.3412
    9.180    8.5624
    9.195    8.4360
    9.210    8.8573
    9.225    8.7941
    9.240    9.4576
    9.255    9.6051
    9.270    9.7946
    9.285    9.6051
    9.300    9.4997
    9.315    9.2680
    9.330    9.4471
    9.345    9.0363
    9.360    9.3628
    9.375    8.7625
    9.390    8.6993
    9.405    9.0258
    9.420    8.4255
    9.435    8.4676
    9.450    8.7414
    9.465    8.3834
    9.480    8.0674
    9.495    8.2464
    9.510    8.0990
    9.525    8.1622
    9.540    8.4992
    9.555    8.5835
    9.570    8.8046
    9.585    8.7625
    9.600    8.5940
    9.615    8.8468
    9.630    8.2570
    9.645    8.3518
    9.660    7.6567
    9.675    7.4144
    9.690    7.5197
    9.705    6.6772
    9.720    6.9194
    9.735    7.2249
    9.750    7.1827
    9.765    6.7930
    9.780    6.9721
    9.795    6.9194
    9.810    6.8036
    9.825    6.5087
    9.840    6.8246
    9.855    7.6461
    9.870    7.0669
    9.885    6.5403
    9.900    6.8773
    9.915    7.5408
    9.930    7.3407
    9.945    7.0458
    9.960    7.0458
    9.975    7.1406
    9.990    7.0669