File: data/MOCOF-1/PXRD/PXRD_KE-086_Cu-Ka1_capillary-1mm_5s-deg.xyd
    1.500   30.3949
    1.530   30.0369
    1.560   29.4050
    1.590   29.9737
    1.620   28.6151
    1.650   28.1622
    1.680   28.5729
    1.710   27.2143
    1.740   27.0879
    1.770   26.8246
    1.800   26.4139
    1.830   25.7820
    1.860   25.2554
    1.890   25.8557
    1.920   24.4128
    1.950   24.7920
    1.980   25.6345
    2.010   24.9078
    2.040   24.8657
    2.070   24.7077
    2.100   23.9916
    2.130   24.4655
    2.160   24.4023
    2.190   24.4866
    2.220   23.5598
    2.250   24.4128
    2.280   25.0132
    2.310   25.4450
    2.340   24.6551
    2.370   24.9921
    2.400   24.8131
    2.430   25.3818
    2.460   26.5298
    2.490   26.0453
    2.520   26.1717
    2.550   27.0879
    2.580   27.8041
    2.610   28.1833
    2.640   29.2048
    2.670   28.7204
    2.700   30.0369
    2.730   30.7952
    2.760   32.1011
    2.790   32.4908
    2.820   33.6598
    2.850   35.2817
    2.880   35.3028
    2.910   37.6514
    2.940   38.9784
    2.970   41.0005
    3.000   42.8120
    3.030   44.8341
    3.060   48.1201
    3.090   49.7736
    3.120   52.3960
    3.150   54.6814
    3.180   59.0837
    3.210   61.0005
    3.240   66.0242
    3.270   71.3428
    3.300   78.5361
    3.330   83.6967
    3.360   94.7341
    3.390  104.2970
    3.420  116.0506
    3.450  123.5282
    3.480  120.2422
    3.510  103.5492
    3.540   88.8362
    3.570   81.4007
    3.600   78.8731
    3.630   84.0442
    3.660   89.4471
    3.690   95.4502
    3.720  103.9495
    3.750  119.6314
    3.780  134.3233
    3.810  160.0421
    3.840  202.8963
    3.870  238.4729
    3.900  218.6519
    3.930  125.0237
    3.960   58.3254
    3.990   46.2033
    4.020   44.9394
    4.050   44.6130
    4.080   43.3913
    4.110   42.1590
    4.140   40.0737
    4.170   38.2201
    4.200   35.1869
    4.230   32.3855
    4.260   29.6156
    4.290   25.4976
    4.320   22.9279
    4.350   19.8526
    4.380   18.4413
    4.410   17.1459
    4.440   15.6293
    4.470   14.7130
    4.500   13.9126
    4.530   13.5334
    4.560   13.5334
    4.590   12.6804
    4.620   12.6698
    4.650   12.8805
    4.680   12.9858
    4.710   13.1648
    4.740   12.2907
    4.770   12.7436
    4.800   12.7120
    4.830   12.8278
    4.860   13.1122
    4.890   13.5650
    4.920   13.3333
    4.950   13.2701
    4.980   13.6598
    5.010   14.0706
    5.040   15.4397
    5.070   14.7446
    5.100   15.1553
    5.130   16.0506
    5.160   16.6614
    5.190   17.2407
    5.220   17.5461
    5.250   18.7256
    5.280   20.3265
    5.310   21.6219
    5.340   23.7283
    5.370   25.8452
    5.400   30.0158
    5.430   33.8705
    5.460   42.7172
    5.490   49.5208
    5.520   46.2875
    5.550   29.3312
    5.580   13.7546
    5.610   10.2686
    5.640   10.3212
    5.670    9.7104
    5.700    9.8157
    5.730    9.7314
    5.760    9.4365
    5.790    9.6577
    5.820    9.7209
    5.850    9.6998
    5.880    9.8578
    5.910    9.1838
    5.940    8.9521
    5.970    9.4892
    6.000    9.7104
    6.030    9.1838
    6.060    9.4260
    6.090    9.7209
    6.120    9.6156
    6.150    9.9315
    6.180    9.3418
    6.210    9.7946
    6.240    9.4260
    6.270    9.4787
    6.300   10.3633
    6.330   10.2264
    6.360   10.6372
    6.390   10.2791
    6.420   10.6477
    6.450   11.0269
    6.480   10.9531
    6.510   11.3849
    6.540   11.7009
    6.570   12.3539
    6.600   11.7536
    6.630   13.2280
    6.660   13.7546
    6.690   15.7978
    6.720   17.0932
    6.750   17.9989
    6.780   16.6193
    6.810   14.8815
    6.840   13.9021
    6.870   14.3128
    6.900   15.5977
    6.930   16.9352
    6.960   17.4302
    6.990   15.7662
    7.020   13.5124
    7.050   11.7430
    7.080   10.8373
    7.110   10.3107
    7.140    9.6682
    7.170   10.1211
    7.200    9.5313
    7.230    9.9105
    7.260   10.2159
    7.290   10.1106
    7.320    9.8052
    7.350   10.1211
    7.380   10.7741
    7.410   10.2264
    7.440   10.7320
    7.470   10.3844
    7.500   11.3639
    7.530   11.4271
    7.560   11.3428
    7.590   11.7957
    7.620   12.8594
    7.650   12.8805
    7.680   14.2285
    7.710   15.0395
    7.740   17.0195
    7.770   19.6525
    7.800   21.1901
    7.830   18.4202
    7.860   13.5334
    7.890   11.3112
    7.920   10.3528
    7.950   10.5108
    7.980   10.9953
    8.010   11.1427
    8.040   10.8268
    8.070   11.2586
    8.100   10.9847
    8.130   11.2902
    8.160   11.3533
    8.190   11.7114
    8.220   11.6061
    8.250   11.8062
    8.280   11.7746
    8.310   11.2270
    8.340   12.0484
    8.370   11.7852
    8.400   11.4587
    8.430   11.6904
    8.460   10.9215
    8.490   11.5324
    8.520   11.3323
    8.550   11.2270
    8.580   11.0269
    8.610   11.3744
    8.640   11.1006
    8.670   10.8373
    8.700   12.3012
    8.730   11.1532
    8.760   11.1111
    8.790    9.7525
    8.820    9.9631
    8.850    9.4787
    8.880    9.8578
    8.910    9.6367
    8.940    9.3207
    8.970    9.5208
    9.000    9.4892
    9.030    9.1732
    9.060    9.7630
    9.090    9.6788
    9.120    9.5524
    9.150   10.1422
    9.180   10.0263
    9.210   10.0790
    9.240   11.1638
    9.270   10.9426
    9.300   11.4481
    9.330   12.0484
    9.360   12.7436
    9.390   13.6493
    9.420   14.8394
    9.450   17.1248
    9.480   18.1991
    9.510   22.1485
    9.540   25.4344
    9.570   26.7299
    9.600   21.4850
    9.630   13.8810
    9.660   10.7530
    9.690    9.1838
    9.720    8.9626
    9.750    9.0679
    9.780    9.1627
    9.810    9.4050
    9.840    8.7414
    9.870    9.2259
    9.900    8.7414
    9.930    9.4892
    9.960    9.1838
    9.990    9.5629
   10.020    9.0047
   10.050    8.8994
   10.080    9.6367
   10.110    9.9842
   10.140   10.2159
   10.170   10.1527
   10.200   11.1638
   10.230   12.1327
   10.260   12.1116
   10.290   13.6072
   10.320   14.8289
   10.350   14.6709
   10.380   12.7751
   10.410   10.9215
   10.440    9.4050
   10.470    9.3312
   10.500    9.4576
   10.530    9.6472
   10.560    9.5524
   10.590    8.9415
   10.620    8.9731
   10.650    9.0047
   10.680    9.1732
   10.710    8.8046
   10.740    9.0469
   10.770    9.8157
   10.800    9.8894
   10.830    9.7841
   10.860   10.2159
   10.890   10.0158
   10.920   10.5424
   10.950   11.3533
   10.980   12.4487
   11.010   13.7757
   11.040   15.1659
   11.070   14.6182
   11.100   12.0063
   11.130   10.2159
   11.160    9.3523
   11.190    8.6045
   11.220    9.0047
   11.250    8.4887
   11.280    9.1101
   11.310    8.7414
   11.340    8.8468
   11.370    9.1101
   11.400    9.1732
   11.430    9.0785
   11.460    9.0363
   11.490    9.5840
   11.520    9.5419
   11.550   10.2159
   11.580   10.3528
   11.610   10.9321
   11.640   11.3849
   11.670   13.2912
   11.700   14.5234
   11.730   15.8294
   11.760   13.9337
   11.790   11.1006
   11.820    9.1417
   11.850    8.4887
   11.880    9.1522
   11.910    8.5940
   11.940    8.6256
   11.970    8.2359
   12.000    8.4466
   12.030    8.9521
   12.060    8.3518
   12.090    9.4365
   12.120    8.8678
   12.150    9.0995
   12.180    8.9310
   12.210    9.2680
   12.240    9.4892
   12.270    9.2786
   12.300    9.5735
   12.330    9.2786
   12.360    9.9526
   12.390    9.2786
   12.420    8.4676
   12.450    8.6677
   12.480    8.7836
   12.510    8.6888
   12.540    8.8573
   12.570    8.5835
   12.600    8.4360
   12.630    8.4466
   12.660    8.4150
   12.690    9.3839
   12.720    9.2575
   12.750    9.5524
   12.780    9.5945
   12.810    9.6682
   12.840    9.2680
   12.870   10.4055
   12.900   11.0374
   12.930   12.1854
   12.960   12.9858
   12.990   12.4592
   13.020   10.6898
   13.050    9.1101
   13.080    8.7309
   13.110    8.5097
   13.140    8.6572
   13.170    8.3623
   13.200    8.4676
   13.230    8.3307
   13.260    8.8573
   13.290    8.3202
   13.320    8.6888
   13.350    8.2780
   13.380    8.3834
   13.410    8.8362
   13.440    8.8152
   13.470    9.6156
   13.500    9.9631
   13.530   10.0263
   13.560   10.5108
   13.590   10.1843
   13.620    9.1522
   13.650    8.4255
   13.680    8.9521
   13.710    7.8568
   13.740    8.3518
   13.770    8.8468
   13.800    8.7836
   13.830    8.5729
   13.860    8.6256
   13.890    8.7520
   13.920    8.8573
   13.950    9.0258
   13.980    9.1417
   14.010    9.4997
   14.040   10.5213
   14.070   11.2480
   14.100   11.9747
   14.130   11.7641
   14.160   10.5740
   14.190    9.2470
   14.220    8.0569
   14.250    8.0990
   14.280    8.1306
   14.310    8.0674
   14.340    7.9094
   14.370    7.9726
   14.400    8.1201
   14.430    8.6993
   14.460    8.0042
   14.490    7.5829
   14.520    7.7199
   14.550    7.6883
   14.580    7.8252
   14.610    7.9726
   14.640    7.8884
   14.670    8.0674
   14.700    8.1095
   14.730    7.6988
   14.760    7.8568
   14.790    8.0779
   14.820    8.1517
   14.850    7.7830
   14.880    7.8778
   14.910    7.7304
   14.940    7.8252
   14.970    8.1517
   15.000    8.1095
   15.030    7.8673
   15.060    8.3096
   15.090    8.4887
   15.120    8.8889
   15.150    9.1522
   15.180    9.7209
   15.210    8.7204
   15.240    8.4992
   15.270    8.1622
   15.300    7.7620
   15.330    8.2886
   15.360    8.4676
   15.390    8.0042
   15.420    7.7514
   15.450    8.3518
   15.480    8.1622
   15.510    8.1517
   15.540    7.7199
   15.570    7.8357
   15.600    8.2780
   15.630    8.4887
   15.660    8.3623
   15.690    8.4360
   15.720    8.1938
   15.750    8.3939
   15.780    7.7830
   15.810    8.1517
   15.840    8.2043
   15.870    7.9937
   15.900    7.8568
   15.930    8.0147
   15.960    7.9410
   15.990    8.7204
   16.020    8.1833
   16.050    9.0469
   16.080    8.8573
   16.110    9.1732
   16.140    9.4576
   16.170    9.5629
   16.200    9.1943
   16.230    8.8257
   16.260    8.3939
   16.290    8.1833
   16.320    7.8884
   16.350    7.5513
   16.380    8.3728
   16.410    8.1306
   16.440    8.4676
   16.470    8.3412
   16.500    8.3202
   16.530    8.4887
   16.560    8.3518
   16.590    9.0047
   16.620    9.7946
   16.650    9.5208
   16.680    8.7836
   16.710    8.4466
   16.740    8.6256
   16.770    8.3412
   16.800    8.3834
   16.830    8.3412
   16.860    8.2570
   16.890    8.0674
   16.920    8.5519
   16.950    8.7098
   16.980    9.1838
   17.010    9.6051
   17.040    9.7946
   17.070   11.3323
   17.100   10.9005
   17.130   10.1211
   17.160    9.0047
   17.190    8.6783
   17.220    8.5413
   17.250    7.9200
   17.280    7.7936
   17.310    8.5835
   17.340    7.9621
   17.370    8.1833
   17.400    8.1517
   17.430    7.7936
   17.460    8.6888
   17.490    8.7625
   17.520    9.0363
   17.550    8.6783
   17.580    8.5413
   17.610    8.1095
   17.640    8.2043
   17.670    8.1517
   17.700    7.5829
   17.730    8.1095
   17.760    8.5097
   17.790    8.5729
   17.820    7.9094
   17.850    7.8357
   17.880    8.1833
   17.910    8.2464
   17.940    8.3623
   17.970    8.6677
   18.000    8.9310
   18.030    8.4781
   18.060    7.8884
   18.090    8.5203
   18.120    8.1095
   18.150    7.9094
   18.180    8.3939
   18.210    7.9516
   18.240    8.0885
   18.270    8.4571
   18.300    8.9837
   18.330    8.4466
   18.360    8.6888
   18.390    9.0258
   18.420    8.8468
   18.450    8.7520
   18.480    8.1517
   18.510    8.1833
   18.540    8.1306
   18.570    8.4255
   18.600    7.6777
   18.630    8.3518
   18.660    8.0569
   18.690    7.7620
   18.720    8.2359
   18.750    8.4150
   18.780    8.2359
   18.810    8.4676
   18.840    8.7730
   18.870    8.2254
   18.900    8.0779
   18.930    8.5940
   18.960    8.0779
   18.990    8.3202
   19.020    8.4992
   19.050    8.0569
   19.080    8.0990
   19.110    8.0885
   19.140    8.4255
   19.170    8.4466
   19.200    8.6151
   19.230    8.1833
   19.260    8.1201
   19.290    8.3307
   19.320    7.9831
   19.350    8.2464
   19.380    8.1622
   19.410    8.1727
   19.440    8.1201
   19.470    8.4255
   19.500    8.3939
   19.530    9.1627
   19.560    8.9731
   19.590    9.1838
   19.620    9.6682
   19.650   10.2264
   19.680    9.1522
   19.710    8.8678
   19.740    8.5940
   19.770    9.1838
   19.800    8.5413
   19.830    8.5624
   19.860    8.3518
   19.890    8.2991
   19.920    8.5413
   19.950    8.4466
   19.980    8.7836
   20.010    8.4887
   20.040    8.7204
   20.070    8.5729
   20.100    8.9521
   20.130    8.5940
   20.160    8.5835
   20.190    8.8046
   20.220    8.9310
   20.250    9.0679
   20.280    9.0890
   20.310    9.5840
   20.340   10.0053
   20.370   10.3844
   20.400   10.9953
   20.430   11.0795
   20.460    9.8578
   20.490    9.5629
   20.520    8.8468
   20.550    8.4992
   20.580    8.5729
   20.610    8.0569
   20.640    8.4466
   20.670    8.8257
   20.700    8.4466
   20.730    8.5940
   20.760    8.2359
   20.790    8.4992
   20.820    8.3728
   20.850    8.5308
   20.880    8.6361
   20.910    8.2464
   20.940    8.2149
   20.970    8.8152
   21.000    8.8362
   21.030    8.4781
   21.060    8.5097
   21.090    8.6888
   21.120    9.0995
   21.150    8.2149
   21.180    8.9521
   21.210    8.4676
   21.240    8.9626
   21.270    8.8046
   21.300    8.6888
   21.330    8.5624
   21.360    8.3728
   21.390    8.5519
   21.420    8.3939
   21.450    8.7098
   21.480    8.2464
   21.510    8.8468
   21.540    8.6888
   21.570    8.4781
   21.600    8.8784
   21.630    8.0779
   21.660    8.2043
   21.690    8.3518
   21.720    8.7836
   21.750    8.6677
   21.780    9.0153
   21.810    9.0363
   21.840    9.2575
   21.870    9.4260
   21.900    9.7525
   21.930    9.0153
   21.960    9.6367
   21.990    9.1417
   22.020    8.6256
   22.050    8.8573
   22.080    8.2780
   22.110    8.5097
   22.140    8.4466
   22.170    9.3102
   22.200    8.8573
   22.230    8.9415
   22.260    9.1206
   22.290    9.4892
   22.320    9.4155
   22.350    9.0785
   22.380    8.6256
   22.410    9.2259
   22.440    8.9942
   22.470    9.9105
   22.500    9.6998
   22.530   10.9110
   22.560   11.2059
   22.590   11.6482
   22.620   11.5745
   22.650   10.4265
   22.680    9.7420
   22.710    9.5313
   22.740    9.1206
   22.770    9.0363
   22.800    9.2680
   22.830    9.8157
   22.860   10.5213
   22.890   11.0269
   22.920   11.1427
   22.950   11.3744
   22.980   10.8794
   23.010   10.5108
   23.040    9.7420
   23.070    8.7836
   23.100    8.6572
   23.130    8.7204
   23.160    8.8152
   23.190    8.9942
   23.220    9.2154
   23.250    9.5735
   23.280    9.5103
   23.310    9.6051
   23.340    8.9415
   23.370    8.7625
   23.400    8.9942
   23.430    8.5413
   23.460    8.7836
   23.490    8.8468
   23.520    8.5835
   23.550    8.5413
   23.580    8.7204
   23.610    8.4887
   23.640    8.5203
   23.670    8.5835
   23.700    8.4887
   23.730    8.4781
   23.760    8.1727
   23.790    8.2886
   23.820    8.5835
   23.850    8.6572
   23.880    9.0785
   23.910    9.3839
   23.940    9.0995
   23.970    9.3839
   24.000    8.9521
   24.030    8.5308
   24.060    8.4992
   24.090    8.3307
   24.120    8.3096
   24.150    8.4571
   24.180    8.1938
   24.210    8.1306
   24.240    8.3728
   24.270    8.2991
   24.300    8.0463
   24.330    8.4887
   24.360    8.0885
   24.390    8.3202
   24.420    8.1938
   24.450    8.3307
   24.480    8.3834
   24.510    8.8257
   24.540    8.5308
   24.570    8.6572
   24.600    8.8257
   24.630    8.8362
   24.660    8.4992
   24.690    8.4676
   24.720    8.0147
   24.750    8.1201
   24.780    8.2254
   24.810    7.8884
   24.840    8.1095
   24.870    8.5835
   24.900    8.2254
   24.930    8.7941
   24.960    8.4360
   24.990    8.0885
   25.020    7.8462
   25.050    7.9726
   25.080    8.1727
   25.110    8.0779
   25.140    7.9726
   25.170    8.0885
   25.200    8.5519
   25.230    8.5940
   25.260    8.1833
   25.290    8.3518
   25.320    7.9831
   25.350    8.7309
   25.380    8.2254
   25.410    8.1622
   25.440    8.7520
   25.470    8.6572
   25.500    8.5940
   25.530    8.5203
   25.560    8.6151
   25.590    8.3307
   25.620    8.2254
   25.650    7.9726
   25.680    8.6151
   25.710    8.3307
   25.740    8.7098
   25.770    9.4471
   25.800    9.2259
   25.830   10.1948
   25.860   10.1738
   25.890    9.8578
   25.920    9.0890
   25.950    8.2675
   25.980    8.5519
   26.010    8.5413
   26.040    8.4255
   26.070    8.1517
   26.100    8.3623
   26.130    8.0463
   26.160    7.9937
   26.190    7.9410
   26.220    7.5092
   26.250    8.2675
   26.280    7.8778
   26.310    7.9410
   26.340    8.2570
   26.370    8.3728
   26.400    8.5624
   26.430    8.4255
   26.460    8.3834
   26.490    8.2043
   26.520    8.3307
   26.550    7.7725
   26.580    7.6461
   26.610    8.0253
   26.640    7.8357
   26.670    7.3828
   26.700    7.8462
   26.730    7.6567
   26.760    7.6251
   26.790    7.9410
   26.820    7.9937
   26.850    7.5092
   26.880    7.6251
   26.910    7.9726
   26.940    8.1622
   26.970    8.0990
   27.000    8.4466
   27.030    8.7520
   27.060    8.5729
   27.090    9.0574
   27.120    7.9831
   27.150    8.3728
   27.180    7.9726
   27.210    7.8673
   27.240    7.1617
   27.270    7.2354
   27.300    8.0990
   27.330    7.4671
   27.360    7.4776
   27.390    7.6883
   27.420    7.8884
   27.450    7.5724
   27.480    7.7830
   27.510    7.8778
   27.540    7.8252
   27.570    8.2780
   27.600    8.0147
   27.630    7.7304
   27.660    8.0569
   27.690    7.5619
   27.720    7.8778
   27.750    7.9094
   27.780    7.7620
   27.810    7.9621
   27.840    7.5408
   27.870    8.2149
   27.900    7.7093
   27.930    7.8041
   27.960    7.6777
   27.990    7.8778
   28.020    8.1411
   28.050    7.8462
   28.080    8.2886
   28.110    8.0042
   28.140    7.9516
   28.170    8.6572
   28.200    8.3623
   28.230    8.4255
   28.260    8.3412
   28.290    8.5203
   28.320    8.1833
   28.350    8.3412
   28.380    7.9305
   28.410    7.9726
   28.440    8.3096
   28.470    8.6045
   28.500    8.4255
   28.530    8.3202
   28.560    8.3202
   28.590    7.8673
   28.620    7.9094
   28.650    7.3196
   28.680    7.6988
   28.710    7.1617
   28.740    7.5408
   28.770    7.8989
   28.800    7.5829
   28.830    6.9300
   28.860    7.4039
   28.890    7.6461
   28.920    7.6145
   28.950    7.4355
   28.980    7.7409
   29.010    7.9094
   29.040    7.4671
   29.070    7.4671
   29.100    7.7620
   29.130    7.5197
   29.160    7.2775
   29.190    7.4039
   29.220    7.6145
   29.250    7.8568
   29.280    7.9831
   29.310    8.6572
   29.340    8.3202
   29.370    7.8989
   29.400    8.2991
   29.430    7.2143
   29.460    7.5408
   29.490    7.5197
   29.520    7.2670
   29.550    7.4144
   29.580    7.5935
   29.610    7.5619
   29.640    7.5303
   29.670    7.5303
   29.700    7.5619
   29.730    7.1722
   29.760    7.6567
   29.790    7.6883
   29.820    7.0774
   29.850    8.2675
   29.880    7.5408
   29.910    7.6356
   29.940    7.3196
   29.970    7.8252
   30.000    7.5197
   30.030    7.3407
   30.060    7.6356
   30.090    7.3302
   30.120    7.6461
   30.150    7.5408
   30.180    7.3512
   30.210    7.6251
   30.240    7.4250
   30.270    7.0563
   30.300    7.0879
   30.330    6.9510
   30.360    7.4460
   30.390    7.4355
   30.420    7.5513
   30.450    6.9721
   30.480    7.0248
   30.510    7.0458
   30.540    7.4250
   30.570    7.0142
   30.600    7.1933
   30.630    7.3934
   30.660    7.4566
   30.690    7.6461
   30.720    8.0990
   30.750    7.0669
   30.780    7.3723
   30.810    7.3934
   30.840    7.5935
   30.870    7.4987
   30.900    6.8352
   30.930    7.1511
   30.960    7.0563
   30.990    7.1617
   31.020    7.5935
   31.050    6.9405
   31.080    7.0353
   31.110    7.3618
   31.140    7.3196
   31.170    7.3407
   31.200    7.2775
   31.230    7.2459
   31.260    7.5829
   31.290    7.1722
   31.320    7.5513
   31.350    7.5829
   31.380    7.2775
   31.410    7.7199
   31.440    7.7199
   31.470    7.7725
   31.500    7.3512
   31.530    6.8668
   31.560    7.5092
   31.590    7.0879
   31.620    7.8462
   31.650    7.8041
   31.680    7.5408
   31.710    7.6883
   31.740    7.7304
   31.770    7.8146
   31.800    8.0042
   31.830    8.0569
   31.860    8.2043
   31.890    8.1727
   31.920    7.6672
   31.950    7.8884
   31.980    7.2565
   32.010    7.6251
   32.040    7.3302
   32.070    7.4671
   32.100    7.1195
   32.130    7.1933
   32.160    7.1722
   32.190    7.6040
   32.220    7.3407
   32.250    7.3723
   32.280    7.2354
   32.310    6.7930
   32.340    7.4355
   32.370    7.0985
   32.400    6.8773
   32.430    7.1827
   32.460    6.9932
   32.490    7.4250
   32.520    6.8141
   32.550    6.8457
   32.580    7.5197
   32.610    7.0774
   32.640    7.1090
   32.670    7.0458
   32.700    7.1406
   32.730    7.0248
   32.760    7.0669
   32.790    6.6456
   32.820    7.2249
   32.850    7.2354
   32.880    7.1617
   32.910    7.1827
   32.940    7.0669
   32.970    7.2354
   33.000    6.8562
   33.030    7.1933
   33.060    6.8457
   33.090    6.9194
   33.120    7.4355
   33.150    6.8668
   33.180    7.1406
   33.210    7.1195
   33.240    6.7299
   33.270    6.8668
   33.300    7.0037
   33.330    7.1195
   33.360    6.7825
   33.390    6.8141
   33.420    6.6983
   33.450    7.1301
   33.480    7.0458
   33.510    6.8352
   33.540    6.6983
   33.570    7.0142
   33.600    6.9194
   33.630    7.1301
   33.660    7.3091
   33.690    7.4566
   33.720    6.6877
   33.750    7.3091
   33.780    6.9826
   33.810    7.4460
   33.840    7.0248
   33.870    7.5303
   33.900    7.6777
   33.930    7.4566
   33.960    7.2565
   33.990    7.4987
   34.020    7.2143
   34.050    7.2143
   34.080    7.3407
   34.110    6.6877
   34.140    7.3091
   34.170    6.8352
   34.200    6.7509
   34.230    6.5298
   34.260    6.6140
   34.290    6.7299
   34.320    7.0669
   34.350    6.9510
   34.380    6.9721
   34.410    7.2459
   34.440    6.6983
   34.470    6.6983
   34.500    6.6351
   34.530    6.4139
   34.560    6.9405
   34.590    6.9405
   34.620    6.4666
   34.650    6.7088
   34.680    6.9405
   34.710    7.0248
   34.740    6.6245
   34.770    6.7509
   34.800    6.6035
   34.830    6.6877
   34.860    6.7825
   34.890    6.9721
   34.920    6.5719
   34.950    7.1827
   34.980    6.7930
   35.010    7.1933
   35.040    6.6877
   35.070    6.6667
   35.100    6.9300
   35.130    6.4244
   35.160    6.6877
   35.190    6.8984
   35.220    6.6667
   35.250    7.0142
   35.280    6.7404
   35.310    6.8352
   35.340    6.6351
   35.370    6.7825
   35.400    6.7825
   35.430    6.7615
   35.460    6.8141
   35.490    6.6035
   35.520    6.2138
   35.550    6.7615
   35.580    6.5192
   35.610    6.6772
   35.640    6.4034
   35.670    6.8984
   35.700    6.6877
   35.730    6.8773
   35.760    6.5087
   35.790    6.6877
   35.820    6.6983
   35.850    6.8036
   35.880    6.7088
   35.910    6.4666
   35.940    6.5087
   35.970    6.3612
   36.000    6.8141
   36.030    6.4455
   36.060    7.1827
   36.090    6.7615
   36.120    6.9616
   36.150    7.2249
   36.180    6.8036
   36.210    6.8984
   36.240    6.6877
   36.270    6.7615
   36.300    6.8984
   36.330    6.7088
   36.360    6.7930
   36.390    6.2243
   36.420    6.5929
   36.450    6.5824
   36.480    6.6667
   36.510    6.8984
   36.540    6.2981
   36.570    6.6456
   36.600    6.4455
   36.630    6.7930
   36.660    6.9932
   36.690    6.3928
   36.720    6.1717
   36.750    6.9826
   36.780    6.6140
   36.810    6.5719
   36.840    6.4771
   36.870    6.5192
   36.900    6.3086
   36.930    6.2770
   36.960    6.6667
   36.990    6.3296
   37.020    6.7720
   37.050    7.1195
   37.080    7.0248
   37.110    7.0774
   37.140    6.8878
   37.170    6.7404
   37.200    7.0458
   37.230    6.4244
   37.260    6.3086
   37.290    6.4455
   37.320    6.2138
   37.350    6.4350
   37.380    6.7509
   37.410    6.2981
   37.440    6.6877
   37.470    6.6140
   37.500    6.7193
   37.530    6.7615
   37.560    6.2454
   37.590    6.5403
   37.620    6.6561
   37.650    6.4560
   37.680    6.7825
   37.710    6.6667
   37.740    6.6561
   37.770    6.9932
   37.800    6.7404
   37.830    6.8246
   37.860    6.7930
   37.890    6.5719
   37.920    6.3402
   37.950    6.6561
   37.980    6.4876
   38.010    6.3402
   38.040    6.6877
   38.070    7.0563
   38.100    6.4876
   38.130    6.2981
   38.160    6.3507
   38.190    6.4034
   38.220    6.7193
   38.250    6.6983
   38.280    6.3928
   38.310    6.3296
   38.340    6.6772
   38.370    6.5824
   38.400    6.4455
   38.430    6.2665
   38.460    6.6877
   38.490    6.3718
   38.520    6.3086
   38.550    6.6035
   38.580    6.4876
   38.610    6.3928
   38.640    6.6140
   38.670    6.7509
   38.700    6.6245
   38.730    6.2349
   38.760    6.5719
   38.790    6.2138
   38.820    6.2559
   38.850    6.7193
   38.880    6.5298
   38.910    6.3507
   38.940    6.3507
   38.970    6.7299
   39.000    6.6456
   39.030    6.2981
   39.060    6.1611
   39.090    6.4139
   39.120    6.6035
   39.150    6.1611
   39.180    6.6877
   39.210    6.4876
   39.240    6.5403
   39.270    6.6667
   39.300    6.5087
   39.330    6.5192
   39.360    6.9510
   39.390    6.7720
   39.420    6.6035
   39.450    6.8352
   39.480    6.2770
   39.510    6.5298
   39.540    6.3507
   39.570    6.7825
   39.600    6.4139
   39.630    6.1401
   39.660    6.2665
   39.690    6.3928
   39.720    6.4350
   39.750    6.2349
   39.780    6.3402
   39.810    6.1717
   39.840    6.6456
   39.870    6.3086
   39.900    6.5403
   39.930    6.1611
   39.960    6.2033
   39.990    6.6456