File: data/MOCOF-1/PXRD/PXRD_KE-152_Cu-Ka1_film-3mm_5s-deg.xyd
    1.500    7.4039
    1.530    7.2565
    1.560    7.2775
    1.590    7.0458
    1.620    7.0985
    1.650    7.1827
    1.680    7.0248
    1.710    6.7825
    1.740    7.0142
    1.770    6.4771
    1.800    6.7825
    1.830    6.4034
    1.860    6.1611
    1.890    6.5719
    1.920    6.0769
    1.950    6.1822
    1.980    5.8768
    2.010    6.1401
    2.040    6.1085
    2.070    6.0874
    2.100    5.6345
    2.130    5.6872
    2.160    6.0348
    2.190    5.6451
    2.220    5.9505
    2.250    5.5398
    2.280    5.2343
    2.310    5.4976
    2.340    5.7083
    2.370    5.7188
    2.400    5.4028
    2.430    5.5924
    2.460    6.0032
    2.490    5.4871
    2.520    5.1185
    2.550    5.1395
    2.580    5.4028
    2.610    5.3923
    2.640    5.2870
    2.670    5.5924
    2.700    5.1922
    2.730    5.0869
    2.760    5.3081
    2.790    5.0448
    2.820    5.2343
    2.850    4.8868
    2.880    4.8025
    2.910    4.9816
    2.940    5.2449
    2.970    5.1395
    3.000    5.2659
    3.030    5.0342
    3.060    5.1185
    3.090    4.8657
    3.120    4.9184
    3.150    4.7183
    3.180    4.7920
    3.210    4.6235
    3.240    4.8552
    3.270    4.7815
    3.300    4.7393
    3.330    5.0658
    3.360    4.8973
    3.390    4.9921
    3.420    5.2554
    3.450    4.7183
    3.480    4.8868
    3.510    4.9078
    3.540    5.0448
    3.570    4.6972
    3.600    4.7077
    3.630    5.1501
    3.660    4.7709
    3.690    4.8763
    3.720    4.5708
    3.750    4.9394
    3.780    4.6761
    3.810    4.8236
    3.840    4.9921
    3.870    5.1606
    3.900    5.0974
    3.930    4.5392
    3.960    5.0342
    3.990    4.8868
    4.020    4.8868
    4.050    4.8973
    4.080    4.6761
    4.110    4.9921
    4.140    4.7499
    4.170    4.8447
    4.200    4.8657
    4.230    4.8973
    4.260    4.9816
    4.290    4.8868
    4.320    4.8868
    4.350    4.7499
    4.380    5.1185
    4.410    4.9500
    4.440    5.0869
    4.470    5.4344
    4.500    5.2343
    4.530    5.1290
    4.560    5.0026
    4.590    5.2238
    4.620    4.8552
    4.650    5.0448
    4.680    4.8236
    4.710    5.3818
    4.740    5.2554
    4.770    5.1606
    4.800    4.9394
    4.830    5.3186
    4.860    5.0026
    4.890    5.2449
    4.920    5.2659
    4.950    5.4239
    4.980    5.5082
    5.010    5.6556
    5.040    5.8978
    5.070    5.9610
    5.100    5.5187
    5.130    5.6451
    5.160    5.9610
    5.190    5.9716
    5.220    6.1506
    5.250    6.2665
    5.280    6.2770
    5.310    6.3402
    5.340    6.5929
    5.370    6.6140
    5.400    7.0563
    5.430    6.6561
    5.460    7.2249
    5.490    6.6351
    5.520    6.9616
    5.550    6.8878
    5.580    7.0879
    5.610    6.6667
    5.640    6.4350
    5.670    6.7404
    5.700    6.7615
    5.730    6.4771
    5.760    5.9716
    5.790    5.8768
    5.820    6.3718
    5.850    5.8662
    5.880    6.2770
    5.910    5.8136
    5.940    5.2133
    5.970    5.5398
    6.000    5.4134
    6.030    5.3712
    6.060    5.5714
    6.090    5.2449
    6.120    4.9184
    6.150    5.1711
    6.180    5.4660
    6.210    5.1922
    6.240    5.0237
    6.270    5.1501
    6.300    5.0553
    6.330    4.6656
    6.360    4.8447
    6.390    4.8131
    6.420    4.7393
    6.450    4.6551
    6.480    4.4550
    6.510    4.8868
    6.540    4.4760
    6.570    4.1180
    6.600    4.4444
    6.630    4.8973
    6.660    4.4971
    6.690    4.5603
    6.720    4.3918
    6.750    4.4234
    6.780    4.3497
    6.810    4.3075
    6.840    4.1285
    6.870    4.1706
    6.900    4.4023
    6.930    4.2759
    6.960    4.0442
    6.990    4.4023
    7.020    4.0758
    7.050    4.3918
    7.080    3.6967
    7.110    4.1074
    7.140    3.8863
    7.170    4.2127
    7.200    3.9810
    7.230    3.8020
    7.260    4.0548
    7.290    3.8757
    7.320    3.6651
    7.350    3.7283
    7.380    3.7072
    7.410    3.6546
    7.440    3.4544
    7.470    3.5703
    7.500    3.4334
    7.530    3.5387
    7.560    3.5703
    7.590    3.6546
    7.620    3.4018
    7.650    3.5282
    7.680    3.5914
    7.710    3.4755
    7.740    3.5071
    7.770    3.4650
    7.800    3.3386
    7.830    3.5282
    7.860    3.3070
    7.890    3.4544
    7.920    3.3491
    7.950    3.5071
    7.980    3.1174
    8.010    3.2965
    8.040    3.1490
    8.070    3.1069
    8.100    3.1912
    8.130    3.4755
    8.160    3.3175
    8.190    3.0332
    8.220    3.0858
    8.250    3.2649
    8.280    3.1701
    8.310    3.0753
    8.340    3.0964
    8.370    3.1174
    8.400    3.0753
    8.430    3.0648
    8.460    3.2122
    8.490    2.9489
    8.520    2.7909
    8.550    3.1280
    8.580    2.9279
    8.610    2.8963
    8.640    3.0016
    8.670    2.9700
    8.700    2.9384
    8.730    2.8857
    8.760    3.1069
    8.790    2.7067
    8.820    2.9173
    8.850    2.8963
    8.880    2.8015
    8.910    3.1596
    8.940    2.9384
    8.970    2.8331
    9.000    3.1701
    9.030    3.1385
    9.060    2.8647
    9.090    2.8857
    9.120    2.9805
    9.150    2.9068
    9.180    2.7067
    9.210    2.8331
    9.240    2.9068
    9.270    2.7593
    9.300    2.8120
    9.330    2.7593
    9.360    2.8647
    9.390    2.6646
    9.420    3.0332
    9.450    2.8541
    9.480    2.7488
    9.510    2.6962
    9.540    2.9068
    9.570    2.6224
    9.600    2.6330
    9.630    2.8120
    9.660    2.8541
    9.690    2.7699
    9.720    2.8120
    9.750    2.9805
    9.780    2.7699
    9.810    2.8752
    9.840    2.8225
    9.870    3.0437
    9.900    2.6751
    9.930    2.9384
    9.960    2.8857
    9.990    2.7699
   10.020    2.8225
   10.050    2.6962
   10.080    2.6856
   10.110    2.8225
   10.140    3.0121
   10.170    2.9068
   10.200    3.0437
   10.230    3.1912
   10.260    2.9489
   10.290    2.9700
   10.320    3.1912
   10.350    2.9805
   10.380    2.8857
   10.410    2.7172
   10.440    2.9489
   10.470    2.7909
   10.500    3.2227
   10.530    3.1806
   10.560    2.9595
   10.590    3.0753
   10.620    2.8647
   10.650    2.8752
   10.680    3.2017
   10.710    3.1490
   10.740    3.1385
   10.770    3.0964
   10.800    3.0332
   10.830    3.1701
   10.860    3.3070
   10.890    3.0542
   10.920    3.1069
   10.950    3.3491
   10.980    2.8647
   11.010    3.3386
   11.040    3.1385
   11.070    3.3175
   11.100    3.0016
   11.130    2.9805
   11.160    3.4755
   11.190    3.1385
   11.220    3.0332
   11.250    3.1174
   11.280    3.2333
   11.310    2.8541
   11.340    3.0964
   11.370    3.3281
   11.400    3.0542
   11.430    3.1912
   11.460    3.0542
   11.490    3.1280
   11.520    3.1596
   11.550    3.0964
   11.580    3.0648
   11.610    2.8963
   11.640    3.1490
   11.670    3.0121
   11.700    2.8541
   11.730    2.9595
   11.760    3.0332
   11.790    3.0964
   11.820    2.7593
   11.850    2.9489
   11.880    3.1069
   11.910    3.0332
   11.940    2.7067
   11.970    3.0964
   12.000    2.7804
   12.030    2.9595
   12.060    3.1280
   12.090    2.8752
   12.120    3.1490
   12.150    2.8647
   12.180    3.2543
   12.210    2.7804
   12.240    2.8963
   12.270    3.1069
   12.300    3.1385
   12.330    2.8120
   12.360    2.8647
   12.390    2.9805
   12.420    2.8331
   12.450    2.6962
   12.480    3.0016
   12.510    2.7909
   12.540    3.0016
   12.570    2.9700
   12.600    2.7488
   12.630    2.6330
   12.660    2.8225
   12.690    2.7383
   12.720    2.8857
   12.750    2.7593
   12.780    2.7593
   12.810    2.7488
   12.840    2.7593
   12.870    2.8857
   12.900    2.9068
   12.930    2.7804
   12.960    3.0121
   12.990    2.8647
   13.020    2.4645
   13.050    2.7804
   13.080    2.9595
   13.110    2.5698
   13.140    2.7383
   13.170    2.8647
   13.200    3.0858
   13.230    2.7804
   13.260    3.0016
   13.290    2.6224
   13.320    2.9279
   13.350    2.8331
   13.380    2.9279
   13.410    3.2333
   13.440    2.8015
   13.470    3.0016
   13.500    2.7804
   13.530    2.7699
   13.560    2.8541
   13.590    2.7383
   13.620    2.7383
   13.650    2.6435
   13.680    3.0753
   13.710    2.8120
   13.740    2.8752
   13.770    2.9489
   13.800    2.9805
   13.830    2.8436
   13.860    2.9805
   13.890    3.0753
   13.920    2.8120
   13.950    2.9595
   13.980    3.0016
   14.010    3.0016
   14.040    2.9489
   14.070    2.8120
   14.100    3.0016
   14.130    2.8436
   14.160    2.9279
   14.190    3.0542
   14.220    3.1174
   14.250    3.1490
   14.280    2.9068
   14.310    3.4544
   14.340    3.1701
   14.370    3.1385
   14.400    3.1174
   14.430    3.0226
   14.460    3.1806
   14.490    3.0542
   14.520    3.2227
   14.550    3.2227
   14.580    3.1385
   14.610    3.1912
   14.640    3.0858
   14.670    3.0753
   14.700    3.0226
   14.730    3.1069
   14.760    2.9384
   14.790    3.0121
   14.820    3.1174
   14.850    2.9489
   14.880    3.0121
   14.910    2.9595
   14.940    3.0332
   14.970    2.9068
   15.000    3.0332
   15.030    2.9805
   15.060    2.7804
   15.090    3.0016
   15.120    2.9173
   15.150    2.7067
   15.180    2.8225
   15.210    2.7804
   15.240    2.8436
   15.270    2.8541
   15.300    3.0016
   15.330    2.7383
   15.360    2.7383
   15.390    2.9173
   15.420    3.0016
   15.450    2.9700
   15.480    2.8225
   15.510    2.7172
   15.540    2.7383
   15.570    2.4855
   15.600    2.7488
   15.630    2.9173
   15.660    2.6751
   15.690    3.0121
   15.720    2.6435
   15.750    2.7699
   15.780    2.7383
   15.810    2.9700
   15.840    2.5276
   15.870    2.7804
   15.900    2.7278
   15.930    2.9700
   15.960    2.8541
   15.990    3.0648
   16.020    2.8015
   16.050    2.6856
   16.080    2.6014
   16.110    3.0542
   16.140    3.1596
   16.170    2.7909
   16.200    2.8225
   16.230    2.6224
   16.260    2.9279
   16.290    2.8752
   16.320    2.8752
   16.350    2.6119
   16.380    2.7804
   16.410    2.6962
   16.440    2.5698
   16.470    2.9595
   16.500    2.9700
   16.530    2.7488
   16.560    2.8857
   16.590    2.8331
   16.620    2.3591
   16.650    3.0437
   16.680    2.6330
   16.710    2.5698
   16.740    2.8647
   16.770    2.7593
   16.800    2.7593
   16.830    2.9384
   16.860    2.8120
   16.890    2.7278
   16.920    2.9805
   16.950    3.0437
   16.980    2.6330
   17.010    3.0753
   17.040    2.5276
   17.070    3.0542
   17.100    2.9068
   17.130    2.8120
   17.160    2.7909
   17.190    2.9700
   17.220    2.6330
   17.250    2.6856
   17.280    2.7488
   17.310    2.7172
   17.340    2.6330
   17.370    2.7804
   17.400    2.7067
   17.430    2.8752
   17.460    2.6646
   17.490    3.0753
   17.520    3.1806
   17.550    2.7172
   17.580    2.8436
   17.610    2.8120
   17.640    2.4645
   17.670    2.7804
   17.700    3.0121
   17.730    2.7909
   17.760    2.8436
   17.790    2.9279
   17.820    3.0542
   17.850    3.0226
   17.880    2.8436
   17.910    3.0332
   17.940    3.1490
   17.970    3.1701
   18.000    3.0858
   18.030    3.1701
   18.060    3.3597
   18.090    2.9805
   18.120    3.0332
   18.150    3.0121
   18.180    2.8963
   18.210    2.5908
   18.240    3.0858
   18.270    2.9384
   18.300    2.6330
   18.330    2.7699
   18.360    2.3697
   18.390    2.8225
   18.420    2.6856
   18.450    2.5276
   18.480    2.7699
   18.510    2.7699
   18.540    2.8225
   18.570    2.8225
   18.600    2.6751
   18.630    3.0121
   18.660    2.4539
   18.690    2.6119
   18.720    2.8541
   18.750    2.9384
   18.780    2.6856
   18.810    2.6014
   18.840    2.8857
   18.870    2.8120
   18.900    2.9279
   18.930    3.4544
   18.960    4.1285
   18.990    4.6551
   19.020    4.0864
   19.050    2.9489
   19.080    2.7488
   19.110    2.6962
   19.140    2.4013
   19.170    2.6751
   19.200    2.6751
   19.230    2.6119
   19.260    2.6224
   19.290    2.5276
   19.320    2.7172
   19.350    2.5803
   19.380    2.6435
   19.410    2.4329
   19.440    2.3381
   19.470    2.5592
   19.500    2.4645
   19.530    2.8647
   19.560    2.7488
   19.590    2.7593
   19.620    2.4645
   19.650    2.3486
   19.680    2.4329
   19.710    2.7172
   19.740    2.6119
   19.770    2.5382
   19.800    2.5803
   19.830    2.4118
   19.860    2.4961
   19.890    2.4750
   19.920    2.6962
   19.950    2.2643
   19.980    2.4750
   20.010    2.2749
   20.040    2.5698
   20.070    2.4013
   20.100    2.7067
   20.130    2.2959
   20.160    2.5592
   20.190    2.4855
   20.220    2.5171
   20.250    2.4013
   20.280    2.3486
   20.310    2.2433
   20.340    2.5276
   20.370    2.5803
   20.400    2.2959
   20.430    2.4539
   20.460    2.5066
   20.490    2.4329
   20.520    2.3591
   20.550    2.3802
   20.580    2.5066
   20.610    2.2117
   20.640    2.5487
   20.670    2.5698
   20.700    2.4855
   20.730    2.4013
   20.760    2.4118
   20.790    2.5382
   20.820    2.5171
   20.850    2.2117
   20.880    2.5171
   20.910    2.4539
   20.940    2.4539
   20.970    2.4961
   21.000    2.6751
   21.030    2.5066
   21.060    2.4539
   21.090    2.3697
   21.120    2.2959
   21.150    2.4434
   21.180    2.2854
   21.210    2.5592
   21.240    1.9484
   21.270    2.3486
   21.300    2.4013
   21.330    2.4223
   21.360    2.4750
   21.390    2.2854
   21.420    2.4118
   21.450    2.5487
   21.480    2.3591
   21.510    2.3381
   21.540    2.5908
   21.570    2.5382
   21.600    2.3381
   21.630    2.5066
   21.660    1.8747
   21.690    2.3381
   21.720    2.5382
   21.750    2.3170
   21.780    2.6646
   21.810    2.4855
   21.840    2.4329
   21.870    2.2643
   21.900    2.4750
   21.930    2.1801
   21.960    2.5276
   21.990    2.3697
   22.020    2.2012
   22.050    1.9273
   22.080    2.2433
   22.110    2.2433
   22.140    2.1485
   22.170    2.2012
   22.200    2.3065
   22.230    2.2328
   22.260    2.1590
   22.290    2.1380
   22.320    2.2117
   22.350    2.3065
   22.380    2.1906
   22.410    2.1274
   22.440    2.3486
   22.470    2.1169
   22.500    2.2959
   22.530    2.3275
   22.560    2.5487
   22.590    2.8331
   22.620    2.4961
   22.650    2.1906
   22.680    2.1590
   22.710    2.2854
   22.740    2.0748
   22.770    2.3170
   22.800    2.1696
   22.830    2.2749
   22.860    2.3065
   22.890    2.2749
   22.920    2.3697
   22.950    2.1485
   22.980    2.0432
   23.010    2.2538
   23.040    2.2643
   23.070    2.5066
   23.100    2.8541
   23.130    2.9279
   23.160    2.2959
   23.190    1.9905
   23.220    2.3170
   23.250    2.2222
   23.280    1.9905
   23.310    2.0326
   23.340    2.0748
   23.370    1.9695
   23.400    1.8957
   23.430    2.1696
   23.460    2.0748
   23.490    2.1064
   23.520    2.2749
   23.550    2.5487
   23.580    2.5803
   23.610    2.4434
   23.640    2.2749
   23.670    2.0958
   23.700    2.0011
   23.730    1.9379
   23.760    1.9379
   23.790    1.8641
   23.820    1.8536
   23.850    1.9800
   23.880    2.0116
   23.910    2.2117
   23.940    1.9379
   23.970    2.1169
   24.000    1.8957
   24.030    2.1696
   24.060    2.1169
   24.090    1.9800
   24.120    2.1590
   24.150    2.1169
   24.180    2.0642
   24.210    2.0748
   24.240    1.8325
   24.270    1.9273
   24.300    1.9800
   24.330    1.8747
   24.360    1.7272
   24.390    2.1064
   24.420    2.0011
   24.450    2.0116
   24.480    1.9800
   24.510    2.1590
   24.540    1.8536
   24.570    2.0642
   24.600    1.8957
   24.630    1.8747
   24.660    1.9905
   24.690    1.8009
   24.720    1.9695
   24.750    1.8325
   24.780    1.8852
   24.810    1.8115
   24.840    1.8641
   24.870    1.6535
   24.900    1.9379
   24.930    1.9168
   24.960    1.9695
   24.990    1.8325
   25.020    1.8115
   25.050    2.1064
   25.080    2.0116
   25.110    1.9063
   25.140    1.8325
   25.170    1.7904
   25.200    1.7483
   25.230    1.8009
   25.260    1.8747
   25.290    1.9063
   25.320    1.8009
   25.350    2.0748
   25.380    2.0221
   25.410    1.8641
   25.440    2.0748
   25.470    2.2854
   25.500    2.3591
   25.530    2.5276
   25.560    2.1274
   25.590    2.0116
   25.620    1.7062
   25.650    1.8852
   25.680    1.9273
   25.710    1.9905
   25.740    1.8220
   25.770    1.6219
   25.800    1.7904
   25.830    1.8220
   25.860    1.7904
   25.890    1.8009
   25.920    1.7694
   25.950    1.7694
   25.980    1.8325
   26.010    1.9168
   26.040    1.9063
   26.070    1.7378
   26.100    1.8009
   26.130    1.5377
   26.160    1.8536
   26.190    1.8536
   26.220    1.5798
   26.250    1.8536
   26.280    1.8852
   26.310    1.8009
   26.340    1.6008
   26.370    1.9168
   26.400    1.8536
   26.430    1.7483
   26.460    1.8115
   26.490    1.8431
   26.520    1.8747
   26.550    1.6956
   26.580    1.7799
   26.610    1.8536
   26.640    1.9168
   26.670    1.5798
   26.700    1.6430
   26.730    1.8115
   26.760    1.8852
   26.790    1.7272
   26.820    1.8220
   26.850    1.7588
   26.880    1.6640
   26.910    1.7694
   26.940    1.9273
   26.970    1.7272
   27.000    1.7694
   27.030    1.8852
   27.060    1.4113
   27.090    1.7378
   27.120    1.6114
   27.150    1.7904
   27.180    1.5587
   27.210    1.5798
   27.240    1.6535
   27.270    1.6640
   27.300    1.5798
   27.330    1.6640
   27.360    1.7799
   27.390    1.7588
   27.420    1.4850
   27.450    1.6535
   27.480    1.7694
   27.510    1.7694
   27.540    1.4955
   27.570    1.7588
   27.600    1.8009
   27.630    1.5798
   27.660    1.6535
   27.690    1.5798
   27.720    1.6114
   27.750    1.6219
   27.780    1.5271
   27.810    1.3375
   27.840    1.6535
   27.870    1.5798
   27.900    1.9168
   27.930    2.0853
   27.960    3.2649
   27.990    3.8652
   28.020    3.2227
   28.050    2.0853
   28.080    1.5587
   28.110    1.5587
   28.140    1.8220
   28.170    1.6114
   28.200    1.7483
   28.230    1.4850
   28.260    1.4323
   28.290    1.5587
   28.320    1.6219
   28.350    1.4850
   28.380    1.6008
   28.410    1.4218
   28.440    1.4745
   28.470    1.5166
   28.500    1.5798
   28.530    1.6324
   28.560    1.6640
   28.590    1.7378
   28.620    1.4955
   28.650    1.5587
   28.680    1.6640
   28.710    1.4113
   28.740    1.5061
   28.770    1.7272
   28.800    1.6114
   28.830    1.5061
   28.860    1.6956
   28.890    2.0958
   28.920    3.2438
   28.950    4.0758
   28.980    3.7599
   29.010    1.8325
   29.040    1.5587
   29.070    1.6219
   29.100    1.5903
   29.130    1.6114
   29.160    1.4850
   29.190    1.5271
   29.220    1.5377
   29.250    1.4218
   29.280    1.4007
   29.310    1.4429
   29.340    1.3797
   29.370    1.2533
   29.400    1.3691
   29.430    1.3375
   29.460    1.2849
   29.490    1.3691
   29.520    1.4323
   29.550    1.3060
   29.580    1.4007
   29.610    1.4955
   29.640    1.3797
   29.670    1.3797
   29.700    1.2638
   29.730    1.2322
   29.760    1.3586
   29.790    1.3060
   29.820    1.4745
   29.850    1.3902
   29.880    1.3797
   29.910    1.4639
   29.940    1.2322
   29.970    1.3902
   30.000    1.4113
   30.030    1.3165
   30.060    1.3375
   30.090    1.2006
   30.120    1.3586
   30.150    1.3060
   30.180    1.5166
   30.210    1.2849
   30.240    1.3270
   30.270    1.4323
   30.300    1.2217
   30.330    1.4429
   30.360    1.2954
   30.390    1.2428
   30.420    1.0427
   30.450    1.3586
   30.480    1.2638
   30.510    1.3586
   30.540    1.2217
   30.570    1.1164
   30.600    1.4745
   30.630    1.1901
   30.660    1.1585
   30.690    1.3797
   30.720    1.2428
   30.750    1.1480
   30.780    1.1585
   30.810    1.1690
   30.840    1.2954
   30.870    1.1585
   30.900    1.1480
   30.930    1.2428
   30.960    1.2533
   30.990    1.2638
   31.020    1.3270
   31.050    1.2428
   31.080    1.2638
   31.110    1.0742
   31.140    1.1690
   31.170    1.1901
   31.200    1.0111
   31.230    1.4534
   31.260    1.1480
   31.290    1.2112
   31.320    1.1585
   31.350    1.0216
   31.380    1.1690
   31.410    1.1796
   31.440    1.2638
   31.470    1.2638
   31.500    1.0532
   31.530    1.2744
   31.560    1.2428
   31.590    1.0953
   31.620    1.1374
   31.650    1.3270
   31.680    1.4113
   31.710    1.4745
   31.740    2.0748
   31.770    2.4539
   31.800    2.7909
   31.830    2.0326
   31.860    1.5692
   31.890    1.4113
   31.920    1.3060
   31.950    1.2849
   31.980    1.2428
   32.010    2.3381
   32.040    4.0969
   32.070    5.7715
   32.100    5.6872
   32.130    3.1174
   32.160    1.6219
   32.190    1.0953
   32.220    1.1269
   32.250    1.0953
   32.280    1.1058
   32.310    1.0848
   32.340    1.1374
   32.370    1.0427
   32.400    1.0216
   32.430    1.1058
   32.460    0.8847
   32.490    1.0637
   32.520    1.0532
   32.550    0.9268
   32.580    1.1796
   32.610    1.0216
   32.640    1.1058
   32.670    1.0427
   32.700    1.1269
   32.730    1.0953
   32.760    0.9373
   32.790    0.8847
   32.820    0.9795
   32.850    1.0321
   32.880    0.9163
   32.910    0.9057
   32.940    1.0532
   32.970    0.9479
   33.000    1.0005
   33.030    1.0321
   33.060    1.0427
   33.090    0.9373
   33.120    0.8847
   33.150    0.9479
   33.180    1.0005
   33.210    1.1585
   33.240    1.0637
   33.270    0.8741
   33.300    0.9584
   33.330    1.0005
   33.360    0.9584
   33.390    0.9479
   33.420    1.1269
   33.450    0.9163
   33.480    1.0111
   33.510    1.0427
   33.540    0.9268
   33.570    0.8741
   33.600    0.9373
   33.630    1.0216
   33.660    1.1585
   33.690    1.0848
   33.720    0.9795
   33.750    1.5166
   33.780    2.2538
   33.810    2.2433
   33.840    1.7904
   33.870    1.3060
   33.900    1.2744
   33.930    1.6114
   33.960    1.7167
   33.990    1.3481
   34.020    1.2533
   34.050    1.2638
   34.080    0.9163
   34.110    0.8741
   34.140    0.9584
   34.170    0.8847
   34.200    0.9584
   34.230    1.0111
   34.260    1.0321
   34.290    0.9268
   34.320    0.9689
   34.350    0.8847
   34.380    0.8531
   34.410    0.9057
   34.440    0.9373
   34.470    1.0742
   34.500    0.9900
   34.530    0.8531
   34.560    0.8847
   34.590    1.0637
   34.620    0.8320
   34.650    0.7583
   34.680    0.8847
   34.710    1.0111
   34.740    0.8425
   34.770    0.9268
   34.800    0.8215
   34.830    1.0742
   34.860    0.9373
   34.890    0.9373
   34.920    0.9584
   34.950    0.8320
   34.980    0.9479
   35.010    0.9163
   35.040    0.8636
   35.070    0.9373
   35.100    0.8636
   35.130    0.9268
   35.160    0.9900
   35.190    0.9268
   35.220    0.9479
   35.250    0.7688
   35.280    0.9795
   35.310    0.9057
   35.340    0.9900
   35.370    0.8636
   35.400    0.9795
   35.430    1.0427
   35.460    0.8215
   35.490    0.9584
   35.520    0.9163
   35.550    1.0427
   35.580    0.9795
   35.610    0.9479
   35.640    1.1164
   35.670    0.9163
   35.700    0.9373
   35.730    1.0216
   35.760    1.0216
   35.790    1.0216
   35.820    0.8110
   35.850    0.8004
   35.880    0.9057
   35.910    0.9795
   35.940    0.9268
   35.970    0.9689
   36.000    0.8952
   36.030    1.0321
   36.060    0.9373
   36.090    0.8320
   36.120    0.9479
   36.150    1.0005
   36.180    1.0742
   36.210    0.8741
   36.240    0.9163
   36.270    0.9163
   36.300    0.9689
   36.330    0.8952
   36.360    0.8636
   36.390    0.8636
   36.420    0.8952
   36.450    1.0742
   36.480    1.0216
   36.510    0.9689
   36.540    0.9584
   36.570    0.9479
   36.600    0.9268
   36.630    0.9795
   36.660    0.9163
   36.690    0.9057
   36.720    1.0111
   36.750    0.9057
   36.780    0.8741
   36.810    1.0848
   36.840    0.8320
   36.870    0.9795
   36.900    0.9057
   36.930    0.9795
   36.960    1.1269
   36.990    0.8636
   37.020    1.0953
   37.050    0.8952
   37.080    0.8425
   37.110    1.0111
   37.140    0.8531
   37.170    0.9373
   37.200    0.7688
   37.230    1.0637
   37.260    1.1058
   37.290    0.9584
   37.320    0.9373
   37.350    0.9268
   37.380    1.0637
   37.410    0.7899
   37.440    0.9057
   37.470    0.8215
   37.500    0.9689
   37.530    0.9268
   37.560    0.9373
   37.590    0.9795
   37.620    0.8952
   37.650    0.9900
   37.680    0.8425
   37.710    1.0111
   37.740    1.2638
   37.770    1.2428
   37.800    1.1901
   37.830    0.8531
   37.860    0.9373
   37.890    0.9057
   37.920    0.9479
   37.950    0.9373
   37.980    0.8531
   38.010    0.9373
   38.040    0.9268
   38.070    0.7372
   38.100    0.7372
   38.130    0.8425
   38.160    0.9479
   38.190    0.7688
   38.220    0.7056
   38.250    0.9163
   38.280    0.9163
   38.310    1.0532
   38.340    0.9689
   38.370    0.8636
   38.400    0.9163
   38.430    0.9057
   38.460    0.9057
   38.490    0.9163
   38.520    1.2217
   38.550    1.6535
   38.580    1.6114
   38.610    1.4534
   38.640    1.0005
   38.670    0.8110
   38.700    0.8847
   38.730    0.8425
   38.760    0.8110
   38.790    0.8110
   38.820    0.8110
   38.850    0.9057
   38.880    0.8531
   38.910    0.8320
   38.940    0.7899
   38.970    0.9268
   39.000    0.9584
   39.030    0.8847
   39.060    0.6846
   39.090    0.8320
   39.120    0.8741
   39.150    0.7899
   39.180    0.7899
   39.210    0.8320
   39.240    0.7688
   39.270    0.8531
   39.300    0.7794
   39.330    0.7899
   39.360    0.7267
   39.390    0.8952
   39.420    0.8425
   39.450    0.9057
   39.480    0.8847
   39.510    0.7583
   39.540    0.7162
   39.570    0.8636
   39.600    0.8425
   39.630    0.8110
   39.660    0.8215
   39.690    0.7583
   39.720    0.7688
   39.750    0.6846
   39.780    0.7478
   39.810    0.7056
   39.840    0.7478
   39.870    0.8215
   39.900    0.8952
   39.930    0.7162
   39.960    0.7794
   39.990    0.8110