File: data/MOCOF-1/PXRD/PXRD_KE-322B-2_Cu-Ka1_film-3mm_3s-deg.xyd
    1.500   16.3419
    1.545   16.6930
    1.590   15.3063
    1.635   14.5515
    1.680   13.9196
    1.725   14.2707
    1.770   13.2175
    1.815   13.5510
    1.860   11.4973
    1.905   12.8840
    1.950   12.9717
    1.995   12.4276
    2.040   11.1111
    2.085   11.0585
    2.130   11.1638
    2.175   10.3739
    2.220   10.1983
    2.265   10.5494
    2.310    9.9351
    2.355    9.7420
    2.400    9.8297
    2.445    9.3558
    2.490    9.7595
    2.535    9.7946
    2.580    9.6367
    2.625    9.3207
    2.670    9.1803
    2.715    9.4436
    2.760    8.5835
    2.805    9.6367
    2.850    9.0750
    2.895    9.6367
    2.940    9.0925
    2.985    9.1101
    3.030    9.3734
    3.075    9.3734
    3.120    9.5489
    3.165    9.8999
    3.210    9.8473
    3.255   10.5494
    3.300   10.5670
    3.345   11.1462
    3.390   12.1819
    3.435   11.9888
    3.480   13.7090
    3.525   14.7446
    3.570   14.9026
    3.615   16.5350
    3.660   18.7292
    3.705   21.2217
    3.750   25.1536
    3.795   30.6126
    3.840   40.1790
    3.885   38.6870
    3.930   22.9770
    3.975   14.0600
    4.020   10.7425
    4.065    9.5840
    4.110    8.7941
    4.155    8.2675
    4.200    8.0218
    4.245    7.9516
    4.290    7.8111
    4.335    7.6356
    4.380    7.7234
    4.425    8.1622
    4.470    7.7409
    4.515    7.9691
    4.560    8.2500
    4.605    8.0569
    4.650    8.1446
    4.695    7.7234
    4.740    8.1797
    4.785    8.3377
    4.830    8.3377
    4.875    8.4957
    4.920    8.8292
    4.965    8.6186
    5.010    8.0569
    5.055    9.2329
    5.100    9.2329
    5.145    9.1101
    5.190    9.2680
    5.235    9.5489
    5.280    9.7946
    5.325   10.4265
    5.370   10.9707
    5.415   11.9186
    5.460   12.8664
    5.505   13.8143
    5.550   11.5148
    5.595   10.1808
    5.640    9.2505
    5.685    8.7063
    5.730    8.8643
    5.775    8.0920
    5.820    7.9516
    5.865    7.8638
    5.910    7.4776
    5.955    7.4952
    6.000    7.4250
    6.045    7.1792
    6.090    7.3021
    6.135    7.0563
    6.180    6.8808
    6.225    7.1090
    6.270    6.8633
    6.315    6.8808
    6.360    7.2143
    6.405    6.8633
    6.450    6.6000
    6.495    6.9335
    6.540    7.1441
    6.585    6.8633
    6.630    7.3723
    6.675    7.4952
    6.720    6.9510
    6.765    7.4425
    6.810    6.7228
    6.855    6.7930
    6.900    6.5473
    6.945    6.6000
    6.990    6.7755
    7.035    6.3893
    7.080    6.7053
    7.125    6.3367
    7.170    6.7053
    7.215    5.7223
    7.260    6.1260
    7.305    6.4420
    7.350    6.0734
    7.395    5.5994
    7.440    5.9154
    7.485    5.9505
    7.530    5.9856
    7.575    6.0207
    7.620    6.3542
    7.665    6.1436
    7.710    6.4595
    7.755    6.6175
    7.800    7.3196
    7.845    6.7755
    7.890    6.1611
    7.935    5.5292
    7.980    5.6872
    8.025    5.5819
    8.070    5.3361
    8.115    5.4239
    8.160    5.7750
    8.205    5.3361
    8.250    5.6697
    8.295    5.5643
    8.340    5.8978
    8.385    5.7925
    8.430    5.4590
    8.475    5.6521
    8.520    5.9856
    8.565    5.2133
    8.610    6.0909
    8.655    5.7925
    8.700    5.7750
    8.745    5.7750
    8.790    5.6872
    8.835    5.7048
    8.880    5.1255
    8.925    5.7574
    8.970    5.3361
    9.015    5.6697
    9.060    5.8276
    9.105    5.3888
    9.150    5.3361
    9.195    5.3010
    9.240    5.7048
    9.285    5.6521
    9.330    5.8803
    9.375    5.8452
    9.420    5.6872
    9.465    6.9335
    9.510    6.9159
    9.555    7.3021
    9.600    7.2319
    9.645    5.9154
    9.690    5.5468
    9.735    5.7399
    9.780    5.3361
    9.825    5.8276
    9.870    5.6697
    9.915    5.1606
    9.960    5.3712
   10.005    5.3888
   10.050    5.5292
   10.095    5.7048
   10.140    6.1787
   10.185    6.1962
   10.230    6.2313
   10.275    6.3191
   10.320    5.8978
   10.365    6.4420
   10.410    5.9505
   10.455    5.6697
   10.500    4.9851
   10.545    5.9681
   10.590    5.4239
   10.635    5.5994
   10.680    5.7048
   10.725    5.9329
   10.770    5.5819
   10.815    6.0032
   10.860    5.4239
   10.905    5.4064
   10.950    5.7399
   10.995    6.0207
   11.040    6.3367
   11.085    6.4595
   11.130    5.9681
   11.175    5.7574
   11.220    5.8101
   11.265    5.5468
   11.310    5.4590
   11.355    5.2308
   11.400    5.4941
   11.445    5.7223
   11.490    5.4415
   11.535    5.4590
   11.580    5.5994
   11.625    5.6170
   11.670    6.4771
   11.715    6.0734
   11.760    6.1085
   11.805    5.6697
   11.850    5.6170
   11.895    5.6521
   11.940    5.2308
   11.985    5.2835
   12.030    5.2484
   12.075    5.5468
   12.120    4.8271
   12.165    5.4590
   12.210    4.8271
   12.255    5.2308
   12.300    4.9675
   12.345    5.0553
   12.390    5.9329
   12.435    5.5994
   12.480    5.1080
   12.525    4.9675
   12.570    4.9851
   12.615    5.1080
   12.660    5.2835
   12.705    5.0202
   12.750    5.3537
   12.795    5.0904
   12.840    5.2133
   12.885    4.9324
   12.930    5.1431
   12.975    5.5819
   13.020    5.5643
   13.065    4.9675
   13.110    5.0202
   13.155    4.8622
   13.200    5.0026
   13.245    4.8973
   13.290    5.3186
   13.335    5.3361
   13.380    4.9324
   13.425    5.2659
   13.470    5.0377
   13.515    5.3537
   13.560    5.1080
   13.605    5.1782
   13.650    5.1782
   13.695    5.0904
   13.740    5.4239
   13.785    5.0553
   13.830    5.5819
   13.875    4.8622
   13.920    4.8622
   13.965    5.2659
   14.010    5.3361
   14.055    5.5468
   14.100    5.7048
   14.145    6.0558
   14.190    5.3186
   14.235    5.3361
   14.280    5.2308
   14.325    5.4064
   14.370    5.5643
   14.415    4.9324
   14.460    5.4064
   14.505    5.0904
   14.550    5.0202
   14.595    5.2308
   14.640    5.0904
   14.685    5.4239
   14.730    4.8798
   14.775    5.2308
   14.820    5.5643
   14.865    4.9149
   14.910    5.2308
   14.955    5.6170
   15.000    4.7569
   15.045    4.9149
   15.090    4.9500
   15.135    4.9149
   15.180    5.2835
   15.225    4.6516
   15.270    4.9149
   15.315    4.7920
   15.360    5.3010
   15.405    5.1782
   15.450    4.6691
   15.495    5.0026
   15.540    5.2308
   15.585    4.8447
   15.630    4.5989
   15.675    4.8271
   15.720    4.6691
   15.765    5.2484
   15.810    4.5638
   15.855    5.1431
   15.900    5.2484
   15.945    4.7218
   15.990    5.0377
   16.035    4.8973
   16.080    4.5989
   16.125    5.2484
   16.170    5.1431
   16.215    4.9675
   16.260    4.8798
   16.305    5.1431
   16.350    5.3186
   16.395    5.1957
   16.440    5.3010
   16.485    4.9675
   16.530    4.6516
   16.575    5.3712
   16.620    5.1782
   16.665    5.0728
   16.710    4.9324
   16.755    5.1080
   16.800    4.9324
   16.845    5.2308
   16.890    4.7744
   16.935    5.1080
   16.980    4.6867
   17.025    5.0026
   17.070    5.1431
   17.115    5.3712
   17.160    5.2835
   17.205    4.9851
   17.250    4.7920
   17.295    5.4415
   17.340    4.7744
   17.385    4.7393
   17.430    4.8447
   17.475    5.0377
   17.520    5.1080
   17.565    5.3010
   17.610    5.0377
   17.655    4.8622
   17.700    5.1957
   17.745    4.7920
   17.790    4.7218
   17.835    5.4064
   17.880    5.0728
   17.925    5.0553
   17.970    5.3010
   18.015    4.7218
   18.060    4.9675
   18.105    4.8095
   18.150    5.0377
   18.195    4.9675
   18.240    4.9324
   18.285    5.4064
   18.330    5.0202
   18.375    5.0728
   18.420    5.2484
   18.465    5.1782
   18.510    5.1606
   18.555    5.2835
   18.600    5.1431
   18.645    4.9324
   18.690    5.1782
   18.735    5.0202
   18.780    4.6867
   18.825    5.3361
   18.870    4.7218
   18.915    4.9675
   18.960    5.3712
   19.005    5.2308
   19.050    4.5989
   19.095    4.8447
   19.140    5.1080
   19.185    5.0553
   19.230    4.5989
   19.275    4.7744
   19.320    4.9851
   19.365    4.9149
   19.410    4.9675
   19.455    4.8095
   19.500    4.8447
   19.545    4.8447
   19.590    5.1080
   19.635    5.1431
   19.680    5.2484
   19.725    5.0377
   19.770    4.9149
   19.815    4.6516
   19.860    4.9324
   19.905    5.0202
   19.950    5.5468
   19.995    5.5994
   20.040    4.7218
   20.085    5.2835
   20.130    4.4585
   20.175    4.8095
   20.220    4.7920
   20.265    4.5814
   20.310    4.7042
   20.355    5.0728
   20.400    5.3537
   20.445    4.5989
   20.490    5.4415
   20.535    5.2308
   20.580    5.1606
   20.625    5.0553
   20.670    4.4234
   20.715    4.6165
   20.760    4.9324
   20.805    4.9324
   20.850    5.0026
   20.895    4.8973
   20.940    4.6516
   20.985    5.1255
   21.030    5.0728
   21.075    4.5814
   21.120    5.0026
   21.165    4.9675
   21.210    4.8447
   21.255    4.5638
   21.300    4.5638
   21.345    5.1606
   21.390    4.7920
   21.435    4.8622
   21.480    4.9324
   21.525    4.6691
   21.570    4.6867
   21.615    4.9675
   21.660    4.5989
   21.705    5.2659
   21.750    4.7744
   21.795    4.3356
   21.840    5.0728
   21.885    4.9675
   21.930    5.1255
   21.975    4.4058
   22.020    5.1957
   22.065    4.3181
   22.110    4.8447
   22.155    4.7744
   22.200    4.5638
   22.245    4.9149
   22.290    4.9851
   22.335    4.3356
   22.380    4.8798
   22.425    4.4585
   22.470    4.8095
   22.515    4.9851
   22.560    4.6516
   22.605    4.8447
   22.650    5.3361
   22.695    4.7744
   22.740    4.3005
   22.785    5.0026
   22.830    4.9500
   22.875    4.6516
   22.920    5.1606
   22.965    4.5989
   23.010    5.2484
   23.055    4.8271
   23.100    4.4760
   23.145    4.6516
   23.190    4.1601
   23.235    4.5111
   23.280    4.9324
   23.325    4.9500
   23.370    5.1782
   23.415    4.4585
   23.460    4.7744
   23.505    4.7042
   23.550    4.2303
   23.595    4.3883
   23.640    4.3532
   23.685    4.5111
   23.730    4.0548
   23.775    4.2127
   23.820    4.3181
   23.865    4.3707
   23.910    4.1776
   23.955    4.4409
   24.000    4.4234
   24.045    4.5638
   24.090    4.0899
   24.135    4.3532
   24.180    4.8095
   24.225    4.4936
   24.270    3.9319
   24.315    4.2654
   24.360    4.5463
   24.405    4.2303
   24.450    4.1601
   24.495    4.3707
   24.540    4.0723
   24.585    4.1074
   24.630    4.2127
   24.675    4.1250
   24.720    3.9846
   24.765    4.1776
   24.810    4.4058
   24.855    4.6340
   24.900    4.2478
   24.945    4.2303
   24.990    4.0723
   25.035    4.2830
   25.080    4.2478
   25.125    3.6862
   25.170    4.1074
   25.215    4.3883
   25.260    4.0021
   25.305    4.3707
   25.350    4.3883
   25.395    4.0723
   25.440    4.1250
   25.485    3.8090
   25.530    4.1601
   25.575    4.2303
   25.620    4.5638
   25.665    4.4058
   25.710    4.1776
   25.755    4.1074
   25.800    4.1250
   25.845    4.2830
   25.890    4.4760
   25.935    4.6691
   25.980    4.0899
   26.025    4.1074
   26.070    4.2303
   26.115    4.4058
   26.160    4.4058
   26.205    4.6165
   26.250    4.0548
   26.295    4.4585
   26.340    4.4409
   26.385    4.2303
   26.430    3.9494
   26.475    4.2127
   26.520    4.3707
   26.565    4.1074
   26.610    4.1250
   26.655    3.7388
   26.700    4.0723
   26.745    3.7388
   26.790    4.1776
   26.835    4.1601
   26.880    3.8968
   26.925    3.6686
   26.970    3.7915
   27.015    3.9494
   27.060    4.1952
   27.105    3.8090
   27.150    3.8968
   27.195    4.2654
   27.240    3.7213
   27.285    3.8441
   27.330    3.9143
   27.375    3.9319
   27.420    3.4580
   27.465    3.7915
   27.510    4.0197
   27.555    3.6862
   27.600    3.5282
   27.645    4.2127
   27.690    4.1601
   27.735    4.2478
   27.780    3.6159
   27.825    3.8090
   27.870    3.5457
   27.915    3.6335
   27.960    3.6335
   28.005    3.8792
   28.050    3.7915
   28.095    4.0372
   28.140    3.8266
   28.185    3.6510
   28.230    3.9494
   28.275    3.5106
   28.320    4.0021
   28.365    4.1250
   28.410    3.6686
   28.455    3.7739
   28.500    3.3702
   28.545    3.9143
   28.590    3.6686
   28.635    3.7388
   28.680    3.8266
   28.725    4.3181
   28.770    3.5633
   28.815    3.9319
   28.860    4.0899
   28.905    3.7037
   28.950    3.8792
   28.995    4.0899
   29.040    3.3526
   29.085    3.6159
   29.130    3.9143
   29.175    4.0021
   29.220    3.6335
   29.265    3.6335
   29.310    4.1425
   29.355    3.4580
   29.400    3.5984
   29.445    3.8090
   29.490    3.1420
   29.535    3.5633
   29.580    3.5633
   29.625    3.6686
   29.670    3.6862
   29.715    3.4755
   29.760    3.5282
   29.805    3.5457
   29.850    3.4053
   29.895    3.4755
   29.940    3.6510
   29.985    3.4229
   30.030    3.4053
   30.075    3.5106
   30.120    3.7564
   30.165    3.3351
   30.210    3.6862
   30.255    3.4931
   30.300    3.5633
   30.345    3.5106
   30.390    3.2824
   30.435    3.1420
   30.480    3.4404
   30.525    3.5282
   30.570    3.3000
   30.615    2.8963
   30.660    3.1420
   30.705    3.3526
   30.750    3.6335
   30.795    3.5633
   30.840    3.4404
   30.885    3.7213
   30.930    3.6159
   30.975    3.3877
   31.020    3.2649
   31.065    3.1596
   31.110    3.6862
   31.155    3.4229
   31.200    3.4229
   31.245    3.3877
   31.290    3.7739
   31.335    3.4580
   31.380    3.2298
   31.425    3.1947
   31.470    3.1420
   31.515    3.2122
   31.560    3.3175
   31.605    3.1245
   31.650    3.3000
   31.695    3.3526
   31.740    3.1596
   31.785    3.3526
   31.830    2.8963
   31.875    3.4755
   31.920    3.7213
   31.965    3.2824
   32.010    3.3175
   32.055    3.3877
   32.100    2.9314
   32.145    2.9138
   32.190    3.2298
   32.235    3.4053
   32.280    3.1069
   32.325    2.9314
   32.370    3.0191
   32.415    2.9840
   32.460    3.0718
   32.505    3.2298
   32.550    2.9840
   32.595    2.9138
   32.640    3.1245
   32.685    2.9314
   32.730    3.3877
   32.775    3.2824
   32.820    2.9840
   32.865    3.0016
   32.910    2.9489
   32.955    2.9314
   33.000    3.1420
   33.045    2.9665
   33.090    3.1771
   33.135    3.3351
   33.180    3.0542
   33.225    3.4404
   33.270    2.9489
   33.315    3.2298
   33.360    3.1596
   33.405    3.0718
   33.450    2.9840
   33.495    2.8612
   33.540    2.9138
   33.585    3.0542
   33.630    2.9489
   33.675    3.0718
   33.720    3.0542
   33.765    3.3526
   33.810    3.0016
   33.855    3.4053
   33.900    2.9138
   33.945    3.3000
   33.990    2.5979
   34.035    2.7909
   34.080    2.8963
   34.125    3.1420
   34.170    3.1596
   34.215    3.2122
   34.260    2.9489
   34.305    2.9665
   34.350    2.9314
   34.395    3.0718
   34.440    2.8260
   34.485    3.3000
   34.530    3.1069
   34.575    3.1947
   34.620    2.6856
   34.665    3.1771
   34.710    2.8787
   34.755    3.0191
   34.800    2.8260
   34.845    2.9489
   34.890    2.8787
   34.935    3.1420
   34.980    3.0367
   35.025    3.4053
   35.070    2.9665
   35.115    3.0542
   35.160    3.4229
   35.205    2.6505
   35.250    3.0016
   35.295    3.0893
   35.340    2.9489
   35.385    2.8612
   35.430    3.0367
   35.475    2.9840
   35.520    2.7734
   35.565    3.0542
   35.610    3.0893
   35.655    3.2473
   35.700    2.8612
   35.745    3.1245
   35.790    2.9314
   35.835    2.9138
   35.880    2.8260
   35.925    3.1771
   35.970    3.0542
   36.015    2.7207
   36.060    2.6681
   36.105    2.9840
   36.150    2.9840
   36.195    3.4404
   36.240    2.8787
   36.285    3.2298
   36.330    2.5979
   36.375    3.0016
   36.420    3.3351
   36.465    2.8963
   36.510    2.9840
   36.555    2.9489
   36.600    3.1069
   36.645    3.2824
   36.690    3.1596
   36.735    2.8963
   36.780    2.8787
   36.825    3.2649
   36.870    3.1069
   36.915    3.1420
   36.960    2.8612
   37.005    2.8963
   37.050    2.9665
   37.095    3.3000
   37.140    3.1771
   37.185    3.3000
   37.230    2.9840
   37.275    2.9138
   37.320    2.9138
   37.365    2.8085
   37.410    3.0542
   37.455    2.9840
   37.500    3.1069
   37.545    3.1245
   37.590    3.1420
   37.635    3.0191
   37.680    3.1245
   37.725    2.8436
   37.770    3.1245
   37.815    2.9840
   37.860    2.9840
   37.905    2.9138
   37.950    3.0367
   37.995    2.5628
   38.040    2.8085
   38.085    2.9665
   38.130    3.0191
   38.175    3.0718
   38.220    3.0016
   38.265    2.9489
   38.310    3.1069
   38.355    2.8612
   38.400    3.3000
   38.445    3.0016
   38.490    2.9665
   38.535    2.7734
   38.580    2.7383
   38.625    2.8787
   38.670    2.7558
   38.715    2.9138
   38.760    2.7383
   38.805    2.7909
   38.850    2.9314
   38.895    2.9314
   38.940    3.0191
   38.985    3.0367
   39.030    2.6856
   39.075    2.7383
   39.120    2.8085
   39.165    2.8787
   39.210    3.1069
   39.255    3.0718
   39.300    2.6330
   39.345    3.1069
   39.390    2.5276
   39.435    3.0718
   39.480    3.0893
   39.525    3.1245
   39.570    3.2824
   39.615    2.5276
   39.660    3.0016
   39.705    3.0718
   39.750    2.6505
   39.795    2.9665
   39.840    2.8963
   39.885    2.9489
   39.930    2.7558
   39.975    3.0542
   40.020    2.8787
   40.065    2.8787
   40.110    2.8260
   40.155    3.0367
   40.200    3.1420
   40.245    2.8612
   40.290    2.7032
   40.335    2.8436
   40.380    2.9840
   40.425    2.8612
   40.470    2.6681
   40.515    2.9138
   40.560    2.6681
   40.605    3.3877
   40.650    3.1947
   40.695    2.8436
   40.740    3.1069
   40.785    2.9665
   40.830    2.6330
   40.875    2.5979
   40.920    2.9138
   40.965    2.7909
   41.010    2.9489
   41.055    3.2122
   41.100    3.2649
   41.145    2.6681
   41.190    3.0016
   41.235    2.8085
   41.280    2.9840
   41.325    2.7558
   41.370    3.1245
   41.415    2.9665
   41.460    2.9840
   41.505    2.8436
   41.550    3.1069
   41.595    2.8085
   41.640    2.8963
   41.685    2.8260
   41.730    2.5803
   41.775    2.6330
   41.820    3.0367
   41.865    2.8436
   41.910    2.6330
   41.955    3.0893
   42.000    2.8963
   42.045    2.7032
   42.090    3.1420
   42.135    3.0718
   42.180    3.1069
   42.225    2.7032
   42.270    2.7558
   42.315    2.8787
   42.360    3.0718
   42.405    2.8612
   42.450    2.7207
   42.495    2.6505
   42.540    2.9138
   42.585    2.8260
   42.630    2.8085
   42.675    2.9665
   42.720    2.7558
   42.765    3.4053
   42.810    2.8963
   42.855    2.7734
   42.900    3.0718
   42.945    2.7207
   42.990    2.6505
   43.035    2.7032
   43.080    2.8436
   43.125    3.1420
   43.170    3.0191
   43.215    2.9665
   43.260    2.6330
   43.305    2.9489
   43.350    2.7383
   43.395    2.7032
   43.440    2.6505
   43.485    3.1947
   43.530    3.1947
   43.575    2.7558
   43.620    2.8260
   43.665    3.0893
   43.710    2.8085
   43.755    2.8612
   43.800    2.9314
   43.845    2.8436
   43.890    2.7734
   43.935    3.0367
   43.980    2.8436
   44.025    2.7558
   44.070    3.0718
   44.115    2.7558
   44.160    2.7558
   44.205    2.7032
   44.250    3.0191
   44.295    3.0367
   44.340    3.0367
   44.385    2.7383
   44.430    3.2473
   44.475    3.1420
   44.520    3.0016
   44.565    2.9138
   44.610    2.8085
   44.655    2.7383
   44.700    2.7032
   44.745    2.6330
   44.790    3.0191
   44.835    2.6856
   44.880    2.9138
   44.925    2.6505
   44.970    2.8436
   45.015    2.8612
   45.060    2.8260
   45.105    2.7558
   45.150    2.6681
   45.195    2.9314
   45.240    2.8612
   45.285    2.6856
   45.330    3.0542
   45.375    2.6856
   45.420    2.8260
   45.465    2.8436
   45.510    3.0542
   45.555    2.8260
   45.600    2.9489
   45.645    2.8963
   45.690    2.7734
   45.735    2.7558
   45.780    2.9314
   45.825    2.7383
   45.870    2.6330
   45.915    2.7734
   45.960    2.6856
   46.005    3.2122
   46.050    2.8436
   46.095    2.8436
   46.140    3.1069
   46.185    2.5452
   46.230    2.9138
   46.275    3.0191
   46.320    2.9489
   46.365    2.7207
   46.410    3.0016
   46.455    2.6681
   46.500    2.8260
   46.545    2.7207
   46.590    2.6856
   46.635    2.5979
   46.680    2.8612
   46.725    2.5979
   46.770    3.0542
   46.815    2.6154
   46.860    2.6505
   46.905    2.7207
   46.950    2.3872
   46.995    2.8612
   47.040    2.9840
   47.085    3.0718
   47.130    2.6154
   47.175    2.6681
   47.220    2.7207
   47.265    2.6856
   47.310    2.8436
   47.355    2.9489
   47.400    2.9489
   47.445    2.5101
   47.490    2.7909
   47.535    2.9489
   47.580    2.7558
   47.625    2.7383
   47.670    2.6505
   47.715    3.0718
   47.760    2.8260
   47.805    2.9314
   47.850    2.5979
   47.895    2.9314
   47.940    2.7909
   47.985    3.0016
   48.030    2.7207
   48.075    2.6505
   48.120    2.5979
   48.165    2.7558
   48.210    2.9489
   48.255    2.7734
   48.300    2.7909
   48.345    2.4925
   48.390    2.5452
   48.435    2.7558
   48.480    2.8260
   48.525    2.7383
   48.570    3.0542
   48.615    2.4750
   48.660    2.9665
   48.705    2.7734
   48.750    3.0542
   48.795    2.5452
   48.840    2.5979
   48.885    2.4750
   48.930    2.5276
   48.975    2.5803
   49.020    2.7558
   49.065    2.9314
   49.110    2.6330
   49.155    2.4574
   49.200    2.5276
   49.245    2.6505
   49.290    2.4574
   49.335    2.5628
   49.380    2.7032
   49.425    2.7032
   49.470    2.2468
   49.515    2.7032
   49.560    2.6681
   49.605    2.9665
   49.650    2.3872
   49.695    2.4750
   49.740    2.4925
   49.785    2.6154
   49.830    2.5101
   49.875    2.8260
   49.920    2.8436
   49.965    2.7032
   49.980    2.8260