File: data/MOCOF-1/PXRD/PXRD_KE-010_Cu-Ka1_capillary-1mm_5s-deg.xyd
    1.500   33.9442
    1.530   33.4702
    1.560   31.8799
    1.590   30.9005
    1.620   30.3739
    1.650   29.0995
    1.680   28.6993
    1.710   27.2038
    1.740   26.9932
    1.770   25.1606
    1.800   25.0764
    1.830   24.6867
    1.860   23.9600
    1.890   22.9595
    1.920   22.2433
    1.950   22.4539
    1.980   21.3691
    2.010   20.8741
    2.040   20.1264
    2.070   19.5471
    2.100   19.7472
    2.130   18.5361
    2.160   18.1991
    2.190   17.7988
    2.220   17.1669
    2.250   17.2301
    2.280   17.2828
    2.310   16.5666
    2.340   16.4192
    2.370   15.9663
    2.400   16.3665
    2.430   15.0184
    2.460   14.8815
    2.490   15.5450
    2.520   14.3233
    2.550   14.2812
    2.580   14.2285
    2.610   13.7546
    2.640   13.7651
    2.670   13.2701
    2.700   13.1543
    2.730   13.0068
    2.760   13.1122
    2.790   12.8383
    2.820   13.1754
    2.850   12.7330
    2.880   12.1222
    2.910   11.7852
    2.940   11.8273
    2.970   11.9642
    3.000   12.1643
    3.030   11.4060
    3.060   11.2691
    3.090   11.5008
    3.120   10.7320
    3.150   11.1322
    3.180   10.8057
    3.210   10.9110
    3.240   10.8478
    3.270   11.6482
    3.300   10.5845
    3.330   10.6477
    3.360   10.2686
    3.390   10.7320
    3.420   10.2264
    3.450   10.6056
    3.480    9.9947
    3.510   10.0263
    3.540    9.7630
    3.570   10.2580
    3.600   10.2159
    3.630    9.6577
    3.660    9.6261
    3.690    9.4997
    3.720    9.5945
    3.750    9.6051
    3.780    9.4681
    3.810    9.5313
    3.840    9.4892
    3.870    9.6577
    3.900    9.1627
    3.930    9.6367
    3.960    8.9731
    3.990    9.6367
    4.020    9.2470
    4.050    9.5313
    4.080    9.2680
    4.110    9.2786
    4.140    9.2786
    4.170    9.2470
    4.200    8.7941
    4.230    8.7414
    4.260    8.7098
    4.290    9.2364
    4.320    8.8362
    4.350    9.0258
    4.380    8.6993
    4.410    8.8784
    4.440    8.7520
    4.470    8.6256
    4.500    8.8889
    4.530    8.5835
    4.560    8.2991
    4.590    7.8568
    4.620    8.2570
    4.650    8.2570
    4.680    8.1201
    4.710    8.0779
    4.740    8.7836
    4.770    7.9831
    4.800    8.2464
    4.830    8.1411
    4.860    8.5097
    4.890    8.1833
    4.920    8.3939
    4.950    7.9726
    4.980    8.2149
    5.010    7.7514
    5.040    8.2254
    5.070    8.1095
    5.100    8.2570
    5.130    8.0674
    5.160    8.0569
    5.190    8.2254
    5.220    8.0463
    5.250    7.7093
    5.280    7.9621
    5.310    8.4255
    5.340    7.7199
    5.370    7.5935
    5.400    8.0779
    5.430    8.0779
    5.460    8.2254
    5.490    8.1095
    5.520    7.8778
    5.550    7.7936
    5.580    7.9410
    5.610    7.9831
    5.640    8.1727
    5.670    8.0990
    5.700    8.1411
    5.730    7.9410
    5.760    7.8041
    5.790    7.7093
    5.820    7.8146
    5.850    8.0253
    5.880    7.6883
    5.910    7.6461
    5.940    7.4144
    5.970    7.9621
    6.000    7.8884
    6.030    8.2359
    6.060    7.3407
    6.090    7.3196
    6.120    7.9516
    6.150    7.8252
    6.180    8.2254
    6.210    7.5724
    6.240    8.1306
    6.270    7.8989
    6.300    8.1622
    6.330    7.6040
    6.360    7.4882
    6.390    7.6251
    6.420    7.5408
    6.450    7.2249
    6.480    7.6567
    6.510    8.0358
    6.540    7.6777
    6.570    7.8252
    6.600    7.8041
    6.630    7.6777
    6.660    7.6356
    6.690    7.6040
    6.720    7.6251
    6.750    7.7514
    6.780    7.7304
    6.810    7.4882
    6.840    7.6567
    6.870    7.1617
    6.900    8.1517
    6.930    8.0147
    6.960    7.8673
    6.990    7.8462
    7.020    7.8252
    7.050    7.8252
    7.080    7.6672
    7.110    7.8357
    7.140    7.8041
    7.170    7.8568
    7.200    7.9094
    7.230    7.7304
    7.260    7.6567
    7.290    7.4039
    7.320    7.7830
    7.350    7.5619
    7.380    7.7936
    7.410    8.1938
    7.440    8.0253
    7.470    7.8252
    7.500    7.8462
    7.530    7.4039
    7.560    8.0253
    7.590    7.8673
    7.620    7.6883
    7.650    7.4987
    7.680    7.8989
    7.710    7.7199
    7.740    7.6145
    7.770    7.4882
    7.800    7.6461
    7.830    7.6988
    7.860    8.2043
    7.890    7.5197
    7.920    7.6251
    7.950    7.7199
    7.980    7.9621
    8.010    8.0569
    8.040    7.4987
    8.070    8.1833
    8.100    8.1517
    8.130    7.8568
    8.160    8.1727
    8.190    7.7409
    8.220    8.2675
    8.250    8.3728
    8.280    8.0463
    8.310    7.9305
    8.340    7.8568
    8.370    8.3834
    8.400    7.8989
    8.430    7.9726
    8.460    7.7514
    8.490    7.7620
    8.520    8.4466
    8.550    7.8357
    8.580    8.1517
    8.610    7.7620
    8.640    7.8252
    8.670    7.6356
    8.700    7.9726
    8.730    7.8673
    8.760    8.1938
    8.790    7.8884
    8.820    8.2675
    8.850    7.9516
    8.880    7.9305
    8.910    8.0674
    8.940    7.8568
    8.970    8.2780
    9.000    7.9621
    9.030    8.2149
    9.060    8.1622
    9.090    7.7936
    9.120    8.0253
    9.150    8.0569
    9.180    8.2254
    9.210    8.4044
    9.240    8.1306
    9.270    7.9516
    9.300    8.3307
    9.330    8.0463
    9.360    7.9937
    9.390    8.0358
    9.420    7.8146
    9.450    8.0253
    9.480    8.4255
    9.510    8.2149
    9.540    7.8989
    9.570    7.8357
    9.600    8.3096
    9.630    7.8673
    9.660    8.2991
    9.690    8.0674
    9.720    7.4776
    9.750    7.9831
    9.780    8.2254
    9.810    8.2886
    9.840    7.7093
    9.870    8.1201
    9.900    7.9937
    9.930    8.2149
    9.960    8.2043
    9.990    7.5829
   10.020    8.1411
   10.050    8.2359
   10.080    8.1306
   10.110    8.4571
   10.140    8.2780
   10.170    8.2570
   10.200    8.1833
   10.230    7.7304
   10.260    8.0885
   10.290    8.0253
   10.320    8.1095
   10.350    8.1727
   10.380    7.9516
   10.410    7.5829
   10.440    8.6045
   10.470    8.3096
   10.500    8.1411
   10.530    8.2886
   10.560    7.7936
   10.590    8.2886
   10.620    7.8041
   10.650    8.0147
   10.680    7.4250
   10.710    8.1201
   10.740    8.2149
   10.770    7.8884
   10.800    8.0463
   10.830    7.9094
   10.860    7.3828
   10.890    7.8252
   10.920    7.6356
   10.950    7.8989
   10.980    7.4987
   11.010    7.7830
   11.040    7.6461
   11.070    7.6461
   11.100    7.9831
   11.130    7.9094
   11.160    7.4566
   11.190    7.6356
   11.220    7.5513
   11.250    7.9831
   11.280    7.6461
   11.310    7.7514
   11.340    7.9200
   11.370    7.7093
   11.400    7.5935
   11.430    7.6040
   11.460    7.7409
   11.490    7.4776
   11.520    7.4566
   11.550    7.6988
   11.580    7.7725
   11.610    7.6672
   11.640    7.9726
   11.670    7.6988
   11.700    7.3196
   11.730    7.6777
   11.760    7.4671
   11.790    7.6356
   11.820    7.4144
   11.850    7.9621
   11.880    7.4250
   11.910    7.5092
   11.940    7.5303
   11.970    7.4566
   12.000    6.9932
   12.030    6.7825
   12.060    7.3407
   12.090    7.4776
   12.120    7.2038
   12.150    6.8773
   12.180    7.2670
   12.210    7.1933
   12.240    7.2565
   12.270    7.2986
   12.300    7.2038
   12.330    6.9616
   12.360    7.3196
   12.390    7.2986
   12.420    7.3618
   12.450    6.8773
   12.480    6.9510
   12.510    7.1301
   12.540    7.4039
   12.570    7.5197
   12.600    6.9616
   12.630    6.9510
   12.660    6.8773
   12.690    7.0563
   12.720    7.2775
   12.750    6.9616
   12.780    7.1722
   12.810    6.9826
   12.840    7.2880
   12.870    7.1617
   12.900    7.2880
   12.930    7.0985
   12.960    7.1406
   12.990    7.0774
   13.020    7.2880
   13.050    7.2038
   13.080    7.1406
   13.110    7.2670
   13.140    7.0563
   13.170    7.2459
   13.200    6.9300
   13.230    7.2565
   13.260    6.9721
   13.290    7.0774
   13.320    7.2775
   13.350    7.1617
   13.380    7.3828
   13.410    7.0458
   13.440    7.0037
   13.470    7.0985
   13.500    7.2143
   13.530    7.0985
   13.560    7.1195
   13.590    6.8141
   13.620    6.8984
   13.650    7.2775
   13.680    6.2243
   13.710    6.5929
   13.740    7.2143
   13.770    6.9616
   13.800    6.8668
   13.830    7.1406
   13.860    7.2143
   13.890    6.9194
   13.920    6.8246
   13.950    6.6983
   13.980    6.7088
   14.010    7.1195
   14.040    7.3407
   14.070    7.1301
   14.100    7.1195
   14.130    7.0774
   14.160    6.9194
   14.190    6.9194
   14.220    6.8878
   14.250    6.8036
   14.280    7.0037
   14.310    6.5824
   14.340    7.0037
   14.370    7.1511
   14.400    6.9405
   14.430    7.0248
   14.460    7.4460
   14.490    7.1617
   14.520    6.6035
   14.550    7.4250
   14.580    6.9405
   14.610    6.5087
   14.640    6.8352
   14.670    6.7193
   14.700    7.0774
   14.730    6.9826
   14.760    6.8773
   14.790    6.9721
   14.820    7.1827
   14.850    6.7404
   14.880    6.4244
   14.910    6.5613
   14.940    7.1301
   14.970    6.8352
   15.000    6.9510
   15.030    6.8773
   15.060    7.0458
   15.090    6.6456
   15.120    6.8878
   15.150    6.8984
   15.180    6.6667
   15.210    7.2143
   15.240    7.2986
   15.270    7.4882
   15.300    6.7088
   15.330    7.1617
   15.360    6.9721
   15.390    6.8562
   15.420    7.0879
   15.450    6.6667
   15.480    6.7720
   15.510    6.6772
   15.540    6.5087
   15.570    6.7930
   15.600    6.9405
   15.630    6.9616
   15.660    7.1301
   15.690    7.3196
   15.720    7.0985
   15.750    7.2038
   15.780    6.9405
   15.810    7.2038
   15.840    6.8668
   15.870    7.0774
   15.900    6.7299
   15.930    6.9089
   15.960    7.0353
   15.990    7.1195
   16.020    7.2775
   16.050    6.7193
   16.080    7.0248
   16.110    6.6983
   16.140    7.4250
   16.170    6.8036
   16.200    6.9405
   16.230    6.9932
   16.260    6.4666
   16.290    6.8878
   16.320    6.7509
   16.350    7.0563
   16.380    6.9616
   16.410    7.0774
   16.440    6.9826
   16.470    7.2565
   16.500    6.6667
   16.530    6.7299
   16.560    7.0037
   16.590    6.6245
   16.620    7.0142
   16.650    7.1827
   16.680    7.2249
   16.710    6.7930
   16.740    6.6667
   16.770    7.0985
   16.800    7.0669
   16.830    6.8984
   16.860    7.4039
   16.890    6.9405
   16.920    7.3512
   16.950    6.7720
   16.980    6.8984
   17.010    6.7299
   17.040    6.8984
   17.070    6.8878
   17.100    7.1511
   17.130    6.7825
   17.160    6.7404
   17.190    7.0985
   17.220    7.1195
   17.250    7.1933
   17.280    6.9616
   17.310    7.4460
   17.340    7.3196
   17.370    6.9194
   17.400    7.2249
   17.430    7.0458
   17.460    7.0669
   17.490    6.6877
   17.520    6.8878
   17.550    7.3934
   17.580    7.1511
   17.610    7.3091
   17.640    7.1090
   17.670    7.4144
   17.700    6.8246
   17.730    7.1617
   17.760    6.7720
   17.790    7.0669
   17.820    7.1617
   17.850    7.1722
   17.880    6.9300
   17.910    7.0669
   17.940    7.0142
   17.970    6.8668
   18.000    7.1090
   18.030    6.8984
   18.060    7.2565
   18.090    6.7720
   18.120    7.0142
   18.150    6.4244
   18.180    6.9405
   18.210    7.1511
   18.240    7.3091
   18.270    6.9194
   18.300    6.9932
   18.330    7.2459
   18.360    6.9405
   18.390    6.8246
   18.420    7.1195
   18.450    7.5197
   18.480    7.1511
   18.510    7.2249
   18.540    7.0037
   18.570    7.0248
   18.600    7.0879
   18.630    7.0774
   18.660    7.2249
   18.690    7.3828
   18.720    6.9194
   18.750    7.4566
   18.780    7.3512
   18.810    6.9721
   18.840    6.8773
   18.870    7.1195
   18.900    7.2354
   18.930    7.2775
   18.960    6.8773
   18.990    6.6772
   19.020    7.2775
   19.050    6.6140
   19.080    7.1301
   19.110    7.2143
   19.140    6.9616
   19.170    7.1090
   19.200    7.2565
   19.230    7.2354
   19.260    6.6561
   19.290    7.3512
   19.320    7.4250
   19.350    7.6988
   19.380    6.7615
   19.410    6.8562
   19.440    7.0563
   19.470    7.0669
   19.500    7.0879
   19.530    7.1617
   19.560    6.7299
   19.590    7.0774
   19.620    7.2038
   19.650    7.0563
   19.680    7.2670
   19.710    7.2775
   19.740    7.0353
   19.770    7.3618
   19.800    7.1195
   19.830    7.2354
   19.860    6.8352
   19.890    7.3512
   19.920    7.5197
   19.950    7.3934
   19.980    7.0669
   20.010    6.7615
   20.040    7.4039
   20.070    7.6672
   20.100    7.6883
   20.130    6.9826
   20.160    7.2354
   20.190    7.5303
   20.220    7.3618
   20.250    7.2354
   20.280    6.9721
   20.310    6.9510
   20.340    7.3407
   20.370    7.1195
   20.400    7.1722
   20.430    7.1617
   20.460    7.4987
   20.490    7.4987
   20.520    7.2459
   20.550    7.4776
   20.580    7.3196
   20.610    7.2143
   20.640    7.3828
   20.670    7.5935
   20.700    7.2670
   20.730    7.7620
   20.760    6.9510
   20.790    7.2249
   20.820    7.2775
   20.850    6.9721
   20.880    7.1827
   20.910    7.2143
   20.940    7.2775
   20.970    7.3302
   21.000    7.0985
   21.030    7.2459
   21.060    7.3407
   21.090    6.8668
   21.120    7.2670
   21.150    7.0774
   21.180    7.2670
   21.210    7.3302
   21.240    7.4355
   21.270    7.2986
   21.300    6.8668
   21.330    6.8878
   21.360    7.0142
   21.390    7.3723
   21.420    7.3512
   21.450    7.4355
   21.480    7.3302
   21.510    7.1406
   21.540    6.9826
   21.570    7.6356
   21.600    7.5092
   21.630    7.6356
   21.660    7.2565
   21.690    7.4144
   21.720    7.2143
   21.750    7.1406
   21.780    7.3302
   21.810    7.2459
   21.840    7.2038
   21.870    7.2143
   21.900    7.3196
   21.930    7.2459
   21.960    7.1933
   21.990    6.9721
   22.020    7.7620
   22.050    7.3512
   22.080    7.2249
   22.110    7.4566
   22.140    7.0774
   22.170    7.3723
   22.200    7.6040
   22.230    7.5303
   22.260    7.3618
   22.290    7.5513
   22.320    7.2986
   22.350    7.2143
   22.380    7.5092
   22.410    7.2880
   22.440    7.1406
   22.470    7.0774
   22.500    7.2670
   22.530    7.1406
   22.560    7.5829
   22.590    7.5724
   22.620    7.2986
   22.650    7.4776
   22.680    7.0458
   22.710    7.2038
   22.740    7.1406
   22.770    7.6356
   22.800    7.4250
   22.830    7.1195
   22.860    6.9510
   22.890    6.5298
   22.920    7.2038
   22.950    7.4355
   22.980    7.5513
   23.010    7.1827
   23.040    7.2880
   23.070    7.2354
   23.100    7.4460
   23.130    7.3091
   23.160    7.2354
   23.190    6.9932
   23.220    7.1406
   23.250    7.2565
   23.280    7.8884
   23.310    7.0142
   23.340    7.1827
   23.370    7.0563
   23.400    7.0353
   23.430    7.0037
   23.460    7.2354
   23.490    7.4882
   23.520    6.8246
   23.550    7.2986
   23.580    6.6035
   23.610    6.8457
   23.640    7.4882
   23.670    6.7404
   23.700    7.1827
   23.730    6.9932
   23.760    6.9300
   23.790    6.8141
   23.820    7.0985
   23.850    7.3302
   23.880    7.1195
   23.910    6.8773
   23.940    7.6145
   23.970    7.3723
   24.000    6.9510
   24.030    7.1090
   24.060    7.5408
   24.090    7.4039
   24.120    7.2986
   24.150    7.2143
   24.180    7.0879
   24.210    7.0879
   24.240    7.1301
   24.270    7.2038
   24.300    7.2565
   24.330    6.6667
   24.360    7.2880
   24.390    7.2249
   24.420    7.3723
   24.450    7.0774
   24.480    6.8668
   24.510    6.9510
   24.540    7.1827
   24.570    6.9826
   24.600    7.3091
   24.630    7.1406
   24.660    7.2354
   24.690    7.2038
   24.720    6.9826
   24.750    7.1722
   24.780    7.0774
   24.810    6.7720
   24.840    7.0037
   24.870    6.9300
   24.900    6.7404
   24.930    6.6456
   24.960    6.9616
   24.990    6.9089
   25.020    7.0142
   25.050    6.7509
   25.080    6.5613
   25.110    6.9932
   25.140    7.0669
   25.170    6.9089
   25.200    6.8668
   25.230    6.9826
   25.260    6.7720
   25.290    7.0142
   25.320    6.8773
   25.350    7.0142
   25.380    6.9932
   25.410    7.3407
   25.440    6.4350
   25.470    7.1301
   25.500    6.2349
   25.530    6.9194
   25.560    6.8246
   25.590    6.9194
   25.620    6.9616
   25.650    6.8036
   25.680    6.8141
   25.710    6.8562
   25.740    7.0037
   25.770    6.3823
   25.800    6.9089
   25.830    6.8562
   25.860    6.8668
   25.890    6.7404
   25.920    6.8352
   25.950    6.5087
   25.980    6.5403
   26.010    6.6561
   26.040    6.7720
   26.070    6.6561
   26.100    6.6351
   26.130    6.9721
   26.160    6.4982
   26.190    7.0353
   26.220    6.5929
   26.250    6.8773
   26.280    6.7299
   26.310    6.8141
   26.340    6.8457
   26.370    6.8352
   26.400    6.5403
   26.430    6.8141
   26.460    6.2454
   26.490    6.4560
   26.520    6.8562
   26.550    6.4560
   26.580    6.7088
   26.610    6.8141
   26.640    7.0458
   26.670    6.9089
   26.700    6.9932
   26.730    6.4771
   26.760    6.7720
   26.790    6.4139
   26.820    6.6561
   26.850    6.6667
   26.880    6.7615
   26.910    6.4455
   26.940    6.5613
   26.970    7.0774
   27.000    6.9300
   27.030    6.4455
   27.060    6.9826
   27.090    6.5298
   27.120    6.3928
   27.150    6.2033
   27.180    6.5929
   27.210    6.5087
   27.240    6.6983
   27.270    6.3928
   27.300    6.3191
   27.330    6.4876
   27.360    6.4350
   27.390    6.1190
   27.420    6.2559
   27.450    6.5613
   27.480    6.2454
   27.510    6.3718
   27.540    6.4876
   27.570    6.7299
   27.600    6.2349
   27.630    6.6140
   27.660    6.3823
   27.690    6.3191
   27.720    6.5508
   27.750    6.5298
   27.780    6.6561
   27.810    6.2033
   27.840    6.2665
   27.870    6.3823
   27.900    6.4455
   27.930    6.5087
   27.960    6.1717
   27.990    6.3191
   28.020    6.0137
   28.050    6.7615
   28.080    6.0242
   28.110    6.2875
   28.140    6.5613
   28.170    6.4034
   28.200    5.9716
   28.230    6.6140
   28.260    6.3086
   28.290    6.4771
   28.320    6.2981
   28.350    6.4455
   28.380    6.2138
   28.410    6.6351
   28.440    6.0769
   28.470    6.2875
   28.500    5.9821
   28.530    5.6556
   28.560    6.2665
   28.590    6.4139
   28.620    5.9821
   28.650    6.4666
   28.680    6.2138
   28.710    5.7820
   28.740    6.0558
   28.770    6.4455
   28.800    6.0979
   28.830    5.9294
   28.860    5.9189
   28.890    6.3296
   28.920    6.2665
   28.950    5.9926
   28.980    6.1190
   29.010    6.0137
   29.040    6.0874
   29.070    6.1401
   29.100    6.3086
   29.130    6.0874
   29.160    6.2243
   29.190    6.1085
   29.220    5.7504
   29.250    6.4139
   29.280    6.3718
   29.310    6.2665
   29.340    6.0979
   29.370    5.8978
   29.400    5.9716
   29.430    6.1190
   29.460    5.8768
   29.490    6.0874
   29.520    6.2033
   29.550    6.0348
   29.580    5.7293
   29.610    6.2033
   29.640    5.9400
   29.670    5.9189
   29.700    6.2349
   29.730    6.0032
   29.760    6.1927
   29.790    6.1401
   29.820    5.7083
   29.850    5.7293
   29.880    6.1611
   29.910    6.0664
   29.940    5.8873
   29.970    6.1401
   30.000    5.7399
   30.030    5.7188
   30.060    5.8241
   30.090    5.9084
   30.120    6.0558
   30.150    5.8347
   30.180    5.9505
   30.210    5.6451
   30.240    5.9505
   30.270    5.8768
   30.300    5.9610
   30.330    6.0558
   30.360    6.2454
   30.390    5.6661
   30.420    5.7083
   30.450    5.8873
   30.480    5.9294
   30.510    5.5714
   30.540    6.0242
   30.570    5.7293
   30.600    5.6029
   30.630    5.6661
   30.660    5.7925
   30.690    5.5714
   30.720    5.8452
   30.750    5.6240
   30.780    5.6872
   30.810    6.1822
   30.840    5.4871
   30.870    5.7188
   30.900    5.8136
   30.930    5.6872
   30.960    5.9084
   30.990    5.8031
   31.020    6.0558
   31.050    5.6029
   31.080    5.8662
   31.110    5.6029
   31.140    5.7715
   31.170    5.8031
   31.200    6.1822
   31.230    5.8557
   31.260    5.8031
   31.290    5.3502
   31.320    5.8768
   31.350    5.8768
   31.380    5.2975
   31.410    5.3923
   31.440    5.9084
   31.470    5.8557
   31.500    5.8241
   31.530    5.5714
   31.560    5.5819
   31.590    5.6135
   31.620    5.9400
   31.650    5.6029
   31.680    5.6135
   31.710    5.4660
   31.740    5.4766
   31.770    5.8347
   31.800    5.4134
   31.830    5.9084
   31.860    5.3607
   31.890    5.6872
   31.920    5.5082
   31.950    5.7083
   31.980    5.7399
   32.010    5.7293
   32.040    5.5292
   32.070    5.5608
   32.100    5.3186
   32.130    5.8347
   32.160    5.4555
   32.190    5.6240
   32.220    5.7293
   32.250    5.7504
   32.280    5.5292
   32.310    5.4028
   32.340    5.2238
   32.370    5.3397
   32.400    5.4660
   32.430    5.0342
   32.460    5.6767
   32.490    5.2449
   32.520    5.3397
   32.550    5.2975
   32.580    5.5819
   32.610    5.4871
   32.640    5.4028
   32.670    5.3607
   32.700    5.6872
   32.730    5.3818
   32.760    5.6872
   32.790    5.1501
   32.820    5.4028
   32.850    5.3712
   32.880    5.2975
   32.910    5.2449
   32.940    5.3291
   32.970    5.1711
   33.000    5.1922
   33.030    5.3607
   33.060    5.2133
   33.090    4.9816
   33.120    5.1711
   33.150    5.1501
   33.180    5.2870
   33.210    5.0553
   33.240    5.3397
   33.270    5.2449
   33.300    5.6135
   33.330    5.2449
   33.360    5.3923
   33.390    5.5187
   33.420    5.5292
   33.450    5.0658
   33.480    5.0342
   33.510    5.4766
   33.540    5.1290
   33.570    5.2975
   33.600    5.3923
   33.630    5.2765
   33.660    5.3923
   33.690    5.4450
   33.720    5.3923
   33.750    5.2870
   33.780    5.2027
   33.810    5.0658
   33.840    4.8973
   33.870    5.1922
   33.900    4.8763
   33.930    5.3607
   33.960    5.1395
   33.990    5.5608
   34.020    5.2343
   34.050    5.2027
   34.080    5.2870
   34.110    5.2343
   34.140    5.1501
   34.170    5.2870
   34.200    5.2659
   34.230    5.0869
   34.260    5.3397
   34.290    5.0974
   34.320    5.4766
   34.350    5.0448
   34.380    5.1080
   34.410    5.1185
   34.440    4.9605
   34.470    4.9078
   34.500    5.2449
   34.530    4.8236
   34.560    5.1080
   34.590    5.1922
   34.620    5.0026
   34.650    5.2659
   34.680    5.4028
   34.710    5.4766
   34.740    5.2449
   34.770    4.8657
   34.800    5.2343
   34.830    5.0974
   34.860    4.8763
   34.890    4.7077
   34.920    4.8763
   34.950    4.8552
   34.980    5.1606
   35.010    5.1501
   35.040    4.8973
   35.070    4.7815
   35.100    4.8763
   35.130    4.9921
   35.160    4.8552
   35.190    5.3081
   35.220    5.1290
   35.250    5.0237
   35.280    4.8236
   35.310    5.0764
   35.340    4.9184
   35.370    5.0869
   35.400    4.8552
   35.430    5.0342
   35.460    4.8131
   35.490    5.1501
   35.520    5.1817
   35.550    4.8341
   35.580    4.7604
   35.610    4.9710
   35.640    5.1501
   35.670    4.8973
   35.700    5.1501
   35.730    5.1080
   35.760    4.8447
   35.790    4.9605
   35.820    4.9500
   35.850    4.8236
   35.880    4.9605
   35.910    4.5919
   35.940    5.2659
   35.970    4.9921
   36.000    4.9605
   36.030    5.1606
   36.060    4.8552
   36.090    5.1711
   36.120    5.3923
   36.150    4.6761
   36.180    4.7709
   36.210    4.7077
   36.240    4.8657
   36.270    5.0974
   36.300    5.2133
   36.330    4.7604
   36.360    4.7604
   36.390    5.0764
   36.420    5.0237
   36.450    5.0342
   36.480    4.9184
   36.510    4.7604
   36.540    4.6445
   36.570    5.1080
   36.600    4.9605
   36.630    4.3813
   36.660    5.0553
   36.690    5.0026
   36.720    4.9394
   36.750    5.0342
   36.780    4.8868
   36.810    4.8552
   36.840    4.6445
   36.870    4.7183
   36.900    4.9078
   36.930    4.4866
   36.960    4.9078
   36.990    4.8763
   37.020    5.0764
   37.050    4.8341
   37.080    4.8341
   37.110    4.5287
   37.140    4.4550
   37.170    4.8025
   37.200    4.8236
   37.230    4.5076
   37.260    4.7393
   37.290    4.5076
   37.320    4.6130
   37.350    4.9500
   37.380    4.7604
   37.410    5.0974
   37.440    4.5708
   37.470    4.6972
   37.500    4.7499
   37.530    4.7920
   37.560    4.6445
   37.590    4.4339
   37.620    4.8025
   37.650    4.7077
   37.680    5.1501
   37.710    4.8131
   37.740    4.6761
   37.770    4.6130
   37.800    5.0026
   37.830    4.7077
   37.860    4.7499
   37.890    4.6445
   37.920    4.6445
   37.950    4.6656
   37.980    4.7499
   38.010    4.6761
   38.040    4.5919
   38.070    4.6656
   38.100    4.6235
   38.130    4.6656
   38.160    4.5076
   38.190    4.4866
   38.220    4.5919
   38.250    4.9605
   38.280    4.4760
   38.310    4.6867
   38.340    4.8447
   38.370    4.7077
   38.400    4.5814
   38.430    5.2133
   38.460    4.9921
   38.490    4.4866
   38.520    4.5076
   38.550    4.4128
   38.580    4.6551
   38.610    4.5814
   38.640    4.6235
   38.670    4.3707
   38.700    4.5182
   38.730    4.4655
   38.760    4.3497
   38.790    4.6340
   38.820    4.7077
   38.850    4.7604
   38.880    4.4444
   38.910    4.5603
   38.940    4.7077
   38.970    4.8657
   39.000    4.5603
   39.030    4.4128
   39.060    4.4550
   39.090    4.8131
   39.120    4.2970
   39.150    4.7288
   39.180    4.4866
   39.210    4.7499
   39.240    4.4550
   39.270    4.7499
   39.300    4.8763
   39.330    4.3918
   39.360    4.7920
   39.390    4.5182
   39.420    4.8341
   39.450    4.4550
   39.480    4.5287
   39.510    4.5814
   39.540    4.8131
   39.570    4.9078
   39.600    4.1811
   39.630    4.7077
   39.660    4.7288
   39.690    4.5919
   39.720    4.7709
   39.750    4.6761
   39.780    4.8657
   39.810    4.3075
   39.840    4.8025
   39.870    4.3707
   39.900    4.7077
   39.930    4.5182
   39.960    4.5814
   39.990    4.6551