File: data/MOCOF-1/PXRD/PXRD_KE-130_Cu-Ka1_film-3mm_5s-deg.xyd
    1.500   23.6756
    1.530   23.6546
    1.560   22.4961
    1.590   22.9384
    1.620   21.5061
    1.650   21.0953
    1.680   20.0948
    1.710   19.4629
    1.740   19.0627
    1.770   19.3049
    1.800   18.2517
    1.830   18.1991
    1.860   16.9774
    1.890   17.2091
    1.920   16.7878
    1.950   16.2928
    1.980   16.5245
    2.010   15.8294
    2.040   15.6398
    2.070   15.1132
    2.100   15.0395
    2.130   15.0290
    2.160   14.5234
    2.190   14.9552
    2.220   13.8599
    2.250   14.2707
    2.280   14.0284
    2.310   14.0706
    2.340   14.2180
    2.370   13.9652
    2.400   12.8383
    2.430   13.5018
    2.460   13.4808
    2.490   13.7019
    2.520   13.1648
    2.550   13.5966
    2.580   12.9858
    2.610   14.0600
    2.640   14.2496
    2.670   14.3339
    2.700   14.4286
    2.730   15.0711
    2.760   16.1875
    2.790   16.5350
    2.820   17.1248
    2.850   16.6403
    2.880   18.2833
    2.910   19.5682
    2.940   20.3370
    2.970   22.1696
    3.000   23.9494
    3.030   24.7709
    3.060   26.5298
    3.090   30.3107
    3.120   32.8067
    3.150   35.8504
    3.180   40.0421
    3.210   43.7915
    3.240   49.6577
    3.270   56.3876
    3.300   63.6546
    3.330   72.2696
    3.360   85.7083
    3.390  100.7372
    3.420  115.3765
    3.450  124.5814
    3.480  119.7051
    3.510   99.7051
    3.540   73.0069
    3.570   55.4186
    3.600   42.9068
    3.630   37.0932
    3.660   33.2912
    3.690   32.7646
    3.720   32.7225
    3.750   32.9753
    3.780   34.6288
    3.810   36.6403
    3.840   39.2206
    3.870   41.3797
    3.900   43.2859
    3.930   45.6451
    3.960   47.1195
    3.990   50.4371
    4.020   52.7646
    4.050   52.4381
    4.080   52.3012
    4.110   49.8262
    4.140   47.9200
    4.170   44.0021
    4.200   40.7899
    4.230   36.6193
    4.260   32.4171
    4.290   28.8889
    4.320   25.1080
    4.350   22.1906
    4.380   19.5787
    4.410   17.3881
    4.440   15.9663
    4.470   14.3971
    4.500   13.0068
    4.530   11.9326
    4.560   11.5956
    4.590   11.1743
    4.620   10.8899
    4.650    9.9315
    4.680   10.1632
    4.710   10.0685
    4.740    9.2364
    4.770    9.1206
    4.800    9.3523
    4.830    8.9731
    4.860    9.2786
    4.890    9.0469
    4.920    8.6888
    4.950    8.8257
    4.980    8.6572
    5.010    8.4360
    5.040    8.7204
    5.070    8.2043
    5.100    8.1938
    5.130    8.6783
    5.160    8.5203
    5.190    8.4887
    5.220    8.4992
    5.250    9.0258
    5.280    8.5835
    5.310    8.6677
    5.340    8.6888
    5.370    8.8994
    5.400    8.2780
    5.430    8.8784
    5.460    8.7730
    5.490    8.9205
    5.520    8.6677
    5.550    8.9415
    5.580    8.8257
    5.610    8.7414
    5.640    8.3518
    5.670    8.4044
    5.700    8.3623
    5.730    7.8252
    5.760    7.8673
    5.790    8.0253
    5.820    7.5619
    5.850    7.6251
    5.880    7.7514
    5.910    7.5935
    5.940    7.4144
    5.970    7.2143
    6.000    7.1195
    6.030    7.0037
    6.060    7.0248
    6.090    6.9194
    6.120    6.7720
    6.150    6.8036
    6.180    6.9616
    6.210    6.8773
    6.240    6.8773
    6.270    6.7299
    6.300    6.8246
    6.330    7.0248
    6.360    6.5719
    6.390    6.6245
    6.420    7.0985
    6.450    6.9932
    6.480    6.6561
    6.510    6.8457
    6.540    6.7088
    6.570    6.9932
    6.600    7.1617
    6.630    7.5197
    6.660    7.2038
    6.690    8.1622
    6.720    8.2570
    6.750    8.6888
    6.780    8.8784
    6.810   10.2475
    6.840   11.3533
    6.870   13.2807
    6.900   14.5656
    6.930   16.8826
    6.960   17.1775
    6.990   15.6082
    7.020   13.8915
    7.050   11.5429
    7.080   10.1001
    7.110    8.8257
    7.140    8.0463
    7.170    7.3934
    7.200    7.4355
    7.230    6.8984
    7.260    6.7509
    7.290    6.5298
    7.320    6.8141
    7.350    6.4244
    7.380    6.6772
    7.410    6.7615
    7.440    6.6667
    7.470    6.2243
    7.500    6.5613
    7.530    6.4034
    7.560    6.5613
    7.590    6.9616
    7.620    6.5613
    7.650    6.5087
    7.680    6.7193
    7.710    6.4350
    7.740    6.7404
    7.770    6.8246
    7.800    7.1511
    7.830    7.1827
    7.860    7.1195
    7.890    7.4776
    7.920    7.6251
    7.950    7.4776
    7.980    7.6567
    8.010    7.8568
    8.040    7.8989
    8.070    7.9410
    8.100    8.0885
    8.130    8.5203
    8.160    8.8784
    8.190    8.3623
    8.220    7.8884
    8.250    8.7098
    8.280    8.6045
    8.310    8.2359
    8.340    8.4887
    8.370    8.0358
    8.400    7.7620
    8.430    8.1306
    8.460    7.5092
    8.490    7.6567
    8.520    7.6040
    8.550    7.3302
    8.580    7.5303
    8.610    6.9826
    8.640    6.7088
    8.670    6.4034
    8.700    6.0979
    8.730    6.4666
    8.760    5.9821
    8.790    5.8978
    8.820    5.7399
    8.850    5.6977
    8.880    5.9505
    8.910    5.4028
    8.940    5.2238
    8.970    5.4134
    9.000    5.7083
    9.030    5.2870
    9.060    5.7083
    9.090    5.3502
    9.120    5.2343
    9.150    5.0974
    9.180    5.1922
    9.210    5.2027
    9.240    5.1290
    9.270    4.9921
    9.300    5.3607
    9.330    4.7920
    9.360    4.8973
    9.390    4.7499
    9.420    5.0448
    9.450    5.1606
    9.480    5.3607
    9.510    4.8973
    9.540    5.0342
    9.570    5.0448
    9.600    4.9921
    9.630    4.7183
    9.660    4.9500
    9.690    4.9500
    9.720    4.9184
    9.750    5.2133
    9.780    5.2027
    9.810    4.9605
    9.840    4.7183
    9.870    4.9500
    9.900    4.8657
    9.930    4.8447
    9.960    5.0764
    9.990    4.7709
   10.020    4.7183
   10.050    4.6340
   10.080    4.9816
   10.110    5.3502
   10.140    4.7288
   10.170    5.1501
   10.200    5.0026
   10.230    4.9921
   10.260    5.2027
   10.290    5.1501
   10.320    5.2449
   10.350    5.5714
   10.380    5.2765
   10.410    5.4344
   10.440    5.8452
   10.470    6.0558
   10.500    5.6661
   10.530    5.8241
   10.560    5.5608
   10.590    5.5924
   10.620    5.3081
   10.650    5.2765
   10.680    5.2238
   10.710    5.1817
   10.740    5.2870
   10.770    5.2659
   10.800    5.0026
   10.830    4.8763
   10.860    5.0974
   10.890    5.0132
   10.920    5.0026
   10.950    4.9184
   10.980    5.2554
   11.010    5.4344
   11.040    5.4976
   11.070    5.0974
   11.100    5.4555
   11.130    5.1817
   11.160    5.3081
   11.190    5.2238
   11.220    5.3081
   11.250    5.0237
   11.280    5.0869
   11.310    5.3291
   11.340    5.3081
   11.370    5.4450
   11.400    4.8341
   11.430    5.3607
   11.460    4.8131
   11.490    5.4450
   11.520    5.0658
   11.550    5.3081
   11.580    5.0132
   11.610    5.1817
   11.640    5.2238
   11.670    5.2975
   11.700    5.3712
   11.730    5.1606
   11.760    5.3291
   11.790    5.3818
   11.820    5.5292
   11.850    5.1080
   11.880    4.8763
   11.910    5.5503
   11.940    5.2343
   11.970    5.4134
   12.000    5.4450
   12.030    5.2238
   12.060    5.7083
   12.090    5.6767
   12.120    5.5503
   12.150    5.5714
   12.180    5.4660
   12.210    5.4871
   12.240    5.9189
   12.270    5.5819
   12.300    5.4976
   12.330    5.5187
   12.360    5.5924
   12.390    5.4871
   12.420    5.7083
   12.450    5.4450
   12.480    5.5082
   12.510    5.2765
   12.540    5.2343
   12.570    5.5398
   12.600    5.8347
   12.630    5.3818
   12.660    5.2343
   12.690    5.5714
   12.720    5.3712
   12.750    5.2765
   12.780    5.4766
   12.810    5.7188
   12.840    5.1185
   12.870    4.7709
   12.900    5.5608
   12.930    5.2238
   12.960    4.9394
   12.990    5.1080
   13.020    5.0869
   13.050    5.6767
   13.080    5.5082
   13.110    4.8341
   13.140    5.1395
   13.170    4.9289
   13.200    5.2027
   13.230    5.2765
   13.260    5.2659
   13.290    5.2449
   13.320    5.2449
   13.350    5.3397
   13.380    5.4766
   13.410    5.3923
   13.440    5.0026
   13.470    5.3712
   13.500    5.0026
   13.530    5.5819
   13.560    5.1711
   13.590    5.3186
   13.620    5.4239
   13.650    5.3291
   13.680    5.5608
   13.710    5.0869
   13.740    5.1501
   13.770    5.1817
   13.800    5.3081
   13.830    4.9394
   13.860    5.4028
   13.890    5.0132
   13.920    5.0658
   13.950    5.3818
   13.980    5.3712
   14.010    5.2870
   14.040    5.3186
   14.070    5.4660
   14.100    5.3291
   14.130    4.6340
   14.160    5.1290
   14.190    5.4660
   14.220    5.1501
   14.250    5.4871
   14.280    5.1290
   14.310    5.1290
   14.340    5.2449
   14.370    4.9710
   14.400    4.8236
   14.430    5.4344
   14.460    5.0764
   14.490    5.3923
   14.520    5.0764
   14.550    4.8973
   14.580    5.1080
   14.610    5.2343
   14.640    4.9500
   14.670    5.0237
   14.700    4.6656
   14.730    5.6556
   14.760    4.9921
   14.790    4.7288
   14.820    5.1711
   14.850    5.0237
   14.880    4.9394
   14.910    4.9500
   14.940    4.7604
   14.970    4.9921
   15.000    4.5287
   15.030    4.7920
   15.060    5.2027
   15.090    5.0764
   15.120    4.8868
   15.150    5.1606
   15.180    4.7815
   15.210    4.9605
   15.240    5.1606
   15.270    5.1501
   15.300    4.9394
   15.330    4.9078
   15.360    4.8973
   15.390    4.8447
   15.420    5.1922
   15.450    4.8763
   15.480    4.9605
   15.510    4.8657
   15.540    4.5603
   15.570    4.8025
   15.600    4.7920
   15.630    4.9816
   15.660    4.9816
   15.690    4.8131
   15.720    4.8025
   15.750    5.2870
   15.780    4.6867
   15.810    5.1395
   15.840    4.8973
   15.870    5.2975
   15.900    4.9078
   15.930    4.8236
   15.960    4.8447
   15.990    4.8341
   16.020    4.7183
   16.050    4.6972
   16.080    4.5919
   16.110    5.1501
   16.140    5.2554
   16.170    5.2449
   16.200    5.0132
   16.230    5.1606
   16.260    5.2343
   16.290    5.0869
   16.320    4.5919
   16.350    4.5603
   16.380    4.9078
   16.410    4.7288
   16.440    5.3607
   16.470    4.7288
   16.500    5.0448
   16.530    4.8131
   16.560    4.8868
   16.590    4.6024
   16.620    4.7183
   16.650    4.5814
   16.680    4.9184
   16.710    4.9500
   16.740    4.8868
   16.770    4.9184
   16.800    4.6445
   16.830    4.7393
   16.860    4.6761
   16.890    4.8341
   16.920    4.8973
   16.950    4.6445
   16.980    4.4760
   17.010    4.8236
   17.040    4.6972
   17.070    4.5603
   17.100    4.1285
   17.130    4.5603
   17.160    4.7920
   17.190    4.6340
   17.220    5.1185
   17.250    4.7709
   17.280    4.6761
   17.310    4.9500
   17.340    4.5814
   17.370    4.6551
   17.400    4.8447
   17.430    4.5287
   17.460    4.9500
   17.490    4.5814
   17.520    4.8868
   17.550    4.6445
   17.580    4.9078
   17.610    4.5814
   17.640    5.0764
   17.670    4.7604
   17.700    4.8657
   17.730    4.9605
   17.760    4.8552
   17.790    4.6445
   17.820    4.6340
   17.850    4.6130
   17.880    4.8236
   17.910    5.0342
   17.940    4.5498
   17.970    4.8763
   18.000    4.7393
   18.030    5.1290
   18.060    4.7077
   18.090    4.7077
   18.120    4.6235
   18.150    5.1922
   18.180    4.9289
   18.210    4.6235
   18.240    4.8763
   18.270    4.8447
   18.300    4.9921
   18.330    5.0342
   18.360    4.9394
   18.390    5.2659
   18.420    4.9394
   18.450    4.8131
   18.480    5.0974
   18.510    4.7709
   18.540    4.8973
   18.570    4.7288
   18.600    4.8236
   18.630    4.8973
   18.660    5.0764
   18.690    5.0132
   18.720    4.8236
   18.750    4.7183
   18.780    4.7920
   18.810    4.7183
   18.840    4.4550
   18.870    4.5603
   18.900    4.9921
   18.930    5.2449
   18.960    4.8447
   18.990    4.8868
   19.020    5.0237
   19.050    5.0132
   19.080    4.8236
   19.110    4.9184
   19.140    4.9500
   19.170    4.7393
   19.200    4.5603
   19.230    4.9289
   19.260    4.7077
   19.290    4.8868
   19.320    4.9289
   19.350    5.2870
   19.380    4.5814
   19.410    5.0342
   19.440    5.1395
   19.470    4.9921
   19.500    5.2133
   19.530    5.4134
   19.560    4.7709
   19.590    4.9816
   19.620    4.9710
   19.650    5.0342
   19.680    4.9921
   19.710    5.0237
   19.740    4.9184
   19.770    5.1501
   19.800    4.9710
   19.830    5.1395
   19.860    4.6867
   19.890    5.0448
   19.920    5.0553
   19.950    5.3923
   19.980    4.8025
   20.010    4.6867
   20.040    5.2343
   20.070    5.1817
   20.100    5.2027
   20.130    4.9816
   20.160    5.1185
   20.190    5.1711
   20.220    5.0658
   20.250    4.9394
   20.280    5.0869
   20.310    5.3818
   20.340    5.0974
   20.370    4.9289
   20.400    5.0342
   20.430    4.7709
   20.460    5.2449
   20.490    4.9500
   20.520    5.0237
   20.550    4.7393
   20.580    5.0237
   20.610    4.5919
   20.640    5.1185
   20.670    5.0764
   20.700    5.0026
   20.730    4.9289
   20.760    4.9184
   20.790    5.1817
   20.820    5.1606
   20.850    4.9605
   20.880    4.8552
   20.910    4.8131
   20.940    4.6235
   20.970    5.1290
   21.000    4.8131
   21.030    5.0448
   21.060    5.1501
   21.090    4.7815
   21.120    4.9078
   21.150    5.4555
   21.180    5.1185
   21.210    5.0237
   21.240    4.9289
   21.270    4.8131
   21.300    4.9289
   21.330    4.9605
   21.360    4.8131
   21.390    4.9605
   21.420    4.9394
   21.450    4.8552
   21.480    5.0764
   21.510    5.1290
   21.540    4.7815
   21.570    4.9921
   21.600    5.2554
   21.630    4.9605
   21.660    4.9289
   21.690    4.5076
   21.720    4.9184
   21.750    5.0342
   21.780    4.5182
   21.810    4.4760
   21.840    4.9289
   21.870    4.8131
   21.900    4.4866
   21.930    4.6024
   21.960    4.7604
   21.990    5.0553
   22.020    5.2765
   22.050    4.9605
   22.080    4.6867
   22.110    5.2133
   22.140    4.6867
   22.170    4.9394
   22.200    4.7815
   22.230    4.7183
   22.260    4.8341
   22.290    5.0132
   22.320    4.8763
   22.350    4.8973
   22.380    5.0026
   22.410    4.7183
   22.440    4.9816
   22.470    4.9289
   22.500    4.7815
   22.530    4.7815
   22.560    4.7499
   22.590    4.3075
   22.620    4.7815
   22.650    4.8131
   22.680    4.6972
   22.710    4.6340
   22.740    4.7077
   22.770    4.6972
   22.800    4.9078
   22.830    4.4760
   22.860    4.6867
   22.890    4.5182
   22.920    4.7709
   22.950    4.4339
   22.980    4.5287
   23.010    4.7920
   23.040    5.0026
   23.070    4.6235
   23.100    4.6340
   23.130    4.3813
   23.160    4.9394
   23.190    4.3602
   23.220    4.5814
   23.250    4.6656
   23.280    4.5287
   23.310    4.5708
   23.340    4.5919
   23.370    4.5603
   23.400    4.2759
   23.430    4.5392
   23.460    4.4760
   23.490    4.5708
   23.520    4.4444
   23.550    4.6130
   23.580    4.9394
   23.610    4.4655
   23.640    4.4655
   23.670    4.5708
   23.700    4.4128
   23.730    4.9605
   23.760    4.5708
   23.790    4.5603
   23.820    4.0442
   23.850    4.6761
   23.880    4.5392
   23.910    4.4339
   23.940    4.1496
   23.970    4.4444
   24.000    4.3181
   24.030    4.9605
   24.060    4.4866
   24.090    4.4866
   24.120    4.3918
   24.150    4.2654
   24.180    4.1074
   24.210    4.4444
   24.240    4.5498
   24.270    4.4339
   24.300    4.1601
   24.330    4.5919
   24.360    4.2443
   24.390    4.5498
   24.420    4.3181
   24.450    4.3602
   24.480    4.2759
   24.510    4.3707
   24.540    4.2338
   24.570    4.5603
   24.600    4.4128
   24.630    4.5603
   24.660    4.7920
   24.690    4.6656
   24.720    4.3602
   24.750    4.4971
   24.780    4.5182
   24.810    4.4866
   24.840    4.1917
   24.870    4.0758
   24.900    4.4234
   24.930    4.1601
   24.960    4.0337
   24.990    4.4866
   25.020    4.2549
   25.050    4.2759
   25.080    4.1917
   25.110    3.9600
   25.140    3.9284
   25.170    3.9600
   25.200    4.1074
   25.230    4.0864
   25.260    4.1074
   25.290    4.3602
   25.320    4.3286
   25.350    4.2443
   25.380    4.4128
   25.410    4.2549
   25.440    4.2338
   25.470    4.1706
   25.500    4.4128
   25.530    4.2549
   25.560    4.2338
   25.590    4.1706
   25.620    4.5182
   25.650    3.8863
   25.680    4.2970
   25.710    4.2970
   25.740    4.0548
   25.770    3.9494
   25.800    4.0337
   25.830    3.7809
   25.860    4.0653
   25.890    3.7704
   25.920    4.0126
   25.950    4.1390
   25.980    4.1180
   26.010    3.8968
   26.040    4.1496
   26.070    3.9179
   26.100    4.1390
   26.130    4.0021
   26.160    4.0442
   26.190    3.9179
   26.220    4.2970
   26.250    3.9916
   26.280    4.0969
   26.310    4.0442
   26.340    4.1601
   26.370    3.8968
   26.400    3.6967
   26.430    4.0653
   26.460    3.8020
   26.490    4.1811
   26.520    4.0337
   26.550    4.0021
   26.580    3.8125
   26.610    3.6756
   26.640    3.8863
   26.670    4.0969
   26.700    3.8441
   26.730    4.0126
   26.760    3.6862
   26.790    4.0653
   26.820    3.9284
   26.850    4.1390
   26.880    4.0758
   26.910    4.0758
   26.940    3.7388
   26.970    3.8125
   27.000    3.9494
   27.030    3.9073
   27.060    4.0126
   27.090    3.5071
   27.120    3.9073
   27.150    3.7177
   27.180    4.0548
   27.210    4.0337
   27.240    3.7072
   27.270    3.5808
   27.300    3.7283
   27.330    3.6546
   27.360    3.7388
   27.390    3.5808
   27.420    3.7072
   27.450    3.9389
   27.480    3.7809
   27.510    3.6651
   27.540    4.0126
   27.570    3.7283
   27.600    3.6862
   27.630    3.7283
   27.660    4.0021
   27.690    4.0232
   27.720    3.8968
   27.750    3.8652
   27.780    3.6230
   27.810    3.6124
   27.840    3.6124
   27.870    3.6651
   27.900    3.6651
   27.930    3.8968
   27.960    3.5176
   27.990    3.6440
   28.020    3.8336
   28.050    3.8547
   28.080    3.7809
   28.110    4.0021
   28.140    4.0653
   28.170    4.0969
   28.200    3.8863
   28.230    3.8020
   28.260    4.0653
   28.290    3.7915
   28.320    4.1390
   28.350    3.6967
   28.380    4.0232
   28.410    3.7599
   28.440    3.6756
   28.470    3.8863
   28.500    4.0442
   28.530    3.5914
   28.560    3.6862
   28.590    3.7915
   28.620    3.7493
   28.650    3.8652
   28.680    3.6756
   28.710    3.7493
   28.740    3.5387
   28.770    3.7704
   28.800    3.8968
   28.830    3.9073
   28.860    3.7599
   28.890    3.6862
   28.920    3.4755
   28.950    3.9916
   28.980    3.7809
   29.010    3.7388
   29.040    3.7915
   29.070    3.7915
   29.100    3.8125
   29.130    3.8757
   29.160    3.7177
   29.190    3.5492
   29.220    3.7809
   29.250    3.6124
   29.280    3.7493
   29.310    3.7493
   29.340    3.8968
   29.370    4.0864
   29.400    3.7388
   29.430    3.8231
   29.460    3.6651
   29.490    3.6019
   29.520    3.5387
   29.550    3.5071
   29.580    3.5808
   29.610    3.5176
   29.640    3.6019
   29.670    3.4439
   29.700    4.0337
   29.730    3.6230
   29.760    3.1701
   29.790    3.4439
   29.820    3.4755
   29.850    3.5914
   29.880    3.2649
   29.910    3.4229
   29.940    3.4018
   29.970    3.5703
   30.000    3.7388
   30.030    3.5914
   30.060    3.6862
   30.090    3.4755
   30.120    3.4966
   30.150    3.2754
   30.180    3.6651
   30.210    3.5387
   30.240    3.5914
   30.270    3.6546
   30.300    3.3070
   30.330    3.3597
   30.360    3.3491
   30.390    3.5176
   30.420    3.2438
   30.450    3.6230
   30.480    3.4650
   30.510    3.3597
   30.540    3.4755
   30.570    3.4123
   30.600    3.2965
   30.630    3.4229
   30.660    3.4018
   30.690    3.5808
   30.720    3.5492
   30.750    3.4123
   30.780    3.3597
   30.810    3.4544
   30.840    3.7283
   30.870    3.4860
   30.900    3.3807
   30.930    3.7283
   30.960    3.3070
   30.990    3.1385
   31.020    3.1701
   31.050    3.3386
   31.080    3.2543
   31.110    3.2859
   31.140    3.1806
   31.170    3.0121
   31.200    3.2859
   31.230    3.4439
   31.260    3.3175
   31.290    3.5492
   31.320    3.3702
   31.350    3.4229
   31.380    3.4334
   31.410    3.2754
   31.440    3.2333
   31.470    3.4018
   31.500    3.1385
   31.530    3.2333
   31.560    3.2859
   31.590    3.4755
   31.620    3.4123
   31.650    3.7809
   31.680    3.6019
   31.710    3.3597
   31.740    3.4123
   31.770    3.6124
   31.800    3.4334
   31.830    3.4018
   31.860    3.5387
   31.890    3.5176
   31.920    3.2438
   31.950    3.4860
   31.980    3.5282
   32.010    3.2122
   32.040    3.4229
   32.070    3.3913
   32.100    3.3175
   32.130    3.5176
   32.160    3.2859
   32.190    3.1069
   32.220    3.0016
   32.250    3.3491
   32.280    3.3175
   32.310    3.2122
   32.340    3.1806
   32.370    3.3175
   32.400    3.4966
   32.430    3.4334
   32.460    3.1385
   32.490    3.1174
   32.520    3.2017
   32.550    3.2649
   32.580    3.2965
   32.610    3.2122
   32.640    3.3807
   32.670    3.4229
   32.700    3.4650
   32.730    3.0964
   32.760    3.3070
   32.790    3.3175
   32.820    2.9910
   32.850    3.3491
   32.880    3.3491
   32.910    3.1069
   32.940    3.1385
   32.970    3.2965
   33.000    3.5703
   33.030    3.4229
   33.060    3.0332
   33.090    3.0753
   33.120    3.3913
   33.150    3.3281
   33.180    3.2122
   33.210    3.0753
   33.240    3.1701
   33.270    3.5176
   33.300    3.2965
   33.330    2.9595
   33.360    3.5176
   33.390    3.3386
   33.420    3.1806
   33.450    3.2333
   33.480    3.5071
   33.510    3.1701
   33.540    3.1701
   33.570    3.2859
   33.600    3.0964
   33.630    2.9805
   33.660    3.0437
   33.690    3.1701
   33.720    3.1701
   33.750    3.0332
   33.780    3.2333
   33.810    2.9068
   33.840    3.4650
   33.870    2.8225
   33.900    3.2333
   33.930    3.1490
   33.960    3.3281
   33.990    2.9595
   34.020    3.1490
   34.050    3.1912
   34.080    3.3702
   34.110    3.3175
   34.140    3.0226
   34.170    2.8436
   34.200    3.1806
   34.230    3.2122
   34.260    3.3281
   34.290    3.2122
   34.320    3.4018
   34.350    3.0121
   34.380    3.2543
   34.410    3.1069
   34.440    2.8120
   34.470    3.1280
   34.500    3.1806
   34.530    3.1596
   34.560    3.0542
   34.590    3.1701
   34.620    3.0437
   34.650    3.2017
   34.680    3.0542
   34.710    3.0226
   34.740    3.1596
   34.770    2.8647
   34.800    3.2122
   34.830    2.9279
   34.860    2.8331
   34.890    3.0542
   34.920    3.0226
   34.950    3.2227
   34.980    3.0332
   35.010    3.0648
   35.040    3.1701
   35.070    3.1596
   35.100    3.0964
   35.130    2.8857
   35.160    3.2543
   35.190    3.0542
   35.220    3.0964
   35.250    3.1069
   35.280    3.1490
   35.310    2.8857
   35.340    3.0542
   35.370    3.4018
   35.400    3.3597
   35.430    3.2859
   35.460    3.0858
   35.490    3.3597
   35.520    2.9700
   35.550    3.2227
   35.580    2.8857
   35.610    3.5071
   35.640    3.1280
   35.670    3.5071
   35.700    3.2017
   35.730    3.1701
   35.760    3.0858
   35.790    3.1701
   35.820    2.8963
   35.850    3.2438
   35.880    3.2438
   35.910    3.0121
   35.940    3.0858
   35.970    2.8541
   36.000    3.0648
   36.030    3.1385
   36.060    3.2543
   36.090    3.2859
   36.120    3.0121
   36.150    3.0753
   36.180    3.0332
   36.210    3.1806
   36.240    2.8015
   36.270    2.9910
   36.300    3.3175
   36.330    3.1069
   36.360    2.9384
   36.390    3.0964
   36.420    2.7909
   36.450    2.9910
   36.480    2.9489
   36.510    2.8331
   36.540    3.2438
   36.570    3.3702
   36.600    2.8331
   36.630    2.9805
   36.660    3.0121
   36.690    3.1174
   36.720    3.0964
   36.750    3.2017
   36.780    3.2754
   36.810    3.0121
   36.840    2.9910
   36.870    3.3386
   36.900    2.9068
   36.930    3.0016
   36.960    3.2965
   36.990    2.8225
   37.020    2.9279
   37.050    3.0332
   37.080    2.9279
   37.110    3.1069
   37.140    3.3491
   37.170    2.9910
   37.200    3.1490
   37.230    3.1490
   37.260    3.0226
   37.290    3.2017
   37.320    3.0964
   37.350    3.1069
   37.380    3.0964
   37.410    2.9173
   37.440    2.9910
   37.470    2.9595
   37.500    3.0437
   37.530    3.1385
   37.560    2.8963
   37.590    2.9068
   37.620    2.9700
   37.650    2.7278
   37.680    3.1069
   37.710    3.2227
   37.740    3.0753
   37.770    3.0964
   37.800    2.8331
   37.830    2.8963
   37.860    3.1385
   37.890    2.8541
   37.920    3.1174
   37.950    2.9489
   37.980    3.0016
   38.010    3.1912
   38.040    2.9910
   38.070    3.0753
   38.100    2.8225
   38.130    2.8331
   38.160    3.0016
   38.190    3.1385
   38.220    3.0121
   38.250    3.1701
   38.280    2.8541
   38.310    3.2649
   38.340    2.7804
   38.370    3.1069
   38.400    2.9173
   38.430    3.0542
   38.460    3.3386
   38.490    3.1069
   38.520    2.8541
   38.550    2.8436
   38.580    3.2965
   38.610    2.9595
   38.640    3.1701
   38.670    3.2333
   38.700    3.1280
   38.730    2.8436
   38.760    3.0437
   38.790    3.0226
   38.820    3.1806
   38.850    3.0332
   38.880    3.0016
   38.910    3.3597
   38.940    3.1490
   38.970    3.0858
   39.000    3.2122
   39.030    2.9910
   39.060    3.0753
   39.090    3.0016
   39.120    3.1490
   39.150    3.0753
   39.180    3.1701
   39.210    3.1069
   39.240    2.9595
   39.270    3.0016
   39.300    2.8331
   39.330    3.0437
   39.360    3.2965
   39.390    3.1701
   39.420    3.0542
   39.450    2.8752
   39.480    3.2649
   39.510    2.9384
   39.540    2.9279
   39.570    2.8963
   39.600    2.9910
   39.630    3.0542
   39.660    3.0858
   39.690    2.8541
   39.720    2.9384
   39.750    2.9910
   39.780    3.1069
   39.810    2.9068
   39.840    3.0121
   39.870    2.9173
   39.900    3.0016
   39.930    2.9700
   39.960    2.9489
   39.990    3.1174