File: data/MOCOF-1/PXRD/PXRD_KE-273_Cu-Ka1_film-3mm_3s-deg.xyd
    1.500   17.7813
    1.530   17.3951
    1.560   17.3951
    1.590   16.8334
    1.620   15.7978
    1.650   15.9909
    1.680   15.3590
    1.710   14.2005
    1.740   14.5691
    1.770   14.0249
    1.800   14.4462
    1.830   13.6739
    1.860   13.3228
    1.890   12.8664
    1.920   12.4978
    1.950   12.6382
    1.980   12.4978
    2.010   11.6904
    2.040   11.9537
    2.070   11.3393
    2.100   10.9882
    2.130   11.3569
    2.160   11.1813
    2.190   11.2164
    2.220   11.3569
    2.250   10.7249
    2.280    9.8297
    2.310   11.1287
    2.340   10.3739
    2.370   10.1281
    2.400   10.7600
    2.430   10.3914
    2.460   10.1106
    2.490   10.7074
    2.520    9.8122
    2.550    9.9175
    2.580    9.3382
    2.610    9.6191
    2.640    9.9877
    2.670    9.4260
    2.700    9.3909
    2.730    9.5840
    2.760    9.5664
    2.790    9.3382
    2.820    9.1803
    2.850    9.7946
    2.880    9.2856
    2.910    9.3031
    2.940    9.4611
    2.970    9.0574
    3.000    9.0223
    3.030    9.2856
    3.060    8.9696
    3.090    9.0574
    3.120    9.1978
    3.150    8.7941
    3.180    9.6191
    3.210    9.2856
    3.240    8.6888
    3.270    8.8994
    3.300    8.2149
    3.330    8.8994
    3.360    8.4606
    3.390    8.9170
    3.420    8.3728
    3.450    8.6888
    3.480    8.7941
    3.510    8.4957
    3.540    8.5133
    3.570    8.7239
    3.600    9.5138
    3.630    9.0574
    3.660    8.7239
    3.690    8.0569
    3.720    8.9521
    3.750    8.1095
    3.780    8.6010
    3.810    8.6537
    3.840    8.3553
    3.870    8.4255
    3.900    8.9521
    3.930    8.8994
    3.960    9.3382
    3.990    8.7063
    4.020    8.9696
    4.050    8.5133
    4.080    8.5835
    4.110    8.3728
    4.140    8.9521
    4.170    8.4255
    4.200    8.4430
    4.230    8.9872
    4.260    8.5133
    4.290    8.4430
    4.320    8.7765
    4.350    8.4957
    4.380    8.7590
    4.410    8.8819
    4.440    8.7590
    4.470    9.0398
    4.500    8.8292
    4.530    8.3377
    4.560    9.0047
    4.590    8.5835
    4.620    8.9170
    4.650    8.7941
    4.680    8.8819
    4.710    8.5308
    4.740    9.4260
    4.770    9.0398
    4.800    9.1803
    4.830    8.8994
    4.860    8.3202
    4.890    8.9872
    4.920    9.6191
    4.950    9.6015
    4.980    9.7420
    5.010   10.2159
    5.040    8.7941
    5.070    9.8122
    5.100    9.9526
    5.130    9.9702
    5.160   10.0228
    5.190    9.6893
    5.220   10.6723
    5.250   10.3914
    5.280   10.7952
    5.310    9.9702
    5.340   11.0585
    5.370   11.0409
    5.400   10.9882
    5.430   11.2691
    5.460   11.1638
    5.490   11.1287
    5.520   11.6377
    5.550   11.2340
    5.580   11.6377
    5.610   11.2691
    5.640   10.7249
    5.670   10.6372
    5.700   10.6723
    5.730   10.8654
    5.760   10.7425
    5.790   10.4792
    5.820   10.3563
    5.850   10.0404
    5.880    9.4436
    5.910    9.3558
    5.940    9.2154
    5.970    9.5313
    6.000    9.0223
    6.030    9.0223
    6.060    8.8292
    6.090    8.6010
    6.120    8.8468
    6.150    8.6010
    6.180    8.5484
    6.210    8.2675
    6.240    8.6361
    6.270    8.9872
    6.300    8.3026
    6.330    8.3553
    6.360    8.5659
    6.390    8.0744
    6.420    8.1622
    6.450    7.8813
    6.480    8.0393
    6.510    8.5133
    6.540    7.8111
    6.570    7.7936
    6.600    8.4957
    6.630    8.5308
    6.660    7.4601
    6.690    7.8813
    6.720    7.6883
    6.750    7.7234
    6.780    8.0393
    6.810    8.0744
    6.840    7.2319
    6.870    7.5127
    6.900    6.9686
    6.930    7.1090
    6.960    7.4250
    6.990    7.3899
    7.020    7.4425
    7.050    7.1968
    7.080    7.6532
    7.110    6.8457
    7.140    7.1441
    7.170    7.2143
    7.200    7.2845
    7.230    7.3723
    7.260    7.2845
    7.290    7.2845
    7.320    7.2319
    7.350    7.3372
    7.380    6.5298
    7.410    7.1266
    7.440    6.8106
    7.470    6.3191
    7.500    7.1266
    7.530    6.6000
    7.560    6.7404
    7.590    7.0739
    7.620    7.0563
    7.650    6.2138
    7.680    6.7053
    7.710    6.4595
    7.740    6.6526
    7.770    6.9335
    7.800    7.1792
    7.830    6.7579
    7.860    6.3718
    7.890    6.6000
    7.920    6.6000
    7.950    6.1085
    7.980    6.7579
    8.010    6.6351
    8.040    6.5298
    8.070    6.5824
    8.100    6.5824
    8.130    6.2665
    8.160    6.6877
    8.190    6.3016
    8.220    6.7404
    8.250    6.3367
    8.280    6.5122
    8.310    6.4771
    8.340    6.2138
    8.370    5.9856
    8.400    6.7579
    8.430    6.5649
    8.460    6.1962
    8.490    6.0734
    8.520    6.1085
    8.550    6.0207
    8.580    6.0207
    8.610    5.9329
    8.640    5.7750
    8.670    6.1962
    8.700    6.4946
    8.730    6.2138
    8.760    6.1436
    8.790    6.0558
    8.820    6.1611
    8.850    6.0383
    8.880    6.0383
    8.910    6.1787
    8.940    6.2840
    8.970    6.1611
    9.000    6.0383
    9.030    5.8627
    9.060    5.9505
    9.090    6.3191
    9.120    6.3542
    9.150    5.8978
    9.180    5.8627
    9.210    6.0383
    9.240    6.0032
    9.270    6.0032
    9.300    6.0032
    9.330    6.1260
    9.360    6.2489
    9.390    6.2665
    9.420    6.0734
    9.450    6.0383
    9.480    6.2840
    9.510    5.7399
    9.540    6.0734
    9.570    6.2138
    9.600    6.0734
    9.630    6.1436
    9.660    5.6170
    9.690    6.6351
    9.720    6.3191
    9.750    6.2665
    9.780    6.6351
    9.810    6.1436
    9.840    6.0734
    9.870    6.1787
    9.900    6.1085
    9.930    6.0383
    9.960    6.0558
    9.990    5.9681
   10.020    6.4420
   10.050    6.4069
   10.080    6.5122
   10.110    5.8803
   10.140    6.0909
   10.170    6.2138
   10.200    6.0558
   10.230    6.6526
   10.260    6.0558
   10.290    6.1962
   10.320    6.0032
   10.350    6.2138
   10.380    6.1085
   10.410    6.5298
   10.440    5.9329
   10.470    6.1085
   10.500    6.0032
   10.530    6.4771
   10.560    6.3191
   10.590    6.2138
   10.620    6.3893
   10.650    6.4771
   10.680    6.5824
   10.710    5.8978
   10.740    5.8978
   10.770    6.6175
   10.800    6.7053
   10.830    6.4595
   10.860    6.5122
   10.890    6.2138
   10.920    6.4946
   10.950    6.5824
   10.980    6.3016
   11.010    6.5298
   11.040    6.2840
   11.070    5.9681
   11.100    6.6000
   11.130    5.8452
   11.160    6.1260
   11.190    6.1260
   11.220    6.1787
   11.250    6.2840
   11.280    6.6526
   11.310    5.9681
   11.340    6.6000
   11.370    6.0558
   11.400    6.4595
   11.430    6.2313
   11.460    6.2138
   11.490    5.8978
   11.520    5.8452
   11.550    6.2489
   11.580    5.9329
   11.610    6.0032
   11.640    6.5473
   11.670    6.4420
   11.700    6.1962
   11.730    6.0207
   11.760    5.7925
   11.790    6.5824
   11.820    5.7223
   11.850    6.2138
   11.880    6.3016
   11.910    5.8978
   11.940    5.8452
   11.970    6.4595
   12.000    6.1962
   12.030    6.4771
   12.060    6.2313
   12.090    6.1260
   12.120    6.2665
   12.150    6.1436
   12.180    5.6697
   12.210    6.2138
   12.240    5.7750
   12.270    6.2313
   12.300    5.3361
   12.330    6.3367
   12.360    6.0558
   12.390    5.4064
   12.420    6.1787
   12.450    5.7574
   12.480    5.7399
   12.510    5.5292
   12.540    6.0558
   12.570    5.6345
   12.600    6.2840
   12.630    5.5819
   12.660    6.1260
   12.690    5.9681
   12.720    5.8101
   12.750    6.2840
   12.780    5.9681
   12.810    5.6170
   12.840    5.8276
   12.870    5.6872
   12.900    5.9154
   12.930    5.9329
   12.960    5.4415
   12.990    5.4590
   13.020    5.9856
   13.050    5.7048
   13.080    5.6170
   13.110    5.7750
   13.140    5.5643
   13.170    5.8276
   13.200    5.4415
   13.230    5.5819
   13.260    5.6521
   13.290    5.5994
   13.320    5.9154
   13.350    5.5468
   13.380    5.4590
   13.410    6.2489
   13.440    5.8276
   13.470    5.5468
   13.500    5.6170
   13.530    5.8101
   13.560    5.9329
   13.590    5.5994
   13.620    5.8452
   13.650    5.9505
   13.680    5.9505
   13.710    6.3893
   13.740    5.7399
   13.770    5.7048
   13.800    5.4415
   13.830    5.8276
   13.860    5.7574
   13.890    5.6697
   13.920    5.5643
   13.950    5.5117
   13.980    5.2133
   14.010    5.6872
   14.040    5.8276
   14.070    6.1962
   14.100    5.7048
   14.130    5.6521
   14.160    5.5994
   14.190    5.8627
   14.220    5.9681
   14.250    5.9681
   14.280    6.3016
   14.310    6.4420
   14.340    6.1260
   14.370    5.9505
   14.400    6.3718
   14.430    5.8452
   14.460    6.1787
   14.490    5.9329
   14.520    5.8276
   14.550    6.3191
   14.580    6.0734
   14.610    6.0032
   14.640    6.0734
   14.670    6.0909
   14.700    5.9856
   14.730    6.4595
   14.760    6.0207
   14.790    5.5994
   14.820    5.9505
   14.850    6.0032
   14.880    5.8978
   14.910    6.0383
   14.940    5.6345
   14.970    6.0032
   15.000    5.5643
   15.030    5.8627
   15.060    5.7925
   15.090    6.1085
   15.120    5.5117
   15.150    6.1962
   15.180    6.1436
   15.210    5.5643
   15.240    5.4941
   15.270    5.9681
   15.300    5.9154
   15.330    5.3888
   15.360    5.8627
   15.390    5.3361
   15.420    5.7223
   15.450    5.3888
   15.480    5.5643
   15.510    5.8101
   15.540    5.3186
   15.570    5.5117
   15.600    5.7048
   15.630    6.2489
   15.660    5.8452
   15.690    5.5994
   15.720    5.7399
   15.750    5.4766
   15.780    5.2308
   15.810    5.5117
   15.840    6.0558
   15.870    5.3888
   15.900    5.9856
   15.930    5.3537
   15.960    5.9856
   15.990    5.5819
   16.020    5.8101
   16.050    5.6170
   16.080    5.3888
   16.110    5.5994
   16.140    6.1260
   16.170    6.0909
   16.200    5.3010
   16.230    5.5292
   16.260    5.1606
   16.290    5.6170
   16.320    5.3361
   16.350    6.1436
   16.380    5.3186
   16.410    5.2484
   16.440    6.1611
   16.470    5.8452
   16.500    5.3186
   16.530    5.8452
   16.560    5.7574
   16.590    5.5643
   16.620    5.2835
   16.650    5.8627
   16.680    4.8973
   16.710    5.5643
   16.740    5.5117
   16.770    5.4415
   16.800    5.7750
   16.830    5.0904
   16.860    5.3010
   16.890    5.8101
   16.920    5.2484
   16.950    5.2133
   16.980    5.7399
   17.010    5.6170
   17.040    5.5468
   17.070    5.8803
   17.100    5.1606
   17.130    5.4064
   17.160    5.3010
   17.190    5.4941
   17.220    6.0383
   17.250    5.3361
   17.280    5.2835
   17.310    5.6170
   17.340    5.5468
   17.370    5.4415
   17.400    5.3712
   17.430    5.9154
   17.460    5.9329
   17.490    5.3712
   17.520    5.0377
   17.550    5.3537
   17.580    5.2484
   17.610    5.2484
   17.640    5.4064
   17.670    5.3537
   17.700    5.3537
   17.730    5.4415
   17.760    5.5117
   17.790    5.2659
   17.820    5.4064
   17.850    5.2484
   17.880    4.9500
   17.910    5.7223
   17.940    5.4239
   17.970    5.4239
   18.000    5.3361
   18.030    5.0553
   18.060    5.5468
   18.090    5.0904
   18.120    5.5468
   18.150    5.3186
   18.180    4.8798
   18.210    5.5994
   18.240    5.4590
   18.270    5.5643
   18.300    5.7048
   18.330    5.4064
   18.360    5.1606
   18.390    5.3537
   18.420    5.5819
   18.450    5.5643
   18.480    5.1255
   18.510    5.0202
   18.540    5.3712
   18.570    5.9154
   18.600    5.1431
   18.630    5.7048
   18.660    5.3537
   18.690    5.4415
   18.720    5.2484
   18.750    5.5468
   18.780    5.3186
   18.810    5.4239
   18.840    5.8101
   18.870    5.4590
   18.900    5.9681
   18.930    5.1606
   18.960    5.3361
   18.990    5.3537
   19.020    5.0377
   19.050    5.4064
   19.080    5.4766
   19.110    5.4590
   19.140    5.3712
   19.170    5.4415
   19.200    5.0728
   19.230    5.3010
   19.260    5.2835
   19.290    5.7048
   19.320    4.9851
   19.350    5.2484
   19.380    5.4590
   19.410    5.5292
   19.440    5.3010
   19.470    4.9675
   19.500    5.3712
   19.530    5.1431
   19.560    5.4590
   19.590    5.1606
   19.620    5.6521
   19.650    5.2133
   19.680    5.5117
   19.710    4.9851
   19.740    5.1782
   19.770    5.3361
   19.800    5.5468
   19.830    4.9500
   19.860    5.1606
   19.890    5.0026
   19.920    5.0904
   19.950    5.6345
   19.980    4.7920
   20.010    5.1431
   20.040    4.9851
   20.070    5.7223
   20.100    4.7744
   20.130    5.3712
   20.160    4.8973
   20.190    5.3361
   20.220    5.4941
   20.250    5.0026
   20.280    5.3537
   20.310    5.3712
   20.340    5.3712
   20.370    5.2484
   20.400    5.0553
   20.430    5.0728
   20.460    4.7393
   20.490    5.4239
   20.520    4.9149
   20.550    4.9500
   20.580    5.4766
   20.610    5.5819
   20.640    4.7744
   20.670    4.7218
   20.700    5.0377
   20.730    5.1606
   20.760    5.2308
   20.790    5.2133
   20.820    5.0026
   20.850    5.3888
   20.880    5.1431
   20.910    5.0553
   20.940    5.1255
   20.970    4.8271
   21.000    5.3186
   21.030    5.2659
   21.060    5.2835
   21.090    4.8447
   21.120    5.1782
   21.150    4.8973
   21.180    5.0553
   21.210    5.0377
   21.240    5.7223
   21.270    5.0553
   21.300    5.6872
   21.330    5.1782
   21.360    4.5814
   21.390    4.7393
   21.420    4.9324
   21.450    5.1431
   21.480    5.2835
   21.510    5.1255
   21.540    4.8622
   21.570    4.7393
   21.600    4.8447
   21.630    5.1782
   21.660    4.9500
   21.690    5.2659
   21.720    5.1782
   21.750    5.3186
   21.780    5.5819
   21.810    4.9500
   21.840    4.8798
   21.870    5.4766
   21.900    4.4585
   21.930    4.6867
   21.960    5.1431
   21.990    4.9324
   22.020    4.7920
   22.050    5.2308
   22.080    4.8095
   22.110    4.9500
   22.140    5.0202
   22.170    5.0377
   22.200    5.2484
   22.230    5.0553
   22.260    5.0904
   22.290    4.5287
   22.320    4.4936
   22.350    4.7569
   22.380    4.5989
   22.410    5.0202
   22.440    5.1080
   22.470    4.9324
   22.500    4.7920
   22.530    5.2659
   22.560    4.6165
   22.590    5.0728
   22.620    4.6516
   22.650    4.8973
   22.680    5.0553
   22.710    4.6516
   22.740    4.7920
   22.770    5.2308
   22.800    4.4936
   22.830    4.4409
   22.860    4.6165
   22.890    4.6867
   22.920    4.4234
   22.950    4.8271
   22.980    4.6691
   23.010    4.8622
   23.040    4.4234
   23.070    5.1957
   23.100    4.9324
   23.130    4.8973
   23.160    5.4239
   23.190    4.5463
   23.220    4.8447
   23.250    4.5814
   23.280    4.5638
   23.310    4.8447
   23.340    5.0202
   23.370    5.0026
   23.400    4.8798
   23.430    4.2654
   23.460    4.1776
   23.490    5.1080
   23.520    4.7569
   23.550    4.9149
   23.580    4.6691
   23.610    4.7920
   23.640    4.7744
   23.670    4.9851
   23.700    4.8622
   23.730    4.4409
   23.760    4.8622
   23.790    4.5638
   23.820    4.6340
   23.850    4.6516
   23.880    4.3356
   23.910    4.4234
   23.940    4.7920
   23.970    4.6165
   24.000    4.5989
   24.030    4.9324
   24.060    4.6516
   24.090    4.4234
   24.120    4.6165
   24.150    4.1074
   24.180    4.4760
   24.210    4.5463
   24.240    4.6340
   24.270    4.4409
   24.300    4.7393
   24.330    4.3707
   24.360    4.1776
   24.390    4.7042
   24.420    4.6867
   24.450    4.3532
   24.480    4.4585
   24.510    4.5463
   24.540    4.4058
   24.570    4.5989
   24.600    4.0021
   24.630    4.2478
   24.660    4.3356
   24.690    3.8617
   24.720    4.1952
   24.750    4.3005
   24.780    4.5989
   24.810    4.0372
   24.840    4.6340
   24.870    4.8271
   24.900    4.5287
   24.930    4.6516
   24.960    4.3356
   24.990    4.1074
   25.020    4.6165
   25.050    4.3005
   25.080    4.7042
   25.110    4.0723
   25.140    4.6867
   25.170    4.7393
   25.200    4.3356
   25.230    4.5638
   25.260    4.3181
   25.290    4.5111
   25.320    4.3883
   25.350    4.5111
   25.380    4.2127
   25.410    4.3356
   25.440    3.9670
   25.470    4.6867
   25.500    4.4760
   25.530    4.2654
   25.560    4.9851
   25.590    4.4058
   25.620    3.9319
   25.650    4.3707
   25.680    4.5814
   25.710    4.4058
   25.740    4.4936
   25.770    4.2303
   25.800    4.7393
   25.830    4.4058
   25.860    4.5989
   25.890    4.2127
   25.920    4.1425
   25.950    4.2654
   25.980    3.8792
   26.010    4.5287
   26.040    4.1074
   26.070    4.1250
   26.100    4.1425
   26.130    4.1776
   26.160    4.2303
   26.190    4.4234
   26.220    4.0723
   26.250    4.2127
   26.280    4.4936
   26.310    4.2654
   26.340    4.3005
   26.370    4.4760
   26.400    3.9670
   26.430    4.4760
   26.460    4.1250
   26.490    4.2127
   26.520    4.4760
   26.550    4.0723
   26.580    4.4585
   26.610    4.0723
   26.640    4.2830
   26.670    3.9494
   26.700    4.3532
   26.730    4.1952
   26.760    4.0548
   26.790    3.6335
   26.820    4.0548
   26.850    4.1601
   26.880    3.7915
   26.910    4.3356
   26.940    4.2127
   26.970    4.1250
   27.000    3.8441
   27.030    4.3883
   27.060    4.1074
   27.090    4.1952
   27.120    4.2654
   27.150    4.2830
   27.180    4.0723
   27.210    4.1776
   27.240    3.8968
   27.270    3.7739
   27.300    4.0372
   27.330    4.1776
   27.360    3.8792
   27.390    4.0899
   27.420    3.9494
   27.450    4.0197
   27.480    3.8792
   27.510    3.8090
   27.540    4.2303
   27.570    4.0372
   27.600    3.5457
   27.630    3.9494
   27.660    3.6335
   27.690    3.6862
   27.720    3.5457
   27.750    3.8090
   27.780    4.0021
   27.810    3.9494
   27.840    4.1952
   27.870    3.9143
   27.900    3.8266
   27.930    3.7564
   27.960    3.9846
   27.990    3.9846
   28.020    3.9494
   28.050    3.4580
   28.080    3.5633
   28.110    3.6159
   28.140    4.5287
   28.170    3.7564
   28.200    3.8792
   28.230    3.5633
   28.260    3.8792
   28.290    3.5457
   28.320    3.7037
   28.350    3.8266
   28.380    3.9670
   28.410    4.1250
   28.440    3.9143
   28.470    3.7213
   28.500    3.9846
   28.530    3.5633
   28.560    4.0021
   28.590    3.8090
   28.620    3.7388
   28.650    3.7739
   28.680    3.7037
   28.710    4.0899
   28.740    3.7388
   28.770    3.5984
   28.800    4.1776
   28.830    3.8968
   28.860    3.6159
   28.890    3.4229
   28.920    3.7564
   28.950    3.4580
   28.980    3.4053
   29.010    3.6686
   29.040    4.0548
   29.070    3.7213
   29.100    3.6510
   29.130    3.6686
   29.160    3.5282
   29.190    3.7037
   29.220    3.8441
   29.250    3.6686
   29.280    3.5633
   29.310    3.4404
   29.340    3.6335
   29.370    3.9319
   29.400    3.7037
   29.430    3.6159
   29.460    3.5633
   29.490    3.6686
   29.520    3.6862
   29.550    3.3351
   29.580    3.7213
   29.610    3.6686
   29.640    3.6159
   29.670    3.3351
   29.700    3.3877
   29.730    3.5282
   29.760    3.3175
   29.790    3.6686
   29.820    3.4755
   29.850    3.6335
   29.880    3.7564
   29.910    3.3526
   29.940    3.3702
   29.970    3.3175
   30.000    3.5984
   30.030    3.6159
   30.060    3.2473
   30.090    3.1947
   30.120    3.6510
   30.150    3.4053
   30.180    3.4404
   30.210    3.1420
   30.240    3.3351
   30.270    3.4580
   30.300    3.7564
   30.330    3.8617
   30.360    3.5282
   30.390    3.2649
   30.420    3.3351
   30.450    3.1069
   30.480    3.3877
   30.510    2.9665
   30.540    3.1245
   30.570    3.5106
   30.600    2.9840
   30.630    3.4580
   30.660    3.2473
   30.690    3.2298
   30.720    3.6862
   30.750    3.1771
   30.780    2.8963
   30.810    3.1947
   30.840    3.0016
   30.870    3.4053
   30.900    3.0893
   30.930    3.6510
   30.960    3.3000
   30.990    3.0893
   31.020    2.8963
   31.050    3.4404
   31.080    3.2298
   31.110    3.1947
   31.140    3.3351
   31.170    3.1947
   31.200    3.1596
   31.230    3.0367
   31.260    3.1771
   31.290    3.0718
   31.320    3.2473
   31.350    3.0893
   31.380    3.1771
   31.410    3.1596
   31.440    2.9138
   31.470    3.0367
   31.500    3.0367
   31.530    2.9489
   31.560    3.3702
   31.590    3.0893
   31.620    3.1771
   31.650    3.0191
   31.680    2.8436
   31.710    2.9489
   31.740    2.9489
   31.770    3.2824
   31.800    3.0016
   31.830    3.0367
   31.860    3.1245
   31.890    3.0542
   31.920    3.0367
   31.950    2.9314
   31.980    3.0893
   32.010    2.8612
   32.040    3.1771
   32.070    2.8260
   32.100    3.1596
   32.130    3.0718
   32.160    3.3175
   32.190    3.2298
   32.220    3.1596
   32.250    2.7909
   32.280    2.9138
   32.310    3.0016
   32.340    3.0016
   32.370    2.9489
   32.400    2.9314
   32.430    2.9840
   32.460    2.9314
   32.490    2.9840
   32.520    3.2122
   32.550    3.2649
   32.580    3.0542
   32.610    2.8612
   32.640    2.9138
   32.670    2.9665
   32.700    2.7383
   32.730    2.8085
   32.760    2.5101
   32.790    3.0367
   32.820    2.9314
   32.850    2.7909
   32.880    2.7032
   32.910    3.0893
   32.940    2.8436
   32.970    2.8612
   33.000    2.7909
   33.030    3.1420
   33.060    2.8436
   33.090    3.0191
   33.120    3.0191
   33.150    2.9665
   33.180    2.9840
   33.210    2.6681
   33.240    3.2649
   33.270    2.7032
   33.300    3.0367
   33.330    2.7558
   33.360    3.0542
   33.390    2.9138
   33.420    2.8085
   33.450    2.9840
   33.480    2.8787
   33.510    2.8085
   33.540    2.9138
   33.570    2.9665
   33.600    2.6154
   33.630    2.8787
   33.660    2.8963
   33.690    2.5979
   33.720    2.8085
   33.750    2.8787
   33.780    2.7909
   33.810    2.6330
   33.840    2.5979
   33.870    2.4574
   33.900    2.9314
   33.930    3.1771
   33.960    2.9665
   33.990    2.9138
   34.020    2.6681
   34.050    3.1420
   34.080    2.7909
   34.110    2.7734
   34.140    3.0191
   34.170    2.7909
   34.200    2.9314
   34.230    2.6681
   34.260    2.4925
   34.290    2.7558
   34.320    2.4750
   34.350    2.7734
   34.380    3.0191
   34.410    2.7734
   34.440    2.7032
   34.470    2.8963
   34.500    2.8085
   34.530    2.7383
   34.560    2.8963
   34.590    2.8963
   34.620    2.7383
   34.650    2.6856
   34.680    2.9314
   34.710    2.3697
   34.740    2.7909
   34.770    2.9489
   34.800    2.4574
   34.830    2.6154
   34.860    2.5803
   34.890    2.9138
   34.920    2.9665
   34.950    2.7383
   34.980    2.6154
   35.010    2.6154
   35.040    3.1947
   35.070    2.6505
   35.100    2.7734
   35.130    2.7032
   35.160    3.2824
   35.190    2.8260
   35.220    2.7032
   35.250    2.7383
   35.280    2.5452
   35.310    2.7032
   35.340    2.6681
   35.370    2.8612
   35.400    3.0718
   35.430    2.8436
   35.460    2.3872
   35.490    2.7032
   35.520    2.9138
   35.550    2.7207
   35.580    2.6330
   35.610    2.7207
   35.640    2.6505
   35.670    2.8260
   35.700    2.5803
   35.730    2.8787
   35.760    2.7032
   35.790    2.5979
   35.820    2.7909
   35.850    2.8612
   35.880    2.7032
   35.910    2.6154
   35.940    2.7734
   35.970    2.9489
   36.000    2.7207
   36.030    2.4925
   36.060    2.8612
   36.090    2.7383
   36.120    2.4750
   36.150    2.8612
   36.180    2.6505
   36.210    2.9138
   36.240    2.5276
   36.270    2.7032
   36.300    2.4925
   36.330    2.6330
   36.360    2.7032
   36.390    2.8787
   36.420    3.0893
   36.450    2.7032
   36.480    2.5979
   36.510    2.5979
   36.540    2.9138
   36.570    2.8787
   36.600    2.6154
   36.630    2.6505
   36.660    2.7032
   36.690    2.4750
   36.720    2.7909
   36.750    2.8612
   36.780    2.5628
   36.810    2.9840
   36.840    2.4048
   36.870    2.9314
   36.900    2.6681
   36.930    2.6681
   36.960    2.8436
   36.990    2.5803
   37.020    2.9489
   37.050    2.7383
   37.080    2.9665
   37.110    2.7032
   37.140    2.5628
   37.170    2.8436
   37.200    2.4925
   37.230    2.5803
   37.260    2.5452
   37.290    2.7207
   37.320    2.4048
   37.350    2.8787
   37.380    2.8612
   37.410    2.6856
   37.440    2.4925
   37.470    2.8436
   37.500    2.4048
   37.530    2.7558
   37.560    2.4925
   37.590    2.8085
   37.620    2.5452
   37.650    2.6681
   37.680    2.3697
   37.710    2.2819
   37.740    2.4574
   37.770    2.7032
   37.800    2.5101
   37.830    2.7558
   37.860    2.8085
   37.890    2.5979
   37.920    2.7558
   37.950    2.5276
   37.980    2.8260
   38.010    2.5276
   38.040    2.5628
   38.070    2.4925
   38.100    2.2995
   38.130    2.5101
   38.160    3.1069
   38.190    2.5803
   38.220    2.5628
   38.250    2.5452
   38.280    2.6505
   38.310    2.4750
   38.340    2.5803
   38.370    2.8085
   38.400    2.5628
   38.430    2.5803
   38.460    2.4399
   38.490    2.5803
   38.520    2.5452
   38.550    2.7207
   38.580    2.4750
   38.610    2.6330
   38.640    2.5276
   38.670    2.8260
   38.700    2.9840
   38.730    2.4399
   38.760    2.3521
   38.790    2.2117
   38.820    2.7558
   38.850    2.6681
   38.880    2.5452
   38.910    2.6154
   38.940    2.6154
   38.970    2.3521
   39.000    2.6154
   39.030    2.5979
   39.060    2.6856
   39.090    2.8260
   39.120    2.5803
   39.150    2.8612
   39.180    2.5452
   39.210    2.7909
   39.240    2.8260
   39.270    2.6330
   39.300    2.9489
   39.330    2.4048
   39.360    2.8612
   39.390    2.6681
   39.420    2.8260
   39.450    2.5979
   39.480    2.4048
   39.510    2.5628
   39.540    2.4223
   39.570    2.6681
   39.600    2.7734
   39.630    2.3170
   39.660    2.5979
   39.690    2.5276
   39.720    2.6154
   39.750    2.8260
   39.780    2.6505
   39.810    2.6505
   39.840    2.5452
   39.870    2.7032
   39.900    2.5628
   39.930    2.6330
   39.960    2.7032
   39.990    2.5452