File: data/MOCOF-1/PXRD/PXRD_KE-142_Cu-Ka1_capillary-1mm_5s-deg.xyd
    1.500   22.9068
    1.530   22.8436
    1.560   21.3481
    1.590   20.6635
    1.620   19.8104
    1.650   18.9995
    1.680   18.5361
    1.710   17.8831
    1.740   16.9036
    1.770   17.2617
    1.800   16.9458
    1.830   15.9136
    1.860   15.4081
    1.890   15.3133
    1.920   14.4286
    1.950   14.2917
    1.980   14.1969
    2.010   13.0068
    2.040   13.5334
    2.070   12.7436
    2.100   12.5329
    2.130   12.1327
    2.160   12.3749
    2.190   11.8378
    2.220   11.9221
    2.250   11.1954
    2.280   11.2164
    2.310   11.3849
    2.340   10.9321
    2.370   10.9637
    2.400   10.8794
    2.430   10.3528
    2.460   10.3633
    2.490   10.5635
    2.520    9.7420
    2.550    9.7420
    2.580    9.9947
    2.610    8.8152
    2.640    9.4892
    2.670    9.1522
    2.700    9.3944
    2.730    8.7520
    2.760    8.6677
    2.790    9.1417
    2.820    9.0047
    2.850    8.8573
    2.880    8.7520
    2.910    8.5940
    2.940    8.6572
    2.970    8.5413
    3.000    8.5097
    3.030    8.4571
    3.060    8.5519
    3.090    8.2043
    3.120    7.8568
    3.150    8.0253
    3.180    7.6356
    3.210    7.2775
    3.240    7.7514
    3.270    7.5619
    3.300    8.0569
    3.330    7.5935
    3.360    7.6461
    3.390    7.4776
    3.420    7.3196
    3.450    7.8462
    3.480    7.9410
    3.510    7.2354
    3.540    6.9721
    3.570    7.4987
    3.600    7.4355
    3.630    6.9405
    3.660    7.8884
    3.690    7.1722
    3.720    7.3723
    3.750    7.1722
    3.780    6.8773
    3.810    7.1195
    3.840    7.1617
    3.870    7.2670
    3.900    7.1301
    3.930    7.0142
    3.960    6.7193
    3.990    7.2565
    4.020    7.1195
    4.050    7.6251
    4.080    7.3091
    4.110    7.2038
    4.140    6.8246
    4.170    7.2986
    4.200    7.0248
    4.230    7.3302
    4.260    6.8878
    4.290    6.9510
    4.320    6.5298
    4.350    6.6877
    4.380    6.5929
    4.410    6.4876
    4.440    6.8878
    4.470    6.5929
    4.500    6.9616
    4.530    7.1090
    4.560    6.7930
    4.590    6.6456
    4.620    6.9405
    4.650    6.6561
    4.680    6.4244
    4.710    6.1717
    4.740    6.2665
    4.770    6.5929
    4.800    6.2875
    4.830    6.6772
    4.860    6.3296
    4.890    6.6245
    4.920    6.5298
    4.950    6.5929
    4.980    6.4876
    5.010    6.1927
    5.040    6.6456
    5.070    6.4244
    5.100    6.3086
    5.130    6.6667
    5.160    6.4771
    5.190    6.2770
    5.220    6.1611
    5.250    6.4876
    5.280    6.1190
    5.310    6.7193
    5.340    6.1822
    5.370    6.4034
    5.400    6.4139
    5.430    6.0558
    5.460    5.8452
    5.490    6.2349
    5.520    6.3928
    5.550    6.2875
    5.580    6.0979
    5.610    6.1822
    5.640    5.6451
    5.670    5.8347
    5.700    6.3928
    5.730    6.0769
    5.760    5.9926
    5.790    6.1085
    5.820    6.1717
    5.850    5.9084
    5.880    6.0664
    5.910    5.7504
    5.940    5.7293
    5.970    6.1295
    6.000    5.8873
    6.030    5.9505
    6.060    5.9716
    6.090    6.2559
    6.120    5.8557
    6.150    6.0453
    6.180    6.2454
    6.210    6.5929
    6.240    6.5508
    6.270    6.2243
    6.300    6.2138
    6.330    6.0769
    6.360    5.8347
    6.390    5.8241
    6.420    6.4876
    6.450    6.1506
    6.480    6.2454
    6.510    5.9189
    6.540    6.4350
    6.570    5.7504
    6.600    6.4876
    6.630    6.4560
    6.660    5.8136
    6.690    5.8452
    6.720    6.2665
    6.750    6.0979
    6.780    6.1401
    6.810    5.9926
    6.840    6.2665
    6.870    6.1822
    6.900    6.1295
    6.930    6.0348
    6.960    6.1401
    6.990    5.9400
    7.020    5.9610
    7.050    6.0979
    7.080    6.0769
    7.110    6.1822
    7.140    6.2559
    7.170    6.1085
    7.200    6.1085
    7.230    6.3402
    7.260    6.2665
    7.290    6.4560
    7.320    6.1295
    7.350    6.0769
    7.380    6.2875
    7.410    6.5403
    7.440    6.4771
    7.470    6.2349
    7.500    5.9084
    7.530    6.4876
    7.560    6.6561
    7.590    6.1822
    7.620    6.4560
    7.650    6.1927
    7.680    6.1190
    7.710    6.1927
    7.740    6.4560
    7.770    6.2033
    7.800    6.2138
    7.830    6.4244
    7.860    5.9926
    7.890    6.1717
    7.920    6.1506
    7.950    5.9926
    7.980    6.0453
    8.010    6.4876
    8.040    6.0137
    8.070    6.3296
    8.100    5.8978
    8.130    6.0137
    8.160    6.4244
    8.190    5.9505
    8.220    6.4350
    8.250    5.7609
    8.280    5.9084
    8.310    6.0242
    8.340    6.4560
    8.370    5.9821
    8.400    6.0453
    8.430    5.9189
    8.460    6.2349
    8.490    6.0664
    8.520    6.0874
    8.550    6.4455
    8.580    6.1611
    8.610    6.3086
    8.640    6.2559
    8.670    5.9084
    8.700    6.0664
    8.730    6.0558
    8.760    6.0348
    8.790    6.1717
    8.820    6.1717
    8.850    6.0348
    8.880    6.0348
    8.910    6.1295
    8.940    5.9189
    8.970    6.1822
    9.000    6.1822
    9.030    6.1717
    9.060    6.0242
    9.090    6.2349
    9.120    5.9926
    9.150    6.1611
    9.180    6.2243
    9.210    6.1717
    9.240    6.1717
    9.270    6.1190
    9.300    6.0769
    9.330    6.0032
    9.360    5.6661
    9.390    5.8136
    9.420    6.1190
    9.450    5.7609
    9.480    6.0664
    9.510    6.1717
    9.540    6.1295
    9.570    5.9084
    9.600    5.9084
    9.630    5.9294
    9.660    6.2770
    9.690    5.7399
    9.720    6.2559
    9.750    5.8136
    9.780    6.2981
    9.810    6.0032
    9.840    6.2138
    9.870    6.3507
    9.900    5.8768
    9.930    5.8978
    9.960    5.6767
    9.990    5.8662
   10.020    5.9400
   10.050    6.0453
   10.080    6.0032
   10.110    5.9084
   10.140    6.0558
   10.170    5.6767
   10.200    5.6977
   10.230    6.1927
   10.260    5.6451
   10.290    6.0242
   10.320    5.9505
   10.350    6.0032
   10.380    5.5924
   10.410    6.2665
   10.440    6.0242
   10.470    5.9189
   10.500    5.8241
   10.530    5.8768
   10.560    5.9505
   10.590    6.0032
   10.620    5.8768
   10.650    5.7293
   10.680    5.9189
   10.710    6.0664
   10.740    5.8662
   10.770    6.1401
   10.800    6.0032
   10.830    5.7083
   10.860    5.4871
   10.890    5.9610
   10.920    6.1717
   10.950    6.2559
   10.980    5.3818
   11.010    5.9505
   11.040    5.9400
   11.070    6.1611
   11.100    5.8662
   11.130    5.9505
   11.160    6.1190
   11.190    5.9505
   11.220    6.2349
   11.250    5.8452
   11.280    6.0242
   11.310    5.8136
   11.340    6.1506
   11.370    5.7820
   11.400    5.7188
   11.430    5.7504
   11.460    5.6977
   11.490    5.6661
   11.520    5.9505
   11.550    5.7504
   11.580    5.8031
   11.610    6.1822
   11.640    5.5608
   11.670    5.7820
   11.700    5.7293
   11.730    5.9189
   11.760    5.8768
   11.790    6.1401
   11.820    5.7504
   11.850    6.0664
   11.880    5.8873
   11.910    5.9610
   11.940    5.8557
   11.970    5.8031
   12.000    5.9084
   12.030    6.2349
   12.060    6.0664
   12.090    6.0664
   12.120    5.2765
   12.150    5.4766
   12.180    6.0242
   12.210    5.8768
   12.240    5.3818
   12.270    6.0032
   12.300    5.9821
   12.330    5.7083
   12.360    5.6135
   12.390    5.4976
   12.420    6.0032
   12.450    5.5714
   12.480    5.3923
   12.510    5.6661
   12.540    6.0979
   12.570    5.6872
   12.600    6.2349
   12.630    5.4660
   12.660    5.8031
   12.690    5.7609
   12.720    5.3397
   12.750    5.5924
   12.780    5.3923
   12.810    5.6345
   12.840    5.4134
   12.870    5.8347
   12.900    5.9505
   12.930    5.6767
   12.960    5.5082
   12.990    5.3607
   13.020    5.8241
   13.050    5.8241
   13.080    5.7083
   13.110    5.8136
   13.140    5.1711
   13.170    5.3186
   13.200    5.8768
   13.230    5.5503
   13.260    5.6977
   13.290    5.5714
   13.320    5.6872
   13.350    5.6135
   13.380    5.5819
   13.410    6.0348
   13.440    5.8031
   13.470    5.6135
   13.500    5.4766
   13.530    5.4976
   13.560    5.4450
   13.590    5.8031
   13.620    5.7083
   13.650    5.8136
   13.680    5.3502
   13.710    5.3291
   13.740    5.7609
   13.770    5.8662
   13.800    5.6135
   13.830    5.3712
   13.860    4.8131
   13.890    5.7820
   13.920    6.0664
   13.950    5.3818
   13.980    5.4450
   14.010    5.5503
   14.040    5.6029
   14.070    5.9189
   14.100    5.9610
   14.130    5.7083
   14.160    5.5503
   14.190    5.6240
   14.220    5.1922
   14.250    5.5503
   14.280    5.4871
   14.310    5.9400
   14.340    5.6872
   14.370    5.8557
   14.400    5.3291
   14.430    5.3502
   14.460    5.5187
   14.490    6.0032
   14.520    5.5398
   14.550    5.4660
   14.580    5.6451
   14.610    6.2243
   14.640    5.2133
   14.670    5.8662
   14.700    5.3081
   14.730    5.6767
   14.760    5.6135
   14.790    5.7715
   14.820    5.5819
   14.850    5.6345
   14.880    5.9294
   14.910    5.6345
   14.940    5.5924
   14.970    5.6029
   15.000    5.7715
   15.030    5.8873
   15.060    5.4344
   15.090    5.5398
   15.120    5.4450
   15.150    5.2449
   15.180    6.3507
   15.210    5.2659
   15.240    5.7399
   15.270    5.9084
   15.300    5.6872
   15.330    5.2975
   15.360    5.7504
   15.390    5.6240
   15.420    5.7399
   15.450    5.8768
   15.480    5.7715
   15.510    5.6977
   15.540    5.7609
   15.570    5.8136
   15.600    5.9716
   15.630    5.5924
   15.660    5.5714
   15.690    5.7715
   15.720    5.7399
   15.750    5.7293
   15.780    5.6556
   15.810    5.7925
   15.840    6.0137
   15.870    5.9926
   15.900    6.0032
   15.930    6.2349
   15.960    6.2665
   15.990    6.1506
   16.020    6.1927
   16.050    6.6035
   16.080    6.4034
   16.110    5.8662
   16.140    6.0453
   16.170    6.0979
   16.200    5.9926
   16.230    6.1611
   16.260    6.2981
   16.290    6.2665
   16.320    6.8141
   16.350    6.2349
   16.380    5.8873
   16.410    6.1295
   16.440    6.1295
   16.470    5.7083
   16.500    5.7504
   16.530    5.6135
   16.560    5.9926
   16.590    5.8768
   16.620    5.5714
   16.650    5.6767
   16.680    5.9189
   16.710    5.8662
   16.740    5.7820
   16.770    5.9400
   16.800    5.9610
   16.830    5.8136
   16.860    5.6029
   16.890    5.5819
   16.920    6.0032
   16.950    5.7188
   16.980    5.5398
   17.010    5.5714
   17.040    5.8662
   17.070    5.4028
   17.100    5.7399
   17.130    5.7083
   17.160    5.6977
   17.190    5.8347
   17.220    5.9084
   17.250    5.9716
   17.280    5.8768
   17.310    5.6345
   17.340    5.7925
   17.370    5.8557
   17.400    6.2875
   17.430    5.6767
   17.460    5.6767
   17.490    6.0453
   17.520    5.6872
   17.550    5.8136
   17.580    5.7715
   17.610    5.5608
   17.640    5.8347
   17.670    5.8241
   17.700    5.6451
   17.730    5.9716
   17.760    5.8452
   17.790    5.9294
   17.820    5.6240
   17.850    5.6556
   17.880    5.4976
   17.910    6.1927
   17.940    6.3612
   17.970    5.7188
   18.000    5.7609
   18.030    6.0769
   18.060    5.7820
   18.090    5.5292
   18.120    6.0137
   18.150    5.9294
   18.180    5.9189
   18.210    5.9926
   18.240    5.8031
   18.270    5.8873
   18.300    5.7820
   18.330    5.8136
   18.360    5.7715
   18.390    6.0348
   18.420    5.5608
   18.450    5.6029
   18.480    6.0348
   18.510    6.0137
   18.540    5.1711
   18.570    5.5398
   18.600    5.8557
   18.630    6.0348
   18.660    5.6661
   18.690    5.9189
   18.720    5.5608
   18.750    5.8768
   18.780    5.8136
   18.810    5.7925
   18.840    5.5608
   18.870    5.8241
   18.900    5.9716
   18.930    6.0874
   18.960    6.3507
   18.990    5.9716
   19.020    5.8452
   19.050    6.0242
   19.080    5.8557
   19.110    5.9716
   19.140    5.9400
   19.170    5.6556
   19.200    5.5398
   19.230    5.6556
   19.260    5.6240
   19.290    5.7820
   19.320    5.8452
   19.350    6.0348
   19.380    5.9926
   19.410    5.7293
   19.440    5.3291
   19.470    5.7925
   19.500    5.8768
   19.530    5.9821
   19.560    5.6977
   19.590    5.8347
   19.620    5.9821
   19.650    5.8873
   19.680    5.5608
   19.710    6.0664
   19.740    5.8241
   19.770    5.7399
   19.800    5.8662
   19.830    5.6556
   19.860    5.9400
   19.890    5.9926
   19.920    5.7820
   19.950    5.9189
   19.980    5.8978
   20.010    5.9505
   20.040    5.8662
   20.070    6.2138
   20.100    6.0137
   20.130    5.8031
   20.160    5.8452
   20.190    5.6556
   20.220    5.8452
   20.250    5.7715
   20.280    5.3397
   20.310    5.9610
   20.340    6.0242
   20.370    5.9400
   20.400    6.0032
   20.430    5.4134
   20.460    6.1506
   20.490    5.8557
   20.520    5.7715
   20.550    5.6872
   20.580    5.7188
   20.610    5.6345
   20.640    5.7293
   20.670    6.0137
   20.700    5.9189
   20.730    5.7504
   20.760    6.0664
   20.790    5.9084
   20.820    6.2243
   20.850    6.0664
   20.880    6.3823
   20.910    5.9821
   20.940    5.8347
   20.970    5.9294
   21.000    6.0242
   21.030    5.9610
   21.060    5.7293
   21.090    5.5187
   21.120    6.0874
   21.150    5.6556
   21.180    6.0348
   21.210    6.0453
   21.240    5.9716
   21.270    5.9610
   21.300    6.0137
   21.330    6.5192
   21.360    6.2033
   21.390    5.7820
   21.420    5.7925
   21.450    5.8768
   21.480    5.9821
   21.510    5.7188
   21.540    5.6556
   21.570    5.9400
   21.600    6.1717
   21.630    6.0558
   21.660    6.0137
   21.690    5.5714
   21.720    6.3086
   21.750    5.8241
   21.780    5.6345
   21.810    5.6661
   21.840    5.4344
   21.870    6.3928
   21.900    5.6556
   21.930    5.8557
   21.960    6.0137
   21.990    5.8662
   22.020    5.8873
   22.050    5.9400
   22.080    5.7083
   22.110    6.0137
   22.140    6.0558
   22.170    5.8662
   22.200    5.9505
   22.230    5.8662
   22.260    5.8347
   22.290    5.8241
   22.320    5.7504
   22.350    6.2665
   22.380    5.5608
   22.410    5.9610
   22.440    5.6977
   22.470    5.9084
   22.500    5.8241
   22.530    5.7083
   22.560    5.8241
   22.590    5.9926
   22.620    5.7504
   22.650    6.0032
   22.680    6.1506
   22.710    5.7925
   22.740    5.7399
   22.770    5.5187
   22.800    5.7083
   22.830    5.8662
   22.860    6.0453
   22.890    6.0348
   22.920    5.9400
   22.950    6.3191
   22.980    5.8768
   23.010    6.1506
   23.040    5.9821
   23.070    5.8136
   23.100    5.9400
   23.130    5.7188
   23.160    5.8873
   23.190    6.0242
   23.220    5.6345
   23.250    6.4876
   23.280    5.9821
   23.310    5.6556
   23.340    5.7188
   23.370    5.7715
   23.400    5.8873
   23.430    5.9084
   23.460    5.6661
   23.490    5.8768
   23.520    6.1717
   23.550    5.8873
   23.580    6.2559
   23.610    6.0453
   23.640    5.8662
   23.670    5.6451
   23.700    6.1611
   23.730    6.1506
   23.760    5.7293
   23.790    5.6345
   23.820    6.1927
   23.850    6.0769
   23.880    5.7293
   23.910    5.7925
   23.940    5.4766
   23.970    5.9189
   24.000    6.0979
   24.030    5.7609
   24.060    5.8136
   24.090    6.0979
   24.120    5.6240
   24.150    6.0664
   24.180    5.2765
   24.210    5.5608
   24.240    5.5714
   24.270    6.0558
   24.300    5.9294
   24.330    5.8978
   24.360    5.6345
   24.390    5.8347
   24.420    5.6977
   24.450    5.5398
   24.480    6.1085
   24.510    5.7925
   24.540    5.8031
   24.570    5.5187
   24.600    5.9505
   24.630    5.5924
   24.660    5.5503
   24.690    5.7083
   24.720    5.6767
   24.750    5.8136
   24.780    5.4555
   24.810    5.7399
   24.840    5.4871
   24.870    5.5714
   24.900    5.6872
   24.930    5.4555
   24.960    5.6029
   24.990    5.9505
   25.020    5.5398
   25.050    5.6977
   25.080    5.7715
   25.110    5.4239
   25.140    5.7083
   25.170    5.5503
   25.200    5.5608
   25.230    5.2870
   25.260    5.6661
   25.290    5.5398
   25.320    5.4555
   25.350    5.5398
   25.380    5.5714
   25.410    5.3502
   25.440    5.2765
   25.470    5.3712
   25.500    5.3081
   25.530    5.7399
   25.560    5.5503
   25.590    5.5082
   25.620    5.4239
   25.650    5.2870
   25.680    5.7820
   25.710    5.9821
   25.740    6.1295
   25.770    5.5819
   25.800    5.4555
   25.830    5.7504
   25.860    5.8031
   25.890    5.6029
   25.920    5.5292
   25.950    5.4134
   25.980    5.5608
   26.010    5.7188
   26.040    5.7399
   26.070    5.3502
   26.100    5.4450
   26.130    5.1606
   26.160    6.0242
   26.190    5.4134
   26.220    5.5819
   26.250    5.4871
   26.280    5.7083
   26.310    5.4239
   26.340    5.2554
   26.370    5.4976
   26.400    5.1290
   26.430    5.4239
   26.460    5.3607
   26.490    5.3502
   26.520    5.2870
   26.550    5.1501
   26.580    5.3081
   26.610    5.4344
   26.640    5.6345
   26.670    5.4344
   26.700    5.5819
   26.730    5.1395
   26.760    5.2659
   26.790    5.2027
   26.820    5.3291
   26.850    5.3818
   26.880    5.6872
   26.910    5.1606
   26.940    5.1185
   26.970    5.6661
   27.000    5.4344
   27.030    5.3186
   27.060    5.3818
   27.090    5.5608
   27.120    5.3607
   27.150    5.2343
   27.180    5.2870
   27.210    5.3923
   27.240    5.1817
   27.270    4.9394
   27.300    5.2449
   27.330    5.0974
   27.360    5.7399
   27.390    5.3923
   27.420    5.2870
   27.450    5.4555
   27.480    5.6135
   27.510    5.1606
   27.540    5.2238
   27.570    5.3397
   27.600    5.2027
   27.630    5.4134
   27.660    5.3186
   27.690    5.6029
   27.720    5.2238
   27.750    5.0553
   27.780    5.3291
   27.810    5.1817
   27.840    5.3397
   27.870    5.1711
   27.900    5.0342
   27.930    5.3923
   27.960    5.4976
   27.990    5.3081
   28.020    5.4766
   28.050    5.5187
   28.080    5.2027
   28.110    5.4976
   28.140    5.1501
   28.170    5.2449
   28.200    5.0869
   28.230    5.4239
   28.260    5.2870
   28.290    5.5398
   28.320    5.2238
   28.350    5.2238
   28.380    5.0132
   28.410    5.3291
   28.440    4.8763
   28.470    5.3291
   28.500    5.3923
   28.530    5.2343
   28.560    5.2975
   28.590    5.3397
   28.620    5.2449
   28.650    4.9605
   28.680    4.9921
   28.710    5.0553
   28.740    5.1817
   28.770    4.9710
   28.800    5.5819
   28.830    5.1817
   28.860    5.2554
   28.890    5.2765
   28.920    5.0553
   28.950    5.0869
   28.980    5.1711
   29.010    5.2554
   29.040    5.2975
   29.070    5.1817
   29.100    5.0237
   29.130    4.4550
   29.160    4.9078
   29.190    5.3502
   29.220    5.1606
   29.250    5.5292
   29.280    4.9500
   29.310    5.0764
   29.340    5.2659
   29.370    4.7920
   29.400    4.7815
   29.430    5.0764
   29.460    5.1922
   29.490    4.9078
   29.520    4.8447
   29.550    5.1395
   29.580    4.9078
   29.610    5.0974
   29.640    4.5076
   29.670    5.1080
   29.700    4.7393
   29.730    5.1395
   29.760    4.4655
   29.790    4.9078
   29.820    4.8341
   29.850    4.8657
   29.880    4.9816
   29.910    4.7709
   29.940    5.2870
   29.970    5.0448
   30.000    5.0237
   30.030    4.9184
   30.060    4.9816
   30.090    4.9710
   30.120    5.0026
   30.150    5.2343
   30.180    4.9078
   30.210    4.8341
   30.240    4.6340
   30.270    4.8025
   30.300    4.9710
   30.330    4.8025
   30.360    5.2343
   30.390    5.0448
   30.420    4.2338
   30.450    5.3607
   30.480    4.7920
   30.510    4.9710
   30.540    4.8657
   30.570    4.7077
   30.600    5.0132
   30.630    4.7604
   30.660    4.7077
   30.690    4.6445
   30.720    5.0869
   30.750    5.0132
   30.780    4.7815
   30.810    5.1606
   30.840    4.7288
   30.870    5.0553
   30.900    4.8973
   30.930    4.8552
   30.960    4.9500
   30.990    5.0026
   31.020    4.7920
   31.050    4.9816
   31.080    4.8341
   31.110    4.7604
   31.140    5.1080
   31.170    4.8236
   31.200    4.8131
   31.230    4.5182
   31.260    4.8763
   31.290    4.8763
   31.320    4.5814
   31.350    5.0237
   31.380    4.8552
   31.410    5.0974
   31.440    4.7183
   31.470    5.0974
   31.500    5.0658
   31.530    5.1395
   31.560    4.8447
   31.590    5.2343
   31.620    5.1711
   31.650    5.0658
   31.680    5.1817
   31.710    5.0974
   31.740    5.1395
   31.770    4.7499
   31.800    4.9605
   31.830    5.3291
   31.860    4.9394
   31.890    5.2133
   31.920    5.1080
   31.950    5.0342
   31.980    5.1817
   32.010    5.3502
   32.040    5.1290
   32.070    5.4344
   32.100    5.3186
   32.130    5.4660
   32.160    5.0237
   32.190    4.9921
   32.220    4.6551
   32.250    4.9710
   32.280    4.3602
   32.310    4.6656
   32.340    4.4234
   32.370    4.9500
   32.400    4.8552
   32.430    5.0658
   32.460    4.9500
   32.490    4.6761
   32.520    5.0132
   32.550    4.8763
   32.580    4.8657
   32.610    4.2759
   32.640    4.5076
   32.670    4.9184
   32.700    4.4128
   32.730    4.8131
   32.760    4.8236
   32.790    4.5498
   32.820    4.6340
   32.850    4.6656
   32.880    4.5498
   32.910    4.7393
   32.940    4.5182
   32.970    4.3181
   33.000    4.6024
   33.030    4.6761
   33.060    4.4866
   33.090    4.5603
   33.120    4.4128
   33.150    4.3602
   33.180    4.2127
   33.210    4.4128
   33.240    4.4760
   33.270    4.6867
   33.300    4.2865
   33.330    4.4866
   33.360    4.2233
   33.390    4.4234
   33.420    4.5814
   33.450    4.0969
   33.480    4.5076
   33.510    4.4444
   33.540    4.7604
   33.570    4.2549
   33.600    4.7604
   33.630    4.1601
   33.660    4.4971
   33.690    4.5076
   33.720    4.2127
   33.750    4.4023
   33.780    4.5287
   33.810    4.8552
   33.840    4.6867
   33.870    4.6656
   33.900    4.3602
   33.930    4.3813
   33.960    4.4971
   33.990    4.1811
   34.020    4.4760
   34.050    4.4550
   34.080    4.3813
   34.110    4.5603
   34.140    4.2970
   34.170    4.2338
   34.200    4.7183
   34.230    4.2654
   34.260    4.3075
   34.290    4.2654
   34.320    4.3497
   34.350    3.8863
   34.380    3.9916
   34.410    4.3602
   34.440    4.1811
   34.470    4.4234
   34.500    4.2970
   34.530    4.5392
   34.560    4.3075
   34.590    4.1601
   34.620    4.3075
   34.650    4.3497
   34.680    4.5603
   34.710    4.2233
   34.740    4.3813
   34.770    4.3391
   34.800    4.3181
   34.830    4.2970
   34.860    4.3181
   34.890    4.2970
   34.920    4.2233
   34.950    4.0442
   34.980    4.2654
   35.010    4.2970
   35.040    4.3181
   35.070    4.2549
   35.100    4.2654
   35.130    4.0337
   35.160    4.2759
   35.190    4.3497
   35.220    4.4234
   35.250    4.1390
   35.280    4.0232
   35.310    4.0758
   35.340    4.0653
   35.370    4.2549
   35.400    4.2549
   35.430    4.1706
   35.460    4.3075
   35.490    3.9705
   35.520    3.9179
   35.550    4.2338
   35.580    4.0126
   35.610    3.9705
   35.640    3.9916
   35.670    4.3813
   35.700    4.0969
   35.730    4.2549
   35.760    4.1601
   35.790    4.1811
   35.820    3.8757
   35.850    4.0969
   35.880    4.1811
   35.910    4.0126
   35.940    4.4023
   35.970    3.9810
   36.000    4.1917
   36.030    4.1811
   36.060    4.0969
   36.090    4.0126
   36.120    3.8757
   36.150    4.2233
   36.180    4.1811
   36.210    3.8863
   36.240    4.0548
   36.270    4.1706
   36.300    3.9284
   36.330    3.9916
   36.360    4.3286
   36.390    4.0442
   36.420    3.9284
   36.450    3.9494
   36.480    4.0232
   36.510    4.4023
   36.540    4.0232
   36.570    4.0758
   36.600    3.9284
   36.630    4.2654
   36.660    4.2443
   36.690    3.9494
   36.720    4.0442
   36.750    4.0232
   36.780    3.9284
   36.810    4.2127
   36.840    3.9705
   36.870    4.3391
   36.900    4.0548
   36.930    4.1811
   36.960    4.0548
   36.990    4.1285
   37.020    3.8231
   37.050    3.9810
   37.080    4.1285
   37.110    4.0126
   37.140    4.3075
   37.170    3.9073
   37.200    4.0337
   37.230    4.0126
   37.260    3.6862
   37.290    4.0442
   37.320    4.3602
   37.350    3.8863
   37.380    4.2443
   37.410    4.0548
   37.440    3.9494
   37.470    4.3497
   37.500    4.2233
   37.530    4.2127
   37.560    4.1074
   37.590    4.0126
   37.620    4.1074
   37.650    4.2338
   37.680    4.0653
   37.710    4.0232
   37.740    4.0548
   37.770    3.8652
   37.800    4.3075
   37.830    3.7704
   37.860    3.8652
   37.890    4.1180
   37.920    3.9389
   37.950    3.8441
   37.980    3.9389
   38.010    4.0969
   38.040    3.7388
   38.070    4.1601
   38.100    3.8968
   38.130    4.1601
   38.160    3.8020
   38.190    4.4760
   38.220    4.0232
   38.250    3.8652
   38.280    4.1601
   38.310    3.7283
   38.340    4.1285
   38.370    3.9600
   38.400    3.9284
   38.430    4.0021
   38.460    4.3602
   38.490    3.9600
   38.520    3.8441
   38.550    3.9705
   38.580    4.2022
   38.610    4.0021
   38.640    4.1496
   38.670    4.2338
   38.700    4.1706
   38.730    4.3497
   38.760    4.1496
   38.790    4.3286
   38.820    4.3286
   38.850    4.1180
   38.880    4.0864
   38.910    4.0758
   38.940    4.0653
   38.970    4.0337
   39.000    4.3075
   39.030    4.2443
   39.060    4.1811
   39.090    4.2865
   39.120    4.0126
   39.150    4.1496
   39.180    4.3813
   39.210    4.4760
   39.240    4.0548
   39.270    4.2970
   39.300    4.4444
   39.330    4.3707
   39.360    4.3497
   39.390    4.4128
   39.420    4.2338
   39.450    4.0548
   39.480    4.0232
   39.510    4.2654
   39.540    4.0126
   39.570    3.9810
   39.600    4.2759
   39.630    3.9284
   39.660    4.2233
   39.690    4.3707
   39.720    4.0021
   39.750    3.9284
   39.780    3.8968
   39.810    3.9179
   39.840    3.9705
   39.870    3.7704
   39.900    3.6124
   39.930    3.8231
   39.960    3.8652
   39.990    3.7177