File: data/MOCOF-1/PXRD/PXRD_KE-106_Cu-Ka1_capillary-1mm_5s-deg.xyd
    1.500   13.3965
    1.530   13.5124
    1.560   13.1964
    1.590   12.7436
    1.620   12.3117
    1.650   12.9753
    1.680   11.8062
    1.710   12.1643
    1.740   12.2170
    1.770   11.8905
    1.800   11.8273
    1.830   11.9010
    1.860   11.4692
    1.890   11.2059
    1.920   11.3007
    1.950   11.0163
    1.980   11.9642
    2.010   10.8583
    2.040   11.1532
    2.070   11.7325
    2.100   10.9215
    2.130   11.0479
    2.160   11.2480
    2.190   11.5008
    2.220   11.6272
    2.250   11.9853
    2.280   11.1954
    2.310   11.7009
    2.340   11.8167
    2.370   12.0063
    2.400   12.0590
    2.430   12.1748
    2.460   12.2907
    2.490   12.5645
    2.520   13.0806
    2.550   13.5124
    2.580   13.2070
    2.610   13.9442
    2.640   14.5445
    2.670   14.8499
    2.700   15.1553
    2.730   15.4502
    2.760   16.7667
    2.790   16.4192
    2.820   16.7246
    2.850   17.9779
    2.880   18.3149
    2.910   19.4207
    2.940   20.1580
    2.970   20.7899
    3.000   22.0326
    3.030   23.7283
    3.060   24.1706
    3.090   25.5924
    3.120   26.7299
    3.150   28.9731
    3.180   31.5640
    3.210   33.6072
    3.240   35.9768
    3.270   38.9363
    3.300   42.2749
    3.330   46.9194
    3.360   51.7746
    3.390   57.5671
    3.420   63.3597
    3.450   68.3939
    3.480   67.5829
    3.510   58.1464
    3.540   48.7520
    3.570   37.2301
    3.600   31.6061
    3.630   28.1517
    3.660   26.3086
    3.690   25.4976
    3.720   25.6451
    3.750   25.3818
    3.780   25.8241
    3.810   28.3939
    3.840   28.3307
    3.870   28.1411
    3.900   29.0679
    3.930   29.9947
    3.960   30.8162
    3.990   30.3423
    4.020   29.4576
    4.050   28.4992
    4.080   26.5613
    4.110   24.6235
    4.140   22.4855
    4.170   20.2949
    4.200   18.5887
    4.230   16.5034
    4.260   15.4502
    4.290   14.0074
    4.320   13.0700
    4.350   11.6693
    4.380   10.5951
    4.410    9.8999
    4.440    8.6467
    4.470    8.3307
    4.500    7.8884
    4.530    8.0358
    4.560    7.2354
    4.590    6.9826
    4.620    6.7615
    4.650    6.3823
    4.680    6.4560
    4.710    6.6772
    4.740    6.3718
    4.770    6.0032
    4.800    6.2243
    4.830    6.2243
    4.860    5.9294
    4.890    6.1295
    4.920    5.9821
    4.950    5.6977
    4.980    5.5187
    5.010    5.6767
    5.040    5.6029
    5.070    5.3818
    5.100    5.4976
    5.130    5.4239
    5.160    5.5187
    5.190    5.2659
    5.220    5.5503
    5.250    5.4239
    5.280    5.1711
    5.310    4.9816
    5.340    5.4871
    5.370    5.1080
    5.400    5.4239
    5.430    4.8657
    5.460    4.9605
    5.490    5.2238
    5.520    4.8973
    5.550    4.9921
    5.580    5.1817
    5.610    5.0553
    5.640    5.0553
    5.670    5.1185
    5.700    5.0764
    5.730    5.1395
    5.760    4.8763
    5.790    5.2027
    5.820    5.0026
    5.850    4.6867
    5.880    5.0658
    5.910    5.0342
    5.940    4.9816
    5.970    5.1395
    6.000    4.7077
    6.030    4.4023
    6.060    4.8341
    6.090    4.8763
    6.120    4.9605
    6.150    5.1922
    6.180    4.7709
    6.210    4.6340
    6.240    4.9394
    6.270    5.3081
    6.300    5.2870
    6.330    4.8868
    6.360    5.4555
    6.390    5.0553
    6.420    5.6345
    6.450    5.3818
    6.480    5.1922
    6.510    5.4555
    6.540    5.8557
    6.570    6.1085
    6.600    5.7399
    6.630    6.0137
    6.660    6.4244
    6.690    6.6140
    6.720    6.6772
    6.750    6.8036
    6.780    7.1827
    6.810    7.7093
    6.840    7.6145
    6.870    8.6361
    6.900    9.0469
    6.930    9.7946
    6.960    9.6577
    6.990   10.1527
    7.020    9.6367
    7.050    8.6045
    7.080    7.7093
    7.110    6.5613
    7.140    6.3823
    7.170    6.1611
    7.200    5.8452
    7.230    5.4134
    7.260    5.6240
    7.290    5.5714
    7.320    5.8873
    7.350    5.3923
    7.380    5.8031
    7.410    5.5819
    7.440    5.6135
    7.470    5.4766
    7.500    5.6556
    7.530    5.9294
    7.560    5.7715
    7.590    5.7609
    7.620    5.5714
    7.650    5.7083
    7.680    6.1401
    7.710    6.0979
    7.740    6.0874
    7.770    5.9716
    7.800    6.0874
    7.830    6.2243
    7.860    6.4244
    7.890    6.4139
    7.920    6.3296
    7.950    6.9089
    7.980    6.1927
    8.010    6.5929
    8.040    6.7720
    8.070    6.5192
    8.100    6.5719
    8.130    6.6772
    8.160    6.4771
    8.190    6.3507
    8.220    6.3928
    8.250    6.6877
    8.280    6.3823
    8.310    6.3928
    8.340    6.2349
    8.370    6.2033
    8.400    6.4560
    8.430    6.1822
    8.460    5.7504
    8.490    5.2765
    8.520    5.5608
    8.550    5.8031
    8.580    5.9189
    8.610    5.3502
    8.640    5.4134
    8.670    5.3081
    8.700    5.0869
    8.730    5.2975
    8.760    5.1185
    8.790    4.8763
    8.820    5.2975
    8.850    4.9078
    8.880    4.8447
    8.910    4.7709
    8.940    4.8025
    8.970    4.7077
    9.000    4.5814
    9.030    4.8131
    9.060    4.7604
    9.090    4.8131
    9.120    4.9394
    9.150    4.9605
    9.180    4.7499
    9.210    4.6235
    9.240    4.6867
    9.270    4.6130
    9.300    5.2238
    9.330    4.8341
    9.360    4.8973
    9.390    4.8341
    9.420    4.5708
    9.450    5.1501
    9.480    4.6340
    9.510    4.4866
    9.540    4.4866
    9.570    4.7499
    9.600    4.8447
    9.630    4.6761
    9.660    4.5182
    9.690    4.4339
    9.720    4.8552
    9.750    4.8657
    9.780    4.7393
    9.810    4.5076
    9.840    4.7815
    9.870    4.6340
    9.900    4.5919
    9.930    4.7288
    9.960    4.5076
    9.990    4.4444
   10.020    4.5287
   10.050    4.4971
   10.080    4.6867
   10.110    4.8131
   10.140    4.5287
   10.170    4.6445
   10.200    4.7815
   10.230    4.5076
   10.260    4.6130
   10.290    5.2343
   10.320    4.9605
   10.350    4.5814
   10.380    4.8131
   10.410    4.8657
   10.440    5.2027
   10.470    5.0448
   10.500    5.2659
   10.530    4.8657
   10.560    5.0342
   10.590    4.6551
   10.620    4.8025
   10.650    4.6867
   10.680    4.4444
   10.710    4.5287
   10.740    4.8763
   10.770    4.4550
   10.800    4.6551
   10.830    4.2865
   10.860    4.8763
   10.890    4.5392
   10.920    4.2759
   10.950    4.4550
   10.980    4.3707
   11.010    4.4760
   11.040    4.4128
   11.070    4.8236
   11.100    4.8236
   11.130    4.6867
   11.160    4.4655
   11.190    4.6867
   11.220    4.6445
   11.250    5.0764
   11.280    4.6551
   11.310    4.8341
   11.340    4.9394
   11.370    4.6340
   11.400    4.5076
   11.430    4.4655
   11.460    4.7077
   11.490    4.5919
   11.520    4.4128
   11.550    4.7077
   11.580    4.5708
   11.610    4.8341
   11.640    4.6656
   11.670    4.6972
   11.700    4.7077
   11.730    4.5076
   11.760    4.7709
   11.790    4.8973
   11.820    4.7077
   11.850    4.8025
   11.880    4.6551
   11.910    4.6656
   11.940    4.7077
   11.970    4.9289
   12.000    4.6024
   12.030    4.6340
   12.060    5.0448
   12.090    4.8447
   12.120    4.6656
   12.150    4.7077
   12.180    4.6761
   12.210    4.8763
   12.240    4.4971
   12.270    4.8763
   12.300    4.8025
   12.330    4.7815
   12.360    4.8552
   12.390    4.5603
   12.420    4.5603
   12.450    4.7288
   12.480    4.7604
   12.510    4.7815
   12.540    4.5076
   12.570    4.6024
   12.600    4.6867
   12.630    4.5814
   12.660    4.8341
   12.690    4.5814
   12.720    4.8868
   12.750    4.6656
   12.780    4.6972
   12.810    4.6340
   12.840    4.4866
   12.870    4.8025
   12.900    4.5603
   12.930    4.8131
   12.960    4.5182
   12.990    4.5498
   13.020    4.5287
   13.050    4.7077
   13.080    4.6130
   13.110    4.6867
   13.140    4.9078
   13.170    4.3286
   13.200    4.6551
   13.230    4.6340
   13.260    4.3497
   13.290    4.3497
   13.320    4.7077
   13.350    4.8131
   13.380    4.7183
   13.410    4.5919
   13.440    4.4339
   13.470    4.4444
   13.500    4.4234
   13.530    4.5392
   13.560    4.4760
   13.590    4.4128
   13.620    4.2443
   13.650    4.7499
   13.680    4.2970
   13.710    4.3602
   13.740    4.6867
   13.770    4.2759
   13.800    4.3497
   13.830    4.5603
   13.860    4.6340
   13.890    4.5182
   13.920    4.3181
   13.950    4.5287
   13.980    4.4234
   14.010    4.4234
   14.040    4.4444
   14.070    4.7077
   14.100    4.4023
   14.130    4.5392
   14.160    4.3918
   14.190    4.6024
   14.220    4.8552
   14.250    4.4866
   14.280    4.1496
   14.310    4.6340
   14.340    4.4971
   14.370    4.5182
   14.400    4.1390
   14.430    4.4339
   14.460    4.3181
   14.490    4.5076
   14.520    4.1496
   14.550    4.2127
   14.580    4.4760
   14.610    4.3391
   14.640    4.6445
   14.670    4.4760
   14.700    4.5498
   14.730    4.4550
   14.760    4.7288
   14.790    4.2654
   14.820    4.4866
   14.850    4.4760
   14.880    4.8236
   14.910    4.4550
   14.940    4.4971
   14.970    4.6972
   15.000    4.5708
   15.030    4.3497
   15.060    4.5814
   15.090    4.2759
   15.120    4.0969
   15.150    4.0653
   15.180    4.2022
   15.210    4.7709
   15.240    4.4444
   15.270    4.3181
   15.300    4.5392
   15.330    4.3391
   15.360    4.4023
   15.390    4.3813
   15.420    4.5919
   15.450    4.0653
   15.480    3.9810
   15.510    4.5919
   15.540    4.4128
   15.570    4.2338
   15.600    4.4128
   15.630    4.2127
   15.660    4.5076
   15.690    4.4760
   15.720    4.3391
   15.750    4.5708
   15.780    4.4655
   15.810    4.5392
   15.840    4.1917
   15.870    4.6972
   15.900    4.5392
   15.930    4.5392
   15.960    4.7920
   15.990    4.2865
   16.020    4.5708
   16.050    4.4866
   16.080    4.3918
   16.110    4.4128
   16.140    4.5182
   16.170    4.5498
   16.200    4.2865
   16.230    4.4339
   16.260    4.6656
   16.290    4.5708
   16.320    4.1601
   16.350    4.3602
   16.380    4.3497
   16.410    4.4760
   16.440    4.5392
   16.470    4.6024
   16.500    4.2338
   16.530    4.3075
   16.560    4.4550
   16.590    4.4971
   16.620    4.5498
   16.650    4.3602
   16.680    4.4339
   16.710    4.4760
   16.740    4.4866
   16.770    4.4971
   16.800    4.5814
   16.830    4.4655
   16.860    4.2970
   16.890    4.5708
   16.920    4.3075
   16.950    4.5287
   16.980    4.4550
   17.010    4.2549
   17.040    4.2759
   17.070    4.5708
   17.100    4.5287
   17.130    4.6445
   17.160    4.4866
   17.190    4.4550
   17.220    4.1601
   17.250    4.4866
   17.280    4.2233
   17.310    4.3286
   17.340    4.2654
   17.370    4.4971
   17.400    4.6130
   17.430    4.3602
   17.460    4.5708
   17.490    4.1811
   17.520    4.3918
   17.550    4.5287
   17.580    4.4023
   17.610    4.4550
   17.640    4.4444
   17.670    4.5392
   17.700    4.7709
   17.730    4.6024
   17.760    4.7604
   17.790    4.1917
   17.820    4.3918
   17.850    4.6235
   17.880    4.2865
   17.910    4.2970
   17.940    4.2338
   17.970    4.3497
   18.000    4.1706
   18.030    4.4760
   18.060    4.4971
   18.090    4.5287
   18.120    4.5603
   18.150    4.5076
   18.180    4.3707
   18.210    4.2338
   18.240    4.4760
   18.270    4.3497
   18.300    4.6761
   18.330    4.8341
   18.360    4.5182
   18.390    4.5814
   18.420    4.4655
   18.450    4.7709
   18.480    4.6761
   18.510    4.7499
   18.540    4.5076
   18.570    4.3813
   18.600    4.0864
   18.630    4.8657
   18.660    4.6445
   18.690    4.6867
   18.720    4.3181
   18.750    4.6340
   18.780    4.5287
   18.810    4.8236
   18.840    4.5814
   18.870    4.2970
   18.900    4.6445
   18.930    4.7499
   18.960    4.8552
   18.990    5.0869
   19.020    5.1711
   19.050    4.7183
   19.080    4.7815
   19.110    4.8341
   19.140    4.8341
   19.170    4.6867
   19.200    4.5603
   19.230    4.9816
   19.260    4.6235
   19.290    4.2865
   19.320    4.6024
   19.350    4.7815
   19.380    4.7815
   19.410    4.9078
   19.440    4.6656
   19.470    4.9394
   19.500    4.3075
   19.530    4.5392
   19.560    4.3497
   19.590    5.0237
   19.620    4.3707
   19.650    4.7815
   19.680    4.9184
   19.710    4.8868
   19.740    4.5392
   19.770    5.0553
   19.800    4.5603
   19.830    4.7288
   19.860    4.8868
   19.890    4.8236
   19.920    5.0026
   19.950    4.4128
   19.980    4.7288
   20.010    5.0553
   20.040    4.9921
   20.070    4.7709
   20.100    4.5708
   20.130    4.5919
   20.160    4.6867
   20.190    4.9289
   20.220    4.9289
   20.250    4.7077
   20.280    4.4023
   20.310    4.8236
   20.340    5.0026
   20.370    4.8657
   20.400    4.8341
   20.430    4.7499
   20.460    4.6551
   20.490    4.8341
   20.520    4.6340
   20.550    4.8447
   20.580    4.5708
   20.610    4.7499
   20.640    4.5392
   20.670    4.9605
   20.700    4.5182
   20.730    4.6340
   20.760    4.6867
   20.790    4.8763
   20.820    4.6445
   20.850    4.8131
   20.880    4.6340
   20.910    4.7604
   20.940    4.6972
   20.970    4.8973
   21.000    4.9710
   21.030    4.8763
   21.060    4.8236
   21.090    4.7815
   21.120    4.8236
   21.150    4.7604
   21.180    4.8131
   21.210    4.6656
   21.240    4.8131
   21.270    4.9710
   21.300    5.1922
   21.330    4.6761
   21.360    4.8025
   21.390    4.7604
   21.420    4.9289
   21.450    4.9710
   21.480    5.1080
   21.510    5.1606
   21.540    5.0342
   21.570    4.8868
   21.600    4.7393
   21.630    4.9710
   21.660    5.0974
   21.690    4.9078
   21.720    4.9605
   21.750    4.9078
   21.780    4.9605
   21.810    4.5392
   21.840    4.9816
   21.870    4.6445
   21.900    4.8973
   21.930    4.9921
   21.960    4.8552
   21.990    5.3607
   22.020    4.7077
   22.050    4.9078
   22.080    4.6235
   22.110    5.0342
   22.140    4.9289
   22.170    5.0342
   22.200    5.0026
   22.230    4.8341
   22.260    4.8131
   22.290    4.9184
   22.320    4.9184
   22.350    4.8657
   22.380    4.9710
   22.410    4.9394
   22.440    4.7288
   22.470    4.9078
   22.500    5.0764
   22.530    4.9816
   22.560    5.0342
   22.590    4.5392
   22.620    4.9605
   22.650    5.1501
   22.680    4.6867
   22.710    5.1185
   22.740    4.8552
   22.770    4.8973
   22.800    4.6235
   22.830    5.2343
   22.860    4.9710
   22.890    5.2238
   22.920    4.4339
   22.950    4.9710
   22.980    5.0448
   23.010    4.6340
   23.040    4.5392
   23.070    5.0764
   23.100    5.0869
   23.130    4.5498
   23.160    4.8552
   23.190    5.0342
   23.220    4.7499
   23.250    4.4339
   23.280    4.7077
   23.310    4.9184
   23.340    4.9605
   23.370    4.6235
   23.400    4.7920
   23.430    4.8236
   23.460    4.8552
   23.490    4.6130
   23.520    4.9394
   23.550    4.7815
   23.580    4.5708
   23.610    4.5708
   23.640    4.8763
   23.670    4.4971
   23.700    4.8341
   23.730    4.5814
   23.760    4.7604
   23.790    4.8025
   23.820    5.1080
   23.850    4.5603
   23.880    4.8341
   23.910    4.6445
   23.940    4.8552
   23.970    4.6024
   24.000    4.5287
   24.030    4.5287
   24.060    4.4971
   24.090    4.4444
   24.120    4.5603
   24.150    4.7288
   24.180    4.9605
   24.210    4.4444
   24.240    4.6340
   24.270    4.7815
   24.300    4.5708
   24.330    4.8868
   24.360    4.3602
   24.390    4.2338
   24.420    4.6972
   24.450    4.5814
   24.480    4.6235
   24.510    4.5603
   24.540    4.6235
   24.570    4.7183
   24.600    4.7815
   24.630    4.7077
   24.660    4.4866
   24.690    4.6130
   24.720    4.9500
   24.750    4.7499
   24.780    4.8341
   24.810    4.5498
   24.840    4.3707
   24.870    4.6445
   24.900    4.6130
   24.930    4.4971
   24.960    4.5182
   24.990    4.6761
   25.020    4.6867
   25.050    4.3918
   25.080    4.2549
   25.110    4.2970
   25.140    4.3181
   25.170    4.5498
   25.200    4.6972
   25.230    4.5708
   25.260    4.0021
   25.290    4.3813
   25.320    4.6130
   25.350    4.5392
   25.380    4.1285
   25.410    4.8973
   25.440    4.2654
   25.470    4.9394
   25.500    4.4971
   25.530    4.3602
   25.560    4.6445
   25.590    4.7604
   25.620    4.6761
   25.650    4.5392
   25.680    4.3813
   25.710    4.1811
   25.740    4.4655
   25.770    4.2443
   25.800    4.2127
   25.830    4.4444
   25.860    4.3286
   25.890    4.1601
   25.920    4.1811
   25.950    4.4128
   25.980    4.6340
   26.010    4.4023
   26.040    4.2443
   26.070    4.4866
   26.100    4.3181
   26.130    4.3391
   26.160    4.5076
   26.190    4.5076
   26.220    4.1285
   26.250    4.1706
   26.280    4.4444
   26.310    4.2022
   26.340    4.3075
   26.370    4.1180
   26.400    4.1285
   26.430    4.1390
   26.460    4.7077
   26.490    4.1706
   26.520    4.5076
   26.550    4.1180
   26.580    4.6024
   26.610    4.6867
   26.640    4.0442
   26.670    4.2338
   26.700    4.2233
   26.730    4.1601
   26.760    4.2654
   26.790    4.2759
   26.820    4.2233
   26.850    4.0864
   26.880    4.3075
   26.910    4.0758
   26.940    4.3707
   26.970    4.2233
   27.000    4.0232
   27.030    4.3707
   27.060    4.1390
   27.090    3.9705
   27.120    4.3286
   27.150    4.0864
   27.180    3.9284
   27.210    4.1390
   27.240    4.6867
   27.270    4.2865
   27.300    4.3075
   27.330    4.2549
   27.360    4.1496
   27.390    4.2338
   27.420    4.0126
   27.450    4.4234
   27.480    4.0442
   27.510    4.2443
   27.540    4.3286
   27.570    4.1074
   27.600    4.1706
   27.630    4.2865
   27.660    4.0864
   27.690    4.4128
   27.720    4.0548
   27.750    3.9810
   27.780    4.2022
   27.810    4.2654
   27.840    4.4866
   27.870    4.2865
   27.900    4.3813
   27.930    4.2970
   27.960    4.3602
   27.990    4.3391
   28.020    4.4234
   28.050    4.4128
   28.080    4.4971
   28.110    4.1601
   28.140    4.0126
   28.170    4.2338
   28.200    4.1496
   28.230    3.9705
   28.260    4.0232
   28.290    3.8968
   28.320    4.4339
   28.350    3.9705
   28.380    4.1180
   28.410    3.9705
   28.440    4.3813
   28.470    4.4023
   28.500    4.2443
   28.530    3.9494
   28.560    4.6656
   28.590    4.0126
   28.620    4.0232
   28.650    4.0442
   28.680    3.9284
   28.710    4.2233
   28.740    4.2549
   28.770    4.1390
   28.800    4.2233
   28.830    3.8336
   28.860    4.1285
   28.890    4.4023
   28.920    4.1074
   28.950    4.0337
   28.980    4.4023
   29.010    4.2759
   29.040    4.0442
   29.070    3.8968
   29.100    4.3602
   29.130    3.9284
   29.160    4.0442
   29.190    3.9600
   29.220    4.1706
   29.250    3.9600
   29.280    4.2443
   29.310    3.7072
   29.340    4.2970
   29.370    3.9389
   29.400    3.7704
   29.430    4.0021
   29.460    4.0126
   29.490    4.4444
   29.520    3.9179
   29.550    3.8547
   29.580    3.9600
   29.610    3.7915
   29.640    3.7599
   29.670    3.7493
   29.700    3.8863
   29.730    3.9810
   29.760    3.9600
   29.790    4.0864
   29.820    4.0864
   29.850    4.1180
   29.880    4.3181
   29.910    3.7388
   29.940    3.7915
   29.970    3.8441
   30.000    4.0442
   30.030    3.7809
   30.060    3.8125
   30.090    3.9494
   30.120    4.0337
   30.150    3.8757
   30.180    3.9073
   30.210    4.1285
   30.240    4.1811
   30.270    4.1285
   30.300    3.8547
   30.330    3.6967
   30.360    4.0548
   30.390    4.0337
   30.420    3.9705
   30.450    3.8547
   30.480    4.0126
   30.510    4.0126
   30.540    3.6756
   30.570    3.9073
   30.600    3.8125
   30.630    3.7072
   30.660    3.8968
   30.690    3.4123
   30.720    3.6651
   30.750    4.1496
   30.780    3.7809
   30.810    3.7493
   30.840    3.7072
   30.870    3.8125
   30.900    3.6862
   30.930    3.9073
   30.960    3.6440
   30.990    3.9600
   31.020    3.8863
   31.050    3.9284
   31.080    3.9389
   31.110    3.7283
   31.140    3.9179
   31.170    3.7177
   31.200    3.6335
   31.230    3.8020
   31.260    3.5176
   31.290    3.7177
   31.320    3.6230
   31.350    4.1074
   31.380    3.7599
   31.410    3.6756
   31.440    3.8968
   31.470    3.7177
   31.500    3.7809
   31.530    3.4123
   31.560    3.6756
   31.590    3.8020
   31.620    3.8125
   31.650    3.9073
   31.680    3.7177
   31.710    3.9284
   31.740    3.8968
   31.770    3.9073
   31.800    3.8125
   31.830    4.0126
   31.860    3.6230
   31.890    3.4018
   31.920    3.4860
   31.950    3.7072
   31.980    3.9073
   32.010    3.8125
   32.040    4.0758
   32.070    4.6024
   32.100    4.3918
   32.130    3.8863
   32.160    4.0337
   32.190    3.7704
   32.220    3.5703
   32.250    3.8125
   32.280    3.7177
   32.310    3.5598
   32.340    3.8231
   32.370    3.5071
   32.400    3.8547
   32.430    3.8968
   32.460    3.3702
   32.490    3.6124
   32.520    3.6019
   32.550    3.7704
   32.580    3.6756
   32.610    3.4544
   32.640    3.5808
   32.670    3.5808
   32.700    3.4334
   32.730    3.5387
   32.760    3.8125
   32.790    3.7283
   32.820    3.6546
   32.850    3.3913
   32.880    3.6651
   32.910    3.5808
   32.940    3.5598
   32.970    3.5176
   33.000    3.5598
   33.030    3.5282
   33.060    3.3807
   33.090    3.4966
   33.120    3.2227
   33.150    3.4966
   33.180    3.3491
   33.210    3.4123
   33.240    3.4229
   33.270    3.5282
   33.300    3.5071
   33.330    3.6651
   33.360    3.4334
   33.390    3.4229
   33.420    3.3070
   33.450    3.6124
   33.480    3.6019
   33.510    3.7283
   33.540    3.5176
   33.570    3.4123
   33.600    3.2859
   33.630    3.6019
   33.660    3.2754
   33.690    3.3070
   33.720    3.7072
   33.750    3.6862
   33.780    3.5282
   33.810    3.6124
   33.840    3.8336
   33.870    3.6651
   33.900    3.3913
   33.930    3.3175
   33.960    3.4650
   33.990    3.4439
   34.020    3.0964
   34.050    3.1385
   34.080    3.3070
   34.110    3.5282
   34.140    3.2333
   34.170    3.3913
   34.200    3.2017
   34.230    3.4229
   34.260    3.2438
   34.290    3.4229
   34.320    3.1280
   34.350    3.3281
   34.380    3.1280
   34.410    3.4334
   34.440    3.1490
   34.470    3.2227
   34.500    3.3597
   34.530    3.2438
   34.560    3.3807
   34.590    3.2965
   34.620    3.2543
   34.650    3.3702
   34.680    3.4229
   34.710    3.6124
   34.740    3.2438
   34.770    3.2017
   34.800    3.0753
   34.830    3.4018
   34.860    3.1701
   34.890    3.0332
   34.920    3.1490
   34.950    3.3175
   34.980    3.1490
   35.010    3.2017
   35.040    3.2754
   35.070    3.1385
   35.100    3.3386
   35.130    3.1490
   35.160    3.2227
   35.190    3.2227
   35.220    3.1912
   35.250    2.9595
   35.280    3.2965
   35.310    3.1701
   35.340    3.0964
   35.370    3.2543
   35.400    3.2965
   35.430    3.0121
   35.460    3.1280
   35.490    3.1806
   35.520    3.1385
   35.550    3.1174
   35.580    2.8963
   35.610    3.3597
   35.640    3.1174
   35.670    2.9595
   35.700    3.2227
   35.730    3.2017
   35.760    2.8857
   35.790    3.1174
   35.820    3.0332
   35.850    3.0858
   35.880    3.2543
   35.910    2.8752
   35.940    2.9805
   35.970    3.1701
   36.000    3.3175
   36.030    3.1596
   36.060    3.1069
   36.090    3.2017
   36.120    2.9489
   36.150    3.1701
   36.180    3.2543
   36.210    2.9805
   36.240    3.0226
   36.270    3.2017
   36.300    3.1912
   36.330    3.0332
   36.360    3.1385
   36.390    3.1806
   36.420    3.1490
   36.450    3.1385
   36.480    3.1174
   36.510    3.3386
   36.540    2.7593
   36.570    3.1596
   36.600    2.9700
   36.630    3.3491
   36.660    3.0121
   36.690    2.8752
   36.720    3.2543
   36.750    3.1806
   36.780    2.9279
   36.810    2.8647
   36.840    2.7909
   36.870    2.7699
   36.900    2.7278
   36.930    2.8647
   36.960    2.8541
   36.990    2.8857
   37.020    2.7593
   37.050    3.0753
   37.080    2.9068
   37.110    3.0226
   37.140    2.8857
   37.170    2.8436
   37.200    2.6962
   37.230    3.2122
   37.260    3.1701
   37.290    2.8752
   37.320    3.0226
   37.350    3.0121
   37.380    2.9068
   37.410    2.9384
   37.440    2.8752
   37.470    2.9068
   37.500    3.1069
   37.530    2.9595
   37.560    2.7909
   37.590    2.8015
   37.620    2.9805
   37.650    3.4544
   37.680    3.4229
   37.710    3.0016
   37.740    2.8963
   37.770    2.8647
   37.800    3.0121
   37.830    2.7067
   37.860    2.9279
   37.890    2.8015
   37.920    3.1174
   37.950    2.9384
   37.980    2.9805
   38.010    2.8857
   38.040    2.7909
   38.070    2.8331
   38.100    3.0648
   38.130    2.9173
   38.160    3.0121
   38.190    2.8963
   38.220    3.0016
   38.250    2.6435
   38.280    2.7909
   38.310    2.7804
   38.340    3.0964
   38.370    2.7488
   38.400    2.8752
   38.430    2.8225
   38.460    2.9489
   38.490    2.7804
   38.520    3.1912
   38.550    3.1385
   38.580    3.0121
   38.610    3.2438
   38.640    3.1490
   38.670    3.1701
   38.700    3.1069
   38.730    2.8225
   38.760    2.9489
   38.790    2.8225
   38.820    2.9700
   38.850    2.9279
   38.880    2.8225
   38.910    2.9489
   38.940    2.8541
   38.970    2.9805
   39.000    2.9910
   39.030    2.6014
   39.060    2.7593
   39.090    3.1806
   39.120    2.9595
   39.150    2.9805
   39.180    2.9173
   39.210    2.5803
   39.240    2.8752
   39.270    3.0648
   39.300    2.9595
   39.330    3.0437
   39.360    2.7383
   39.390    2.8225
   39.420    2.8436
   39.450    2.8857
   39.480    2.8120
   39.510    2.8857
   39.540    2.9173
   39.570    2.7804
   39.600    2.8963
   39.630    3.0964
   39.660    2.7383
   39.690    2.9068
   39.720    2.9384
   39.750    2.8436
   39.780    2.9068
   39.810    3.1069
   39.840    2.9068
   39.870    2.8752
   39.900    3.1280
   39.930    3.2017
   39.960    2.7593
   39.990    2.9279