File: data/MOCOF-1/PXRD/PXRD_KE-343_Cu-Ka1_film-3mm_3s-deg_1.5-80deg_CuOAc2-DABA.xyd
    1.500    8.7063
    1.560    8.0920
    1.620    7.3899
    1.680    6.7053
    1.740    6.4420
    1.800    6.0383
    1.860    5.2484
    1.920    5.4766
    1.980    4.6340
    2.040    4.2478
    2.100    3.9670
    2.160    3.9846
    2.220    4.1776
    2.280    3.3526
    2.340    3.6862
    2.400    3.3351
    2.460    3.3000
    2.520    2.8436
    2.580    3.2298
    2.640    2.7032
    2.700    3.2824
    2.760    2.6681
    2.820    2.7734
    2.880    2.5628
    2.940    2.2995
    3.000    2.3872
    3.060    2.3346
    3.120    2.0713
    3.180    2.1064
    3.240    2.5276
    3.300    2.2468
    3.360    2.0537
    3.420    2.3346
    3.480    1.9484
    3.540    2.1239
    3.600    2.2292
    3.660    2.4574
    3.720    2.0888
    3.780    1.8957
    3.840    2.1239
    3.900    2.4750
    3.960    2.1415
    4.020    2.2117
    4.080    1.9835
    4.140    2.2995
    4.200    2.4925
    4.260    1.9484
    4.320    2.0011
    4.380    2.2117
    4.440    2.1941
    4.500    1.8606
    4.560    1.9484
    4.620    2.2468
    4.680    1.9835
    4.740    2.2819
    4.800    2.1064
    4.860    2.0186
    4.920    2.3521
    4.980    2.1239
    5.040    2.3170
    5.100    2.2643
    5.160    2.6154
    5.220    2.5628
    5.280    2.8612
    5.340    3.0016
    5.400    2.6330
    5.460    2.9314
    5.520    2.8436
    5.580    2.5628
    5.640    2.4223
    5.700    2.7032
    5.760    2.6681
    5.820    2.3521
    5.880    2.4925
    5.940    2.3521
    6.000    2.2468
    6.060    2.1766
    6.120    2.3170
    6.180    1.9308
    6.240    2.0888
    6.300    1.9308
    6.360    2.1941
    6.420    1.7729
    6.480    2.1415
    6.540    1.8782
    6.600    1.9133
    6.660    1.7378
    6.720    1.8957
    6.780    1.8782
    6.840    1.7904
    6.900    1.7904
    6.960    1.8431
    7.020    1.7729
    7.080    2.0537
    7.140    1.7378
    7.200    1.7202
    7.260    1.8957
    7.320    1.4394
    7.380    1.3516
    7.440    1.5271
    7.500    1.6675
    7.560    1.6851
    7.620    1.4218
    7.680    1.5447
    7.740    1.5622
    7.800    1.4042
    7.860    1.6149
    7.920    1.4920
    7.980    1.7027
    8.040    1.4920
    8.100    1.4218
    8.160    1.4920
    8.220    1.5622
    8.280    1.5096
    8.340    1.5271
    8.400    1.5096
    8.460    1.3340
    8.520    1.2463
    8.580    1.3340
    8.640    1.5271
    8.700    1.5798
    8.760    1.4394
    8.820    1.1936
    8.880    1.4745
    8.940    1.5447
    9.000    1.4569
    9.060    1.2638
    9.120    1.3691
    9.180    1.3340
    9.240    1.3516
    9.300    1.2287
    9.360    1.1058
    9.420    1.3516
    9.480    1.1936
    9.540    1.2287
    9.600    1.3516
    9.660    1.3691
    9.720    1.4042
    9.780    1.4920
    9.840    1.1585
    9.900    1.5096
    9.960    1.3340
   10.020    1.1761
   10.080    1.3340
   10.140    1.5798
   10.200    1.4394
   10.260    1.1585
   10.320    1.3165
   10.380    1.3165
   10.440    1.4218
   10.500    1.4569
   10.560    1.3867
   10.620    1.3867
   10.680    1.4042
   10.740    1.2814
   10.800    1.6324
   10.860    1.3867
   10.920    1.4745
   10.980    1.2989
   11.040    1.3516
   11.100    1.3165
   11.160    1.1936
   11.220    1.3867
   11.280    1.3867
   11.340    1.5622
   11.400    1.3867
   11.460    1.1585
   11.520    1.2814
   11.580    1.4569
   11.640    1.2463
   11.700    1.3516
   11.760    1.3867
   11.820    1.3516
   11.880    1.2989
   11.940    1.2287
   12.000    1.3516
   12.060    1.2814
   12.120    1.3867
   12.180    1.4745
   12.240    1.3165
   12.300    1.2112
   12.360    1.3165
   12.420    1.2287
   12.480    1.4042
   12.540    1.2463
   12.600    1.3691
   12.660    1.4920
   12.720    1.6675
   12.780    1.3165
   12.840    1.3165
   12.900    1.3516
   12.960    1.3867
   13.020    1.5973
   13.080    1.3165
   13.140    1.3165
   13.200    1.2287
   13.260    1.3340
   13.320    1.2814
   13.380    1.2989
   13.440    1.1936
   13.500    1.2112
   13.560    1.1058
   13.620    1.2638
   13.680    1.3691
   13.740    1.4745
   13.800    1.3165
   13.860    1.0532
   13.920    1.3867
   13.980    1.4569
   14.040    1.4745
   14.100    1.2287
   14.160    1.2814
   14.220    1.2112
   14.280    1.2989
   14.340    1.3340
   14.400    1.6500
   14.460    1.5798
   14.520    1.5622
   14.580    1.2463
   14.640    1.3867
   14.700    1.3165
   14.760    1.6324
   14.820    1.4218
   14.880    1.4218
   14.940    1.3691
   15.000    1.4569
   15.060    1.2989
   15.120    1.3516
   15.180    1.1410
   15.240    1.0883
   15.300    1.2463
   15.360    1.2989
   15.420    1.0356
   15.480    1.2463
   15.540    1.0707
   15.600    1.1234
   15.660    1.2989
   15.720    1.5096
   15.780    1.2638
   15.840    1.3340
   15.900    1.0707
   15.960    1.0532
   16.020    1.2463
   16.080    1.1585
   16.140    1.0356
   16.200    1.4920
   16.260    1.1936
   16.320    1.2287
   16.380    1.2814
   16.440    1.2463
   16.500    1.3516
   16.560    1.1585
   16.620    1.1761
   16.680    1.2112
   16.740    1.1585
   16.800    1.3340
   16.860    1.1585
   16.920    1.3867
   16.980    1.3516
   17.040    1.2287
   17.100    1.3691
   17.160    1.3165
   17.220    1.0707
   17.280    1.2112
   17.340    1.3691
   17.400    1.2638
   17.460    0.9303
   17.520    1.3165
   17.580    1.0707
   17.640    1.1234
   17.700    1.2287
   17.760    1.5973
   17.820    1.2287
   17.880    1.1761
   17.940    1.2287
   18.000    1.5271
   18.060    1.1936
   18.120    1.2287
   18.180    1.3516
   18.240    1.1234
   18.300    0.9303
   18.360    1.2989
   18.420    1.1234
   18.480    1.6149
   18.540    1.5798
   18.600    1.2112
   18.660    1.5973
   18.720    1.2463
   18.780    1.1936
   18.840    1.2287
   18.900    1.4394
   18.960    1.5447
   19.020    1.1234
   19.080    1.3691
   19.140    1.1585
   19.200    1.1234
   19.260    1.2989
   19.320    1.1761
   19.380    1.1234
   19.440    1.1761
   19.500    1.1585
   19.560    1.3340
   19.620    1.3516
   19.680    1.2638
   19.740    1.2112
   19.800    1.1761
   19.860    1.1936
   19.920    1.1761
   19.980    1.0532
   20.040    1.3165
   20.100    1.2463
   20.160    1.2112
   20.220    1.1058
   20.280    1.1585
   20.340    1.1058
   20.400    1.1058
   20.460    1.1936
   20.520    1.1410
   20.580    1.2989
   20.640    1.1761
   20.700    1.0356
   20.760    1.2814
   20.820    1.2112
   20.880    1.2638
   20.940    1.1936
   21.000    1.2112
   21.060    1.0883
   21.120    1.1761
   21.180    1.1410
   21.240    1.0707
   21.300    1.1058
   21.360    1.2463
   21.420    1.3516
   21.480    1.1936
   21.540    1.1058
   21.600    1.1761
   21.660    1.2814
   21.720    1.4394
   21.780    1.1936
   21.840    1.4394
   21.900    1.0532
   21.960    1.0883
   22.020    1.1585
   22.080    1.1761
   22.140    1.1936
   22.200    1.1058
   22.260    1.3516
   22.320    1.3516
   22.380    0.9654
   22.440    1.0005
   22.500    1.1058
   22.560    0.9128
   22.620    0.9830
   22.680    1.1585
   22.740    1.0181
   22.800    1.2112
   22.860    1.3165
   22.920    1.0181
   22.980    1.0883
   23.040    1.1410
   23.100    1.0356
   23.160    1.0356
   23.220    1.1585
   23.280    1.2287
   23.340    1.0707
   23.400    1.1410
   23.460    1.0005
   23.520    1.2287
   23.580    0.9128
   23.640    1.1058
   23.700    1.2287
   23.760    0.8250
   23.820    1.1234
   23.880    1.2112
   23.940    1.0707
   24.000    1.0532
   24.060    0.9303
   24.120    1.0181
   24.180    1.1585
   24.240    1.0181
   24.300    1.2287
   24.360    1.1058
   24.420    1.1234
   24.480    1.1585
   24.540    1.1058
   24.600    1.1585
   24.660    1.2112
   24.720    1.0181
   24.780    1.0356
   24.840    0.9830
   24.900    1.0356
   24.960    1.1234
   25.020    1.0707
   25.080    0.8425
   25.140    0.9654
   25.200    0.9479
   25.260    1.2638
   25.320    1.0707
   25.380    0.9654
   25.440    0.9479
   25.500    0.9830
   25.560    1.2112
   25.620    1.0356
   25.680    1.0005
   25.740    0.8777
   25.800    1.0707
   25.860    1.0181
   25.920    0.8777
   25.980    0.8952
   26.040    0.9654
   26.100    1.0181
   26.160    1.0707
   26.220    1.0532
   26.280    0.8777
   26.340    1.0356
   26.400    1.0181
   26.460    0.9654
   26.520    0.7899
   26.580    1.0356
   26.640    1.0005
   26.700    0.9654
   26.760    1.0532
   26.820    0.8074
   26.880    0.8777
   26.940    1.0181
   27.000    0.9128
   27.060    0.9479
   27.120    0.9830
   27.180    1.0532
   27.240    0.8777
   27.300    0.7372
   27.360    0.7723
   27.420    0.7372
   27.480    0.8074
   27.540    0.8601
   27.600    0.7197
   27.660    0.7548
   27.720    0.7372
   27.780    0.8777
   27.840    0.8777
   27.900    0.8074
   27.960    0.9128
   28.020    0.7197
   28.080    0.9654
   28.140    0.6846
   28.200    0.8952
   28.260    0.9128
   28.320    0.7197
   28.380    0.7372
   28.440    0.8777
   28.500    0.8777
   28.560    0.9654
   28.620    0.7723
   28.680    0.9303
   28.740    0.6670
   28.800    0.8601
   28.860    0.8074
   28.920    0.6670
   28.980    0.8952
   29.040    0.8601
   29.100    0.8250
   29.160    0.7899
   29.220    0.8074
   29.280    0.7197
   29.340    0.7723
   29.400    0.6144
   29.460    0.7021
   29.520    0.6495
   29.580    0.8952
   29.640    0.6846
   29.700    0.6495
   29.760    0.7197
   29.820    0.7021
   29.880    0.6495
   29.940    0.7372
   30.000    0.6670
   30.060    0.8425
   30.120    0.6319
   30.180    0.8074
   30.240    0.7021
   30.300    0.6670
   30.360    0.5441
   30.420    0.8250
   30.480    0.5617
   30.540    0.5441
   30.600    0.6495
   30.660    0.7548
   30.720    0.5793
   30.780    0.6495
   30.840    0.5266
   30.900    0.6495
   30.960    0.6144
   31.020    0.5266
   31.080    0.5441
   31.140    0.4915
   31.200    0.6846
   31.260    0.6319
   31.320    0.6144
   31.380    0.5090
   31.440    0.6846
   31.500    0.5968
   31.560    0.5441
   31.620    0.4388
   31.680    0.4564
   31.740    0.7021
   31.800    0.5968
   31.860    0.4915
   31.920    0.6319
   31.980    0.6144
   32.040    0.5441
   32.100    0.7197
   32.160    0.5617
   32.220    0.4915
   32.280    0.6670
   32.340    0.4915
   32.400    0.6670
   32.460    0.4915
   32.520    0.6670
   32.580    0.5793
   32.640    0.5617
   32.700    0.6144
   32.760    0.6495
   32.820    0.5793
   32.880    0.4388
   32.940    0.6144
   33.000    0.4915
   33.060    0.4739
   33.120    0.4739
   33.180    0.4739
   33.240    0.4739
   33.300    0.4739
   33.360    0.6319
   33.420    0.5617
   33.480    0.5617
   33.540    0.4388
   33.600    0.6495
   33.660    0.4915
   33.720    0.5266
   33.780    0.7021
   33.840    0.5617
   33.900    0.5617
   33.960    0.5266
   34.020    0.3862
   34.080    0.5617
   34.140    0.5266
   34.200    0.4564
   34.260    0.4915
   34.320    0.5968
   34.380    0.4388
   34.440    0.4915
   34.500    0.4739
   34.560    0.4739
   34.620    0.7021
   34.680    0.5090
   34.740    0.5266
   34.800    0.5617
   34.860    0.5617
   34.920    0.4213
   34.980    0.3862
   35.040    0.4213
   35.100    0.4739
   35.160    0.5968
   35.220    0.5266
   35.280    0.4037
   35.340    0.4915
   35.400    0.4739
   35.460    0.5266
   35.520    0.4739
   35.580    0.4388
   35.640    0.4388
   35.700    0.5266
   35.760    0.5793
   35.820    0.4564
   35.880    0.4739
   35.940    0.5617
   36.000    0.6319
   36.060    0.5793
   36.120    0.4915
   36.180    0.5441
   36.240    0.4388
   36.300    0.6144
   36.360    0.4213
   36.420    0.4915
   36.480    0.4915
   36.540    0.4388
   36.600    0.4564
   36.660    0.4739
   36.720    0.3511
   36.780    0.4037
   36.840    0.4915
   36.900    0.4739
   36.960    0.5617
   37.020    0.4915
   37.080    0.5266
   37.140    0.5090
   37.200    0.4564
   37.260    0.6144
   37.320    0.5441
   37.380    0.4739
   37.440    0.4388
   37.500    0.5266
   37.560    0.4388
   37.620    0.4037
   37.680    0.3511
   37.740    0.5090
   37.800    0.6319
   37.860    0.4388
   37.920    0.7197
   37.980    0.2984
   38.040    0.4388
   38.100    0.5090
   38.160    0.5441
   38.220    0.4213
   38.280    0.5968
   38.340    0.5090
   38.400    0.4739
   38.460    0.6670
   38.520    0.5793
   38.580    0.3511
   38.640    0.5441
   38.700    0.5617
   38.760    0.4388
   38.820    0.5266
   38.880    0.3160
   38.940    0.3686
   39.000    0.5090
   39.060    0.3862
   39.120    0.5617
   39.180    0.4564
   39.240    0.4564
   39.300    0.3862
   39.360    0.4388
   39.420    0.3511
   39.480    0.4739
   39.540    0.6495
   39.600    0.4388
   39.660    0.5090
   39.720    0.4915
   39.780    0.5090
   39.840    0.4213
   39.900    0.4213
   39.960    0.5441
   40.020    0.6670
   40.080    0.2984
   40.140    0.4739
   40.200    0.4213
   40.260    0.4915
   40.320    0.3160
   40.380    0.5793
   40.440    0.4915
   40.500    0.5968
   40.560    0.5441
   40.620    0.5441
   40.680    0.4213
   40.740    0.4037
   40.800    0.4213
   40.860    0.3511
   40.920    0.5441
   40.980    0.3511
   41.040    0.6670
   41.100    0.4213
   41.160    0.3862
   41.220    0.4564
   41.280    0.4915
   41.340    0.4564
   41.400    0.4213
   41.460    0.4739
   41.520    0.2984
   41.580    0.5266
   41.640    0.4564
   41.700    0.4213
   41.760    0.4388
   41.820    0.4564
   41.880    0.4915
   41.940    0.4564
   42.000    0.4388
   42.060    0.4037
   42.120    0.4037
   42.180    0.5968
   42.240    0.4037
   42.300    0.4213
   42.360    0.4388
   42.420    0.5266
   42.480    0.4213
   42.540    0.4739
   42.600    0.5090
   42.660    0.5968
   42.720    0.4213
   42.780    0.4915
   42.840    0.5793
   42.900    0.4037
   42.960    0.4564
   43.020    0.4564
   43.080    0.4037
   43.140    0.4564
   43.200    0.3686
   43.260    0.4915
   43.320    0.4037
   43.380    0.4037
   43.440    0.5441
   43.500    0.4915
   43.560    0.5793
   43.620    0.4213
   43.680    0.5090
   43.740    0.4564
   43.800    0.5090
   43.860    0.5266
   43.920    0.4213
   43.980    0.5090
   44.040    0.4915
   44.100    0.4915
   44.160    0.4037
   44.220    0.3686
   44.280    0.4388
   44.340    0.5090
   44.400    0.3862
   44.460    0.4564
   44.520    0.4915
   44.580    0.3511
   44.640    0.4037
   44.700    0.4564
   44.760    0.4739
   44.820    0.5090
   44.880    0.4213
   44.940    0.4915
   45.000    0.5441
   45.060    0.3335
   45.120    0.4037
   45.180    0.2984
   45.240    0.3511
   45.300    0.4564
   45.360    0.3160
   45.420    0.2633
   45.480    0.4564
   45.540    0.5090
   45.600    0.4564
   45.660    0.4213
   45.720    0.4564
   45.780    0.3511
   45.840    0.4213
   45.900    0.4564
   45.960    0.4037
   46.020    0.5266
   46.080    0.4037
   46.140    0.3335
   46.200    0.4915
   46.260    0.4564
   46.320    0.4037
   46.380    0.4915
   46.440    0.4213
   46.500    0.3511
   46.560    0.4739
   46.620    0.3160
   46.680    0.3335
   46.740    0.3686
   46.800    0.4564
   46.860    0.3511
   46.920    0.4213
   46.980    0.3511
   47.040    0.5617
   47.100    0.5266
   47.160    0.3511
   47.220    0.4213
   47.280    0.3862
   47.340    0.2808
   47.400    0.4213
   47.460    0.2984
   47.520    0.4564
   47.580    0.3335
   47.640    0.2984
   47.700    0.4564
   47.760    0.4213
   47.820    0.3862
   47.880    0.5266
   47.940    0.4037
   48.000    0.4388
   48.060    0.2984
   48.120    0.4037
   48.180    0.4739
   48.240    0.3862
   48.300    0.4388
   48.360    0.4739
   48.420    0.3511
   48.480    0.4213
   48.540    0.3511
   48.600    0.4213
   48.660    0.3335
   48.720    0.4564
   48.780    0.3686
   48.840    0.3511
   48.900    0.3160
   48.960    0.3862
   49.020    0.3686
   49.080    0.4213
   49.140    0.4388
   49.200    0.4037
   49.260    0.4037
   49.320    0.3686
   49.380    0.3335
   49.440    0.4037
   49.500    0.3160
   49.560    0.4213
   49.620    0.3862
   49.680    0.4739
   49.740    0.3511
   49.800    0.4213
   49.860    0.2984
   49.920    0.3862
   49.980    0.2984
   50.040    0.3686
   50.100    0.2984
   50.160    0.3335
   50.220    0.2633
   50.280    0.3862
   50.340    0.2808
   50.400    0.3160
   50.460    0.2457
   50.520    0.4213
   50.580    0.2984
   50.640    0.3686
   50.700    0.2808
   50.760    0.4388
   50.820    0.4388
   50.880    0.3686
   50.940    0.3862
   51.000    0.3686
   51.060    0.3511
   51.120    0.2984
   51.180    0.4037
   51.240    0.4213
   51.300    0.3511
   51.360    0.2282
   51.420    0.4388
   51.480    0.3862
   51.540    0.4388
   51.600    0.3160
   51.660    0.4037
   51.720    0.2457
   51.780    0.4388
   51.840    0.4564
   51.900    0.3686
   51.960    0.2808
   52.020    0.4388
   52.080    0.3686
   52.140    0.2808
   52.200    0.3511
   52.260    0.3862
   52.320    0.3862
   52.380    0.4564
   52.440    0.4037
   52.500    0.3335
   52.560    0.3686
   52.620    0.3160
   52.680    0.2633
   52.740    0.3335
   52.800    0.3335
   52.860    0.2457
   52.920    0.2808
   52.980    0.3686
   53.040    0.4037
   53.100    0.2633
   53.160    0.3511
   53.220    0.2984
   53.280    0.3686
   53.340    0.4213
   53.400    0.3862
   53.460    0.2106
   53.520    0.4213
   53.580    0.2106
   53.640    0.2984
   53.700    0.3335
   53.760    0.3511
   53.820    0.3160
   53.880    0.2633
   53.940    0.3511
   54.000    0.3335
   54.060    0.3160
   54.120    0.4213
   54.180    0.3511
   54.240    0.2808
   54.300    0.4213
   54.360    0.3160
   54.420    0.4213
   54.480    0.2457
   54.540    0.4388
   54.600    0.3686
   54.660    0.2633
   54.720    0.3511
   54.780    0.4037
   54.840    0.2808
   54.900    0.4037
   54.960    0.3160
   55.020    0.3511
   55.080    0.2808
   55.140    0.3335
   55.200    0.1931
   55.260    0.3511
   55.320    0.3511
   55.380    0.4213
   55.440    0.3160
   55.500    0.3511
   55.560    0.2457
   55.620    0.2457
   55.680    0.2633
   55.740    0.2808
   55.800    0.3160
   55.860    0.3335
   55.920    0.1931
   55.980    0.2457
   56.040    0.3335
   56.100    0.2457
   56.160    0.2633
   56.220    0.3862
   56.280    0.3686
   56.340    0.2457
   56.400    0.3160
   56.460    0.2808
   56.520    0.3686
   56.580    0.2633
   56.640    0.2808
   56.700    0.3862
   56.760    0.2808
   56.820    0.3335
   56.880    0.2633
   56.940    0.2984
   57.000    0.3335
   57.060    0.3160
   57.120    0.3335
   57.180    0.3335
   57.240    0.3160
   57.300    0.3160
   57.360    0.1931
   57.420    0.2633
   57.480    0.2282
   57.540    0.3335
   57.600    0.2282
   57.660    0.3511
   57.720    0.2282
   57.780    0.2633
   57.840    0.2282
   57.900    0.2282
   57.960    0.2633
   58.020    0.3160
   58.080    0.2808
   58.140    0.3335
   58.200    0.3686
   58.260    0.2808
   58.320    0.2984
   58.380    0.3862
   58.440    0.3160
   58.500    0.3511
   58.560    0.3511
   58.620    0.3511
   58.680    0.3335
   58.740    0.2984
   58.800    0.2457
   58.860    0.2457
   58.920    0.2282
   58.980    0.3511
   59.040    0.3160
   59.100    0.2633
   59.160    0.3511
   59.220    0.3511
   59.280    0.2633
   59.340    0.2457
   59.400    0.3335
   59.460    0.2984
   59.520    0.2282
   59.580    0.1755
   59.640    0.4037
   59.700    0.3862
   59.760    0.2457
   59.820    0.2106
   59.880    0.2984
   59.940    0.4037
   60.000    0.1931
   60.060    0.1931
   60.120    0.2457
   60.180    0.2808
   60.240    0.3686
   60.300    0.2808
   60.360    0.3335
   60.420    0.2282
   60.480    0.1580
   60.540    0.2984
   60.600    0.2457
   60.660    0.2457
   60.720    0.2457
   60.780    0.2282
   60.840    0.3160
   60.900    0.2457
   60.960    0.2457
   61.020    0.3686
   61.080    0.2106
   61.140    0.2984
   61.200    0.2984
   61.260    0.2106
   61.320    0.2808
   61.380    0.2106
   61.440    0.2984
   61.500    0.3335
   61.560    0.2282
   61.620    0.3335
   61.680    0.3160
   61.740    0.2808
   61.800    0.3686
   61.860    0.1755
   61.920    0.3335
   61.980    0.2106
   62.040    0.3160
   62.100    0.2984
   62.160    0.3160
   62.220    0.1404
   62.280    0.2633
   62.340    0.2457
   62.400    0.1931
   62.460    0.2808
   62.520    0.2106
   62.580    0.3335
   62.640    0.2282
   62.700    0.2457
   62.760    0.2457
   62.820    0.2106
   62.880    0.3511
   62.940    0.2106
   63.000    0.2282
   63.060    0.3862
   63.120    0.2984
   63.180    0.2106
   63.240    0.3335
   63.300    0.2633
   63.360    0.2282
   63.420    0.1755
   63.480    0.2984
   63.540    0.3862
   63.600    0.3335
   63.660    0.2457
   63.720    0.3160
   63.780    0.2633
   63.840    0.2106
   63.900    0.2633
   63.960    0.2282
   64.020    0.3160
   64.080    0.1580
   64.140    0.3335
   64.200    0.2633
   64.260    0.2457
   64.320    0.1580
   64.380    0.2808
   64.440    0.1755
   64.500    0.3160
   64.560    0.2808
   64.620    0.3686
   64.680    0.1931
   64.740    0.2282
   64.800    0.2457
   64.860    0.2633
   64.920    0.2106
   64.980    0.2106
   65.040    0.2106
   65.100    0.3160
   65.160    0.2282
   65.220    0.2984
   65.280    0.2633
   65.340    0.2106
   65.400    0.2808
   65.460    0.1931
   65.520    0.2633
   65.580    0.2984
   65.640    0.2106
   65.700    0.1931
   65.760    0.3335
   65.820    0.1931
   65.880    0.2106
   65.940    0.2282
   66.000    0.2457
   66.060    0.3335
   66.120    0.2808
   66.180    0.2282
   66.240    0.1229
   66.300    0.2808
   66.360    0.2808
   66.420    0.2282
   66.480    0.2457
   66.540    0.2282
   66.600    0.1931
   66.660    0.1580
   66.720    0.2633
   66.780    0.2106
   66.840    0.1580
   66.900    0.2282
   66.960    0.1931
   67.020    0.2984
   67.080    0.2282
   67.140    0.2457
   67.200    0.2808
   67.260    0.1931
   67.320    0.3160
   67.380    0.1931
   67.440    0.2808
   67.500    0.2633
   67.560    0.2457
   67.620    0.3160
   67.680    0.3160
   67.740    0.2633
   67.800    0.2457
   67.860    0.2984
   67.920    0.2282
   67.980    0.2984
   68.040    0.2106
   68.100    0.2808
   68.160    0.3335
   68.220    0.2633
   68.280    0.2808
   68.340    0.1931
   68.400    0.2282
   68.460    0.2106
   68.520    0.2106
   68.580    0.2633
   68.640    0.2633
   68.700    0.3160
   68.760    0.2106
   68.820    0.2633
   68.880    0.2106
   68.940    0.1580
   69.000    0.1931
   69.060    0.2282
   69.120    0.2282
   69.180    0.2984
   69.240    0.2282
   69.300    0.3160
   69.360    0.1755
   69.420    0.2457
   69.480    0.2633
   69.540    0.2633
   69.600    0.2808
   69.660    0.2633
   69.720    0.3335
   69.780    0.3160
   69.840    0.2457
   69.900    0.1755
   69.960    0.1755
   70.020    0.2282
   70.080    0.2106
   70.140    0.2457
   70.200    0.2984
   70.260    0.3160
   70.320    0.2633
   70.380    0.3511
   70.440    0.2808
   70.500    0.2457
   70.560    0.2457
   70.620    0.2633
   70.680    0.2808
   70.740    0.1755
   70.800    0.1931
   70.860    0.2633
   70.920    0.2106
   70.980    0.3862
   71.040    0.2633
   71.100    0.2984
   71.160    0.2633
   71.220    0.1931
   71.280    0.3160
   71.340    0.2106
   71.400    0.2633
   71.460    0.2633
   71.520    0.1931
   71.580    0.1755
   71.640    0.1931
   71.700    0.2808
   71.760    0.2984
   71.820    0.3511
   71.880    0.2984
   71.940    0.1755
   72.000    0.2457
   72.060    0.2106
   72.120    0.2984
   72.180    0.1755
   72.240    0.2106
   72.300    0.2633
   72.360    0.2808
   72.420    0.1931
   72.480    0.2106
   72.540    0.2282
   72.600    0.3160
   72.660    0.2106
   72.720    0.3160
   72.780    0.1931
   72.840    0.1755
   72.900    0.2808
   72.960    0.1229
   73.020    0.2808
   73.080    0.1580
   73.140    0.1580
   73.200    0.2808
   73.260    0.2106
   73.320    0.2457
   73.380    0.2282
   73.440    0.2106
   73.500    0.2633
   73.560    0.2808
   73.620    0.2633
   73.680    0.2457
   73.740    0.1755
   73.800    0.2633
   73.860    0.2633
   73.920    0.2457
   73.980    0.3511
   74.040    0.2808
   74.100    0.1755
   74.160    0.2282
   74.220    0.2808
   74.280    0.2282
   74.340    0.1931
   74.400    0.2808
   74.460    0.1931
   74.520    0.1931
   74.580    0.2633
   74.640    0.2282
   74.700    0.2808
   74.760    0.2808
   74.820    0.2106
   74.880    0.2808
   74.940    0.2282
   75.000    0.3160
   75.060    0.2282
   75.120    0.2633
   75.180    0.2457
   75.240    0.2106
   75.300    0.3686
   75.360    0.1931
   75.420    0.1755
   75.480    0.1580
   75.540    0.1931
   75.600    0.2106
   75.660    0.1404
   75.720    0.2808
   75.780    0.2106
   75.840    0.1755
   75.900    0.2106
   75.960    0.2633
   76.020    0.2808
   76.080    0.2106
   76.140    0.1580
   76.200    0.1931
   76.260    0.2633
   76.320    0.1229
   76.380    0.2282
   76.440    0.2282
   76.500    0.1931
   76.560    0.2457
   76.620    0.2808
   76.680    0.2282
   76.740    0.2106
   76.800    0.1931
   76.860    0.2457
   76.920    0.3335
   76.980    0.2984
   77.040    0.2984
   77.100    0.1404
   77.160    0.2282
   77.220    0.2633
   77.280    0.3160
   77.340    0.2457
   77.400    0.2106
   77.460    0.2984
   77.520    0.1931
   77.580    0.1580
   77.640    0.2457
   77.700    0.2106
   77.760    0.1931
   77.820    0.2106
   77.880    0.1755
   77.940    0.1580
   78.000    0.1931
   78.060    0.2106
   78.120    0.2106
   78.180    0.3160
   78.240    0.1931
   78.300    0.2282
   78.360    0.2457
   78.420    0.2457
   78.480    0.1404
   78.540    0.2633
   78.600    0.1755
   78.660    0.2106
   78.720    0.3160
   78.780    0.1755
   78.840    0.1931
   78.900    0.1931
   78.960    0.2457
   79.020    0.2633
   79.080    0.2457
   79.140    0.1755
   79.200    0.2106
   79.260    0.2457
   79.320    0.2984
   79.380    0.2457
   79.440    0.1404
   79.500    0.1755
   79.560    0.2282
   79.620    0.2457
   79.680    0.2457
   79.740    0.2106
   79.800    0.3686
   79.860    0.1931
   79.920    0.2106
   79.980    0.1580