File: data/MOCOF-1/PXRD/PXRD_KE-013_Cu-Ka1_capillary-1mm_5s-deg.xyd
    1.500   20.3054
    1.530   20.0843
    1.560   19.3470
    1.590   18.4623
    1.620   18.4308
    1.650   17.8515
    1.680   17.5566
    1.710   16.6193
    1.740   16.6930
    1.770   16.2296
    1.800   16.3665
    1.830   15.7557
    1.860   15.3765
    1.890   15.3028
    1.920   14.3339
    1.950   15.2185
    1.980   14.1022
    2.010   14.0706
    2.040   13.7019
    2.070   13.7335
    2.100   13.9231
    2.130   13.0384
    2.160   13.3544
    2.190   13.3123
    2.220   12.7541
    2.250   12.6909
    2.280   13.0068
    2.310   12.0379
    2.340   12.4276
    2.370   11.9221
    2.400   12.4908
    2.430   11.9537
    2.460   12.0379
    2.490   11.8799
    2.520   11.5534
    2.550   11.8273
    2.580   12.2275
    2.610   11.3955
    2.640   11.4587
    2.670   11.4903
    2.700   11.9431
    2.730   11.4903
    2.760   11.4376
    2.790   11.0163
    2.820   11.4797
    2.850   11.6061
    2.880   10.5635
    2.910   11.6166
    2.940   11.2164
    2.970   11.3007
    3.000   11.0795
    3.030   10.9321
    3.060   10.6582
    3.090   10.8057
    3.120   10.9742
    3.150   11.0900
    3.180   10.8689
    3.210   10.7004
    3.240   10.5003
    3.270   10.6056
    3.300   10.6898
    3.330   10.5529
    3.360   10.8478
    3.390   10.6582
    3.420   10.5845
    3.450   10.9215
    3.480   10.4897
    3.510   10.6161
    3.540   11.0479
    3.570   10.4687
    3.600   10.4581
    3.630   10.2264
    3.660   10.9110
    3.690   10.4371
    3.720   10.1632
    3.750   10.7636
    3.780    9.9210
    3.810   10.5529
    3.840   10.5845
    3.870   10.3212
    3.900   10.4687
    3.930   10.5845
    3.960   10.4265
    3.990   10.3107
    4.020   10.1422
    4.050   10.0474
    4.080   10.5635
    4.110   10.3949
    4.140   10.2264
    4.170   10.4581
    4.200    9.9315
    4.230   10.4055
    4.260   10.2791
    4.290   10.1316
    4.320   10.4687
    4.350   10.2791
    4.380    9.8684
    4.410    9.6998
    4.440   10.3212
    4.470   10.1948
    4.500   10.1632
    4.530   10.2686
    4.560   10.5319
    4.590   10.0369
    4.620   10.1843
    4.650    9.7841
    4.680    9.8262
    4.710   10.3002
    4.740   10.6161
    4.770    9.9631
    4.800   10.0685
    4.830   10.2264
    4.860   10.1843
    4.890   10.3949
    4.920    9.9947
    4.950   10.4687
    4.980   10.4687
    5.010   10.4160
    5.040   10.0369
    5.070   10.7109
    5.100   10.3633
    5.130   10.2054
    5.160   10.4371
    5.190   10.4371
    5.220    9.8157
    5.250   10.4897
    5.280   10.8478
    5.310   10.4687
    5.340   10.1632
    5.370   10.2580
    5.400   10.2054
    5.430   10.0369
    5.460   10.3739
    5.490   10.4055
    5.520   10.2264
    5.550   10.1948
    5.580   10.6898
    5.610   10.1422
    5.640   10.5108
    5.670   10.2686
    5.700   10.2896
    5.730   10.6161
    5.760   10.6898
    5.790   10.5951
    5.820   10.5740
    5.850    9.7525
    5.880   10.4897
    5.910   10.7846
    5.940   10.4371
    5.970   10.5319
    6.000   10.4371
    6.030   10.7214
    6.060   10.1738
    6.090   10.6056
    6.120   10.6266
    6.150   10.1948
    6.180   10.3212
    6.210   10.5740
    6.240   10.2686
    6.270   10.5529
    6.300   10.1001
    6.330   10.4897
    6.360   10.3107
    6.390   10.3212
    6.420   10.6372
    6.450   10.1527
    6.480   10.6582
    6.510   10.9953
    6.540   10.3002
    6.570   10.2896
    6.600   10.0158
    6.630   10.3318
    6.660   10.1211
    6.690   10.1948
    6.720   10.3212
    6.750   10.2370
    6.780   10.8057
    6.810   10.2686
    6.840   10.4160
    6.870   10.7109
    6.900    9.8894
    6.930   11.0479
    6.960   10.5740
    6.990   10.7846
    7.020   11.1638
    7.050   11.1954
    7.080   11.0900
    7.110   10.5319
    7.140   11.0163
    7.170   11.1322
    7.200   11.4481
    7.230   11.7220
    7.260   11.9221
    7.290   11.9642
    7.320   12.1748
    7.350   13.0490
    7.380   12.7857
    7.410   12.9542
    7.440   12.5540
    7.470   13.5018
    7.500   13.0700
    7.530   13.5650
    7.560   13.3755
    7.590   13.2912
    7.620   13.6704
    7.650   13.7019
    7.680   14.0706
    7.710   14.0390
    7.740   14.3339
    7.770   14.8605
    7.800   15.2291
    7.830   15.4713
    7.860   15.1764
    7.890   16.2717
    7.920   15.9347
    7.950   14.8920
    7.980   13.9863
    8.010   13.3965
    8.040   12.2064
    8.070   11.8905
    8.100   11.7430
    8.130   10.8268
    8.160   10.9215
    8.190   10.9215
    8.220   10.7004
    8.250   10.3318
    8.280   10.9742
    8.310   10.7320
    8.340   10.5740
    8.370   10.4581
    8.400   10.3212
    8.430   10.2686
    8.460   10.0895
    8.490    9.6998
    8.520   10.5213
    8.550   10.3844
    8.580   10.1527
    8.610   10.7530
    8.640   10.5424
    8.670   10.4371
    8.700   10.3633
    8.730   10.6477
    8.760   10.5319
    8.790   10.2159
    8.820   10.1632
    8.850   10.4897
    8.880   10.5529
    8.910   10.2896
    8.940   10.2475
    8.970   10.1738
    9.000   10.6161
    9.030   10.3318
    9.060   10.9531
    9.090   10.5108
    9.120   10.6688
    9.150   10.8899
    9.180   11.0374
    9.210   10.4897
    9.240   11.4376
    9.270   10.7109
    9.300   11.6904
    9.330   11.5745
    9.360   12.0063
    9.390   12.3012
    9.420   12.6804
    9.450   13.1438
    9.480   13.7335
    9.510   14.3023
    9.540   15.2712
    9.570   16.2085
    9.600   17.2091
    9.630   18.7046
    9.660   18.5045
    9.690   19.4839
    9.720   19.1469
    9.750   19.2944
    9.780   19.2944
    9.810   19.9684
    9.840   18.7783
    9.870   18.8310
    9.900   17.0721
    9.930   15.6819
    9.960   14.3339
    9.990   13.5861
   10.020   13.5861
   10.050   13.0490
   10.080   13.6282
   10.110   13.7862
   10.140   13.4913
   10.170   13.8915
   10.200   13.4492
   10.230   13.5440
   10.260   13.8073
   10.290   14.2075
   10.320   12.8805
   10.350   12.5961
   10.380   12.5434
   10.410   12.6277
   10.440   12.3960
   10.470   12.2064
   10.500   12.8594
   10.530   12.2591
   10.560   12.7962
   10.590   12.8173
   10.620   13.1122
   10.650   13.1227
   10.680   12.8805
   10.710   13.3965
   10.740   12.6488
   10.770   12.8173
   10.800   12.7646
   10.830   13.3544
   10.860   13.6493
   10.890   13.5756
   10.920   12.9437
   10.950   12.7962
   10.980   12.7962
   11.010   13.1332
   11.040   12.7541
   11.070   12.4697
   11.100   12.8173
   11.130   12.5224
   11.160   12.8805
   11.190   12.1327
   11.220   12.7436
   11.250   12.0906
   11.280   12.6382
   11.310   12.0484
   11.340   12.2064
   11.370   11.6166
   11.400   11.9115
   11.430   11.7536
   11.460   11.8062
   11.490   11.7641
   11.520   11.6377
   11.550   11.6482
   11.580   11.0479
   11.610   11.4903
   11.640   12.0800
   11.670   11.6377
   11.700   12.0590
   11.730   12.1011
   11.760   11.3112
   11.790   12.1854
   11.820   11.8378
   11.850   12.1011
   11.880   11.9747
   11.910   12.6593
   11.940   12.3855
   11.970   12.3223
   12.000   12.7120
   12.030   12.3644
   12.060   12.2801
   12.090   11.8589
   12.120   12.4592
   12.150   12.0800
   12.180   12.2801
   12.210   11.9642
   12.240   11.1006
   12.270   11.7325
   12.300   11.2164
   12.330   11.5534
   12.360   11.5850
   12.390   11.7536
   12.420   11.6061
   12.450   10.9847
   12.480   11.3955
   12.510   11.2164
   12.540   11.3007
   12.570   11.3744
   12.600   11.3849
   12.630   11.1638
   12.660   11.1006
   12.690   11.1954
   12.720   11.2164
   12.750   11.8589
   12.780   11.5219
   12.810   11.7220
   12.840   11.6482
   12.870   11.1532
   12.900   11.8905
   12.930   11.2270
   12.960   11.1111
   12.990   11.4797
   13.020   11.4060
   13.050   11.4060
   13.080   11.7641
   13.110   11.5008
   13.140   11.3744
   13.170   11.4797
   13.200   11.9221
   13.230   10.6372
   13.260   11.6904
   13.290   11.2796
   13.320   11.2270
   13.350   11.1216
   13.380   10.6056
   13.410   10.7214
   13.440   12.1011
   13.470   11.5113
   13.500   11.3112
   13.530   11.2586
   13.560   11.3217
   13.590   11.4587
   13.620   11.3007
   13.650   11.4587
   13.680   11.8589
   13.710   11.1322
   13.740   11.1006
   13.770   10.9426
   13.800   11.5008
   13.830   11.3955
   13.860   11.0479
   13.890   11.1006
   13.920   11.1532
   13.950   11.4271
   13.980   11.3112
   14.010   11.2796
   14.040   10.6582
   14.070   10.5529
   14.100   10.6793
   14.130   10.6056
   14.160   10.5108
   14.190   10.7636
   14.220   10.6688
   14.250   10.7741
   14.280   10.6793
   14.310   10.4687
   14.340   10.8794
   14.370   10.6161
   14.400   10.4476
   14.430   10.3844
   14.460   10.7846
   14.490   11.1954
   14.520   10.3844
   14.550   11.1638
   14.580   11.4903
   14.610   10.4476
   14.640   11.2902
   14.670   11.1743
   14.700   11.4587
   14.730   10.7214
   14.760   10.6688
   14.790   11.4376
   14.820   10.9637
   14.850   11.0479
   14.880   10.6372
   14.910   10.0790
   14.940   10.5951
   14.970   10.3212
   15.000   10.2791
   15.030   10.1738
   15.060   10.5951
   15.090   11.1954
   15.120   10.3844
   15.150   10.9531
   15.180   10.4792
   15.210   11.2586
   15.240   10.5108
   15.270   10.9953
   15.300   10.4897
   15.330   10.5740
   15.360   10.1422
   15.390   10.7109
   15.420   10.8478
   15.450   10.8057
   15.480   10.7320
   15.510   11.0795
   15.540   10.6056
   15.570   10.6582
   15.600   10.9005
   15.630   10.8373
   15.660   11.1427
   15.690   10.7952
   15.720   11.1006
   15.750   11.8167
   15.780   11.8799
   15.810   11.2164
   15.840   11.1532
   15.870   10.8583
   15.900   10.9110
   15.930   10.8478
   15.960   11.1216
   15.990   11.1532
   16.020   10.7109
   16.050   10.6898
   16.080   11.2164
   16.110   10.8583
   16.140   10.4792
   16.170   10.7320
   16.200   10.8899
   16.230   10.5319
   16.260   10.5951
   16.290   10.8373
   16.320   10.3423
   16.350   10.8899
   16.380   11.0585
   16.410   10.5319
   16.440   10.5213
   16.470   10.5108
   16.500   10.7320
   16.530   10.8583
   16.560   10.7952
   16.590   11.2375
   16.620   10.4055
   16.650   10.7636
   16.680   10.7846
   16.710   10.4476
   16.740   10.4476
   16.770   10.2264
   16.800   10.5740
   16.830   11.0374
   16.860   10.9321
   16.890   10.4792
   16.920   10.3318
   16.950   10.3633
   16.980   10.8899
   17.010   10.6688
   17.040   10.8162
   17.070   10.9742
   17.100   10.5213
   17.130   10.2896
   17.160   10.4687
   17.190   10.4897
   17.220   10.9531
   17.250   10.7214
   17.280   11.2059
   17.310   10.9742
   17.340   10.7004
   17.370   10.9215
   17.400   10.8373
   17.430   10.8057
   17.460   11.0269
   17.490   11.4165
   17.520   10.8373
   17.550   10.9953
   17.580   10.3318
   17.610   10.6372
   17.640   11.3112
   17.670   10.6793
   17.700   10.5845
   17.730   11.1427
   17.760   10.9321
   17.790   11.0163
   17.820   10.8268
   17.850   10.8583
   17.880   11.2691
   17.910   10.2791
   17.940   10.8057
   17.970   10.6056
   18.000   10.7741
   18.030   10.5635
   18.060   11.0269
   18.090   10.4055
   18.120   10.7004
   18.150   10.6477
   18.180   10.3844
   18.210   11.1216
   18.240   10.3949
   18.270   10.4371
   18.300   10.0158
   18.330   10.4265
   18.360   10.8162
   18.390   10.5213
   18.420   10.7846
   18.450   10.5845
   18.480   10.1001
   18.510   11.0900
   18.540   10.7109
   18.570   10.4055
   18.600   10.4371
   18.630   10.5529
   18.660   10.8268
   18.690   11.6061
   18.720   11.0374
   18.750   10.7425
   18.780   11.0269
   18.810   10.9426
   18.840   10.6161
   18.870   10.6688
   18.900   11.0900
   18.930   10.4687
   18.960   10.0053
   18.990   10.2159
   19.020   10.3633
   19.050   10.6898
   19.080   11.0269
   19.110   10.7425
   19.140   10.6898
   19.170   10.7530
   19.200   10.4371
   19.230   10.5424
   19.260   10.9953
   19.290   10.7425
   19.320   11.0585
   19.350   10.5951
   19.380   10.7636
   19.410   10.6372
   19.440   11.1216
   19.470   11.1743
   19.500   10.5213
   19.530   10.4371
   19.560   11.4481
   19.590   10.6582
   19.620   10.3739
   19.650   10.2896
   19.680   10.8899
   19.710   10.4055
   19.740   10.5213
   19.770   10.1316
   19.800   10.5529
   19.830   10.6477
   19.860   10.4476
   19.890   10.5003
   19.920   10.1106
   19.950   10.6793
   19.980   10.6582
   20.010   10.7109
   20.040   10.3949
   20.070   10.6477
   20.100   10.6266
   20.130   10.5529
   20.160   10.3844
   20.190   10.9215
   20.220   11.0058
   20.250   10.8162
   20.280   11.0374
   20.310   11.0374
   20.340   10.8162
   20.370   10.7425
   20.400   10.4897
   20.430   11.1743
   20.460   10.6477
   20.490   10.5424
   20.520   11.0058
   20.550   11.2270
   20.580   11.2164
   20.610   10.7214
   20.640   10.6898
   20.670   10.9426
   20.700   10.3844
   20.730   10.6793
   20.760   10.4687
   20.790   10.3633
   20.820   10.5424
   20.850   10.4476
   20.880    9.9421
   20.910   10.6793
   20.940   10.5003
   20.970   10.5213
   21.000   10.6477
   21.030   10.6898
   21.060   10.8373
   21.090   10.3949
   21.120   10.5213
   21.150   10.7636
   21.180   10.2475
   21.210   10.4160
   21.240   10.2264
   21.270   10.9742
   21.300   10.4581
   21.330   10.7004
   21.360   10.7320
   21.390   10.4160
   21.420   10.3107
   21.450   10.5635
   21.480   10.5213
   21.510   11.1006
   21.540   10.6056
   21.570   11.0690
   21.600   11.1532
   21.630   10.9321
   21.660   10.9531
   21.690   11.1638
   21.720   11.1006
   21.750   11.5324
   21.780   11.0585
   21.810   11.1848
   21.840   10.8162
   21.870   10.7530
   21.900   11.0900
   21.930   10.7425
   21.960   10.3107
   21.990   11.1322
   22.020   11.3744
   22.050   11.1532
   22.080   11.2375
   22.110   11.3849
   22.140   10.9637
   22.170   10.7214
   22.200   11.2796
   22.230   11.4692
   22.260   10.7109
   22.290   11.0690
   22.320   11.0690
   22.350   11.0795
   22.380   11.0269
   22.410   10.9847
   22.440   10.6372
   22.470   10.7109
   22.500   11.0795
   22.530   11.5640
   22.560   11.4797
   22.590   11.2270
   22.620   11.3428
   22.650   10.8373
   22.680   10.6688
   22.710   11.5429
   22.740   11.1006
   22.770   11.0690
   22.800   11.6693
   22.830   10.9215
   22.860   11.4165
   22.890   12.0379
   22.920   11.1638
   22.950   11.0479
   22.980   11.3112
   23.010   11.1427
   23.040   11.4797
   23.070   11.1006
   23.100   11.6272
   23.130   11.8799
   23.160   11.5956
   23.190   11.4165
   23.220   12.0274
   23.250   11.1006
   23.280   11.6272
   23.310   11.3428
   23.340   11.0374
   23.370   11.1638
   23.400   11.3217
   23.430   10.9953
   23.460   10.7846
   23.490   11.0585
   23.520   11.5113
   23.550   11.0163
   23.580   10.3002
   23.610   11.0163
   23.640   10.9215
   23.670   10.3739
   23.700   10.8057
   23.730   10.9321
   23.760   10.5740
   23.790   10.9426
   23.820   10.4055
   23.850   10.6793
   23.880   10.6477
   23.910   11.2270
   23.940   10.5213
   23.970   10.9215
   24.000   11.0585
   24.030   10.9953
   24.060   10.9637
   24.090   10.4792
   24.120   10.7109
   24.150   11.3007
   24.180   11.0479
   24.210   11.2480
   24.240   10.5529
   24.270   10.4792
   24.300   11.1427
   24.330   11.5745
   24.360   10.7636
   24.390   10.6793
   24.420   11.0163
   24.450   11.0058
   24.480   10.0474
   24.510   11.0163
   24.540   10.9005
   24.570   10.7004
   24.600   10.5845
   24.630   11.0900
   24.660   10.6266
   24.690   11.0585
   24.720   10.9321
   24.750   11.3217
   24.780   10.8478
   24.810   10.7004
   24.840   11.3639
   24.870   11.7430
   24.900   11.2796
   24.930   10.9426
   24.960   10.6582
   24.990   10.7636
   25.020   10.9637
   25.050   11.1006
   25.080   10.7425
   25.110   10.6477
   25.140   11.1322
   25.170   11.0795
   25.200   10.5635
   25.230   11.2270
   25.260   11.0269
   25.290   11.3639
   25.320   11.1954
   25.350   11.0795
   25.380   10.9110
   25.410   11.2375
   25.440   10.4687
   25.470   10.7846
   25.500   11.3639
   25.530   11.7220
   25.560   11.0690
   25.590   11.0479
   25.620   10.7846
   25.650   10.9110
   25.680   11.0795
   25.710   10.9321
   25.740   11.3007
   25.770   10.9426
   25.800   10.8689
   25.830   11.2796
   25.860   11.4692
   25.890   11.6904
   25.920   11.2270
   25.950   11.3217
   25.980   11.1111
   26.010   11.5113
   26.040   11.2059
   26.070   11.3955
   26.100   11.1427
   26.130   11.4481
   26.160   12.1538
   26.190   11.6166
   26.220   11.8905
   26.250   11.5008
   26.280   11.9431
   26.310   11.0374
   26.340   11.2586
   26.370   11.6904
   26.400   11.6798
   26.430   12.0063
   26.460   11.1322
   26.490   11.4692
   26.520   10.9531
   26.550   11.3323
   26.580   11.2164
   26.610   11.3849
   26.640   10.7214
   26.670   11.3849
   26.700   11.6904
   26.730   11.6904
   26.760   12.0063
   26.790   11.5640
   26.820   11.8167
   26.850   11.6693
   26.880   11.7746
   26.910   11.6061
   26.940   12.0063
   26.970   11.8483
   27.000   11.9221
   27.030   11.9958
   27.060   11.7325
   27.090   11.8589
   27.120   12.0590
   27.150   11.9326
   27.180   11.6166
   27.210   11.5429
   27.240   11.8378
   27.270   11.7430
   27.300   11.5113
   27.330   11.3323
   27.360   11.5745
   27.390   11.7325
   27.420   11.3955
   27.450   11.9431
   27.480   11.4692
   27.510   11.1954
   27.540   11.1848
   27.570   11.6166
   27.600   11.5850
   27.630   11.6693
   27.660   11.6798
   27.690   11.6904
   27.720   11.4692
   27.750   11.6904
   27.780   11.1111
   27.810   11.2586
   27.840   11.2270
   27.870   11.8483
   27.900   11.5324
   27.930   11.1848
   27.960   11.1954
   27.990   10.9637
   28.020   11.1111
   28.050   11.4060
   28.080   11.1216
   28.110   10.5108
   28.140   11.3323
   28.170   10.6477
   28.200   10.4687
   28.230   10.8478
   28.260   10.9110
   28.290   11.6693
   28.320   11.0690
   28.350   10.6688
   28.380   11.0269
   28.410   10.5213
   28.440   10.4371
   28.470   10.6582
   28.500   10.3002
   28.530   11.2164
   28.560   10.8899
   28.590   10.6266
   28.620   10.4792
   28.650   10.6582
   28.680   11.0269
   28.710   11.0058
   28.740   10.4265
   28.770   10.4371
   28.800   11.0163
   28.830   11.1006
   28.860   10.3739
   28.890   11.1954
   28.920   10.7952
   28.950   10.8583
   28.980   10.7846
   29.010   11.0900
   29.040   10.5213
   29.070   10.6477
   29.100   10.4792
   29.130   10.5108
   29.160   10.5003
   29.190   10.5845
   29.220   10.5845
   29.250   10.6582
   29.280   10.7004
   29.310   10.5003
   29.340   10.5213
   29.370   10.2686
   29.400   11.0163
   29.430   10.5529
   29.460   10.3949
   29.490   10.3949
   29.520   10.4476
   29.550   10.8583
   29.580   10.5635
   29.610   10.8268
   29.640   10.4055
   29.670   10.5108
   29.700   10.1001
   29.730   10.1106
   29.760   10.6582
   29.790   10.2896
   29.820   10.0895
   29.850   10.2791
   29.880    9.9842
   29.910   10.3633
   29.940   10.9637
   29.970   10.4160
   30.000   10.2370
   30.030   10.3107
   30.060   10.4476
   30.090   10.3318
   30.120   10.6372
   30.150   10.2896
   30.180   10.0369
   30.210   10.4055
   30.240   10.4581
   30.270   10.5424
   30.300   10.6266
   30.330   10.0053
   30.360   10.6477
   30.390   10.2791
   30.420   10.1422
   30.450   10.0895
   30.480    9.9315
   30.510   10.0685
   30.540   10.0685
   30.570    9.8684
   30.600    9.7841
   30.630   10.3107
   30.660   10.8794
   30.690   10.0263
   30.720   10.2159
   30.750   10.4476
   30.780   10.1422
   30.810   10.5529
   30.840   10.0579
   30.870   10.4265
   30.900   10.3318
   30.930   10.6793
   30.960    9.8157
   30.990   10.6582
   31.020   10.1948
   31.050    9.8578
   31.080   10.6161
   31.110   10.2370
   31.140   10.3844
   31.170   10.1948
   31.200    9.9421
   31.230   10.0895
   31.260    9.9947
   31.290   10.5003
   31.320   10.0369
   31.350   10.3949
   31.380   10.4160
   31.410    9.9526
   31.440   10.4476
   31.470   10.1422
   31.500    9.8894
   31.530    9.9105
   31.560    9.8999
   31.590    9.9737
   31.620   10.3318
   31.650   10.8478
   31.680   10.4897
   31.710   10.1632
   31.740    9.8473
   31.770    9.8684
   31.800   10.0158
   31.830   10.8899
   31.860   10.1632
   31.890   10.0790
   31.920    9.9842
   31.950   10.6793
   31.980   10.2580
   32.010   10.2791
   32.040    9.9631
   32.070    9.8789
   32.100    9.8789
   32.130   10.1948
   32.160    9.8157
   32.190   10.3212
   32.220   10.1106
   32.250   10.4160
   32.280   10.0474
   32.310   10.1948
   32.340   10.7530
   32.370   10.0895
   32.400   10.2370
   32.430    9.9947
   32.460   10.1527
   32.490    9.9737
   32.520   10.3002
   32.550   10.2054
   32.580   10.0158
   32.610   10.4371
   32.640   10.1001
   32.670    9.9947
   32.700    9.8999
   32.730   10.1738
   32.760   10.2686
   32.790    9.7736
   32.820   10.1001
   32.850   10.1422
   32.880    9.8894
   32.910   10.1211
   32.940   10.4687
   32.970   10.3423
   33.000   10.0158
   33.030   10.4792
   33.060   10.0053
   33.090    9.7314
   33.120   10.2791
   33.150    9.7314
   33.180   10.3212
   33.210   10.2159
   33.240   10.2896
   33.270    9.9526
   33.300   10.3844
   33.330    9.6156
   33.360   10.3318
   33.390   10.6477
   33.420    9.9842
   33.450   10.0263
   33.480   10.4792
   33.510    9.6156
   33.540   10.1422
   33.570   10.2159
   33.600   10.1843
   33.630   10.1106
   33.660    9.9421
   33.690   10.1527
   33.720    9.8578
   33.750    9.9315
   33.780    9.6156
   33.810   10.5635
   33.840   10.0474
   33.870    9.9315
   33.900    9.9631
   33.930   10.2370
   33.960   10.6477
   33.990   10.1948
   34.020    9.9947
   34.050    9.8052
   34.080   10.2475
   34.110    9.6893
   34.140    9.5735
   34.170   10.3528
   34.200   10.1001
   34.230   10.3423
   34.260   10.0474
   34.290    9.7420
   34.320    9.6893
   34.350   10.4160
   34.380    9.7314
   34.410    9.9105
   34.440    9.9315
   34.470   10.1316
   34.500   10.4581
   34.530    9.9947
   34.560    9.5524
   34.590   10.1211
   34.620    9.6156
   34.650    9.8789
   34.680   10.0053
   34.710    9.7525
   34.740    9.9631
   34.770    9.9210
   34.800    9.5629
   34.830    9.8262
   34.860   10.5424
   34.890   10.2475
   34.920   10.0790
   34.950   10.1843
   34.980    9.7630
   35.010   10.0158
   35.040    9.8262
   35.070    9.3628
   35.100   10.0053
   35.130    9.5840
   35.160   10.1001
   35.190    9.7104
   35.220    9.5945
   35.250    9.9421
   35.280    9.8894
   35.310    9.6156
   35.340    9.7420
   35.370   10.4897
   35.400    9.9737
   35.430    9.5208
   35.460   10.2580
   35.490    9.4681
   35.520   10.0474
   35.550   10.2370
   35.580   10.1527
   35.610   10.2475
   35.640   10.5319
   35.670    9.6682
   35.700    9.9631
   35.730    9.4576
   35.760   10.2686
   35.790   10.1316
   35.820   10.3318
   35.850   10.1738
   35.880    9.6788
   35.910    9.5313
   35.940   10.3212
   35.970   10.0263
   36.000   10.2264
   36.030    9.7630
   36.060   10.5845
   36.090    9.6577
   36.120    9.9737
   36.150    9.7946
   36.180    9.6472
   36.210    9.9105
   36.240    9.5313
   36.270   10.2370
   36.300    9.4155
   36.330    9.7209
   36.360    9.0785
   36.390    9.6788
   36.420   10.0053
   36.450    9.3523
   36.480   10.1001
   36.510    9.8052
   36.540    9.9421
   36.570    9.9737
   36.600    9.5840
   36.630    9.8262
   36.660   10.3633
   36.690    9.5840
   36.720    9.7420
   36.750    9.6367
   36.780   10.4160
   36.810   10.0579
   36.840    9.8789
   36.870    9.9842
   36.900    9.5419
   36.930    9.5419
   36.960    9.6156
   36.990    9.7630
   37.020   10.0053
   37.050   10.0263
   37.080    9.9526
   37.110    9.9526
   37.140    9.7209
   37.170   10.0053
   37.200    9.7420
   37.230    9.4260
   37.260    9.5419
   37.290    9.6998
   37.320   10.0263
   37.350    9.6998
   37.380    9.8262
   37.410    9.6998
   37.440    9.3102
   37.470    9.8473
   37.500    9.5735
   37.530    9.5524
   37.560    9.8157
   37.590   10.0474
   37.620   10.1316
   37.650    9.9526
   37.680   10.1843
   37.710    9.7525
   37.740    9.8368
   37.770    9.2680
   37.800   10.2475
   37.830    9.8368
   37.860    9.8368
   37.890   10.0053
   37.920    9.5103
   37.950    9.7630
   37.980    9.4050
   38.010    9.3628
   38.040    9.7946
   38.070    9.4365
   38.100    9.3102
   38.130    9.5208
   38.160    9.7314
   38.190    9.7525
   38.220    9.9210
   38.250    9.2891
   38.280   10.1001
   38.310    9.8262
   38.340    9.4892
   38.370    9.8473
   38.400    9.3418
   38.430    9.6788
   38.460    8.9626
   38.490    9.5208
   38.520    9.7525
   38.550    9.5629
   38.580    9.8894
   38.610    9.5524
   38.640    9.4471
   38.670    9.8473
   38.700    9.5945
   38.730    8.9942
   38.760    9.3207
   38.790    9.7630
   38.820    9.6998
   38.850    9.6998
   38.880    9.3839
   38.910    9.5419
   38.940    9.3628
   38.970    9.0785
   39.000    9.4471
   39.030    9.4050
   39.060    9.4050
   39.090    9.4260
   39.120    9.9105
   39.150    9.7736
   39.180    9.8473
   39.210    9.7630
   39.240    9.6261
   39.270    9.5313
   39.300    9.6788
   39.330    9.6998
   39.360    9.1627
   39.390    9.4681
   39.420    9.3839
   39.450    9.5103
   39.480    9.3418
   39.510    9.1417
   39.540    9.5629
   39.570    9.4892
   39.600    9.7736
   39.630    9.0785
   39.660    9.3523
   39.690    9.7841
   39.720    9.7209
   39.750    9.5103
   39.780    9.6261
   39.810    9.7104
   39.840    9.9947
   39.870    9.4260
   39.900    9.3523
   39.930    9.4260
   39.960    9.6577
   39.990    9.7420