File: data/MOCOF-1/PXRD/PXRD_KE-077_Cu-Ka1_capillary-1mm_5s-deg.xyd
    1.500   16.3033
    1.530   16.6087
    1.560   16.6403
    1.590   17.3144
    1.620   17.0827
    1.650   16.8931
    1.680   17.0405
    1.710   18.2201
    1.740   18.4308
    1.770   18.3781
    1.800   18.8204
    1.830   20.1896
    1.860   19.3154
    1.890   20.2212
    1.920   21.0111
    1.950   21.6008
    1.980   22.5698
    2.010   23.2859
    2.040   23.5598
    2.070   24.0653
    2.100   25.8241
    2.130   25.9084
    2.160   28.0885
    2.190   28.7625
    2.220   29.7841
    2.250   31.3955
    2.280   33.6598
    2.310   35.4397
    2.340   36.6087
    2.370   38.9363
    2.400   41.5271
    2.430   43.3807
    2.460   46.7193
    2.490   49.2154
    2.520   54.2285
    2.550   59.6419
    2.580   64.4339
    2.610   70.8162
    2.640   79.4945
    2.670   89.6367
    2.700  102.5487
    2.730  112.5645
    2.760  117.8620
    2.790  110.4371
    2.820   91.0163
    2.850   69.9842
    2.880   54.6919
    2.910   42.5698
    2.940   31.5324
    2.970   22.9279
    3.000   16.8194
    3.030   12.6593
    3.060   10.0895
    3.090    8.4466
    3.120    7.5724
    3.150    7.1090
    3.180    6.1717
    3.210    5.8031
    3.240    5.7083
    3.270    5.2449
    3.300    4.9394
    3.330    4.9500
    3.360    4.9816
    3.390    4.6445
    3.420    4.7183
    3.450    4.6867
    3.480    4.6235
    3.510    4.0969
    3.540    4.2654
    3.570    4.1706
    3.600    4.4339
    3.630    4.4128
    3.660    4.2127
    3.690    4.1074
    3.720    4.3391
    3.750    3.8125
    3.780    4.3181
    3.810    4.5708
    3.840    4.2970
    3.870    4.2233
    3.900    4.2549
    3.930    4.4971
    3.960    4.5182
    3.990    4.8025
    4.020    4.7709
    4.050    4.6445
    4.080    5.0026
    4.110    4.9605
    4.140    5.1290
    4.170    5.1817
    4.200    5.0553
    4.230    5.2133
    4.260    5.6240
    4.290    5.6345
    4.320    6.2243
    4.350    6.0874
    4.380    6.2770
    4.410    7.0248
    4.440    7.2459
    4.470    7.4460
    4.500    7.6251
    4.530    8.8257
    4.560    9.7314
    4.590   10.5635
    4.620   11.0585
    4.650   11.9431
    4.680   13.9231
    4.710   14.5972
    4.740   15.1869
    4.770   15.7662
    4.800   15.1553
    4.830   15.1659
    4.860   15.2291
    4.890   15.8715
    4.920   16.1032
    4.950   15.4081
    4.980   14.6288
    5.010   12.3433
    5.040    9.5945
    5.070    7.7304
    5.100    6.7404
    5.130    6.2559
    5.160    5.8136
    5.190    5.8136
    5.220    5.7083
    5.250    6.0664
    5.280    5.8557
    5.310    5.8241
    5.340    6.3718
    5.370    6.9826
    5.400    6.9089
    5.430    8.0674
    5.460    8.3307
    5.490    9.4997
    5.520   10.4476
    5.550   11.1638
    5.580   11.0163
    5.610    9.8789
    5.640    8.9310
    5.670    7.8568
    5.700    6.7615
    5.730    5.9505
    5.760    5.8031
    5.790    5.6977
    5.820    5.4871
    5.850    5.1290
    5.880    4.7815
    5.910    4.4550
    5.940    3.9916
    5.970    4.1811
    6.000    3.5703
    6.030    3.4439
    6.060    3.4334
    6.090    3.4018
    6.120    3.3386
    6.150    3.4334
    6.180    3.2754
    6.210    3.1174
    6.240    3.2543
    6.270    3.1069
    6.300    3.0016
    6.330    3.1806
    6.360    3.1174
    6.390    3.5282
    6.420    3.3702
    6.450    3.2017
    6.480    3.3281
    6.510    3.4018
    6.540    2.7804
    6.570    3.3070
    6.600    3.1912
    6.630    3.1385
    6.660    3.1069
    6.690    3.4018
    6.720    3.2333
    6.750    3.2438
    6.780    3.2122
    6.810    3.4860
    6.840    3.6124
    6.870    3.4229
    6.900    3.7177
    6.930    3.8336
    6.960    4.1285
    6.990    3.7072
    7.020    4.4128
    7.050    4.7077
    7.080    4.5919
    7.110    4.7393
    7.140    5.4134
    7.170    5.7820
    7.200    5.8873
    7.230    6.6772
    7.260    6.6351
    7.290    6.9510
    7.320    6.9932
    7.350    7.3618
    7.380    6.7299
    7.410    7.1722
    7.440    7.5092
    7.470    7.7199
    7.500    7.8357
    7.530    8.0253
    7.560    7.8041
    7.590    7.4144
    7.620    7.3302
    7.650    6.4455
    7.680    6.1717
    7.710    5.8662
    7.740    5.1817
    7.770    4.8763
    7.800    4.0548
    7.830    4.0548
    7.860    3.7072
    7.890    3.7072
    7.920    3.4966
    7.950    3.2649
    7.980    3.3281
    8.010    3.2227
    8.040    3.0858
    8.070    3.1174
    8.100    3.2333
    8.130    3.0542
    8.160    3.3491
    8.190    3.4650
    8.220    3.1596
    8.250    3.2859
    8.280    3.2543
    8.310    3.0226
    8.340    3.3070
    8.370    3.1490
    8.400    3.1596
    8.430    3.0016
    8.460    3.2122
    8.490    3.2227
    8.520    3.0542
    8.550    3.2122
    8.580    2.8963
    8.610    2.8647
    8.640    3.0753
    8.670    2.8225
    8.700    3.0542
    8.730    3.0332
    8.760    2.8331
    8.790    2.9595
    8.820    2.9595
    8.850    3.0753
    8.880    2.8015
    8.910    2.7593
    8.940    2.6646
    8.970    3.0121
    9.000    2.7593
    9.030    2.9489
    9.060    2.9595
    9.090    2.9700
    9.120    2.8752
    9.150    3.0753
    9.180    2.9068
    9.210    2.6435
    9.240    2.9910
    9.270    2.9910
    9.300    3.0437
    9.330    3.0121
    9.360    3.2122
    9.390    3.0332
    9.420    3.2333
    9.450    3.3597
    9.480    3.6019
    9.510    3.5492
    9.540    3.5387
    9.570    3.5387
    9.600    3.4018
    9.630    3.4018
    9.660    3.3281
    9.690    3.2649
    9.720    3.5387
    9.750    3.6651
    9.780    3.4860
    9.810    3.4334
    9.840    3.6967
    9.870    3.8968
    9.900    3.8863
    9.930    3.8125
    9.960    3.9916
    9.990    3.6546
   10.020    3.7809
   10.050    3.4755
   10.080    3.5492
   10.110    3.4018
   10.140    3.9389
   10.170    3.6440
   10.200    3.6335
   10.230    3.7809
   10.260    3.3281
   10.290    3.0964
   10.320    3.4334
   10.350    3.1806
   10.380    3.2649
   10.410    3.2859
   10.440    3.2859
   10.470    3.4966
   10.500    3.2754
   10.530    3.2438
   10.560    3.4544
   10.590    3.1701
   10.620    2.9910
   10.650    3.0964
   10.680    3.0542
   10.710    2.9595
   10.740    2.9068
   10.770    2.8857
   10.800    2.6962
   10.830    2.8963
   10.860    2.6962
   10.890    2.6646
   10.920    2.6962
   10.950    2.7172
   10.980    2.8120
   11.010    3.0121
   11.040    2.7383
   11.070    2.4855
   11.100    2.8436
   11.130    2.7804
   11.160    2.8120
   11.190    2.5382
   11.220    2.6962
   11.250    2.6224
   11.280    2.9489
   11.310    2.8331
   11.340    2.8752
   11.370    2.6751
   11.400    2.8120
   11.430    3.0437
   11.460    3.0858
   11.490    2.8752
   11.520    2.8647
   11.550    3.0437
   11.580    2.9384
   11.610    2.7909
   11.640    3.0226
   11.670    2.8015
   11.700    2.9595
   11.730    2.8225
   11.760    2.7067
   11.790    3.0016
   11.820    2.6119
   11.850    2.7067
   11.880    2.8647
   11.910    2.6646
   11.940    2.8647
   11.970    2.7383
   12.000    3.1806
   12.030    2.8436
   12.060    2.7909
   12.090    2.6435
   12.120    2.9910
   12.150    2.9279
   12.180    2.7699
   12.210    2.9068
   12.240    2.6119
   12.270    2.8541
   12.300    2.8857
   12.330    2.8963
   12.360    3.0753
   12.390    3.2649
   12.420    3.1806
   12.450    3.2333
   12.480    3.0226
   12.510    3.1069
   12.540    3.2227
   12.570    3.2649
   12.600    3.1806
   12.630    2.9595
   12.660    2.7699
   12.690    3.0648
   12.720    3.0753
   12.750    3.1806
   12.780    2.7804
   12.810    2.7699
   12.840    2.8015
   12.870    2.8015
   12.900    2.8541
   12.930    2.8541
   12.960    3.1912
   12.990    2.9700
   13.020    2.7067
   13.050    2.7278
   13.080    2.8963
   13.110    2.8963
   13.140    3.0648
   13.170    2.5908
   13.200    2.8120
   13.230    2.9173
   13.260    2.8015
   13.290    2.8436
   13.320    3.0753
   13.350    2.6646
   13.380    2.6435
   13.410    2.6751
   13.440    2.7699
   13.470    2.8647
   13.500    2.7383
   13.530    2.7278
   13.560    2.9384
   13.590    2.9068
   13.620    2.9384
   13.650    2.9910
   13.680    2.7593
   13.710    2.9700
   13.740    2.9279
   13.770    3.0226
   13.800    2.9595
   13.830    2.9279
   13.860    3.1385
   13.890    2.9279
   13.920    2.8963
   13.950    2.9489
   13.980    2.8331
   14.010    3.0121
   14.040    3.2333
   14.070    2.8541
   14.100    3.0016
   14.130    3.1596
   14.160    3.0332
   14.190    2.8225
   14.220    2.8225
   14.250    3.0226
   14.280    2.7909
   14.310    2.8963
   14.340    3.0016
   14.370    2.9700
   14.400    2.9489
   14.430    2.8963
   14.460    3.0016
   14.490    2.8436
   14.520    2.7278
   14.550    3.1912
   14.580    2.9700
   14.610    3.1806
   14.640    3.0121
   14.670    2.8015
   14.700    3.1280
   14.730    3.0753
   14.760    2.8647
   14.790    3.0753
   14.820    3.0542
   14.850    2.8647
   14.880    2.8857
   14.910    3.1912
   14.940    3.1912
   14.970    2.9173
   15.000    3.4123
   15.030    2.9910
   15.060    3.0753
   15.090    3.5282
   15.120    3.5282
   15.150    3.1912
   15.180    3.2965
   15.210    3.3175
   15.240    3.2122
   15.270    3.3386
   15.300    3.1174
   15.330    3.1490
   15.360    3.2122
   15.390    3.1385
   15.420    3.2438
   15.450    2.9805
   15.480    3.2965
   15.510    3.1701
   15.540    2.9805
   15.570    3.1280
   15.600    2.8541
   15.630    2.8857
   15.660    2.8541
   15.690    3.1490
   15.720    2.9173
   15.750    3.1385
   15.780    2.9068
   15.810    3.0016
   15.840    3.0437
   15.870    3.0226
   15.900    2.7909
   15.930    2.7699
   15.960    2.8752
   15.990    2.8541
   16.020    2.7593
   16.050    2.9384
   16.080    2.8752
   16.110    2.8331
   16.140    3.2754
   16.170    2.8963
   16.200    2.9173
   16.230    2.9700
   16.260    3.3281
   16.290    2.6962
   16.320    3.0753
   16.350    3.0648
   16.380    2.9489
   16.410    2.8857
   16.440    3.0753
   16.470    3.0648
   16.500    3.0121
   16.530    3.0858
   16.560    2.8857
   16.590    3.1069
   16.620    3.0121
   16.650    3.1912
   16.680    3.0753
   16.710    3.1385
   16.740    3.1596
   16.770    3.1912
   16.800    3.0332
   16.830    3.0542
   16.860    3.2333
   16.890    3.0648
   16.920    3.1596
   16.950    2.9384
   16.980    2.9279
   17.010    2.9595
   17.040    3.0226
   17.070    3.0964
   17.100    2.7593
   17.130    3.3175
   17.160    2.9595
   17.190    2.9910
   17.220    2.7593
   17.250    2.9384
   17.280    2.9384
   17.310    3.0964
   17.340    2.9279
   17.370    3.0437
   17.400    3.1490
   17.430    2.8541
   17.460    3.0121
   17.490    2.8120
   17.520    2.9384
   17.550    2.9910
   17.580    2.8963
   17.610    2.9700
   17.640    2.9805
   17.670    3.2122
   17.700    2.8331
   17.730    3.0226
   17.760    2.8331
   17.790    2.8752
   17.820    2.7804
   17.850    2.9173
   17.880    2.8963
   17.910    2.8963
   17.940    2.8436
   17.970    2.8647
   18.000    2.8331
   18.030    2.8647
   18.060    3.0016
   18.090    2.7699
   18.120    2.8647
   18.150    2.8331
   18.180    2.9489
   18.210    2.8647
   18.240    2.7804
   18.270    2.8752
   18.300    2.9910
   18.330    3.1280
   18.360    2.9173
   18.390    3.1596
   18.420    3.0016
   18.450    3.1069
   18.480    3.1174
   18.510    2.9805
   18.540    2.7172
   18.570    3.0121
   18.600    2.8963
   18.630    2.7278
   18.660    2.9489
   18.690    2.8647
   18.720    2.9595
   18.750    3.0753
   18.780    2.7278
   18.810    2.8963
   18.840    3.2017
   18.870    3.2122
   18.900    2.9279
   18.930    3.0226
   18.960    3.1174
   18.990    3.0964
   19.020    3.1385
   19.050    2.9068
   19.080    2.9595
   19.110    2.9910
   19.140    3.0753
   19.170    2.9489
   19.200    3.0437
   19.230    2.8015
   19.260    3.0753
   19.290    3.2859
   19.320    3.2859
   19.350    3.0226
   19.380    2.9384
   19.410    2.9805
   19.440    3.1385
   19.470    3.0858
   19.500    3.1069
   19.530    2.9700
   19.560    2.9805
   19.590    3.1174
   19.620    3.1912
   19.650    2.9384
   19.680    2.9489
   19.710    3.0542
   19.740    3.1069
   19.770    2.8436
   19.800    3.0121
   19.830    2.8225
   19.860    3.0121
   19.890    2.8963
   19.920    2.7172
   19.950    2.8015
   19.980    2.6962
   20.010    2.6856
   20.040    2.8752
   20.070    2.9489
   20.100    2.8120
   20.130    2.9489
   20.160    3.0437
   20.190    2.7593
   20.220    2.8857
   20.250    2.6330
   20.280    3.2333
   20.310    3.0753
   20.340    2.9173
   20.370    2.9805
   20.400    3.3491
   20.430    3.0437
   20.460    3.0121
   20.490    2.7804
   20.520    2.8963
   20.550    3.0121
   20.580    2.8541
   20.610    2.8857
   20.640    2.6540
   20.670    2.8752
   20.700    2.8436
   20.730    2.9805
   20.760    2.9700
   20.790    3.2122
   20.820    3.0332
   20.850    2.8225
   20.880    2.9279
   20.910    2.8647
   20.940    2.9279
   20.970    2.6751
   21.000    2.7383
   21.030    2.8225
   21.060    2.9595
   21.090    3.0121
   21.120    2.9805
   21.150    3.0332
   21.180    2.8331
   21.210    2.9805
   21.240    3.1490
   21.270    2.8541
   21.300    3.0964
   21.330    2.6646
   21.360    2.8120
   21.390    2.9384
   21.420    3.0226
   21.450    3.0226
   21.480    2.7804
   21.510    2.7804
   21.540    2.8963
   21.570    2.7172
   21.600    3.3386
   21.630    3.0226
   21.660    3.4334
   21.690    3.1596
   21.720    3.2333
   21.750    3.0016
   21.780    2.8225
   21.810    2.9279
   21.840    3.1701
   21.870    3.0332
   21.900    2.7804
   21.930    2.8225
   21.960    2.9805
   21.990    2.8541
   22.020    2.8541
   22.050    3.2227
   22.080    2.8015
   22.110    2.8857
   22.140    2.6540
   22.170    2.8225
   22.200    2.9805
   22.230    2.8120
   22.260    3.0121
   22.290    2.9068
   22.320    2.9805
   22.350    2.8331
   22.380    2.5592
   22.410    2.9384
   22.440    2.8225
   22.470    2.7909
   22.500    2.6330
   22.530    2.8647
   22.560    3.0016
   22.590    2.9068
   22.620    2.7699
   22.650    2.6646
   22.680    2.9489
   22.710    2.9489
   22.740    3.0332
   22.770    3.0542
   22.800    2.9384
   22.830    3.0542
   22.860    2.9700
   22.890    2.9173
   22.920    3.0437
   22.950    2.9068
   22.980    2.6330
   23.010    2.6646
   23.040    2.8331
   23.070    2.8857
   23.100    2.7488
   23.130    2.9700
   23.160    2.7172
   23.190    2.9489
   23.220    2.8857
   23.250    2.8963
   23.280    2.8752
   23.310    2.7278
   23.340    2.8857
   23.370    2.7909
   23.400    2.8225
   23.430    3.1385
   23.460    2.9805
   23.490    2.7172
   23.520    3.0332
   23.550    2.8331
   23.580    2.9173
   23.610    2.9068
   23.640    2.8436
   23.670    2.7278
   23.700    2.8963
   23.730    2.7172
   23.760    2.7172
   23.790    3.0964
   23.820    2.7383
   23.850    2.9384
   23.880    2.6646
   23.910    2.7067
   23.940    3.0858
   23.970    2.8331
   24.000    2.9595
   24.030    2.9173
   24.060    2.8541
   24.090    2.7488
   24.120    2.6435
   24.150    2.7804
   24.180    3.0437
   24.210    2.6330
   24.240    2.9910
   24.270    2.9384
   24.300    2.8752
   24.330    2.9805
   24.360    2.9173
   24.390    2.8963
   24.420    2.8752
   24.450    2.9068
   24.480    2.6751
   24.510    2.9910
   24.540    3.0858
   24.570    2.8857
   24.600    2.8120
   24.630    3.0964
   24.660    2.8857
   24.690    2.9805
   24.720    2.8857
   24.750    2.6962
   24.780    2.9910
   24.810    3.1069
   24.840    2.9805
   24.870    3.0858
   24.900    3.0437
   24.930    3.1490
   24.960    3.2438
   24.990    3.3597
   25.020    3.2122
   25.050    3.1174
   25.080    3.3807
   25.110    3.3807
   25.140    3.6440
   25.170    3.3702
   25.200    3.4123
   25.230    3.4439
   25.260    3.8652
   25.290    3.4966
   25.320    3.8020
   25.350    3.6546
   25.380    3.5492
   25.410    3.4966
   25.440    3.6019
   25.470    3.4439
   25.500    3.4439
   25.530    3.1280
   25.560    3.3491
   25.590    3.5808
   25.620    3.2965
   25.650    3.4966
   25.680    3.3807
   25.710    3.3597
   25.740    3.5598
   25.770    3.1701
   25.800    3.4334
   25.830    2.9173
   25.860    3.1069
   25.890    3.2649
   25.920    3.2543
   25.950    2.9489
   25.980    3.1912
   26.010    2.9489
   26.040    3.1912
   26.070    2.8752
   26.100    3.1069
   26.130    2.9384
   26.160    3.0858
   26.190    2.9068
   26.220    2.9700
   26.250    2.7909
   26.280    2.8857
   26.310    2.9384
   26.340    3.1490
   26.370    2.9805
   26.400    2.8331
   26.430    2.7804
   26.460    2.8015
   26.490    2.8331
   26.520    2.6540
   26.550    2.6014
   26.580    3.0753
   26.610    2.7383
   26.640    2.9173
   26.670    2.7278
   26.700    2.7488
   26.730    2.7593
   26.760    2.4855
   26.790    2.7488
   26.820    2.8752
   26.850    2.8647
   26.880    2.7278
   26.910    2.9489
   26.940    2.8015
   26.970    2.5171
   27.000    2.5803
   27.030    2.8120
   27.060    2.6330
   27.090    2.6646
   27.120    2.6119
   27.150    2.7593
   27.180    2.5382
   27.210    2.5382
   27.240    2.4750
   27.270    2.4961
   27.300    2.5382
   27.330    2.5487
   27.360    2.6435
   27.390    2.6119
   27.420    2.6646
   27.450    2.5382
   27.480    2.6856
   27.510    2.6646
   27.540    2.4645
   27.570    2.6962
   27.600    2.3591
   27.630    2.4223
   27.660    2.2749
   27.690    2.4223
   27.720    2.4013
   27.750    2.5908
   27.780    2.5908
   27.810    2.2643
   27.840    2.4013
   27.870    2.5698
   27.900    2.5487
   27.930    2.5592
   27.960    2.5487
   27.990    2.6540
   28.020    2.5803
   28.050    2.5382
   28.080    2.4013
   28.110    2.4645
   28.140    2.6224
   28.170    2.2959
   28.200    2.6540
   28.230    2.4855
   28.260    2.3381
   28.290    2.1801
   28.320    2.4434
   28.350    2.6014
   28.380    2.3486
   28.410    2.3907
   28.440    2.3591
   28.470    2.4223
   28.500    2.4118
   28.530    2.5698
   28.560    2.3697
   28.590    2.6856
   28.620    2.2538
   28.650    2.4645
   28.680    2.1696
   28.710    2.2959
   28.740    2.2328
   28.770    2.2117
   28.800    2.4434
   28.830    2.3802
   28.860    2.1906
   28.890    2.3381
   28.920    2.1590
   28.950    2.3275
   28.980    2.5382
   29.010    2.2222
   29.040    2.1801
   29.070    2.4961
   29.100    2.4645
   29.130    2.1801
   29.160    2.1590
   29.190    2.5066
   29.220    2.1485
   29.250    2.4329
   29.280    2.3170
   29.310    2.1485
   29.340    2.2433
   29.370    2.4013
   29.400    2.1906
   29.430    2.3275
   29.460    2.0853
   29.490    2.2117
   29.520    2.2643
   29.550    2.2433
   29.580    2.4013
   29.610    2.2749
   29.640    2.1590
   29.670    2.3170
   29.700    2.1485
   29.730    2.3486
   29.760    2.3802
   29.790    2.3381
   29.820    2.3802
   29.850    2.1696
   29.880    2.1274
   29.910    2.2854
   29.940    2.2854
   29.970    2.3275
   30.000    2.2433
   30.030    2.3381
   30.060    2.0432
   30.090    2.1590
   30.120    2.0853
   30.150    2.3170
   30.180    2.0958
   30.210    2.1274
   30.240    2.2012
   30.270    2.0642
   30.300    2.1906
   30.330    2.1590
   30.360    2.3907
   30.390    2.3591
   30.420    1.8325
   30.450    2.0432
   30.480    1.9800
   30.510    1.9589
   30.540    1.9905
   30.570    2.1906
   30.600    2.1906
   30.630    2.3381
   30.660    2.0748
   30.690    2.1380
   30.720    2.0011
   30.750    2.2117
   30.780    2.0326
   30.810    2.1696
   30.840    2.2117
   30.870    2.0642
   30.900    2.1696
   30.930    2.2959
   30.960    2.0537
   30.990    1.7904
   31.020    1.8641
   31.050    2.2433
   31.080    1.8852
   31.110    2.0958
   31.140    1.8747
   31.170    2.1380
   31.200    2.1064
   31.230    2.1485
   31.260    2.2117
   31.290    2.0011
   31.320    1.9589
   31.350    1.9063
   31.380    1.8431
   31.410    1.7588
   31.440    2.3170
   31.470    1.9168
   31.500    1.9484
   31.530    2.3275
   31.560    2.1274
   31.590    1.8957
   31.620    2.0958
   31.650    2.0326
   31.680    2.0432
   31.710    2.0537
   31.740    2.2433
   31.770    2.2012
   31.800    1.9695
   31.830    2.2012
   31.860    1.9168
   31.890    2.0011
   31.920    1.8536
   31.950    1.9589
   31.980    2.0116
   32.010    1.8957
   32.040    1.9168
   32.070    1.8431
   32.100    2.0221
   32.130    1.9905
   32.160    1.8220
   32.190    1.9379
   32.220    1.8115
   32.250    1.8431
   32.280    1.8852
   32.310    1.8852
   32.340    2.1064
   32.370    1.8325
   32.400    2.0748
   32.430    1.9168
   32.460    1.7799
   32.490    2.0642
   32.520    1.9589
   32.550    1.7904
   32.580    1.9168
   32.610    2.0116
   32.640    1.6851
   32.670    1.9695
   32.700    1.9379
   32.730    1.7799
   32.760    1.9273
   32.790    1.8747
   32.820    1.8536
   32.850    2.0011
   32.880    1.8852
   32.910    1.9063
   32.940    1.8220
   32.970    1.7483
   33.000    1.7167
   33.030    1.9695
   33.060    1.7694
   33.090    1.9063
   33.120    2.0642
   33.150    2.0116
   33.180    1.7588
   33.210    1.7167
   33.240    1.7378
   33.270    1.8325
   33.300    1.6535
   33.330    1.8747
   33.360    1.7799
   33.390    1.8009
   33.420    1.6851
   33.450    1.5692
   33.480    1.7167
   33.510    1.6535
   33.540    1.8852
   33.570    1.7904
   33.600    1.6324
   33.630    1.5166
   33.660    1.7483
   33.690    1.4955
   33.720    1.6851
   33.750    1.6746
   33.780    1.3691
   33.810    1.5692
   33.840    1.7167
   33.870    1.5587
   33.900    1.5798
   33.930    1.7272
   33.960    1.6324
   33.990    1.6219
   34.020    1.5482
   34.050    1.5482
   34.080    1.6114
   34.110    1.5482
   34.140    1.7904
   34.170    1.6430
   34.200    1.6535
   34.230    1.5587
   34.260    1.6746
   34.290    1.5482
   34.320    1.5587
   34.350    1.6114
   34.380    1.4850
   34.410    1.6219
   34.440    1.4113
   34.470    1.5377
   34.500    1.3902
   34.530    1.4850
   34.560    1.4323
   34.590    1.4955
   34.620    1.5482
   34.650    1.5166
   34.680    1.4534
   34.710    1.4218
   34.740    1.4323
   34.770    1.3902
   34.800    1.5798
   34.830    1.4745
   34.860    1.3165
   34.890    1.4850
   34.920    1.3165
   34.950    1.5587
   34.980    1.4639
   35.010    1.3375
   35.040    1.4218
   35.070    1.3902
   35.100    1.6324
   35.130    1.6219
   35.160    1.4639
   35.190    1.5903
   35.220    1.3060
   35.250    1.5798
   35.280    1.4323
   35.310    1.4429
   35.340    1.3586
   35.370    1.3902
   35.400    1.3586
   35.430    1.5587
   35.460    1.5903
   35.490    1.6430
   35.520    1.5166
   35.550    1.4113
   35.580    1.5798
   35.610    1.2954
   35.640    1.4007
   35.670    1.4113
   35.700    1.3270
   35.730    1.4113
   35.760    1.5587
   35.790    1.3375
   35.820    1.3691
   35.850    1.4113
   35.880    1.5061
   35.910    1.4534
   35.940    1.5798
   35.970    1.3165
   36.000    1.4323
   36.030    1.3797
   36.060    1.4639
   36.090    1.4007
   36.120    1.4745
   36.150    1.3481
   36.180    1.5166
   36.210    1.3481
   36.240    1.5587
   36.270    1.4007
   36.300    1.1901
   36.330    1.3691
   36.360    1.2849
   36.390    1.2428
   36.420    1.2428
   36.450    1.1269
   36.480    1.2006
   36.510    1.4323
   36.540    1.2533
   36.570    1.3165
   36.600    1.3481
   36.630    1.2533
   36.660    1.2849
   36.690    1.2849
   36.720    1.1796
   36.750    1.4007
   36.780    1.0953
   36.810    1.1480
   36.840    1.1374
   36.870    1.2638
   36.900    1.3165
   36.930    1.2322
   36.960    1.4323
   36.990    1.3165
   37.020    1.3060
   37.050    1.1374
   37.080    1.3481
   37.110    1.2954
   37.140    1.2954
   37.170    1.2112
   37.200    1.1585
   37.230    1.0742
   37.260    1.3060
   37.290    1.3165
   37.320    1.2954
   37.350    1.2322
   37.380    1.2533
   37.410    1.2849
   37.440    1.2638
   37.470    1.1374
   37.500    1.2428
   37.530    1.3691
   37.560    1.3691
   37.590    1.2217
   37.620    1.1164
   37.650    1.0742
   37.680    1.3691
   37.710    1.2428
   37.740    1.0005
   37.770    1.0532
   37.800    1.1690
   37.830    1.2744
   37.860    1.1269
   37.890    1.2217
   37.920    1.1269
   37.950    1.1690
   37.980    1.1164
   38.010    1.0742
   38.040    1.2112
   38.070    1.1585
   38.100    1.1480
   38.130    1.0427
   38.160    1.0216
   38.190    1.1374
   38.220    1.0742
   38.250    1.1269
   38.280    1.2112
   38.310    1.3270
   38.340    1.1690
   38.370    1.0216
   38.400    1.1585
   38.430    1.1480
   38.460    1.1480
   38.490    1.0953
   38.520    1.3060
   38.550    1.1585
   38.580    1.0532
   38.610    1.2112
   38.640    1.1269
   38.670    1.1374
   38.700    1.2006
   38.730    1.0848
   38.760    1.0427
   38.790    1.1374
   38.820    1.0005
   38.850    1.1690
   38.880    1.0216
   38.910    1.0953
   38.940    1.2006
   38.970    1.0953
   39.000    1.1480
   39.030    1.1164
   39.060    1.1164
   39.090    1.0637
   39.120    1.0848
   39.150    1.3375
   39.180    0.8741
   39.210    1.0111
   39.240    1.1585
   39.270    1.2006
   39.300    1.1901
   39.330    1.2428
   39.360    1.0427
   39.390    0.9163
   39.420    1.2322
   39.450    1.1374
   39.480    1.1164
   39.510    1.2322
   39.540    1.1480
   39.570    1.2849
   39.600    1.2744
   39.630    1.1058
   39.660    1.1058
   39.690    1.1796
   39.720    1.0427
   39.750    1.0427
   39.780    1.1585
   39.810    1.0321
   39.840    1.1164
   39.870    1.2112
   39.900    1.2006
   39.930    1.0427
   39.960    1.0427
   39.990    1.1164