File: data/MOCOF-1/PXRD/PXRD_KE-295_Cu-Ka1_film-3mm_3s-deg.xyd
    1.500   13.9547
    1.530   13.3579
    1.560   14.1127
    1.590   13.6388
    1.620   12.8313
    1.650   12.9366
    1.680   12.7260
    1.710   12.0590
    1.740   11.9888
    1.770   12.5856
    1.800   12.0941
    1.830   11.7781
    1.860   11.7430
    1.890   11.8483
    1.920   10.9707
    1.950   11.7079
    1.980   11.1813
    2.010   11.0058
    2.040   10.3563
    2.070   10.5670
    2.100   10.4616
    2.130   10.3563
    2.160    9.7771
    2.190   10.8127
    2.220    9.3382
    2.250   10.2510
    2.280    9.7420
    2.310    9.9526
    2.340    9.2154
    2.370    9.0574
    2.400    9.3031
    2.430    9.3031
    2.460    9.7420
    2.490    9.0925
    2.520    9.1452
    2.550    9.0223
    2.580    9.8122
    2.610    8.3202
    2.640    8.7765
    2.670    8.8292
    2.700    8.2500
    2.730    8.8643
    2.760    9.0398
    2.790    8.3202
    2.820    9.0574
    2.850    8.4430
    2.880    8.5133
    2.910    8.5659
    2.940    8.4781
    2.970    8.6712
    3.000    8.6010
    3.030    9.0223
    3.060    9.0925
    3.090    8.8994
    3.120    9.2505
    3.150    9.1978
    3.180    9.6367
    3.210    9.6718
    3.240    8.6712
    3.270    9.9351
    3.300   10.7600
    3.330   11.6026
    3.360   11.6553
    3.390   12.8840
    3.420   13.4457
    3.450   13.7967
    3.480   13.9196
    3.510   14.4813
    3.540   14.1127
    3.570   15.4994
    3.600   17.0792
    3.630   18.8871
    3.660   19.8174
    3.690   22.3100
    3.720   25.4871
    3.750   31.4025
    3.780   38.1078
    3.810   49.7455
    3.840   70.0895
    3.870   61.7694
    3.900   37.3354
    3.930   13.1122
    3.960    9.6718
    3.990    9.5489
    4.020    9.2505
    4.050    8.4079
    4.080    8.6888
    4.110    8.9696
    4.140    8.5659
    4.170    7.7936
    4.200    8.9872
    4.230    8.0920
    4.260    7.9867
    4.290    8.4430
    4.320    7.8813
    4.350    8.2324
    4.380    7.7409
    4.410    8.0218
    4.440    7.7058
    4.470    7.4601
    4.500    7.8989
    4.530    7.3196
    4.560    7.9867
    4.590    7.8813
    4.620    7.6707
    4.650    8.3202
    4.680    8.2675
    4.710    8.2324
    4.740    7.8462
    4.770    7.5127
    4.800    7.6532
    4.830    8.1973
    4.860    8.1973
    4.890    8.4781
    4.920    8.4079
    4.950    8.3904
    4.980    8.4255
    5.010    8.4957
    5.040    8.9872
    5.070    9.1452
    5.100    9.1452
    5.130    9.8297
    5.160   10.0228
    5.190   10.6547
    5.220   10.8829
    5.250   12.6207
    5.280   12.1292
    5.310   13.1473
    5.340   14.3058
    5.370   15.9031
    5.400   18.6589
    5.430   22.0116
    5.460   27.6461
    5.490   27.4530
    5.520   19.9228
    5.550   11.3920
    5.580   10.0579
    5.610   10.2686
    5.640    9.4260
    5.670    9.9175
    5.700   10.0579
    5.730    9.4085
    5.760    9.6367
    5.790    9.1276
    5.820    8.9345
    5.850    8.5484
    5.880    8.6186
    5.910    8.4957
    5.940    8.3026
    5.970    8.1446
    6.000    8.3377
    6.030    7.7936
    6.060    7.5478
    6.090    7.9164
    6.120    7.6005
    6.150    8.4430
    6.180    7.4250
    6.210    7.5829
    6.240    7.0388
    6.270    7.3196
    6.300    7.2319
    6.330    7.0563
    6.360    6.8282
    6.390    7.0563
    6.420    7.1792
    6.450    8.1446
    6.480    7.1617
    6.510    7.4776
    6.540    7.7058
    6.570    8.1622
    6.600    8.3728
    6.630    8.4079
    6.660    9.4962
    6.690   10.9005
    6.720   12.2872
    6.750   10.5845
    6.780    8.5659
    6.810    6.8457
    6.840    6.6877
    6.870    6.6000
    6.900    6.4595
    6.930    6.9335
    6.960    7.1090
    6.990    6.6175
    7.020    6.4771
    7.050    5.9505
    7.080    6.3893
    7.110    6.7228
    7.140    6.4420
    7.170    6.2313
    7.200    6.0558
    7.230    5.8803
    7.260    6.0032
    7.290    5.7223
    7.320    6.2665
    7.350    5.9154
    7.380    5.4766
    7.410    6.4069
    7.440    5.7574
    7.470    5.2484
    7.500    5.9505
    7.530    5.6521
    7.560    5.9154
    7.590    6.2138
    7.620    5.9681
    7.650    6.5824
    7.680    6.5122
    7.710    6.7755
    7.740    8.9696
    7.770   10.0228
    7.800    8.4957
    7.830    5.7925
    7.860    5.6697
    7.890    5.7750
    7.920    5.4064
    7.950    5.4415
    7.980    4.9851
    8.010    5.5117
    8.040    5.3537
    8.070    5.1957
    8.100    5.3010
    8.130    5.5819
    8.160    4.9324
    8.190    4.9851
    8.220    5.5643
    8.250    5.1606
    8.280    5.0553
    8.310    5.2659
    8.340    4.8447
    8.370    5.1080
    8.400    5.3186
    8.430    5.0904
    8.460    5.2484
    8.490    4.7744
    8.520    5.0377
    8.550    4.8622
    8.580    5.2659
    8.610    5.1957
    8.640    5.4415
    8.670    5.5994
    8.700    5.1255
    8.730    5.3888
    8.760    5.1431
    8.790    5.4064
    8.820    4.7569
    8.850    4.6165
    8.880    4.5463
    8.910    4.8447
    8.940    4.6691
    8.970    4.4936
    9.000    4.7569
    9.030    4.5463
    9.060    4.7042
    9.090    4.4234
    9.120    4.7042
    9.150    4.7569
    9.180    4.7218
    9.210    4.7920
    9.240    4.4936
    9.270    4.7569
    9.300    4.4760
    9.330    5.1606
    9.360    5.3010
    9.390    5.4766
    9.420    6.3893
    9.450    7.1090
    9.480    8.1973
    9.510   12.0765
    9.540   12.8840
    9.570    9.7069
    9.600    6.1611
    9.630    4.7393
    9.660    4.6867
    9.690    4.9324
    9.720    4.5287
    9.750    4.6165
    9.780    4.7218
    9.810    4.4234
    9.840    4.7393
    9.870    4.8447
    9.900    4.5111
    9.930    4.4585
    9.960    4.9851
    9.990    4.5989
   10.020    4.8973
   10.050    4.7393
   10.080    4.7218
   10.110    4.7569
   10.140    5.0553
   10.170    5.1606
   10.200    5.8978
   10.230    6.0909
   10.260    6.4595
   10.290    6.8457
   10.320    7.3021
   10.350    5.9505
   10.380    5.2133
   10.410    4.7920
   10.440    5.0026
   10.470    4.9149
   10.500    4.6340
   10.530    4.5463
   10.560    4.5638
   10.590    5.1080
   10.620    4.8095
   10.650    4.8973
   10.680    5.0553
   10.710    4.8271
   10.740    4.9500
   10.770    5.2133
   10.800    4.8973
   10.830    4.8271
   10.860    5.5994
   10.890    5.1255
   10.920    5.8101
   10.950    5.8978
   10.980    6.8106
   11.010    7.7234
   11.040    7.8111
   11.070    6.3718
   11.100    5.3186
   11.130    4.9675
   11.160    5.0904
   11.190    5.1957
   11.220    5.1080
   11.250    4.8447
   11.280    4.9675
   11.310    4.8447
   11.340    4.5287
   11.370    5.0904
   11.400    5.0377
   11.430    4.9149
   11.460    4.6340
   11.490    4.5111
   11.520    5.0026
   11.550    5.3186
   11.580    5.3010
   11.610    5.5643
   11.640    5.6697
   11.670    7.2670
   11.700    8.0393
   11.730    7.7234
   11.760    5.9681
   11.790    5.4590
   11.820    5.1255
   11.850    5.3361
   11.880    4.8447
   11.910    4.4409
   11.940    4.9500
   11.970    4.4585
   12.000    4.2303
   12.030    4.8095
   12.060    4.7569
   12.090    4.4585
   12.120    5.0026
   12.150    4.3707
   12.180    4.5111
   12.210    4.4936
   12.240    4.3005
   12.270    5.0026
   12.300    4.7218
   12.330    5.3010
   12.360    5.2133
   12.390    4.5638
   12.420    4.8447
   12.450    4.9675
   12.480    4.6516
   12.510    4.7042
   12.540    4.7569
   12.570    4.5638
   12.600    4.8973
   12.630    4.5814
   12.660    4.7218
   12.690    4.8271
   12.720    4.3181
   12.750    4.7920
   12.780    4.7569
   12.810    4.8973
   12.840    4.9675
   12.870    4.6340
   12.900    5.7574
   12.930    6.2840
   12.960    6.2138
   12.990    5.3186
   13.020    5.0377
   13.050    4.0723
   13.080    4.4409
   13.110    4.3883
   13.140    4.6165
   13.170    4.5989
   13.200    4.4760
   13.230    4.3532
   13.260    4.6340
   13.290    4.5287
   13.320    4.8622
   13.350    4.4409
   13.380    4.6516
   13.410    4.6165
   13.440    5.0026
   13.470    4.9675
   13.500    5.4766
   13.530    5.0904
   13.560    5.0377
   13.590    4.9149
   13.620    4.6691
   13.650    4.7744
   13.680    4.5638
   13.710    4.3356
   13.740    4.0372
   13.770    4.5638
   13.800    4.5814
   13.830    4.7218
   13.860    4.9324
   13.890    4.2830
   13.920    4.8973
   13.950    4.6340
   13.980    5.1606
   14.010    5.6697
   14.040    5.5994
   14.070    6.3893
   14.100    6.4244
   14.130    5.5819
   14.160    4.7744
   14.190    4.7744
   14.220    4.9675
   14.250    5.1080
   14.280    4.9851
   14.310    4.8271
   14.340    4.7744
   14.370    4.4409
   14.400    4.8973
   14.430    4.8798
   14.460    4.9149
   14.490    5.1255
   14.520    4.8973
   14.550    5.1431
   14.580    4.8447
   14.610    4.8622
   14.640    4.8798
   14.670    5.1782
   14.700    5.1255
   14.730    4.4936
   14.760    5.1080
   14.790    4.7218
   14.820    4.6516
   14.850    4.9324
   14.880    4.6516
   14.910    4.7393
   14.940    4.9149
   14.970    4.8095
   15.000    4.5287
   15.030    4.7218
   15.060    4.9675
   15.090    5.1431
   15.120    5.2484
   15.150    4.8622
   15.180    5.2484
   15.210    4.4234
   15.240    4.3356
   15.270    4.3883
   15.300    4.3356
   15.330    4.8622
   15.360    4.7569
   15.390    4.3532
   15.420    4.5287
   15.450    4.1776
   15.480    4.8095
   15.510    4.1776
   15.540    4.4409
   15.570    4.2127
   15.600    5.0026
   15.630    4.4409
   15.660    4.2303
   15.690    4.5989
   15.720    4.5111
   15.750    4.2303
   15.780    4.3356
   15.810    4.5814
   15.840    4.4760
   15.870    4.5638
   15.900    4.5638
   15.930    5.1255
   15.960    4.3005
   15.990    4.1074
   16.020    4.7042
   16.050    4.7744
   16.080    4.8973
   16.110    5.0026
   16.140    5.2308
   16.170    4.6867
   16.200    4.5989
   16.230    4.1425
   16.260    4.6165
   16.290    4.4409
   16.320    4.5638
   16.350    4.7042
   16.380    3.7739
   16.410    4.2654
   16.440    4.0372
   16.470    4.3356
   16.500    4.6516
   16.530    4.0723
   16.560    5.0904
   16.590    4.7569
   16.620    4.9500
   16.650    5.1957
   16.680    4.7218
   16.710    4.2127
   16.740    4.5638
   16.770    4.5111
   16.800    4.5638
   16.830    4.5287
   16.860    4.1425
   16.890    4.8973
   16.920    4.3005
   16.950    4.7218
   16.980    4.7744
   17.010    5.1782
   17.040    5.5994
   17.070    5.7048
   17.100    5.5117
   17.130    4.4936
   17.160    4.8447
   17.190    4.3883
   17.220    4.2830
   17.250    4.4585
   17.280    4.3532
   17.310    4.3707
   17.340    4.1952
   17.370    4.6867
   17.400    4.4409
   17.430    4.1952
   17.460    4.7218
   17.490    5.0904
   17.520    4.3356
   17.550    4.6691
   17.580    4.4585
   17.610    4.5287
   17.640    4.3181
   17.670    4.4058
   17.700    4.3707
   17.730    4.3356
   17.760    4.4936
   17.790    4.0723
   17.820    4.2654
   17.850    5.0553
   17.880    4.3356
   17.910    4.5287
   17.940    4.4058
   17.970    4.5814
   18.000    4.6340
   18.030    4.5814
   18.060    4.3005
   18.090    4.3005
   18.120    4.2127
   18.150    4.1601
   18.180    4.2654
   18.210    4.5638
   18.240    4.3181
   18.270    4.4585
   18.300    4.3181
   18.330    4.6340
   18.360    4.8095
   18.390    4.4936
   18.420    4.2303
   18.450    4.5111
   18.480    4.2303
   18.510    4.6867
   18.540    4.1601
   18.570    4.3181
   18.600    4.0899
   18.630    4.3707
   18.660    3.8792
   18.690    4.2478
   18.720    4.3883
   18.750    4.8271
   18.780    4.1952
   18.810    4.9675
   18.840    4.1250
   18.870    4.3532
   18.900    4.0899
   18.930    4.5814
   18.960    4.9500
   18.990    5.1255
   19.020    4.5638
   19.050    4.3181
   19.080    4.0548
   19.110    4.1250
   19.140    4.2654
   19.170    4.7042
   19.200    4.2478
   19.230    4.3532
   19.260    4.2830
   19.290    4.3532
   19.320    4.7569
   19.350    4.0021
   19.380    4.1952
   19.410    4.2303
   19.440    4.1074
   19.470    4.4058
   19.500    4.7042
   19.530    4.1952
   19.560    4.2127
   19.590    4.5111
   19.620    4.5814
   19.650    4.3356
   19.680    4.2654
   19.710    4.3005
   19.740    4.2303
   19.770    4.4936
   19.800    4.5814
   19.830    3.7739
   19.860    3.9846
   19.890    4.0197
   19.920    4.1952
   19.950    4.1250
   19.980    4.2830
   20.010    4.1601
   20.040    4.0548
   20.070    4.1952
   20.100    3.8090
   20.130    4.4585
   20.160    4.6165
   20.190    4.4585
   20.220    4.2830
   20.250    4.1425
   20.280    4.3356
   20.310    4.5814
   20.340    4.5638
   20.370    5.4941
   20.400    5.0377
   20.430    4.6516
   20.460    4.1250
   20.490    4.0197
   20.520    4.0021
   20.550    3.9143
   20.580    4.1952
   20.610    4.0723
   20.640    3.9143
   20.670    3.5633
   20.700    3.8266
   20.730    3.8441
   20.760    3.8266
   20.790    4.0021
   20.820    3.9494
   20.850    3.7388
   20.880    4.0021
   20.910    3.9670
   20.940    4.1074
   20.970    3.6159
   21.000    4.4760
   21.030    3.7388
   21.060    4.1250
   21.090    3.6510
   21.120    3.5457
   21.150    4.0899
   21.180    4.2830
   21.210    4.0372
   21.240    3.7388
   21.270    4.1776
   21.300    3.9143
   21.330    4.1952
   21.360    3.7388
   21.390    4.1074
   21.420    3.5106
   21.450    3.9670
   21.480    3.8968
   21.510    4.1425
   21.540    3.8266
   21.570    3.6335
   21.600    4.3707
   21.630    3.8968
   21.660    3.7739
   21.690    4.1074
   21.720    3.9494
   21.750    3.9143
   21.780    3.5808
   21.810    4.1074
   21.840    4.1776
   21.870    4.8798
   21.900    4.3181
   21.930    3.9670
   21.960    4.0723
   21.990    3.4755
   22.020    3.9846
   22.050    3.5633
   22.080    3.8090
   22.110    3.7564
   22.140    3.4404
   22.170    3.8266
   22.200    3.8792
   22.230    3.8266
   22.260    3.8441
   22.290    3.9670
   22.320    4.0899
   22.350    3.8792
   22.380    3.4931
   22.410    3.6686
   22.440    3.8266
   22.470    3.9143
   22.500    3.9494
   22.530    4.9500
   22.560    5.2484
   22.590    4.7218
   22.620    4.4936
   22.650    3.6686
   22.680    3.9319
   22.710    3.8441
   22.740    3.7564
   22.770    3.8441
   22.800    3.7213
   22.830    4.1074
   22.860    4.4936
   22.890    4.6691
   22.920    4.4234
   22.950    4.9851
   22.980    4.2303
   23.010    3.8968
   23.040    3.7915
   23.070    3.6686
   23.100    3.8090
   23.130    3.8968
   23.160    3.6686
   23.190    3.9846
   23.220    4.0021
   23.250    4.2830
   23.280    3.8090
   23.310    3.5984
   23.340    3.4580
   23.370    3.2298
   23.400    3.4229
   23.430    3.5282
   23.460    3.7915
   23.490    3.5808
   23.520    3.4053
   23.550    3.4931
   23.580    3.6159
   23.610    3.7213
   23.640    3.6159
   23.670    3.5106
   23.700    3.5633
   23.730    3.3526
   23.760    2.7558
   23.790    3.5282
   23.820    3.2473
   23.850    3.5633
   23.880    3.5457
   23.910    3.5808
   23.940    3.5106
   23.970    3.3351
   24.000    3.5457
   24.030    3.7564
   24.060    3.5106
   24.090    3.0893
   24.120    3.3702
   24.150    3.2298
   24.180    3.2122
   24.210    3.4053
   24.240    3.4755
   24.270    3.3702
   24.300    3.1245
   24.330    3.2298
   24.360    3.2298
   24.390    3.1947
   24.420    3.3175
   24.450    3.3175
   24.480    3.4755
   24.510    3.5808
   24.540    3.7037
   24.570    3.3526
   24.600    3.4404
   24.630    3.8090
   24.660    3.1420
   24.690    3.1771
   24.720    3.4053
   24.750    3.6159
   24.780    3.1069
   24.810    3.2122
   24.840    3.3175
   24.870    3.1069
   24.900    3.8792
   24.930    3.1771
   24.960    3.4931
   24.990    3.3702
   25.020    3.1596
   25.050    3.3175
   25.080    3.1420
   25.110    3.6159
   25.140    3.5106
   25.170    3.2649
   25.200    3.6159
   25.230    3.3351
   25.260    3.5808
   25.290    3.3702
   25.320    3.3351
   25.350    3.2824
   25.380    3.5808
   25.410    3.0893
   25.440    3.5984
   25.470    3.6862
   25.500    3.4580
   25.530    3.6862
   25.560    3.3175
   25.590    3.0016
   25.620    3.7564
   25.650    3.0191
   25.680    3.0718
   25.710    3.5106
   25.740    3.7739
   25.770    3.9846
   25.800    3.8792
   25.830    4.2830
   25.860    4.0197
   25.890    3.4229
   25.920    3.4931
   25.950    3.2122
   25.980    3.3526
   26.010    3.2649
   26.040    3.4931
   26.070    3.4580
   26.100    2.9138
   26.130    3.3877
   26.160    2.9489
   26.190    2.7909
   26.220    3.2298
   26.250    3.1596
   26.280    3.0542
   26.310    3.3526
   26.340    3.2473
   26.370    3.4404
   26.400    3.2298
   26.430    3.2298
   26.460    3.4931
   26.490    3.5808
   26.520    3.2122
   26.550    2.9138
   26.580    3.3000
   26.610    3.1947
   26.640    2.6856
   26.670    2.7734
   26.700    2.9489
   26.730    3.0893
   26.760    2.8787
   26.790    3.0016
   26.820    3.0367
   26.850    3.0016
   26.880    2.8436
   26.910    2.6330
   26.940    3.0542
   26.970    2.9665
   27.000    3.3702
   27.030    3.4580
   27.060    3.1596
   27.090    2.9489
   27.120    3.2824
   27.150    2.9138
   27.180    3.1947
   27.210    3.1245
   27.240    3.0718
   27.270    3.0893
   27.300    3.0016
   27.330    2.8436
   27.360    2.9665
   27.390    2.6330
   27.420    2.6330
   27.450    2.7383
   27.480    3.2473
   27.510    3.0542
   27.540    2.8787
   27.570    3.3526
   27.600    3.5633
   27.630    2.6681
   27.660    2.9138
   27.690    3.0191
   27.720    2.9665
   27.750    3.1245
   27.780    2.9314
   27.810    3.0016
   27.840    3.1596
   27.870    3.1420
   27.900    3.1069
   27.930    2.7032
   27.960    2.9665
   27.990    3.4755
   28.020    2.9665
   28.050    3.0191
   28.080    3.1420
   28.110    3.1069
   28.140    2.8963
   28.170    2.8963
   28.200    3.1947
   28.230    3.3175
   28.260    2.8260
   28.290    2.8436
   28.320    2.7558
   28.350    3.0016
   28.380    3.1420
   28.410    3.2122
   28.440    3.1771
   28.470    3.2824
   28.500    3.0718
   28.530    2.8612
   28.560    2.8085
   28.590    3.0542
   28.620    2.5803
   28.650    2.8787
   28.680    2.5979
   28.710    2.6856
   28.740    3.0191
   28.770    2.7909
   28.800    2.9840
   28.830    3.0893
   28.860    2.5979
   28.890    2.7909
   28.920    3.3526
   28.950    3.2298
   28.980    3.5106
   29.010    3.1596
   29.040    3.0893
   29.070    3.2298
   29.100    3.2298
   29.130    2.8963
   29.160    2.8085
   29.190    3.0016
   29.220    2.6856
   29.250    3.0367
   29.280    3.1947
   29.310    3.3175
   29.340    3.0191
   29.370    2.7558
   29.400    2.5101
   29.430    2.7558
   29.460    2.6856
   29.490    2.6154
   29.520    2.9138
   29.550    2.6505
   29.580    2.3872
   29.610    2.3872
   29.640    2.5276
   29.670    2.4399
   29.700    2.6505
   29.730    2.7383
   29.760    2.5101
   29.790    2.4574
   29.820    2.2995
   29.850    2.6154
   29.880    2.1590
   29.910    2.6154
   29.940    2.6505
   29.970    2.7032
   30.000    2.3697
   30.030    2.8787
   30.060    2.6856
   30.090    2.8436
   30.120    2.6505
   30.150    2.6154
   30.180    2.5276
   30.210    2.5452
   30.240    2.8260
   30.270    2.5803
   30.300    2.4399
   30.330    2.6330
   30.360    2.7383
   30.390    2.4574
   30.420    2.2468
   30.450    2.6154
   30.480    2.2643
   30.510    2.4048
   30.540    2.4750
   30.570    2.4750
   30.600    2.4925
   30.630    2.5452
   30.660    2.7383
   30.690    2.5101
   30.720    2.2643
   30.750    2.2819
   30.780    2.2643
   30.810    2.3697
   30.840    2.4223
   30.870    2.4925
   30.900    2.3521
   30.930    2.4048
   30.960    2.5276
   30.990    2.4399
   31.020    2.5101
   31.050    2.6681
   31.080    2.4574
   31.110    2.4048
   31.140    2.3521
   31.170    2.2995
   31.200    2.0537
   31.230    2.0537
   31.260    2.3697
   31.290    2.1590
   31.320    2.1590
   31.350    2.5628
   31.380    2.2819
   31.410    2.4750
   31.440    2.5101
   31.470    2.4048
   31.500    2.2468
   31.530    2.1590
   31.560    2.3346
   31.590    2.2117
   31.620    2.1239
   31.650    2.3521
   31.680    2.5452
   31.710    2.3521
   31.740    2.3170
   31.770    2.5979
   31.800    2.4925
   31.830    2.3521
   31.860    2.1766
   31.890    2.4048
   31.920    2.4048
   31.950    2.2117
   31.980    1.9308
   32.010    2.2995
   32.040    2.6330
   32.070    3.2122
   32.100    3.5457
   32.130    2.6681
   32.160    2.2117
   32.190    2.4399
   32.220    2.2468
   32.250    2.5452
   32.280    2.0713
   32.310    2.3697
   32.340    2.5276
   32.370    2.3170
   32.400    2.1941
   32.430    2.4048
   32.460    2.1239
   32.490    2.1766
   32.520    2.2643
   32.550    2.4048
   32.580    2.0537
   32.610    2.1239
   32.640    2.1415
   32.670    1.8782
   32.700    2.2643
   32.730    2.1415
   32.760    2.3346
   32.790    1.7553
   32.820    2.1766
   32.850    2.3346
   32.880    2.2468
   32.910    2.0537
   32.940    2.2643
   32.970    2.3346
   33.000    1.9133
   33.030    2.0537
   33.060    2.3697
   33.090    2.1239
   33.120    2.0186
   33.150    2.2292
   33.180    2.0011
   33.210    2.1766
   33.240    2.2292
   33.270    2.0888
   33.300    2.3697
   33.330    2.2995
   33.360    1.9835
   33.390    2.2292
   33.420    2.1766
   33.450    1.9133
   33.480    2.1590
   33.510    1.8255
   33.540    1.8431
   33.570    2.2995
   33.600    2.0186
   33.630    2.1590
   33.660    1.9133
   33.690    2.0011
   33.720    1.9484
   33.750    2.4048
   33.780    2.6856
   33.810    2.7909
   33.840    2.5276
   33.870    2.4223
   33.900    2.2468
   33.930    2.1064
   33.960    2.1064
   33.990    2.3872
   34.020    2.0011
   34.050    2.0713
   34.080    2.2117
   34.110    2.3697
   34.140    1.7202
   34.170    2.1590
   34.200    1.9133
   34.230    1.8255
   34.260    2.2995
   34.290    1.9835
   34.320    2.4399
   34.350    1.8957
   34.380    2.1239
   34.410    2.1239
   34.440    2.1415
   34.470    1.8080
   34.500    1.8957
   34.530    2.0713
   34.560    2.1064
   34.590    1.9835
   34.620    1.8431
   34.650    1.8606
   34.680    2.2643
   34.710    2.0011
   34.740    2.0186
   34.770    2.2995
   34.800    2.0186
   34.830    1.7729
   34.860    2.2995
   34.890    2.2995
   34.920    1.7027
   34.950    2.0362
   34.980    1.8080
   35.010    1.9133
   35.040    2.2643
   35.070    1.7729
   35.100    1.7027
   35.130    2.0537
   35.160    2.1239
   35.190    2.1064
   35.220    1.9133
   35.250    1.9659
   35.280    2.0011
   35.310    1.6675
   35.340    1.7553
   35.370    2.2643
   35.400    2.1766
   35.430    2.3170
   35.460    2.2117
   35.490    1.9308
   35.520    1.7553
   35.550    2.0011
   35.580    2.0186
   35.610    1.9133
   35.640    1.7904
   35.670    1.9659
   35.700    1.9308
   35.730    2.0362
   35.760    2.1239
   35.790    2.2643
   35.820    1.8255
   35.850    2.0186
   35.880    2.4399
   35.910    1.9484
   35.940    2.0362
   35.970    2.1064
   36.000    2.1941
   36.030    1.7729
   36.060    1.9308
   36.090    2.2117
   36.120    1.9835
   36.150    1.7553
   36.180    1.8255
   36.210    2.1239
   36.240    2.0186
   36.270    1.9308
   36.300    1.8606
   36.330    2.1941
   36.360    1.8782
   36.390    1.9835
   36.420    2.0362
   36.450    2.0888
   36.480    2.0186
   36.510    2.0537
   36.540    2.0186
   36.570    2.0011
   36.600    2.0537
   36.630    1.9133
   36.660    1.9308
   36.690    2.0888
   36.720    1.9835
   36.750    1.9835
   36.780    1.8782
   36.810    1.8255
   36.840    1.8606
   36.870    1.8606
   36.900    2.0713
   36.930    2.1064
   36.960    1.7904
   36.990    2.1064
   37.020    1.9659
   37.050    2.1239
   37.080    1.9835
   37.110    1.9484
   37.140    1.8782
   37.170    1.9484
   37.200    1.7904
   37.230    1.7904
   37.260    1.9133
   37.290    1.7904
   37.320    1.7904
   37.350    1.8957
   37.380    1.8255
   37.410    1.7378
   37.440    1.9659
   37.470    1.9308
   37.500    1.9659
   37.530    1.8431
   37.560    1.9835
   37.590    2.2117
   37.620    2.1415
   37.650    1.7904
   37.680    2.0537
   37.710    1.8957
   37.740    1.9835
   37.770    1.9308
   37.800    1.9659
   37.830    2.0362
   37.860    2.1239
   37.890    2.1239
   37.920    2.0537
   37.950    2.1239
   37.980    2.1064
   38.010    2.0362
   38.040    1.9308
   38.070    2.0537
   38.100    1.6851
   38.130    2.0186
   38.160    1.6324
   38.190    1.7553
   38.220    1.9308
   38.250    2.1064
   38.280    1.7729
   38.310    1.9133
   38.340    1.8782
   38.370    2.2468
   38.400    1.6675
   38.430    2.2117
   38.460    1.8431
   38.490    1.8080
   38.520    1.8255
   38.550    2.0186
   38.580    1.9308
   38.610    2.2995
   38.640    2.0011
   38.670    1.7378
   38.700    1.9133
   38.730    1.8080
   38.760    2.0362
   38.790    1.8606
   38.820    1.9659
   38.850    1.8957
   38.880    1.6149
   38.910    1.8606
   38.940    1.9308
   38.970    1.8080
   39.000    1.8606
   39.030    2.0011
   39.060    1.9133
   39.090    1.6324
   39.120    1.6675
   39.150    1.9835
   39.180    1.7729
   39.210    1.8080
   39.240    2.0537
   39.270    1.6324
   39.300    1.9659
   39.330    2.1590
   39.360    1.6500
   39.390    1.6675
   39.420    1.7027
   39.450    1.9133
   39.480    1.9835
   39.510    1.9308
   39.540    1.6675
   39.570    1.7202
   39.600    1.7378
   39.630    1.7027
   39.660    1.5447
   39.690    1.7027
   39.720    1.6851
   39.750    2.1766
   39.780    1.9659
   39.810    1.4042
   39.840    1.7729
   39.870    1.8255
   39.900    1.8080
   39.930    1.8431
   39.960    1.7729
   39.990    1.8080