File: data/MOCOF-1/PXRD/PXRD_KE-166_Cu-Ka1_capillary-1mm_5s-deg.xyd
    1.500   33.5229
    1.530   32.6277
    1.560   32.1222
    1.590   30.5740
    1.620   30.0369
    1.650   28.2464
    1.680   26.9194
    1.710   27.2565
    1.740   24.6130
    1.770   24.2443
    1.800   23.2333
    1.830   22.6540
    1.860   21.5798
    1.890   20.4950
    1.920   20.9268
    1.950   20.0737
    1.980   19.4418
    2.010   19.1153
    2.040   17.9568
    2.070   17.3881
    2.100   17.1880
    2.130   16.2296
    2.160   15.9558
    2.190   15.3765
    2.220   15.9874
    2.250   15.3239
    2.280   14.3233
    2.310   14.6077
    2.340   14.2496
    2.370   13.4913
    2.400   13.4387
    2.430   13.7757
    2.460   12.7120
    2.490   12.7120
    2.520   12.2275
    2.550   12.2064
    2.580   11.0900
    2.610   11.8378
    2.640   11.3217
    2.670   11.2375
    2.700   11.2270
    2.730   11.3955
    2.760   10.8899
    2.790   11.3428
    2.820   10.3739
    2.850   10.7320
    2.880   10.2264
    2.910    9.9737
    2.940   10.2791
    2.970   10.0895
    3.000   10.3949
    3.030    9.8157
    3.060    9.6893
    3.090    9.0469
    3.120    9.5419
    3.150    8.8889
    3.180    9.5103
    3.210    9.4576
    3.240    8.8468
    3.270    9.0363
    3.300    8.7204
    3.330    9.2786
    3.360    8.8994
    3.390    8.6783
    3.420    8.8362
    3.450    8.4992
    3.480    8.7836
    3.510    8.7836
    3.540    8.4044
    3.570    8.5519
    3.600    8.5413
    3.630    8.2675
    3.660    8.2780
    3.690    8.0358
    3.720    8.2780
    3.750    8.3623
    3.780    7.6988
    3.810    8.3834
    3.840    7.8673
    3.870    7.6883
    3.900    8.1938
    3.930    7.6461
    3.960    8.2359
    3.990    8.2043
    4.020    7.7514
    4.050    7.3934
    4.080    7.8568
    4.110    7.5408
    4.140    7.6883
    4.170    7.5197
    4.200    7.6461
    4.230    7.4355
    4.260    7.4671
    4.290    7.3723
    4.320    7.1406
    4.350    6.9826
    4.380    7.0879
    4.410    7.1827
    4.440    7.2565
    4.470    6.9616
    4.500    6.8878
    4.530    7.0985
    4.560    7.0563
    4.590    6.9616
    4.620    6.8878
    4.650    6.9089
    4.680    7.0037
    4.710    6.7930
    4.740    6.8878
    4.770    7.3407
    4.800    6.9932
    4.830    7.2038
    4.860    6.8457
    4.890    6.9721
    4.920    6.9826
    4.950    6.3718
    4.980    6.9721
    5.010    6.9194
    5.040    6.4982
    5.070    6.9510
    5.100    6.9510
    5.130    6.3823
    5.160    6.7930
    5.190    6.6035
    5.220    6.5824
    5.250    6.8246
    5.280    6.8141
    5.310    6.8246
    5.340    6.7299
    5.370    6.6351
    5.400    6.7299
    5.430    6.5929
    5.460    5.9716
    5.490    6.1717
    5.520    6.3296
    5.550    6.4560
    5.580    6.6456
    5.610    7.1722
    5.640    6.6245
    5.670    6.3612
    5.700    6.6983
    5.730    6.8878
    5.760    6.5403
    5.790    6.6245
    5.820    6.6983
    5.850    6.7088
    5.880    6.3296
    5.910    6.6035
    5.940    6.4982
    5.970    6.8668
    6.000    6.7720
    6.030    6.4666
    6.060    6.4876
    6.090    6.7193
    6.120    6.7404
    6.150    6.7615
    6.180    6.6877
    6.210    6.6351
    6.240    6.6351
    6.270    6.6877
    6.300    6.2981
    6.330    6.1295
    6.360    6.4560
    6.390    6.4982
    6.420    6.5087
    6.450    6.6456
    6.480    6.2243
    6.510    6.6140
    6.540    5.9926
    6.570    6.2665
    6.600    6.1611
    6.630    6.6877
    6.660    6.5403
    6.690    6.2243
    6.720    6.2243
    6.750    6.4771
    6.780    6.6456
    6.810    6.6035
    6.840    6.2770
    6.870    6.7825
    6.900    6.3402
    6.930    6.2138
    6.960    6.5719
    6.990    6.3823
    7.020    6.7088
    7.050    6.5403
    7.080    6.6140
    7.110    6.5824
    7.140    6.3086
    7.170    6.2033
    7.200    6.6035
    7.230    6.2138
    7.260    6.0664
    7.290    6.4350
    7.320    6.3296
    7.350    6.3507
    7.380    6.4876
    7.410    6.3296
    7.440    6.0453
    7.470    6.1611
    7.500    6.5719
    7.530    6.8352
    7.560    6.2559
    7.590    6.0874
    7.620    6.3928
    7.650    6.4139
    7.680    6.4982
    7.710    6.1295
    7.740    6.1190
    7.770    6.7193
    7.800    6.5508
    7.830    6.6245
    7.860    6.5824
    7.890    6.7088
    7.920    6.5719
    7.950    6.3823
    7.980    6.4666
    8.010    6.2981
    8.040    6.7615
    8.070    6.3402
    8.100    6.6035
    8.130    6.3612
    8.160    6.5403
    8.190    6.2243
    8.220    6.3402
    8.250    6.5508
    8.280    6.3718
    8.310    6.1295
    8.340    6.3612
    8.370    6.3296
    8.400    6.8141
    8.430    6.2559
    8.460    6.2243
    8.490    6.6877
    8.520    6.4034
    8.550    6.5403
    8.580    6.0242
    8.610    6.7825
    8.640    6.4034
    8.670    6.2349
    8.700    6.6561
    8.730    6.4034
    8.760    6.6351
    8.790    6.5087
    8.820    6.7299
    8.850    6.5929
    8.880    6.5087
    8.910    6.4560
    8.940    6.6140
    8.970    6.1611
    9.000    6.7825
    9.030    6.2665
    9.060    6.3296
    9.090    6.8036
    9.120    6.3507
    9.150    6.6667
    9.180    6.4034
    9.210    6.5613
    9.240    6.1927
    9.270    6.7088
    9.300    6.3718
    9.330    6.3191
    9.360    6.3086
    9.390    6.4876
    9.420    6.0874
    9.450    6.3718
    9.480    6.0348
    9.510    6.5087
    9.540    6.6772
    9.570    6.1611
    9.600    6.2033
    9.630    6.3928
    9.660    6.1927
    9.690    6.5929
    9.720    6.6667
    9.750    6.0664
    9.780    6.2243
    9.810    6.9932
    9.840    6.3191
    9.870    6.6351
    9.900    6.6772
    9.930    6.2559
    9.960    6.2981
    9.990    6.6035
   10.020    6.2454
   10.050    6.7720
   10.080    6.2875
   10.110    6.0348
   10.140    6.4876
   10.170    6.0453
   10.200    6.2770
   10.230    6.4666
   10.260    6.2665
   10.290    6.2454
   10.320    6.6456
   10.350    6.2033
   10.380    6.3823
   10.410    6.3296
   10.440    6.2454
   10.470    6.0348
   10.500    6.6561
   10.530    6.1927
   10.560    6.4244
   10.590    6.1401
   10.620    6.6351
   10.650    6.1401
   10.680    6.2875
   10.710    5.7188
   10.740    6.2033
   10.770    6.1506
   10.800    6.1190
   10.830    6.0348
   10.860    6.1190
   10.890    5.8452
   10.920    6.4560
   10.950    6.1190
   10.980    6.4139
   11.010    6.1190
   11.040    5.9400
   11.070    5.9084
   11.100    6.2981
   11.130    6.1506
   11.160    6.1295
   11.190    6.3718
   11.220    6.2875
   11.250    6.2349
   11.280    6.0558
   11.310    6.0664
   11.340    6.2243
   11.370    5.7715
   11.400    5.7293
   11.430    6.2770
   11.460    6.2981
   11.490    5.8768
   11.520    5.9926
   11.550    6.1506
   11.580    6.0979
   11.610    5.9821
   11.640    5.8136
   11.670    6.4982
   11.700    6.0558
   11.730    5.8662
   11.760    6.0769
   11.790    5.7399
   11.820    6.1295
   11.850    5.6872
   11.880    5.9610
   11.910    5.9084
   11.940    6.2033
   11.970    5.8347
   12.000    5.8873
   12.030    6.0137
   12.060    5.7399
   12.090    6.2033
   12.120    5.8241
   12.150    5.8452
   12.180    6.0242
   12.210    5.9926
   12.240    5.6451
   12.270    6.0874
   12.300    5.5924
   12.330    6.0979
   12.360    5.4450
   12.390    6.1085
   12.420    6.0453
   12.450    5.8031
   12.480    5.9821
   12.510    5.6345
   12.540    5.7188
   12.570    6.1085
   12.600    6.1295
   12.630    5.8873
   12.660    5.8768
   12.690    5.7925
   12.720    5.6556
   12.750    5.9084
   12.780    5.8662
   12.810    5.5292
   12.840    5.5819
   12.870    6.0664
   12.900    5.9294
   12.930    5.7399
   12.960    5.9821
   12.990    5.8873
   13.020    6.2981
   13.050    5.7293
   13.080    5.7188
   13.110    5.8873
   13.140    5.9084
   13.170    5.6135
   13.200    5.9505
   13.230    5.5924
   13.260    5.7609
   13.290    5.3607
   13.320    5.4134
   13.350    5.6345
   13.380    6.2770
   13.410    5.9400
   13.440    5.8241
   13.470    5.7925
   13.500    5.6556
   13.530    5.7293
   13.560    5.6556
   13.590    5.9084
   13.620    5.8347
   13.650    5.8241
   13.680    6.0664
   13.710    5.6872
   13.740    5.9400
   13.770    5.7820
   13.800    5.5503
   13.830    5.6661
   13.860    5.6977
   13.890    6.2033
   13.920    5.8978
   13.950    5.8978
   13.980    5.8978
   14.010    5.5714
   14.040    5.8662
   14.070    5.5714
   14.100    5.7609
   14.130    5.7188
   14.160    5.9189
   14.190    5.7399
   14.220    5.6345
   14.250    5.7820
   14.280    5.4976
   14.310    5.6135
   14.340    5.8031
   14.370    5.7188
   14.400    5.8452
   14.430    5.6029
   14.460    5.8136
   14.490    6.0453
   14.520    5.5187
   14.550    5.9610
   14.580    5.8452
   14.610    5.9084
   14.640    5.6345
   14.670    5.9084
   14.700    5.6345
   14.730    5.6767
   14.760    5.8347
   14.790    5.9294
   14.820    5.6661
   14.850    5.9084
   14.880    5.3818
   14.910    5.8136
   14.940    5.8031
   14.970    5.7820
   15.000    5.5292
   15.030    6.0979
   15.060    5.6451
   15.090    5.4239
   15.120    5.6872
   15.150    6.1927
   15.180    5.8241
   15.210    5.6767
   15.240    5.5082
   15.270    5.9294
   15.300    5.7820
   15.330    6.1190
   15.360    5.6977
   15.390    5.6029
   15.420    5.9084
   15.450    5.6240
   15.480    5.9294
   15.510    5.6451
   15.540    5.7399
   15.570    5.9505
   15.600    6.0242
   15.630    5.7083
   15.660    5.7399
   15.690    5.8662
   15.720    5.8557
   15.750    5.5714
   15.780    5.4134
   15.810    5.4871
   15.840    5.9821
   15.870    6.0242
   15.900    5.3818
   15.930    5.8031
   15.960    5.7925
   15.990    5.7083
   16.020    5.5608
   16.050    5.6451
   16.080    5.7504
   16.110    6.0874
   16.140    5.8347
   16.170    5.9505
   16.200    5.8241
   16.230    5.7399
   16.260    5.7925
   16.290    5.9084
   16.320    5.4976
   16.350    5.7188
   16.380    5.4134
   16.410    5.9505
   16.440    5.7925
   16.470    5.3923
   16.500    5.8873
   16.530    5.8978
   16.560    5.8136
   16.590    5.6977
   16.620    5.6556
   16.650    5.9084
   16.680    5.9400
   16.710    5.7293
   16.740    5.8873
   16.770    5.8031
   16.800    5.6977
   16.830    5.7609
   16.860    5.5503
   16.890    5.8347
   16.920    5.5608
   16.950    5.7715
   16.980    5.8452
   17.010    5.4134
   17.040    5.6345
   17.070    5.7609
   17.100    5.5187
   17.130    5.9610
   17.160    6.0558
   17.190    5.5503
   17.220    5.8978
   17.250    5.5503
   17.280    5.8031
   17.310    5.6977
   17.340    5.7188
   17.370    6.0137
   17.400    5.9189
   17.430    5.9294
   17.460    5.8347
   17.490    5.6029
   17.520    5.8978
   17.550    6.0032
   17.580    6.1190
   17.610    6.1506
   17.640    6.1295
   17.670    5.8347
   17.700    5.9505
   17.730    5.4871
   17.760    5.7399
   17.790    5.9189
   17.820    5.8347
   17.850    5.5082
   17.880    5.8347
   17.910    5.9821
   17.940    5.5608
   17.970    5.8978
   18.000    5.8347
   18.030    5.7399
   18.060    6.0348
   18.090    5.5187
   18.120    5.8136
   18.150    5.6767
   18.180    5.7504
   18.210    5.8241
   18.240    5.7188
   18.270    6.0453
   18.300    5.7925
   18.330    5.7293
   18.360    5.7399
   18.390    5.8347
   18.420    5.8557
   18.450    5.6451
   18.480    5.7293
   18.510    6.3718
   18.540    5.8873
   18.570    5.2554
   18.600    6.0032
   18.630    5.8347
   18.660    5.9821
   18.690    5.8136
   18.720    5.9084
   18.750    5.4344
   18.780    5.4239
   18.810    5.8662
   18.840    5.4660
   18.870    5.8557
   18.900    5.6767
   18.930    5.9505
   18.960    6.3191
   18.990    6.4560
   19.020    6.5087
   19.050    6.0769
   19.080    6.0769
   19.110    5.9821
   19.140    5.9505
   19.170    5.9821
   19.200    5.4871
   19.230    5.8136
   19.260    5.9505
   19.290    5.9189
   19.320    5.6135
   19.350    5.1290
   19.380    6.0558
   19.410    5.6556
   19.440    5.9610
   19.470    5.6872
   19.500    5.5503
   19.530    5.8873
   19.560    5.9294
   19.590    5.7188
   19.620    6.1085
   19.650    5.8241
   19.680    5.7083
   19.710    6.0348
   19.740    5.8241
   19.770    5.8978
   19.800    5.5608
   19.830    5.7925
   19.860    5.8136
   19.890    5.8031
   19.920    5.9294
   19.950    5.6451
   19.980    5.8031
   20.010    5.8031
   20.040    5.7399
   20.070    5.7715
   20.100    6.0558
   20.130    6.1190
   20.160    5.6451
   20.190    5.9084
   20.220    6.0453
   20.250    5.7820
   20.280    5.6767
   20.310    5.8768
   20.340    5.9926
   20.370    5.6556
   20.400    5.5819
   20.430    5.7820
   20.460    5.9716
   20.490    6.1401
   20.520    5.8978
   20.550    5.8241
   20.580    5.6556
   20.610    5.6977
   20.640    5.7925
   20.670    5.9505
   20.700    5.8768
   20.730    6.2243
   20.760    6.1822
   20.790    5.7609
   20.820    5.9400
   20.850    6.2033
   20.880    5.8347
   20.910    5.9294
   20.940    5.6029
   20.970    6.1611
   21.000    6.2243
   21.030    5.6977
   21.060    5.9821
   21.090    5.8452
   21.120    6.0558
   21.150    6.1822
   21.180    6.1401
   21.210    5.8347
   21.240    5.8347
   21.270    5.5819
   21.300    5.9294
   21.330    5.9821
   21.360    6.0769
   21.390    5.7925
   21.420    6.0979
   21.450    5.6345
   21.480    5.8873
   21.510    5.7399
   21.540    5.5292
   21.570    5.8662
   21.600    6.1295
   21.630    5.7820
   21.660    5.8768
   21.690    6.2770
   21.720    5.5714
   21.750    5.6767
   21.780    5.6661
   21.810    5.9189
   21.840    5.6345
   21.870    5.7293
   21.900    5.6451
   21.930    6.0453
   21.960    5.9400
   21.990    5.9189
   22.020    5.7399
   22.050    5.8557
   22.080    6.2243
   22.110    6.2665
   22.140    5.8873
   22.170    5.9505
   22.200    6.0874
   22.230    5.9294
   22.260    5.6240
   22.290    5.8768
   22.320    5.8978
   22.350    5.6135
   22.380    5.7609
   22.410    5.7399
   22.440    6.3612
   22.470    5.9716
   22.500    5.9821
   22.530    6.5298
   22.560    6.3928
   22.590    6.1611
   22.620    6.1506
   22.650    5.8662
   22.680    6.1085
   22.710    6.1717
   22.740    6.0032
   22.770    5.6767
   22.800    5.7293
   22.830    5.6451
   22.860    5.9400
   22.890    6.0664
   22.920    5.8557
   22.950    5.8031
   22.980    5.8136
   23.010    6.1085
   23.040    5.4134
   23.070    5.8873
   23.100    6.0137
   23.130    6.1401
   23.160    5.8662
   23.190    5.9821
   23.220    5.9610
   23.250    5.9400
   23.280    6.2665
   23.310    5.4976
   23.340    6.1401
   23.370    5.7820
   23.400    6.0979
   23.430    5.8241
   23.460    5.9821
   23.490    5.8136
   23.520    6.0348
   23.550    5.7083
   23.580    6.2454
   23.610    6.0769
   23.640    6.2349
   23.670    6.0348
   23.700    6.0664
   23.730    5.7925
   23.760    5.6977
   23.790    5.6029
   23.820    5.9505
   23.850    5.7609
   23.880    5.9294
   23.910    5.9400
   23.940    5.8768
   23.970    5.8031
   24.000    5.4660
   24.030    6.0453
   24.060    5.7293
   24.090    6.0769
   24.120    5.7293
   24.150    6.1190
   24.180    5.8873
   24.210    5.6767
   24.240    6.0453
   24.270    5.4871
   24.300    5.7083
   24.330    5.7820
   24.360    5.5714
   24.390    5.7504
   24.420    5.8768
   24.450    5.5187
   24.480    5.7188
   24.510    6.0242
   24.540    5.6872
   24.570    5.6240
   24.600    5.4555
   24.630    5.8662
   24.660    5.9400
   24.690    5.9294
   24.720    5.8873
   24.750    5.8557
   24.780    5.5187
   24.810    5.9505
   24.840    5.5082
   24.870    5.7399
   24.900    5.6556
   24.930    5.8347
   24.960    5.6767
   24.990    5.8662
   25.020    5.5608
   25.050    5.4976
   25.080    5.8557
   25.110    5.4239
   25.140    5.9400
   25.170    5.7083
   25.200    5.8768
   25.230    5.8557
   25.260    5.5608
   25.290    6.0137
   25.320    5.7715
   25.350    5.6240
   25.380    5.5398
   25.410    5.9400
   25.440    5.9084
   25.470    5.9610
   25.500    5.6345
   25.530    5.6451
   25.560    6.0769
   25.590    5.3502
   25.620    5.5187
   25.650    5.6872
   25.680    5.6240
   25.710    5.7399
   25.740    5.7504
   25.770    5.5924
   25.800    5.2133
   25.830    5.7609
   25.860    5.8768
   25.890    5.8768
   25.920    5.5187
   25.950    5.5503
   25.980    5.5608
   26.010    5.6661
   26.040    5.9505
   26.070    5.2238
   26.100    5.4555
   26.130    5.6556
   26.160    5.6977
   26.190    5.7083
   26.220    5.4871
   26.250    5.7609
   26.280    5.4660
   26.310    5.3923
   26.340    5.6872
   26.370    5.2870
   26.400    5.2659
   26.430    5.6872
   26.460    5.4660
   26.490    5.7293
   26.520    5.7399
   26.550    5.6977
   26.580    5.7609
   26.610    5.5608
   26.640    5.7083
   26.670    5.4028
   26.700    5.3923
   26.730    5.2870
   26.760    5.4450
   26.790    5.3502
   26.820    5.4871
   26.850    5.5082
   26.880    5.6872
   26.910    5.4450
   26.940    5.4134
   26.970    5.7925
   27.000    5.4660
   27.030    5.5082
   27.060    5.2765
   27.090    5.4555
   27.120    5.3291
   27.150    5.1080
   27.180    5.3397
   27.210    5.2449
   27.240    5.4766
   27.270    5.6135
   27.300    5.6872
   27.330    5.2027
   27.360    5.3502
   27.390    5.3923
   27.420    5.3502
   27.450    5.8031
   27.480    5.5819
   27.510    5.4134
   27.540    5.5082
   27.570    5.3923
   27.600    5.1501
   27.630    5.4134
   27.660    5.3607
   27.690    5.1290
   27.720    5.5608
   27.750    5.3081
   27.780    5.5187
   27.810    5.5924
   27.840    5.5714
   27.870    5.3186
   27.900    5.3502
   27.930    5.6345
   27.960    5.5503
   27.990    6.0137
   28.020    5.6240
   28.050    6.0558
   28.080    5.8241
   28.110    5.6451
   28.140    5.5187
   28.170    5.1395
   28.200    5.6029
   28.230    5.3712
   28.260    5.6767
   28.290    5.4976
   28.320    5.5503
   28.350    5.1080
   28.380    5.4450
   28.410    5.3186
   28.440    5.3186
   28.470    5.0237
   28.500    5.3712
   28.530    5.4660
   28.560    5.6767
   28.590    5.2449
   28.620    5.4239
   28.650    5.4976
   28.680    5.2659
   28.710    5.2554
   28.740    5.1922
   28.770    5.3502
   28.800    5.4766
   28.830    5.2238
   28.860    5.3818
   28.890    5.5608
   28.920    5.5187
   28.950    5.9716
   28.980    5.8452
   29.010    5.9294
   29.040    5.4028
   29.070    5.6135
   29.100    4.9816
   29.130    5.6872
   29.160    5.5187
   29.190    5.1395
   29.220    5.2238
   29.250    5.6135
   29.280    5.4555
   29.310    5.2449
   29.340    5.6977
   29.370    5.3291
   29.400    5.3502
   29.430    5.6135
   29.460    5.1185
   29.490    5.1711
   29.520    5.1817
   29.550    5.5924
   29.580    5.1922
   29.610    5.0658
   29.640    5.3186
   29.670    5.0658
   29.700    5.3607
   29.730    5.0026
   29.760    5.0342
   29.790    5.4134
   29.820    5.4660
   29.850    5.3502
   29.880    5.3712
   29.910    5.2449
   29.940    5.3818
   29.970    5.3081
   30.000    5.4028
   30.030    5.4134
   30.060    5.1922
   30.090    5.7609
   30.120    4.9816
   30.150    5.0869
   30.180    5.0658
   30.210    5.3712
   30.240    5.3186
   30.270    5.1922
   30.300    5.2554
   30.330    5.2238
   30.360    5.2027
   30.390    5.2343
   30.420    5.0448
   30.450    5.2027
   30.480    5.2238
   30.510    5.5187
   30.540    5.1290
   30.570    5.3818
   30.600    5.2027
   30.630    5.1606
   30.660    5.4028
   30.690    4.9710
   30.720    5.1185
   30.750    5.3712
   30.780    5.0869
   30.810    4.9289
   30.840    5.2449
   30.870    5.2238
   30.900    5.0026
   30.930    5.0132
   30.960    5.1290
   30.990    5.0448
   31.020    5.3397
   31.050    4.9500
   31.080    4.5708
   31.110    5.0869
   31.140    4.8657
   31.170    5.1922
   31.200    5.2027
   31.230    5.2449
   31.260    4.8973
   31.290    5.1606
   31.320    5.2133
   31.350    5.5082
   31.380    4.9394
   31.410    4.8236
   31.440    4.8973
   31.470    5.2870
   31.500    5.0237
   31.530    5.0553
   31.560    5.0658
   31.590    5.0764
   31.620    4.7499
   31.650    5.2554
   31.680    5.3186
   31.710    5.1395
   31.740    4.9394
   31.770    5.0974
   31.800    5.4766
   31.830    5.4766
   31.860    5.4028
   31.890    5.1080
   31.920    5.0026
   31.950    5.2133
   31.980    5.2975
   32.010    5.2870
   32.040    5.4239
   32.070    6.1190
   32.100    5.9189
   32.130    6.2454
   32.160    5.9189
   32.190    5.5924
   32.220    5.0342
   32.250    5.0026
   32.280    5.0237
   32.310    4.8131
   32.340    5.2659
   32.370    5.2765
   32.400    5.4660
   32.430    4.7077
   32.460    5.0553
   32.490    5.1080
   32.520    4.9394
   32.550    5.2449
   32.580    5.2133
   32.610    4.9710
   32.640    4.8973
   32.670    5.1395
   32.700    4.6867
   32.730    4.7709
   32.760    4.9078
   32.790    5.1817
   32.820    5.1711
   32.850    4.5708
   32.880    4.8868
   32.910    5.1080
   32.940    4.9289
   32.970    4.9184
   33.000    5.0869
   33.030    4.8341
   33.060    4.8131
   33.090    5.2765
   33.120    5.2659
   33.150    5.0764
   33.180    4.8552
   33.210    5.1817
   33.240    5.1080
   33.270    4.8447
   33.300    5.0237
   33.330    4.9078
   33.360    5.0237
   33.390    4.5603
   33.420    4.8236
   33.450    5.0132
   33.480    4.9921
   33.510    4.9184
   33.540    4.8868
   33.570    4.9710
   33.600    4.8657
   33.630    4.8447
   33.660    4.8236
   33.690    4.8657
   33.720    5.2027
   33.750    4.9500
   33.780    5.1711
   33.810    4.8131
   33.840    5.2659
   33.870    5.5819
   33.900    5.4660
   33.930    5.0974
   33.960    4.8447
   33.990    5.1080
   34.020    5.0237
   34.050    5.0658
   34.080    4.7288
   34.110    5.3397
   34.140    4.5392
   34.170    5.0869
   34.200    4.8868
   34.230    4.9289
   34.260    4.3602
   34.290    4.5182
   34.320    4.5498
   34.350    4.7499
   34.380    4.4866
   34.410    4.5919
   34.440    4.6235
   34.470    5.0026
   34.500    4.8973
   34.530    4.7920
   34.560    4.9078
   34.590    4.9816
   34.620    5.0237
   34.650    4.5919
   34.680    5.1290
   34.710    4.5076
   34.740    4.9184
   34.770    4.5919
   34.800    4.7393
   34.830    4.8447
   34.860    4.8552
   34.890    4.7288
   34.920    4.6130
   34.950    4.2970
   34.980    4.5498
   35.010    4.5392
   35.040    4.5708
   35.070    5.0974
   35.100    4.6024
   35.130    4.5814
   35.160    4.5708
   35.190    4.7077
   35.220    4.7815
   35.250    4.4128
   35.280    4.6867
   35.310    4.4234
   35.340    4.5498
   35.370    4.7604
   35.400    4.5182
   35.430    4.9078
   35.460    4.6867
   35.490    4.4655
   35.520    4.6551
   35.550    4.3707
   35.580    4.5919
   35.610    4.3181
   35.640    4.9078
   35.670    4.8763
   35.700    4.7815
   35.730    4.5392
   35.760    4.7183
   35.790    5.0448
   35.820    4.3286
   35.850    5.0026
   35.880    5.0026
   35.910    4.8236
   35.940    4.5919
   35.970    4.4866
   36.000    4.6130
   36.030    4.5919
   36.060    4.2865
   36.090    4.5182
   36.120    4.4234
   36.150    4.5498
   36.180    4.6024
   36.210    4.6551
   36.240    4.5287
   36.270    4.6340
   36.300    4.5182
   36.330    4.3813
   36.360    4.3707
   36.390    4.8025
   36.420    4.4550
   36.450    4.6551
   36.480    4.7183
   36.510    4.5708
   36.540    4.6235
   36.570    4.4234
   36.600    4.6340
   36.630    4.8447
   36.660    4.4760
   36.690    4.4444
   36.720    4.5182
   36.750    4.5392
   36.780    4.1496
   36.810    4.3813
   36.840    4.8131
   36.870    4.6130
   36.900    4.1390
   36.930    4.5708
   36.960    4.8341
   36.990    4.5708
   37.020    4.3497
   37.050    4.7920
   37.080    4.7815
   37.110    4.2338
   37.140    4.6761
   37.170    4.9921
   37.200    4.4971
   37.230    4.5498
   37.260    4.0758
   37.290    4.6656
   37.320    4.4971
   37.350    4.6551
   37.380    4.4550
   37.410    4.5498
   37.440    4.7393
   37.470    4.5498
   37.500    4.2865
   37.530    4.7077
   37.560    4.6024
   37.590    4.1390
   37.620    4.5814
   37.650    4.4128
   37.680    4.7288
   37.710    4.2865
   37.740    4.4550
   37.770    4.4023
   37.800    4.3181
   37.830    4.8341
   37.860    4.5919
   37.890    4.4550
   37.920    4.4234
   37.950    4.3075
   37.980    4.3286
   38.010    4.1917
   38.040    4.6761
   38.070    4.4339
   38.100    4.3286
   38.130    4.4444
   38.160    4.3602
   38.190    4.3918
   38.220    4.4128
   38.250    4.0653
   38.280    4.2443
   38.310    4.2759
   38.340    4.4655
   38.370    4.4023
   38.400    4.5498
   38.430    4.4655
   38.460    4.4444
   38.490    4.4339
   38.520    4.4128
   38.550    4.3813
   38.580    4.8341
   38.610    4.5603
   38.640    4.8025
   38.670    4.7183
   38.700    4.5708
   38.730    4.5603
   38.760    4.5392
   38.790    4.4023
   38.820    4.6130
   38.850    4.4339
   38.880    4.8131
   38.910    4.5814
   38.940    4.2338
   38.970    4.0969
   39.000    4.2443
   39.030    4.3075
   39.060    4.1706
   39.090    4.3391
   39.120    4.3813
   39.150    4.4339
   39.180    4.1496
   39.210    4.2549
   39.240    4.4760
   39.270    4.4128
   39.300    4.2233
   39.330    4.1601
   39.360    4.4234
   39.390    4.6551
   39.420    4.3075
   39.450    4.3391
   39.480    4.1811
   39.510    4.2759
   39.540    4.2549
   39.570    4.6656
   39.600    4.5603
   39.630    4.0021
   39.660    4.1496
   39.690    4.3286
   39.720    4.4234
   39.750    4.1811
   39.780    4.6761
   39.810    4.0969
   39.840    4.1496
   39.870    4.0653
   39.900    4.2338
   39.930    4.2865
   39.960    4.4760
   39.990    4.2759