File: data/MOCOF-1/PXRD/PXRD_KE-174b_Cu-Ka1_capillary-1mm_5s-deg.xyd
    1.500   25.4976
    1.515   24.6551
    1.530   26.3402
    1.545   26.4982
    1.560   25.9189
    1.575   25.6451
    1.590   25.6030
    1.605   25.3186
    1.620   24.0864
    1.635   24.2759
    1.650   23.9179
    1.665   23.3386
    1.680   24.1811
    1.695   23.4650
    1.710   22.5382
    1.725   23.6440
    1.740   22.7699
    1.755   22.4961
    1.770   22.7909
    1.785   22.6435
    1.800   22.5171
    1.815   21.9695
    1.830   21.5061
    1.845   21.1164
    1.860   21.2006
    1.875   21.4534
    1.890   20.7688
    1.905   21.1796
    1.920   21.2322
    1.935   21.0848
    1.950   20.2949
    1.965   20.1685
    1.980   20.0948
    1.995   20.4634
    2.010   20.2844
    2.025   20.8741
    2.040   20.4739
    2.055   20.2422
    2.070   20.3581
    2.085   20.3054
    2.100   19.8315
    2.115   19.6946
    2.130   20.4107
    2.145   20.5161
    2.160   20.8110
    2.175   20.5161
    2.190   21.1058
    2.205   20.6214
    2.220   20.9900
    2.235   20.7056
    2.250   20.2844
    2.265   20.5055
    2.280   20.9479
    2.295   20.7794
    2.310   20.1790
    2.325   20.3791
    2.340   20.2106
    2.355   20.8636
    2.370   21.4534
    2.385   21.2217
    2.400   20.9479
    2.415   21.5903
    2.430   22.0853
    2.445   22.4750
    2.460   22.1274
    2.475   22.0853
    2.490   22.5171
    2.505   22.4223
    2.520   22.6224
    2.535   23.7177
    2.550   23.0964
    2.565   23.9073
    2.580   24.3181
    2.595   24.9921
    2.610   25.0026
    2.625   25.1290
    2.640   25.7293
    2.655   25.8662
    2.670   26.5613
    2.685   26.8141
    2.700   27.4882
    2.715   27.5408
    2.730   27.7620
    2.745   29.0995
    2.760   28.5940
    2.775   29.0785
    2.790   30.4160
    2.805   30.8583
    2.820   31.6798
    2.835   31.6166
    2.850   33.1438
    2.865   34.0706
    2.880   34.4602
    2.895   35.2817
    2.910   36.0927
    2.925   36.8299
    2.940   37.0616
    2.955   38.2096
    2.970   39.7999
    2.985   40.4002
    3.000   41.8536
    3.015   43.5598
    3.030   44.7920
    3.045   45.6240
    3.060   48.1411
    3.075   48.2991
    3.090   50.4265
    3.105   52.3012
    3.120   54.1338
    3.135   56.9036
    3.150   56.6930
    3.165   58.3992
    3.180   62.0853
    3.195   63.2017
    3.210   65.3607
    3.225   68.6045
    3.240   73.5756
    3.255   75.5766
    3.270   78.9468
    3.285   82.6751
    3.300   85.9505
    3.315   90.1738
    3.330   94.7973
    3.345  101.1480
    3.360  106.8352
    3.375  113.3228
    3.390  119.0943
    3.405  127.5303
    3.420  133.5650
    3.435  139.5366
    3.450  142.6856
    3.465  142.3381
    3.480  142.3170
    3.495  134.8710
    3.510  124.2128
    3.525  114.8289
    3.540  101.4323
    3.555   90.4687
    3.570   80.6424
    3.585   71.8378
    3.600   65.2659
    3.615   60.6635
    3.630   57.4618
    3.645   54.7235
    3.660   53.2807
    3.675   53.4387
    3.690   51.4903
    3.705   50.7320
    3.720   50.0895
    3.735   51.0585
    3.750   52.5224
    3.765   52.2275
    3.780   53.8073
    3.795   52.9121
    3.810   53.8915
    3.825   55.2712
    3.840   56.6509
    3.855   57.1564
    3.870   56.7878
    3.885   56.2401
    3.900   58.1253
    3.915   57.7883
    3.930   57.1775
    3.945   57.3670
    3.960   56.9458
    3.975   57.8410
    3.990   56.9247
    4.005   55.3765
    4.020   55.0711
    4.035   54.3971
    4.050   52.5224
    4.065   50.7846
    4.080   50.1632
    4.095   47.9094
    4.110   47.0037
    4.125   44.1285
    4.140   42.6435
    4.155   41.7799
    4.170   39.5893
    4.185   37.5671
    4.200   36.1032
    4.215   34.0074
    4.230   32.5224
    4.245   30.5740
    4.260   28.5413
    4.275   27.2354
    4.290   26.1401
    4.305   23.9389
    4.320   22.8541
    4.335   22.3802
    4.350   20.6108
    4.365   19.8104
    4.380   19.4418
    4.395   18.4413
    4.410   17.5882
    4.425   16.7141
    4.440   15.6714
    4.455   14.7130
    4.470   14.8499
    4.485   14.7657
    4.500   13.6177
    4.515   12.8067
    4.530   12.6382
    4.545   12.6172
    4.560   12.1643
    4.575   11.4587
    4.590   11.5324
    4.605   11.1954
    4.620   10.9110
    4.635   10.6477
    4.650   10.2686
    4.665   10.1001
    4.680   10.5740
    4.695   10.3633
    4.710    9.7420
    4.725    9.5208
    4.740    9.8052
    4.755    9.0995
    4.770    9.2996
    4.785    9.3102
    4.800    8.8678
    4.815    8.9731
    4.830    9.2575
    4.845    8.8468
    4.860    8.1622
    4.875    8.5729
    4.890    8.7730
    4.905    8.0779
    4.920    8.1095
    4.935    8.6677
    4.950    8.1411
    4.965    8.1201
    4.980    8.6256
    4.995    8.2675
    5.010    7.9726
    5.025    7.7725
    5.040    8.0253
    5.055    7.8989
    5.070    7.6356
    5.085    7.8778
    5.100    8.1938
    5.115    7.7304
    5.130    7.6567
    5.145    7.3302
    5.160    7.3302
    5.175    7.7830
    5.190    7.2249
    5.205    7.5092
    5.220    7.3618
    5.235    7.6251
    5.250    7.3196
    5.265    7.5303
    5.280    7.4144
    5.295    7.3512
    5.310    7.3512
    5.325    7.0037
    5.340    7.4882
    5.355    7.1090
    5.370    7.1406
    5.385    7.0563
    5.400    6.8246
    5.415    7.0248
    5.430    7.1933
    5.445    7.4250
    5.460    6.9089
    5.475    7.2459
    5.490    7.3512
    5.505    6.7825
    5.520    6.4455
    5.535    6.7404
    5.550    6.8246
    5.565    6.8246
    5.580    7.0037
    5.595    6.6983
    5.610    6.5824
    5.625    6.7615
    5.640    6.4139
    5.655    6.6877
    5.670    6.5719
    5.685    6.5403
    5.700    6.8246
    5.715    6.2981
    5.730    6.7930
    5.745    7.1406
    5.760    6.9300
    5.775    6.7825
    5.790    6.5508
    5.805    6.4666
    5.820    6.2665
    5.835    6.7193
    5.850    6.2981
    5.865    6.3718
    5.880    6.4455
    5.895    6.4876
    5.910    6.4034
    5.925    6.8878
    5.940    6.8668
    5.955    6.6772
    5.970    6.5087
    5.985    6.4350
    6.000    6.5929
    6.015    6.3612
    6.030    6.7509
    6.045    6.8773
    6.060    6.9932
    6.075    6.6561
    6.090    6.6035
    6.105    6.4455
    6.120    6.6983
    6.135    6.6140
    6.150    6.7299
    6.165    6.5613
    6.180    6.2559
    6.195    6.4876
    6.210    6.7088
    6.225    6.3402
    6.240    6.4771
    6.255    6.7088
    6.270    6.6140
    6.285    6.7509
    6.300    6.5613
    6.315    6.7088
    6.330    6.7720
    6.345    6.7193
    6.360    6.6456
    6.375    6.6877
    6.390    7.1406
    6.405    7.3407
    6.420    7.2038
    6.435    7.6883
    6.450    7.3512
    6.465    7.0879
    6.480    6.7720
    6.495    7.6356
    6.510    7.9305
    6.525    7.3618
    6.540    7.9831
    6.555    8.0253
    6.570    8.1095
    6.585    8.0042
    6.600    8.3412
    6.615    8.3518
    6.630    8.7309
    6.645    8.4887
    6.660    9.3839
    6.675    8.9521
    6.690    9.3628
    6.705    9.1732
    6.720    9.9210
    6.735   10.5424
    6.750   10.3002
    6.765   11.0163
    6.780   11.6904
    6.795   12.0063
    6.810   12.2275
    6.825   12.3117
    6.840   12.6804
    6.855   13.5966
    6.870   14.2812
    6.885   15.1869
    6.900   16.0190
    6.915   16.2296
    6.930   17.0511
    6.945   18.1148
    6.960   18.3149
    6.975   18.1675
    6.990   17.9674
    7.005   17.0195
    7.020   15.8715
    7.035   14.7130
    7.050   14.1443
    7.065   12.8699
    7.080   11.4903
    7.095   10.8689
    7.110   10.3949
    7.125    9.8157
    7.140    9.4155
    7.155    9.1311
    7.170    8.7414
    7.185    8.4044
    7.200    8.1201
    7.215    8.4150
    7.230    8.1938
    7.245    7.9410
    7.260    8.1306
    7.275    7.8146
    7.290    7.6145
    7.305    7.9726
    7.320    7.9094
    7.335    7.7830
    7.350    7.6461
    7.365    7.8673
    7.380    7.7304
    7.395    7.4460
    7.410    7.4460
    7.425    7.6988
    7.440    7.2143
    7.455    7.6040
    7.470    7.8462
    7.485    7.8252
    7.500    7.9516
    7.515    7.7725
    7.530    7.9621
    7.545    7.7620
    7.560    8.1306
    7.575    7.8884
    7.590    8.4466
    7.605    8.2991
    7.620    8.2043
    7.635    7.8989
    7.650    8.2254
    7.665    7.9410
    7.680    8.1833
    7.695    8.5097
    7.710    8.7414
    7.725    8.5413
    7.740    9.0363
    7.755    8.4676
    7.770    8.9731
    7.785    9.5313
    7.800    9.3418
    7.815    8.9310
    7.830    8.7098
    7.845    9.3523
    7.860    9.4365
    7.875    9.9315
    7.890    9.7841
    7.905    9.2891
    7.920    9.4892
    7.935    9.7104
    7.950   10.3739
    7.965   10.1211
    7.980    9.9210
    7.995   10.2370
    8.010   10.3423
    8.025    9.9947
    8.040   10.3949
    8.055    9.8684
    8.070    9.9842
    8.085    9.8052
    8.100   10.3739
    8.115    9.5419
    8.130    9.9105
    8.145   10.0685
    8.160   10.1316
    8.175   10.1211
    8.190    9.5945
    8.205   10.0158
    8.220   10.3107
    8.235    9.9105
    8.250    9.5103
    8.265    9.8789
    8.280    9.1311
    8.295    9.2259
    8.310    9.0258
    8.325    9.0679
    8.340    9.0785
    8.355    8.9415
    8.370    8.9837
    8.385    9.0047
    8.400    8.9521
    8.415    8.7204
    8.430    8.8573
    8.445    8.6361
    8.460    8.5624
    8.475    8.3834
    8.490    8.0042
    8.505    8.0990
    8.520    8.4676
    8.535    8.1411
    8.550    7.9621
    8.565    7.9621
    8.580    7.6040
    8.595    7.6040
    8.610    7.7093
    8.625    7.4250
    8.640    7.6777
    8.655    7.3512
    8.670    7.4039
    8.685    7.5513
    8.700    7.4250
    8.715    7.4144
    8.730    6.7088
    8.745    7.4039
    8.760    7.2038
    8.775    6.9405
    8.790    6.8878
    8.805    7.1301
    8.820    6.6035
    8.835    6.7509
    8.850    6.9826
    8.865    6.6456
    8.880    6.8878
    8.895    6.9826
    8.910    6.2665
    8.925    6.7088
    8.940    6.6351
    8.955    6.8562
    8.970    6.6245
    8.985    6.4455
    9.000    5.8136
    9.015    6.5192
    9.030    6.1506
    9.045    6.5192
    9.060    6.5824
    9.075    6.4244
    9.090    6.2454
    9.105    6.4876
    9.120    6.1190
    9.135    6.3296
    9.150    6.3191
    9.165    6.2981
    9.180    6.2981
    9.195    6.1190
    9.210    6.0874
    9.225    5.9189
    9.240    6.1190
    9.255    6.1822
    9.270    5.9821
    9.285    6.3823
    9.300    5.9189
    9.315    6.5192
    9.330    6.0979
    9.345    6.0874
    9.360    6.2349
    9.375    6.1085
    9.390    6.1822
    9.405    6.1190
    9.420    5.6977
    9.435    6.0874
    9.450    6.2349
    9.465    6.2770
    9.480    5.9610
    9.495    5.9821
    9.510    6.0979
    9.525    5.9400
    9.540    6.3296
    9.555    6.2349
    9.570    6.1717
    9.585    5.8873
    9.600    5.9294
    9.615    6.2454
    9.630    5.7083
    9.645    6.1085
    9.660    5.7083
    9.675    5.7609
    9.690    6.5613
    9.705    5.7820
    9.720    5.8031
    9.735    5.8136
    9.750    6.0242
    9.765    5.9189
    9.780    5.9400
    9.795    5.6872
    9.810    5.8031
    9.825    5.9926
    9.840    5.9505
    9.855    6.3507
    9.870    6.3823
    9.885    5.7820
    9.900    5.8347
    9.915    6.0558
    9.930    5.9400
    9.945    5.8873
    9.960    5.8136
    9.975    6.0558
    9.990    6.1927
   10.005    6.1927
   10.020    6.1822
   10.035    6.1506
   10.050    6.2243
   10.065    6.2243
   10.080    5.8136
   10.095    5.9821
   10.110    5.9189
   10.125    6.0453
   10.140    6.2243
   10.155    5.4555
   10.170    6.2033
   10.185    6.1295
   10.200    6.4455
   10.215    5.8978
   10.230    5.9189
   10.245    5.8978
   10.260    6.2454
   10.275    6.2981
   10.290    6.1822
   10.305    6.0137
   10.320    6.6035
   10.335    6.4560
   10.350    6.6561
   10.365    6.6667
   10.380    6.7720
   10.395    6.6877
   10.410    6.8773
   10.425    6.8878
   10.440    6.5403
   10.455    6.4876
   10.470    6.3086
   10.485    6.4560
   10.500    6.9300
   10.515    6.6772
   10.530    6.8457
   10.545    6.8352
   10.560    6.4876
   10.575    6.1190
   10.590    6.0242
   10.605    5.6767
   10.620    5.8347
   10.635    6.0769
   10.650    6.2243
   10.665    6.1401
   10.680    6.3402
   10.695    6.3507
   10.710    6.2454
   10.725    6.4350
   10.740    6.0137
   10.755    6.1401
   10.770    6.0874
   10.785    6.0242
   10.800    5.7188
   10.815    6.0874
   10.830    6.5403
   10.845    6.1506
   10.860    6.0032
   10.875    6.1295
   10.890    6.0348
   10.905    6.1295
   10.920    5.9505
   10.935    5.9610
   10.950    6.1717
   10.965    6.2033
   10.980    6.1085
   10.995    5.7715
   11.010    5.8347
   11.025    6.1611
   11.040    6.0979
   11.055    5.7293
   11.070    5.8241
   11.085    5.7820
   11.100    5.8978
   11.115    6.2243
   11.130    6.1611
   11.145    6.3191
   11.160    6.5403
   11.175    6.2033
   11.190    6.2665
   11.205    5.5714
   11.220    5.8031
   11.235    5.6345
   11.250    5.5187
   11.265    5.7083
   11.280    5.6135
   11.295    6.1190
   11.310    6.1611
   11.325    6.1295
   11.340    6.0137
   11.355    5.9084
   11.370    5.8662
   11.385    5.7504
   11.400    6.1822
   11.415    6.2665
   11.430    6.2559
   11.445    5.8031
   11.460    5.7715
   11.475    5.9716
   11.490    5.8136
   11.505    6.0769
   11.520    5.7820
   11.535    5.7293
   11.550    5.6240
   11.565    5.7293
   11.580    6.3191
   11.595    6.2770
   11.610    6.0558
   11.625    5.9716
   11.640    6.1085
   11.655    6.2243
   11.670    6.0453
   11.685    6.1717
   11.700    6.3296
   11.715    7.0142
   11.730    6.3086
   11.745    6.3296
   11.760    5.9926
   11.775    6.4244
   11.790    5.8347
   11.805    6.1295
   11.820    6.2665
   11.835    6.3718
   11.850    6.3296
   11.865    5.9716
   11.880    5.8662
   11.895    6.2349
   11.910    6.3296
   11.925    6.2559
   11.940    6.3296
   11.955    6.1611
   11.970    6.2875
   11.985    6.3296
   12.000    6.0664
   12.015    6.0769
   12.030    6.3086
   12.045    6.4771
   12.060    6.2875
   12.075    6.3296
   12.090    6.3507
   12.105    6.5298
   12.120    6.6140
   12.135    6.7615
   12.150    6.8457
   12.165    6.3823
   12.180    6.6035
   12.195    6.8457
   12.210    6.5929
   12.225    6.8457
   12.240    6.5403
   12.255    6.3823
   12.270    6.3507
   12.285    6.1611
   12.300    6.6351
   12.315    6.4771
   12.330    6.1506
   12.345    6.2770
   12.360    6.6772
   12.375    6.3928
   12.390    6.2665
   12.405    6.6351
   12.420    6.6351
   12.435    6.3507
   12.450    6.5824
   12.465    6.3612
   12.480    6.5298
   12.495    6.1190
   12.510    6.4560
   12.525    6.3086
   12.540    6.3823
   12.555    6.0242
   12.570    6.5508
   12.585    6.5087
   12.600    6.6351
   12.615    6.5192
   12.630    6.1190
   12.645    6.3086
   12.660    6.1190
   12.675    6.5929
   12.690    6.0137
   12.705    6.3823
   12.720    6.3296
   12.735    6.4455
   12.750    6.2138
   12.765    6.5298
   12.780    6.0558
   12.795    6.1717
   12.810    6.2138
   12.825    6.6456
   12.840    6.1611
   12.855    6.4666
   12.870    6.2665
   12.885    6.1295
   12.900    6.0874
   12.915    6.2138
   12.930    6.4771
   12.945    6.3191
   12.960    6.5929
   12.975    6.3086
   12.990    6.4771
   13.005    6.1506
   13.020    6.1927
   13.035    6.4876
   13.050    6.3507
   13.065    6.4560
   13.080    6.1717
   13.095    6.3086
   13.110    6.2981
   13.125    6.2454
   13.140    6.6140
   13.155    6.2349
   13.170    6.1717
   13.185    5.9926
   13.200    5.9610
   13.215    5.9189
   13.230    6.0137
   13.245    6.1717
   13.260    6.1401
   13.275    6.0137
   13.290    6.5929
   13.305    6.1717
   13.320    6.1611
   13.335    6.1822
   13.350    6.2138
   13.365    6.0137
   13.380    6.2770
   13.395    6.4771
   13.410    6.0453
   13.425    6.2454
   13.440    5.9821
   13.455    5.9084
   13.470    6.3612
   13.485    6.4244
   13.500    6.0032
   13.515    6.1611
   13.530    6.1506
   13.545    6.4771
   13.560    6.2875
   13.575    6.3402
   13.590    6.1822
   13.605    6.2243
   13.620    6.5824
   13.635    5.7925
   13.650    5.9505
   13.665    6.0032
   13.680    6.1401
   13.695    5.6556
   13.710    5.7715
   13.725    5.9821
   13.740    6.0453
   13.755    6.0348
   13.770    6.0348
   13.785    6.2875
   13.800    6.1717
   13.815    6.2665
   13.830    6.1085
   13.845    6.3296
   13.860    6.1506
   13.875    6.3402
   13.890    6.0979
   13.905    6.0769
   13.920    6.1822
   13.935    6.1085
   13.950    6.4139
   13.965    6.4771
   13.980    6.4244
   13.995    5.9505
   14.010    6.0769
   14.025    5.8452
   14.040    6.3086
   14.055    5.9926
   14.070    5.8873
   14.085    6.1611
   14.100    5.8978
   14.115    6.0664
   14.130    6.3612
   14.145    6.0137
   14.160    5.9610
   14.175    6.0664
   14.190    5.9084
   14.205    6.1190
   14.220    6.0664
   14.235    6.0558
   14.250    6.1822
   14.265    6.0664
   14.280    5.8347
   14.295    5.5608
   14.310    5.8031
   14.325    5.8241
   14.340    5.9084
   14.355    6.2454
   14.370    5.7293
   14.385    5.7504
   14.400    5.6451
   14.415    5.7925
   14.430    5.7820
   14.445    5.6767
   14.460    5.9400
   14.475    5.9084
   14.490    5.9084
   14.505    5.7820
   14.520    5.8662
   14.535    5.9505
   14.550    5.8241
   14.565    5.7504
   14.580    5.3818
   14.595    5.9400
   14.610    5.7820
   14.625    5.6872
   14.640    5.7293
   14.655    5.6767
   14.670    5.9926
   14.685    5.9610
   14.700    5.8347
   14.715    5.7609
   14.730    5.8768
   14.745    5.7504
   14.760    5.6135
   14.775    6.1295
   14.790    5.8452
   14.805    5.7293
   14.820    5.8241
   14.835    5.8241
   14.850    5.7820
   14.865    5.9084
   14.880    6.0348
   14.895    5.6556
   14.910    5.5924
   14.925    5.8136
   14.940    6.0979
   14.955    5.9084
   14.970    5.6872
   14.985    6.1927