File: data/MOCOF-1/PXRD/PXRD_KE-084_Cu-Ka1_capillary-1mm_5s-deg.xyd
    1.500   20.8531
    1.530   20.7794
    1.560   19.6735
    1.590   19.1048
    1.620   18.6940
    1.650   18.7678
    1.680   18.8731
    1.710   18.2412
    1.740   18.2517
    1.770   16.9879
    1.800   17.2933
    1.830   18.4939
    1.860   17.3249
    1.890   17.3354
    1.920   17.1459
    1.950   17.3038
    1.980   17.2933
    2.010   16.6825
    2.040   17.2407
    2.070   17.9042
    2.100   16.4613
    2.130   17.4302
    2.160   16.7141
    2.190   17.6619
    2.220   17.7567
    2.250   17.9042
    2.280   17.8726
    2.310   18.6625
    2.340   18.5571
    2.370   19.0521
    2.400   18.8415
    2.430   20.1053
    2.460   20.0316
    2.490   20.8215
    2.520   20.5161
    2.550   22.4750
    2.580   22.4329
    2.610   23.2754
    2.640   23.6440
    2.670   25.6345
    2.700   24.8447
    2.730   25.3818
    2.760   27.7620
    2.790   29.2680
    2.820   29.2891
    2.850   31.3955
    2.880   33.0174
    2.910   33.7651
    2.940   36.1453
    2.970   38.4518
    3.000   40.2001
    3.030   42.6962
    3.060   44.2970
    3.090   48.7414
    3.120   51.9642
    3.150   55.6293
    3.180   59.9263
    3.210   65.6346
    3.240   69.3628
    3.270   77.1143
    3.300   85.7293
    3.330   96.5034
    3.360  108.4781
    3.390  125.0553
    3.420  137.9884
    3.450  142.7804
    3.480  128.9731
    3.510  102.2117
    3.540   74.6604
    3.570   53.9968
    3.600   46.3612
    3.630   41.9484
    3.660   39.7683
    3.690   38.3992
    3.720   39.3470
    3.750   40.9268
    3.780   42.6856
    3.810   45.6767
    3.840   48.4992
    3.870   49.8789
    3.900   53.5861
    3.930   54.9552
    3.960   58.9258
    3.990   58.9363
    4.020   61.2322
    4.050   60.8741
    4.080   60.4213
    4.110   58.4939
    4.140   54.4181
    4.170   49.2996
    4.200   44.8657
    4.230   40.2528
    4.260   32.7120
    4.290   28.4781
    4.320   23.6756
    4.350   20.1053
    4.380   16.2823
    4.410   14.9974
    4.440   12.9542
    4.470   12.1432
    4.500   11.3849
    4.530   10.5424
    4.560    9.7209
    4.590    8.7520
    4.620    8.7520
    4.650    8.5308
    4.680    8.1411
    4.710    8.2570
    4.740    8.4360
    4.770    7.0879
    4.800    7.5197
    4.830    7.2775
    4.860    7.2354
    4.890    7.1301
    4.920    7.0353
    4.950    7.1511
    4.980    7.2880
    5.010    7.1933
    5.040    7.0353
    5.070    7.1511
    5.100    6.7615
    5.130    6.7088
    5.160    7.1195
    5.190    6.7088
    5.220    6.7930
    5.250    6.8246
    5.280    6.6456
    5.310    6.3928
    5.340    6.4455
    5.370    6.8457
    5.400    6.6245
    5.430    6.3086
    5.460    6.5192
    5.490    5.9926
    5.520    6.0348
    5.550    6.0874
    5.580    6.2138
    5.610    5.7925
    5.640    5.8873
    5.670    6.2454
    5.700    6.0032
    5.730    5.9505
    5.760    5.7820
    5.790    5.9084
    5.820    5.8136
    5.850    5.8452
    5.880    6.2559
    5.910    5.9505
    5.940    6.3718
    5.970    6.1611
    6.000    5.8662
    6.030    6.1190
    6.060    6.2033
    6.090    6.4350
    6.120    6.1927
    6.150    6.2138
    6.180    6.2033
    6.210    6.4666
    6.240    6.2559
    6.270    6.0032
    6.300    6.4771
    6.330    6.2033
    6.360    6.7404
    6.390    6.7720
    6.420    6.9826
    6.450    7.0353
    6.480    7.0353
    6.510    7.3934
    6.540    8.0463
    6.570    7.7830
    6.600    8.0779
    6.630    8.6045
    6.660    8.8468
    6.690    9.4892
    6.720   10.1001
    6.750   10.9953
    6.780   11.9431
    6.810   12.7857
    6.840   14.5234
    6.870   15.3870
    6.900   18.2517
    6.930   19.2417
    6.960   18.1464
    6.990   16.8931
    7.020   13.5966
    7.050   10.6582
    7.080    8.9521
    7.110    8.2043
    7.140    7.7514
    7.170    6.9932
    7.200    7.0353
    7.230    6.6140
    7.260    7.1195
    7.290    7.0563
    7.320    6.6351
    7.350    6.6456
    7.380    6.9089
    7.410    6.5087
    7.440    6.6561
    7.470    6.5824
    7.500    6.5403
    7.530    6.8562
    7.560    7.3091
    7.590    6.7509
    7.620    7.1722
    7.650    7.2670
    7.680    7.4671
    7.710    7.6777
    7.740    7.7725
    7.770    7.3723
    7.800    8.0147
    7.830    8.8046
    7.860    8.4255
    7.890    8.7204
    7.920    8.9205
    7.950    9.3734
    7.980    9.2470
    8.010    9.5629
    8.040   10.1106
    8.070    9.9421
    8.100   10.2264
    8.130   10.1738
    8.160   10.3949
    8.190   10.7214
    8.220    9.8894
    8.250    9.9947
    8.280   10.1527
    8.310   10.1843
    8.340    9.6577
    8.370    9.9737
    8.400   10.1211
    8.430   10.0790
    8.460    9.3734
    8.490    9.4471
    8.520    8.8046
    8.550    8.5835
    8.580    8.1833
    8.610    8.0569
    8.640    7.8989
    8.670    7.5935
    8.700    7.4039
    8.730    7.0037
    8.760    6.8457
    8.790    6.5824
    8.820    6.0979
    8.850    6.7193
    8.880    6.5824
    8.910    6.5403
    8.940    6.6351
    8.970    6.1717
    9.000    5.3923
    9.030    5.9716
    9.060    5.7820
    9.090    6.2559
    9.120    6.3928
    9.150    5.9400
    9.180    6.2243
    9.210    5.8452
    9.240    5.8873
    9.270    6.1085
    9.300    5.7504
    9.330    5.9294
    9.360    5.6135
    9.390    5.8241
    9.420    5.7399
    9.450    5.5187
    9.480    6.0664
    9.510    5.6135
    9.540    5.9926
    9.570    5.5924
    9.600    5.5819
    9.630    5.8978
    9.660    5.6451
    9.690    5.4450
    9.720    5.8241
    9.750    5.9821
    9.780    5.8241
    9.810    5.5398
    9.840    5.8662
    9.870    5.5819
    9.900    5.9084
    9.930    5.7820
    9.960    5.7925
    9.990    5.6977
   10.020    6.0453
   10.050    5.6767
   10.080    5.8978
   10.110    5.9400
   10.140    5.6977
   10.170    5.8031
   10.200    5.8241
   10.230    6.0874
   10.260    5.8031
   10.290    6.0137
   10.320    6.5508
   10.350    6.4139
   10.380    6.2875
   10.410    6.4350
   10.440    6.8878
   10.470    6.5298
   10.500    6.7825
   10.530    6.1822
   10.560    6.0453
   10.590    6.2138
   10.620    5.8241
   10.650    6.1295
   10.680    5.7293
   10.710    6.2454
   10.740    5.7188
   10.770    6.0348
   10.800    5.7083
   10.830    6.3086
   10.860    5.9294
   10.890    6.2665
   10.920    5.7609
   10.950    5.8136
   10.980    5.9610
   11.010    5.7399
   11.040    5.8241
   11.070    5.6556
   11.100    5.6345
   11.130    5.4344
   11.160    5.6135
   11.190    5.7925
   11.220    5.6451
   11.250    5.8241
   11.280    5.8557
   11.310    5.8031
   11.340    5.9610
   11.370    5.5187
   11.400    6.0348
   11.430    6.2875
   11.460    5.4344
   11.490    5.8662
   11.520    5.6345
   11.550    5.7188
   11.580    5.6767
   11.610    5.7188
   11.640    6.0137
   11.670    5.5187
   11.700    5.6872
   11.730    5.9084
   11.760    5.7399
   11.790    6.0137
   11.820    5.9294
   11.850    6.5192
   11.880    6.1506
   11.910    6.3086
   11.940    5.7609
   11.970    6.1085
   12.000    6.0453
   12.030    6.1295
   12.060    6.2981
   12.090    6.2559
   12.120    5.9926
   12.150    6.4244
   12.180    6.2033
   12.210    6.2349
   12.240    6.5508
   12.270    6.4771
   12.300    6.1822
   12.330    6.5192
   12.360    6.1927
   12.390    6.2875
   12.420    6.4034
   12.450    6.4982
   12.480    6.6772
   12.510    6.7720
   12.540    6.3191
   12.570    6.5087
   12.600    6.4034
   12.630    6.3086
   12.660    6.3718
   12.690    6.2981
   12.720    6.4139
   12.750    6.0979
   12.780    6.4455
   12.810    6.2559
   12.840    6.2665
   12.870    6.2665
   12.900    6.1822
   12.930    6.0348
   12.960    6.1717
   12.990    5.7188
   13.020    6.1401
   13.050    5.8347
   13.080    6.1190
   13.110    6.0558
   13.140    5.9821
   13.170    5.8347
   13.200    5.7188
   13.230    5.8452
   13.260    5.9610
   13.290    5.8031
   13.320    6.0242
   13.350    5.9084
   13.380    6.5087
   13.410    6.1401
   13.440    5.7083
   13.470    6.1611
   13.500    5.9189
   13.530    6.0348
   13.560    5.7715
   13.590    5.5187
   13.620    5.8557
   13.650    6.0453
   13.680    6.1401
   13.710    6.0032
   13.740    5.7820
   13.770    5.5608
   13.800    5.9505
   13.830    5.6556
   13.860    5.6451
   13.890    5.8768
   13.920    5.7083
   13.950    5.7083
   13.980    5.8662
   14.010    5.6872
   14.040    6.0769
   14.070    5.7399
   14.100    5.9294
   14.130    5.9716
   14.160    5.9505
   14.190    5.7715
   14.220    5.2449
   14.250    5.0764
   14.280    5.5503
   14.310    5.5714
   14.340    5.3397
   14.370    5.3607
   14.400    5.4028
   14.430    5.5082
   14.460    5.7399
   14.490    5.5503
   14.520    5.3712
   14.550    5.5608
   14.580    5.6135
   14.610    5.2027
   14.640    5.5714
   14.670    5.4871
   14.700    5.3923
   14.730    5.5187
   14.760    5.5714
   14.790    5.3397
   14.820    5.3081
   14.850    5.5082
   14.880    5.4450
   14.910    5.4028
   14.940    5.2975
   14.970    5.3712
   15.000    5.4555
   15.030    5.2765
   15.060    5.4134
   15.090    5.5924
   15.120    5.5503
   15.150    5.4134
   15.180    5.2027
   15.210    5.2343
   15.240    5.5187
   15.270    5.5187
   15.300    5.3818
   15.330    5.4028
   15.360    5.7504
   15.390    5.3081
   15.420    5.3186
   15.450    5.5608
   15.480    5.6977
   15.510    5.5608
   15.540    5.6240
   15.570    5.4450
   15.600    5.6451
   15.630    5.8768
   15.660    5.5924
   15.690    5.6977
   15.720    5.7188
   15.750    5.6661
   15.780    5.7715
   15.810    5.8241
   15.840    5.8347
   15.870    5.3081
   15.900    5.6345
   15.930    5.5187
   15.960    5.6556
   15.990    5.6661
   16.020    5.4766
   16.050    5.7609
   16.080    5.7293
   16.110    5.4976
   16.140    5.8452
   16.170    5.6556
   16.200    5.8136
   16.230    5.6451
   16.260    5.8136
   16.290    5.6872
   16.320    5.8978
   16.350    5.5082
   16.380    5.5187
   16.410    4.8868
   16.440    5.2870
   16.470    5.1290
   16.500    5.6556
   16.530    5.5714
   16.560    5.5398
   16.590    5.3397
   16.620    5.3818
   16.650    5.2870
   16.680    5.2343
   16.710    5.2975
   16.740    5.6767
   16.770    5.3818
   16.800    5.2554
   16.830    5.5819
   16.860    5.4028
   16.890    5.4766
   16.920    5.3397
   16.950    5.4344
   16.980    5.2554
   17.010    5.5714
   17.040    5.0553
   17.070    5.2027
   17.100    5.6240
   17.130    5.1922
   17.160    5.6345
   17.190    5.5608
   17.220    5.2554
   17.250    5.3291
   17.280    5.4660
   17.310    5.5924
   17.340    5.5608
   17.370    5.4239
   17.400    5.8978
   17.430    5.3291
   17.460    5.6451
   17.490    5.2975
   17.520    5.3291
   17.550    5.4239
   17.580    5.5924
   17.610    5.4028
   17.640    5.4766
   17.670    5.8136
   17.700    5.6661
   17.730    5.2133
   17.760    5.6767
   17.790    5.7504
   17.820    5.2238
   17.850    5.4766
   17.880    5.8347
   17.910    5.4239
   17.940    5.7820
   17.970    5.6451
   18.000    5.8031
   18.030    5.6451
   18.060    5.4660
   18.090    5.7293
   18.120    5.9294
   18.150    5.7188
   18.180    5.4134
   18.210    5.7925
   18.240    5.4766
   18.270    5.4028
   18.300    5.8347
   18.330    5.6451
   18.360    5.4660
   18.390    5.6767
   18.420    5.6451
   18.450    5.7609
   18.480    5.2975
   18.510    5.8557
   18.540    5.7609
   18.570    5.4766
   18.600    5.2659
   18.630    5.6240
   18.660    5.3923
   18.690    5.5398
   18.720    5.3923
   18.750    5.5187
   18.780    5.2343
   18.810    5.7399
   18.840    5.6767
   18.870    5.5398
   18.900    5.6977
   18.930    5.2765
   18.960    5.4976
   18.990    5.4134
   19.020    5.6029
   19.050    5.6135
   19.080    5.2765
   19.110    5.7609
   19.140    5.5924
   19.170    5.9926
   19.200    5.4450
   19.230    5.5608
   19.260    5.9400
   19.290    5.7820
   19.320    5.9400
   19.350    5.6240
   19.380    6.0453
   19.410    5.8662
   19.440    5.9400
   19.470    5.9084
   19.500    6.3191
   19.530    5.7504
   19.560    5.8873
   19.590    5.8557
   19.620    5.7399
   19.650    6.0032
   19.680    6.5508
   19.710    5.8031
   19.740    6.1190
   19.770    6.4982
   19.800    6.1611
   19.830    6.2770
   19.860    6.4560
   19.890    6.2665
   19.920    6.1927
   19.950    6.3296
   19.980    6.3612
   20.010    6.4666
   20.040    5.9084
   20.070    6.4139
   20.100    6.3402
   20.130    6.3823
   20.160    6.7720
   20.190    6.2665
   20.220    6.4139
   20.250    6.0032
   20.280    6.5508
   20.310    6.2243
   20.340    6.3823
   20.370    6.2349
   20.400    6.1822
   20.430    6.3507
   20.460    6.3086
   20.490    5.9821
   20.520    5.9189
   20.550    6.4034
   20.580    6.2770
   20.610    6.4139
   20.640    6.1717
   20.670    6.0032
   20.700    6.4034
   20.730    5.9189
   20.760    6.1611
   20.790    6.0137
   20.820    6.0032
   20.850    6.0032
   20.880    6.5192
   20.910    6.3718
   20.940    6.3191
   20.970    6.1611
   21.000    6.2033
   21.030    6.1401
   21.060    6.3612
   21.090    6.4244
   21.120    6.6667
   21.150    6.5824
   21.180    6.4455
   21.210    5.8978
   21.240    6.0137
   21.270    6.3507
   21.300    6.0874
   21.330    6.3296
   21.360    6.1611
   21.390    6.0979
   21.420    5.9821
   21.450    6.3823
   21.480    6.0558
   21.510    6.4560
   21.540    6.2033
   21.570    6.3191
   21.600    6.1085
   21.630    6.2770
   21.660    6.5508
   21.690    6.0137
   21.720    6.3823
   21.750    6.3612
   21.780    6.2349
   21.810    6.3928
   21.840    6.1611
   21.870    6.3612
   21.900    6.1506
   21.930    5.9821
   21.960    6.2243
   21.990    6.1927
   22.020    5.9926
   22.050    5.6767
   22.080    6.2243
   22.110    5.9189
   22.140    6.5298
   22.170    6.3402
   22.200    6.1085
   22.230    5.9294
   22.260    6.0664
   22.290    6.1927
   22.320    6.1295
   22.350    6.1717
   22.380    5.9610
   22.410    6.1085
   22.440    6.1085
   22.470    5.9926
   22.500    6.2349
   22.530    6.2349
   22.560    5.8873
   22.590    6.2349
   22.620    6.6035
   22.650    5.7188
   22.680    6.2665
   22.710    6.1611
   22.740    6.0137
   22.770    6.4666
   22.800    6.2349
   22.830    5.9716
   22.860    6.1295
   22.890    6.2349
   22.920    6.2875
   22.950    5.5608
   22.980    6.4560
   23.010    6.1717
   23.040    6.2665
   23.070    5.8031
   23.100    6.0137
   23.130    5.8557
   23.160    5.9716
   23.190    6.2033
   23.220    6.0558
   23.250    6.2665
   23.280    5.9926
   23.310    6.0242
   23.340    5.8662
   23.370    5.7715
   23.400    5.9610
   23.430    6.0242
   23.460    6.0242
   23.490    6.0348
   23.520    5.8241
   23.550    6.1401
   23.580    6.0979
   23.610    5.7820
   23.640    6.0453
   23.670    5.5398
   23.700    5.7504
   23.730    5.7715
   23.760    5.2870
   23.790    5.8978
   23.820    6.0242
   23.850    5.7715
   23.880    5.4871
   23.910    5.8452
   23.940    6.0664
   23.970    5.7188
   24.000    5.5398
   24.030    6.0453
   24.060    5.9189
   24.090    6.1506
   24.120    5.8557
   24.150    5.8241
   24.180    6.0874
   24.210    5.9505
   24.240    5.8241
   24.270    5.8873
   24.300    5.9610
   24.330    5.8136
   24.360    6.1085
   24.390    6.0348
   24.420    5.4766
   24.450    6.1295
   24.480    6.2665
   24.510    6.0348
   24.540    5.6661
   24.570    6.1717
   24.600    5.8768
   24.630    5.9610
   24.660    5.8978
   24.690    5.7820
   24.720    5.4976
   24.750    5.6977
   24.780    5.6872
   24.810    5.7293
   24.840    6.1506
   24.870    5.8347
   24.900    5.5503
   24.930    5.5608
   24.960    5.8347
   24.990    5.4871
   25.020    6.0137
   25.050    5.4028
   25.080    5.3607
   25.110    5.7925
   25.140    5.6556
   25.170    5.6977
   25.200    5.8241
   25.230    5.8031
   25.260    5.3502
   25.290    5.5187
   25.320    5.6345
   25.350    5.4450
   25.380    5.6135
   25.410    5.4450
   25.440    5.7188
   25.470    5.5292
   25.500    5.4555
   25.530    5.2343
   25.560    5.6029
   25.590    5.3712
   25.620    5.6345
   25.650    5.5082
   25.680    5.7188
   25.710    5.6767
   25.740    5.5503
   25.770    5.3607
   25.800    5.4028
   25.830    5.2554
   25.860    5.3607
   25.890    5.5924
   25.920    5.3291
   25.950    5.5819
   25.980    5.4766
   26.010    5.7715
   26.040    5.6767
   26.070    5.5292
   26.100    5.6451
   26.130    5.6451
   26.160    5.6029
   26.190    5.2659
   26.220    5.6029
   26.250    5.7820
   26.280    5.2554
   26.310    5.4028
   26.340    5.3186
   26.370    5.6345
   26.400    5.1606
   26.430    5.2765
   26.460    5.3607
   26.490    5.4976
   26.520    5.5503
   26.550    5.2975
   26.580    5.7083
   26.610    5.7399
   26.640    5.1185
   26.670    5.1501
   26.700    5.2975
   26.730    5.1711
   26.760    5.3607
   26.790    5.4871
   26.820    5.4871
   26.850    5.3291
   26.880    5.2343
   26.910    5.3818
   26.940    5.5292
   26.970    5.3291
   27.000    5.3186
   27.030    5.1922
   27.060    5.4028
   27.090    4.9710
   27.120    5.2449
   27.150    5.5292
   27.180    5.2659
   27.210    5.1395
   27.240    5.0658
   27.270    5.2343
   27.300    5.5292
   27.330    5.3291
   27.360    5.2554
   27.390    5.2975
   27.420    5.3397
   27.450    5.6661
   27.480    5.3818
   27.510    5.0237
   27.540    5.4766
   27.570    5.1501
   27.600    5.2659
   27.630    5.4134
   27.660    5.4134
   27.690    5.2449
   27.720    5.3607
   27.750    5.2343
   27.780    5.1817
   27.810    5.2027
   27.840    5.3186
   27.870    4.9289
   27.900    5.2238
   27.930    5.1080
   27.960    5.1711
   27.990    5.3712
   28.020    5.4450
   28.050    5.2027
   28.080    5.1501
   28.110    5.0448
   28.140    5.2449
   28.170    5.4976
   28.200    5.6135
   28.230    5.3712
   28.260    5.4028
   28.290    5.0553
   28.320    4.8552
   28.350    5.2343
   28.380    5.5608
   28.410    5.1817
   28.440    4.8447
   28.470    5.4555
   28.500    5.0237
   28.530    4.8447
   28.560    4.8868
   28.590    5.2343
   28.620    4.7604
   28.650    5.0764
   28.680    4.8025
   28.710    4.9816
   28.740    5.3923
   28.770    5.4028
   28.800    4.9816
   28.830    4.9184
   28.860    5.1185
   28.890    4.9500
   28.920    5.3081
   28.950    5.1606
   28.980    5.1290
   29.010    5.1185
   29.040    5.1185
   29.070    5.3291
   29.100    4.5392
   29.130    5.0448
   29.160    5.0658
   29.190    5.0553
   29.220    4.8657
   29.250    4.9921
   29.280    4.6551
   29.310    4.9078
   29.340    4.8552
   29.370    4.8341
   29.400    4.9078
   29.430    5.4134
   29.460    5.1080
   29.490    5.0553
   29.520    4.7920
   29.550    4.9605
   29.580    5.1395
   29.610    5.2133
   29.640    5.1395
   29.670    4.9289
   29.700    5.0026
   29.730    5.2449
   29.760    4.7604
   29.790    5.0237
   29.820    4.9394
   29.850    4.8763
   29.880    4.8868
   29.910    5.0974
   29.940    5.0448
   29.970    5.0132
   30.000    4.9921
   30.030    4.9184
   30.060    5.0448
   30.090    4.9289
   30.120    4.7288
   30.150    4.9078
   30.180    4.7815
   30.210    4.6445
   30.240    4.8025
   30.270    5.1185
   30.300    5.2870
   30.330    4.9605
   30.360    4.6761
   30.390    4.6235
   30.420    4.8552
   30.450    4.6867
   30.480    4.7183
   30.510    4.3707
   30.540    4.8868
   30.570    4.4655
   30.600    4.8341
   30.630    4.6867
   30.660    4.6867
   30.690    4.9184
   30.720    4.8657
   30.750    4.7499
   30.780    4.9184
   30.810    4.9710
   30.840    4.9078
   30.870    5.0869
   30.900    4.4971
   30.930    4.9078
   30.960    4.8868
   30.990    5.0869
   31.020    4.8341
   31.050    4.5814
   31.080    4.8236
   31.110    4.9078
   31.140    4.7709
   31.170    4.8447
   31.200    4.6761
   31.230    4.9078
   31.260    4.6867
   31.290    4.9816
   31.320    4.7393
   31.350    4.6024
   31.380    4.6340
   31.410    4.5814
   31.440    4.6024
   31.470    5.0869
   31.500    4.8973
   31.530    4.5392
   31.560    4.6867
   31.590    4.9078
   31.620    4.9816
   31.650    4.7920
   31.680    4.6340
   31.710    5.1606
   31.740    4.9184
   31.770    4.7920
   31.800    4.7920
   31.830    5.0342
   31.860    4.7709
   31.890    4.7920
   31.920    4.6551
   31.950    4.6761
   31.980    4.8973
   32.010    4.6867
   32.040    4.8552
   32.070    4.9816
   32.100    4.8341
   32.130    4.5814
   32.160    4.6761
   32.190    4.6130
   32.220    4.5182
   32.250    4.5498
   32.280    4.6972
   32.310    4.4550
   32.340    4.8025
   32.370    4.4866
   32.400    4.4339
   32.430    4.8025
   32.460    4.4866
   32.490    4.5603
   32.520    4.7393
   32.550    4.5603
   32.580    4.3813
   32.610    4.6761
   32.640    4.2654
   32.670    4.7288
   32.700    4.3813
   32.730    4.8763
   32.760    4.4655
   32.790    4.6972
   32.820    4.4339
   32.850    4.2549
   32.880    4.4760
   32.910    4.4760
   32.940    4.5182
   32.970    4.7604
   33.000    4.4971
   33.030    4.7393
   33.060    4.5919
   33.090    4.3918
   33.120    4.7077
   33.150    4.3707
   33.180    4.2338
   33.210    4.5708
   33.240    4.6024
   33.270    4.5182
   33.300    4.4866
   33.330    4.4023
   33.360    4.5182
   33.390    4.3707
   33.420    4.4339
   33.450    4.5392
   33.480    4.5392
   33.510    4.3075
   33.540    4.2233
   33.570    4.6445
   33.600    4.4234
   33.630    4.1180
   33.660    4.2443
   33.690    4.6024
   33.720    4.0548
   33.750    4.3181
   33.780    4.4866
   33.810    4.2233
   33.840    4.5708
   33.870    4.2022
   33.900    4.3497
   33.930    4.5076
   33.960    4.2338
   33.990    4.0864
   34.020    4.4128
   34.050    4.7183
   34.080    4.3813
   34.110    4.6024
   34.140    4.4444
   34.170    4.4971
   34.200    4.0758
   34.230    4.5182
   34.260    4.3497
   34.290    4.3391
   34.320    3.9916
   34.350    4.4234
   34.380    4.1390
   34.410    4.5708
   34.440    4.1917
   34.470    4.1706
   34.500    4.1074
   34.530    4.2338
   34.560    4.4550
   34.590    4.2654
   34.620    4.6130
   34.650    4.5708
   34.680    4.2127
   34.710    4.3391
   34.740    4.5603
   34.770    3.9600
   34.800    4.3918
   34.830    4.3286
   34.860    4.3602
   34.890    4.3497
   34.920    4.1074
   34.950    4.3286
   34.980    4.0442
   35.010    4.2970
   35.040    4.3707
   35.070    4.2443
   35.100    4.5498
   35.130    4.6551
   35.160    3.9916
   35.190    3.9284
   35.220    4.4339
   35.250    4.4971
   35.280    4.0653
   35.310    4.4655
   35.340    4.4655
   35.370    4.5182
   35.400    4.2759
   35.430    4.1917
   35.460    4.0442
   35.490    4.2127
   35.520    4.4023
   35.550    4.0758
   35.580    4.1074
   35.610    4.1917
   35.640    4.1601
   35.670    4.0337
   35.700    4.2654
   35.730    4.2022
   35.760    4.0548
   35.790    4.3391
   35.820    3.9705
   35.850    4.2443
   35.880    4.3286
   35.910    4.3918
   35.940    4.6235
   35.970    4.1180
   36.000    4.1706
   36.030    3.7283
   36.060    4.3497
   36.090    4.2233
   36.120    4.0442
   36.150    4.4444
   36.180    4.2127
   36.210    3.7072
   36.240    3.8125
   36.270    4.1601
   36.300    4.2338
   36.330    4.3075
   36.360    4.2233
   36.390    3.8863
   36.420    3.8020
   36.450    4.0548
   36.480    3.6967
   36.510    4.1496
   36.540    3.9494
   36.570    3.8336
   36.600    3.9284
   36.630    3.8336
   36.660    4.0442
   36.690    4.0126
   36.720    3.7809
   36.750    3.7388
   36.780    4.0126
   36.810    4.1811
   36.840    4.0232
   36.870    4.3286
   36.900    3.9916
   36.930    4.0548
   36.960    4.0548
   36.990    4.3391
   37.020    3.9810
   37.050    4.2443
   37.080    3.8336
   37.110    3.8863
   37.140    3.9810
   37.170    3.8652
   37.200    4.1496
   37.230    4.1601
   37.260    3.9389
   37.290    3.8863
   37.320    3.9916
   37.350    3.3386
   37.380    4.0864
   37.410    3.8863
   37.440    3.8863
   37.470    3.9494
   37.500    4.1285
   37.530    3.9916
   37.560    3.6967
   37.590    3.7809
   37.620    4.0232
   37.650    3.8020
   37.680    4.2338
   37.710    3.9705
   37.740    3.7704
   37.770    4.0337
   37.800    4.1917
   37.830    3.7388
   37.860    3.9916
   37.890    4.0758
   37.920    3.5598
   37.950    3.9810
   37.980    3.8757
   38.010    3.9916
   38.040    3.7809
   38.070    3.8336
   38.100    3.8125
   38.130    3.8652
   38.160    3.9073
   38.190    3.8125
   38.220    3.9284
   38.250    3.9705
   38.280    3.9600
   38.310    3.8441
   38.340    4.1496
   38.370    3.6019
   38.400    3.9284
   38.430    3.7704
   38.460    3.8547
   38.490    3.7388
   38.520    3.9284
   38.550    3.8968
   38.580    3.9073
   38.610    3.7177
   38.640    4.0758
   38.670    4.0864
   38.700    4.0126
   38.730    3.9600
   38.760    3.8863
   38.790    4.0232
   38.820    3.7915
   38.850    3.8863
   38.880    3.8968
   38.910    3.8652
   38.940    3.8547
   38.970    3.7809
   39.000    4.1811
   39.030    3.8968
   39.060    3.9494
   39.090    3.9705
   39.120    3.9284
   39.150    4.2549
   39.180    3.6124
   39.210    3.6546
   39.240    3.8863
   39.270    3.8757
   39.300    3.5914
   39.330    3.8547
   39.360    3.9916
   39.390    3.8125
   39.420    3.6019
   39.450    3.9284
   39.480    3.5598
   39.510    3.9494
   39.540    4.1811
   39.570    3.8231
   39.600    3.9073
   39.630    3.9600
   39.660    3.8652
   39.690    3.7177
   39.720    3.8757
   39.750    3.7388
   39.780    3.8863
   39.810    3.8441
   39.840    4.0232
   39.870    3.9073
   39.900    3.8968
   39.930    4.0864
   39.960    3.7493
   39.990    4.1706