File: data/MOCOF-1/PXRD/PXRD_KE-119-3_Cu-Ka1_film-3mm_5s-deg.xyd
    1.500   11.3744
    1.530   11.1111
    1.560   11.1111
    1.590   10.8899
    1.620   10.4265
    1.650   10.1422
    1.680    9.9737
    1.710    9.8894
    1.740    9.7314
    1.770    9.0574
    1.800    9.2470
    1.830    8.8152
    1.860    9.0469
    1.890    9.0574
    1.920    9.1943
    1.950    8.4781
    1.980    8.1727
    2.010    8.5413
    2.040    7.9831
    2.070    8.0569
    2.100    7.4566
    2.130    7.8568
    2.160    7.2565
    2.190    7.2459
    2.220    7.4250
    2.250    7.2670
    2.280    7.5408
    2.310    7.1406
    2.340    6.8036
    2.370    7.3723
    2.400    6.7404
    2.430    6.7509
    2.460    6.7509
    2.490    6.6245
    2.520    6.8352
    2.550    6.7930
    2.580    6.7930
    2.610    6.8562
    2.640    6.4350
    2.670    6.3296
    2.700    6.6245
    2.730    6.4876
    2.760    6.6456
    2.790    6.1927
    2.820    6.5298
    2.850    6.7193
    2.880    6.1717
    2.910    6.2770
    2.940    6.3402
    2.970    6.2559
    3.000    6.4034
    3.030    6.3823
    3.060    6.0348
    3.090    5.8978
    3.120    6.2033
    3.150    5.9189
    3.180    5.9294
    3.210    5.6872
    3.240    6.0453
    3.270    5.8136
    3.300    6.0348
    3.330    6.0664
    3.360    6.3296
    3.390    6.1822
    3.420    6.3086
    3.450    6.4139
    3.480    6.1295
    3.510    6.0453
    3.540    5.9716
    3.570    6.1717
    3.600    6.0137
    3.630    6.4350
    3.660    5.7925
    3.690    5.9505
    3.720    6.1822
    3.750    6.5192
    3.780    6.4666
    3.810    6.3718
    3.840    6.6456
    3.870    6.6983
    3.900    6.8984
    3.930    6.3718
    3.960    6.5298
    3.990    5.9189
    4.020    6.0032
    4.050    6.0769
    4.080    6.0137
    4.110    5.9294
    4.140    5.8873
    4.170    6.0874
    4.200    5.8452
    4.230    5.8347
    4.260    6.0242
    4.290    5.9821
    4.320    6.2033
    4.350    5.9821
    4.380    5.7083
    4.410    6.0558
    4.440    5.5924
    4.470    6.0137
    4.500    6.1401
    4.530    5.9400
    4.560    6.0242
    4.590    5.9716
    4.620    6.1190
    4.650    5.9084
    4.680    5.8347
    4.710    5.8241
    4.740    6.4244
    4.770    6.0664
    4.800    5.9926
    4.830    6.2559
    4.860    6.3402
    4.890    6.0242
    4.920    6.3823
    4.950    6.7825
    4.980    6.3191
    5.010    6.5508
    5.040    6.7720
    5.070    6.6140
    5.100    6.7509
    5.130    6.7509
    5.160    7.0248
    5.190    7.1722
    5.220    7.1827
    5.250    7.3618
    5.280    7.4250
    5.310    7.4776
    5.340    7.5724
    5.370    7.9831
    5.400    7.7409
    5.430    8.0253
    5.460    7.7514
    5.490    8.5097
    5.520    8.1411
    5.550    8.2254
    5.580    8.4992
    5.610    7.9621
    5.640    7.5619
    5.670    7.4460
    5.700    7.4566
    5.730    7.7409
    5.760    7.8568
    5.790    7.2143
    5.820    7.2354
    5.850    6.6667
    5.880    7.2670
    5.910    6.8878
    5.940    6.3191
    5.970    6.3402
    6.000    5.8452
    6.030    6.5192
    6.060    6.3612
    6.090    5.7715
    6.120    6.2138
    6.150    6.0979
    6.180    6.0137
    6.210    6.1085
    6.240    6.2138
    6.270    5.4028
    6.300    5.9926
    6.330    5.9400
    6.360    5.8031
    6.390    5.7293
    6.420    5.5503
    6.450    5.2870
    6.480    5.4555
    6.510    5.7083
    6.540    5.9610
    6.570    5.4450
    6.600    5.7188
    6.630    5.3923
    6.660    5.4344
    6.690    5.6029
    6.720    5.6661
    6.750    5.6661
    6.780    5.4976
    6.810    5.8031
    6.840    5.4555
    6.870    4.9500
    6.900    5.0658
    6.930    5.1711
    6.960    4.9710
    6.990    4.9500
    7.020    4.9921
    7.050    5.1606
    7.080    5.0026
    7.110    5.1185
    7.140    4.9394
    7.170    4.9289
    7.200    5.1501
    7.230    4.7815
    7.260    4.5392
    7.290    4.6340
    7.320    4.5814
    7.350    4.2233
    7.380    4.7920
    7.410    4.6551
    7.440    4.6761
    7.470    4.6972
    7.500    4.3918
    7.530    4.9184
    7.560    4.3813
    7.590    4.6235
    7.620    5.0026
    7.650    4.8131
    7.680    4.8447
    7.710    3.9916
    7.740    4.5182
    7.770    4.7709
    7.800    4.7288
    7.830    4.0969
    7.860    4.6024
    7.890    4.6024
    7.920    4.4444
    7.950    4.1811
    7.980    4.3918
    8.010    4.1074
    8.040    4.2654
    8.070    4.2233
    8.100    4.4128
    8.130    4.1601
    8.160    4.2022
    8.190    4.6130
    8.220    4.2233
    8.250    3.9600
    8.280    4.2127
    8.310    3.8968
    8.340    4.1074
    8.370    4.3181
    8.400    4.2443
    8.430    3.9284
    8.460    4.0442
    8.490    4.0864
    8.520    4.0653
    8.550    3.9284
    8.580    3.9916
    8.610    4.1811
    8.640    4.2654
    8.670    4.2233
    8.700    3.9810
    8.730    4.2022
    8.760    4.3286
    8.790    3.8968
    8.820    3.8441
    8.850    4.1706
    8.880    4.1180
    8.910    4.1601
    8.940    3.7493
    8.970    3.9389
    9.000    3.6862
    9.030    3.9389
    9.060    3.7809
    9.090    3.9810
    9.120    3.7915
    9.150    4.0126
    9.180    3.6862
    9.210    4.0653
    9.240    3.9705
    9.270    4.3286
    9.300    3.8652
    9.330    4.1496
    9.360    3.8547
    9.390    3.7177
    9.420    4.0232
    9.450    3.8547
    9.480    4.2759
    9.510    4.2127
    9.540    4.1706
    9.570    4.1811
    9.600    4.0126
    9.630    4.1285
    9.660    4.2549
    9.690    4.2549
    9.720    4.2654
    9.750    3.7704
    9.780    3.9494
    9.810    3.7599
    9.840    3.8757
    9.870    3.8441
    9.900    3.9284
    9.930    4.0548
    9.960    3.7704
    9.990    3.6230
   10.020    3.6546
   10.050    3.8652
   10.080    4.1496
   10.110    3.8652
   10.140    3.9810
   10.170    4.1074
   10.200    3.9600
   10.230    4.2338
   10.260    3.9389
   10.290    3.9284
   10.320    4.2970
   10.350    4.1390
   10.380    4.2338
   10.410    4.1601
   10.440    4.0653
   10.470    4.5708
   10.500    4.1601
   10.530    3.9179
   10.560    4.1496
   10.590    4.2865
   10.620    4.0232
   10.650    4.3707
   10.680    4.0021
   10.710    4.0864
   10.740    3.8231
   10.770    4.1285
   10.800    4.1390
   10.830    4.2443
   10.860    4.0337
   10.890    4.2759
   10.920    4.1074
   10.950    4.2654
   10.980    4.2127
   11.010    4.1917
   11.040    4.3602
   11.070    4.3391
   11.100    4.0758
   11.130    4.3391
   11.160    4.1390
   11.190    4.2865
   11.220    3.8968
   11.250    3.9705
   11.280    4.2865
   11.310    4.4128
   11.340    4.3181
   11.370    4.0232
   11.400    3.9705
   11.430    3.8652
   11.460    4.1917
   11.490    3.8863
   11.520    4.2233
   11.550    4.1390
   11.580    4.2865
   11.610    3.8336
   11.640    4.0442
   11.670    4.0548
   11.700    4.2338
   11.730    3.9284
   11.760    4.1180
   11.790    4.1601
   11.820    4.2443
   11.850    3.9600
   11.880    3.9389
   11.910    4.0758
   11.940    4.1811
   11.970    4.0232
   12.000    3.9179
   12.030    3.6862
   12.060    3.8547
   12.090    3.7809
   12.120    3.5387
   12.150    3.8863
   12.180    4.0442
   12.210    3.5808
   12.240    3.9073
   12.270    3.6124
   12.300    4.0442
   12.330    3.8125
   12.360    4.0337
   12.390    3.2965
   12.420    4.0548
   12.450    3.6756
   12.480    3.9810
   12.510    3.5071
   12.540    3.9600
   12.570    3.7283
   12.600    3.5282
   12.630    3.7388
   12.660    3.6019
   12.690    3.8336
   12.720    3.7599
   12.750    3.8652
   12.780    3.3281
   12.810    3.9389
   12.840    3.6124
   12.870    3.7493
   12.900    4.0232
   12.930    3.6440
   12.960    3.5598
   12.990    3.7493
   13.020    4.1811
   13.050    3.6335
   13.080    3.7809
   13.110    3.9810
   13.140    3.8020
   13.170    4.0442
   13.200    3.6862
   13.230    3.9179
   13.260    3.4966
   13.290    3.5703
   13.320    3.9705
   13.350    3.8441
   13.380    4.0021
   13.410    4.0864
   13.440    3.6440
   13.470    3.6019
   13.500    3.4439
   13.530    3.7388
   13.560    3.7599
   13.590    3.7388
   13.620    4.0232
   13.650    3.6546
   13.680    3.5598
   13.710    3.8652
   13.740    3.5914
   13.770    4.1285
   13.800    3.7915
   13.830    3.5598
   13.860    3.7283
   13.890    3.9494
   13.920    3.8020
   13.950    3.8125
   13.980    3.7599
   14.010    4.0548
   14.040    3.9705
   14.070    3.9810
   14.100    4.1180
   14.130    3.8652
   14.160    4.1496
   14.190    3.8336
   14.220    4.1074
   14.250    4.0021
   14.280    4.0758
   14.310    3.8547
   14.340    3.8863
   14.370    4.1074
   14.400    4.0864
   14.430    4.1390
   14.460    3.7388
   14.490    4.0653
   14.520    4.0021
   14.550    4.0442
   14.580    3.6967
   14.610    4.0653
   14.640    3.8020
   14.670    3.9916
   14.700    4.0969
   14.730    3.7704
   14.760    3.8125
   14.790    3.9810
   14.820    3.9073
   14.850    3.8968
   14.880    3.9600
   14.910    3.6651
   14.940    3.7809
   14.970    3.7283
   15.000    3.8125
   15.030    4.0864
   15.060    3.9916
   15.090    3.6335
   15.120    3.8020
   15.150    4.1601
   15.180    3.6124
   15.210    3.6335
   15.240    3.9179
   15.270    3.8020
   15.300    3.5808
   15.330    3.6019
   15.360    3.7177
   15.390    3.7599
   15.420    3.7493
   15.450    3.6651
   15.480    3.3913
   15.510    3.4755
   15.540    3.5808
   15.570    3.6019
   15.600    3.7809
   15.630    3.8020
   15.660    3.7283
   15.690    4.0021
   15.720    3.7283
   15.750    3.6862
   15.780    3.5914
   15.810    3.5598
   15.840    3.9916
   15.870    3.5808
   15.900    3.6862
   15.930    3.6967
   15.960    3.7809
   15.990    3.8441
   16.020    3.9600
   16.050    3.8336
   16.080    3.7177
   16.110    3.9810
   16.140    3.4755
   16.170    3.8441
   16.200    3.6335
   16.230    3.7599
   16.260    3.8863
   16.290    3.6124
   16.320    4.0442
   16.350    4.0126
   16.380    3.7072
   16.410    3.6019
   16.440    3.9916
   16.470    3.6019
   16.500    3.7388
   16.530    3.7704
   16.560    3.6440
   16.590    4.0021
   16.620    3.7599
   16.650    3.3281
   16.680    3.9389
   16.710    3.5071
   16.740    3.6335
   16.770    3.6230
   16.800    3.6967
   16.830    3.6862
   16.860    3.6546
   16.890    3.7809
   16.920    3.4123
   16.950    3.6440
   16.980    3.7283
   17.010    3.6019
   17.040    3.8125
   17.070    3.8757
   17.100    3.8020
   17.130    3.6124
   17.160    3.8441
   17.190    3.8336
   17.220    3.9389
   17.250    3.4229
   17.280    3.6756
   17.310    3.6967
   17.340    3.6756
   17.370    3.7599
   17.400    3.6546
   17.430    3.6440
   17.460    3.4966
   17.490    3.6440
   17.520    3.5071
   17.550    3.4544
   17.580    3.1385
   17.610    3.4755
   17.640    3.4018
   17.670    3.6756
   17.700    3.6019
   17.730    3.8441
   17.760    3.2859
   17.790    3.6019
   17.820    3.7599
   17.850    3.6440
   17.880    3.5282
   17.910    3.3281
   17.940    3.4439
   17.970    3.6335
   18.000    3.6124
   18.030    3.6862
   18.060    3.6230
   18.090    3.6230
   18.120    3.7493
   18.150    3.5808
   18.180    3.8547
   18.210    3.7599
   18.240    3.4229
   18.270    3.6335
   18.300    3.7177
   18.330    3.5387
   18.360    3.3807
   18.390    3.3491
   18.420    3.5598
   18.450    3.1596
   18.480    3.6862
   18.510    3.3913
   18.540    3.4229
   18.570    3.5492
   18.600    3.4755
   18.630    3.4650
   18.660    3.2754
   18.690    3.5071
   18.720    3.6546
   18.750    3.2754
   18.780    3.6440
   18.810    3.1806
   18.840    3.3913
   18.870    3.4229
   18.900    3.7599
   18.930    3.4966
   18.960    3.8441
   18.990    3.6230
   19.020    3.6651
   19.050    3.5282
   19.080    3.5914
   19.110    3.4966
   19.140    3.6019
   19.170    3.3386
   19.200    3.6335
   19.230    3.6019
   19.260    3.4018
   19.290    3.4123
   19.320    3.5071
   19.350    3.5387
   19.380    3.4755
   19.410    3.2438
   19.440    3.5387
   19.470    3.2438
   19.500    3.4439
   19.530    3.4650
   19.560    3.4018
   19.590    3.9916
   19.620    3.4123
   19.650    3.3807
   19.680    3.6756
   19.710    3.4966
   19.740    3.3807
   19.770    3.4755
   19.800    3.4860
   19.830    3.5492
   19.860    3.3807
   19.890    3.4860
   19.920    3.4966
   19.950    3.4544
   19.980    3.4123
   20.010    3.2859
   20.040    3.2649
   20.070    3.3702
   20.100    3.2333
   20.130    3.2122
   20.160    3.4860
   20.190    3.1912
   20.220    3.1385
   20.250    3.3386
   20.280    3.4334
   20.310    3.2965
   20.340    3.1806
   20.370    3.5914
   20.400    3.2859
   20.430    3.4439
   20.460    3.2754
   20.490    3.5176
   20.520    3.7493
   20.550    3.3386
   20.580    3.2017
   20.610    3.1701
   20.640    3.4755
   20.670    3.2859
   20.700    3.1912
   20.730    3.4123
   20.760    3.4544
   20.790    3.1069
   20.820    3.2333
   20.850    3.4123
   20.880    3.4544
   20.910    3.3491
   20.940    3.4123
   20.970    3.1701
   21.000    3.1806
   21.030    3.4018
   21.060    3.4650
   21.090    3.3702
   21.120    3.3281
   21.150    3.2649
   21.180    3.0542
   21.210    3.7283
   21.240    3.3597
   21.270    3.3281
   21.300    3.6230
   21.330    3.4966
   21.360    3.4334
   21.390    3.4439
   21.420    3.0437
   21.450    3.2438
   21.480    3.2965
   21.510    3.2227
   21.540    3.0753
   21.570    3.4860
   21.600    3.1385
   21.630    3.1912
   21.660    3.5176
   21.690    3.0858
   21.720    3.0542
   21.750    3.4123
   21.780    3.0437
   21.810    3.0226
   21.840    3.3491
   21.870    3.1912
   21.900    3.0858
   21.930    3.2438
   21.960    2.9805
   21.990    3.2122
   22.020    3.0648
   22.050    3.0858
   22.080    3.3913
   22.110    3.2122
   22.140    3.1280
   22.170    2.9805
   22.200    3.1912
   22.230    3.0121
   22.260    3.0226
   22.290    3.0226
   22.320    3.0542
   22.350    3.2333
   22.380    3.0226
   22.410    3.0648
   22.440    3.1174
   22.470    3.2017
   22.500    3.3281
   22.530    3.2333
   22.560    3.1596
   22.590    3.0858
   22.620    3.4860
   22.650    3.1280
   22.680    3.2543
   22.710    3.1385
   22.740    3.1912
   22.770    2.7488
   22.800    3.0964
   22.830    2.8857
   22.860    3.2543
   22.890    3.1385
   22.920    3.0121
   22.950    2.8752
   22.980    3.2333
   23.010    2.9384
   23.040    2.9910
   23.070    3.3386
   23.100    3.2754
   23.130    2.8436
   23.160    3.1174
   23.190    3.1280
   23.220    3.2543
   23.250    3.0858
   23.280    3.0332
   23.310    3.1596
   23.340    3.2543
   23.370    2.8331
   23.400    3.0753
   23.430    3.0016
   23.460    3.1806
   23.490    3.3597
   23.520    2.8541
   23.550    2.9068
   23.580    3.0437
   23.610    3.0437
   23.640    2.6540
   23.670    2.9910
   23.700    2.9910
   23.730    2.8857
   23.760    3.1069
   23.790    2.8857
   23.820    2.9910
   23.850    2.8541
   23.880    2.8963
   23.910    2.7804
   23.940    2.9173
   23.970    2.9595
   24.000    2.7593
   24.030    3.1385
   24.060    2.6435
   24.090    2.8963
   24.120    2.9068
   24.150    2.9595
   24.180    2.7804
   24.210    3.0016
   24.240    2.9700
   24.270    3.0542
   24.300    2.7488
   24.330    2.9279
   24.360    2.7067
   24.390    2.8436
   24.420    2.7067
   24.450    2.8857
   24.480    2.8541
   24.510    3.0016
   24.540    2.9910
   24.570    2.7699
   24.600    2.9279
   24.630    3.0226
   24.660    2.7383
   24.690    2.8963
   24.720    2.6014
   24.750    2.7909
   24.780    2.7172
   24.810    2.7699
   24.840    2.7488
   24.870    2.6330
   24.900    2.7699
   24.930    2.7278
   24.960    3.0542
   24.990    2.8752
   25.020    2.6751
   25.050    2.9595
   25.080    2.8225
   25.110    2.8225
   25.140    2.7804
   25.170    2.6962
   25.200    2.8436
   25.230    3.0332
   25.260    2.8225
   25.290    2.8436
   25.320    2.7593
   25.350    2.7699
   25.380    2.5382
   25.410    2.7909
   25.440    2.5698
   25.470    2.7593
   25.500    2.6856
   25.530    2.7593
   25.560    2.6751
   25.590    2.6435
   25.620    2.6646
   25.650    3.0016
   25.680    2.7383
   25.710    2.9910
   25.740    2.6119
   25.770    2.8963
   25.800    2.8015
   25.830    2.6856
   25.860    3.0437
   25.890    2.6224
   25.920    2.8120
   25.950    3.0964
   25.980    2.4961
   26.010    2.6435
   26.040    2.9068
   26.070    2.5592
   26.100    2.6435
   26.130    2.7383
   26.160    2.7172
   26.190    2.8225
   26.220    2.6119
   26.250    2.7488
   26.280    2.6014
   26.310    2.5698
   26.340    2.6119
   26.370    2.7278
   26.400    2.7383
   26.430    2.7067
   26.460    2.7488
   26.490    2.7067
   26.520    2.9910
   26.550    2.8752
   26.580    2.6014
   26.610    2.7172
   26.640    2.3591
   26.670    2.8015
   26.700    2.7172
   26.730    2.4961
   26.760    2.4329
   26.790    2.5171
   26.820    2.4013
   26.850    2.5276
   26.880    2.4750
   26.910    2.3065
   26.940    2.6119
   26.970    2.5487
   27.000    2.8647
   27.030    2.3486
   27.060    2.8331
   27.090    2.7383
   27.120    2.7488
   27.150    2.8752
   27.180    2.5487
   27.210    2.7172
   27.240    2.5382
   27.270    2.5066
   27.300    2.5803
   27.330    2.5171
   27.360    2.6856
   27.390    2.3907
   27.420    2.6751
   27.450    2.5382
   27.480    2.4855
   27.510    2.4539
   27.540    2.4855
   27.570    2.3697
   27.600    2.5592
   27.630    2.4329
   27.660    2.7172
   27.690    2.4539
   27.720    2.5382
   27.750    2.3170
   27.780    2.3065
   27.810    2.7067
   27.840    2.3697
   27.870    2.3065
   27.900    2.4013
   27.930    2.5592
   27.960    2.6856
   27.990    2.7488
   28.020    2.6540
   28.050    2.4750
   28.080    2.7593
   28.110    2.3697
   28.140    2.2959
   28.170    2.3170
   28.200    2.5171
   28.230    2.2959
   28.260    2.6014
   28.290    2.4961
   28.320    2.2538
   28.350    2.3802
   28.380    2.2222
   28.410    2.3275
   28.440    2.5276
   28.470    2.1906
   28.500    2.2643
   28.530    2.6751
   28.560    2.4329
   28.590    2.2854
   28.620    2.5276
   28.650    2.3802
   28.680    2.4013
   28.710    2.3907
   28.740    2.5698
   28.770    2.3486
   28.800    2.1485
   28.830    2.5592
   28.860    2.4961
   28.890    2.6751
   28.920    2.5276
   28.950    2.3802
   28.980    2.2643
   29.010    2.8120
   29.040    2.4645
   29.070    2.4223
   29.100    2.4223
   29.130    2.3802
   29.160    2.3591
   29.190    2.5698
   29.220    2.6646
   29.250    2.3591
   29.280    2.4855
   29.310    2.3275
   29.340    2.4223
   29.370    2.2117
   29.400    2.2959
   29.430    2.1590
   29.460    2.3486
   29.490    2.0537
   29.520    2.1169
   29.550    2.2538
   29.580    2.3381
   29.610    2.2643
   29.640    2.0853
   29.670    2.1906
   29.700    2.4223
   29.730    2.0011
   29.760    2.1590
   29.790    1.9168
   29.820    2.2959
   29.850    2.1064
   29.880    2.2222
   29.910    2.2222
   29.940    2.0748
   29.970    1.9695
   30.000    2.0853
   30.030    2.1169
   30.060    1.9905
   30.090    2.4013
   30.120    2.1590
   30.150    2.3486
   30.180    2.4855
   30.210    2.1380
   30.240    2.1274
   30.270    2.1696
   30.300    2.0537
   30.330    2.2643
   30.360    2.0853
   30.390    2.4539
   30.420    2.1590
   30.450    2.0748
   30.480    2.0011
   30.510    2.1274
   30.540    2.0748
   30.570    2.0116
   30.600    2.1906
   30.630    2.1801
   30.660    2.0326
   30.690    2.2222
   30.720    1.8325
   30.750    2.1064
   30.780    2.2433
   30.810    2.0116
   30.840    2.0116
   30.870    1.9695
   30.900    2.1696
   30.930    2.0853
   30.960    1.9484
   30.990    2.2538
   31.020    2.1064
   31.050    2.0432
   31.080    1.9273
   31.110    2.0326
   31.140    2.0853
   31.170    2.1696
   31.200    1.9695
   31.230    1.8852
   31.260    1.9168
   31.290    1.8009
   31.320    1.9484
   31.350    1.9273
   31.380    1.9800
   31.410    2.2117
   31.440    2.1274
   31.470    1.9484
   31.500    2.0537
   31.530    1.9484
   31.560    2.0116
   31.590    2.0642
   31.620    2.1801
   31.650    2.0221
   31.680    1.9695
   31.710    1.8852
   31.740    1.8957
   31.770    1.9379
   31.800    1.9379
   31.830    1.9800
   31.860    2.0011
   31.890    1.8536
   31.920    2.1801
   31.950    1.8325
   31.980    1.8009
   32.010    2.1485
   32.040    2.1485
   32.070    1.9589
   32.100    1.9168
   32.130    2.1801
   32.160    2.0221
   32.190    1.8957
   32.220    2.0958
   32.250    1.9273
   32.280    1.7378
   32.310    1.9695
   32.340    1.8536
   32.370    1.7904
   32.400    1.6430
   32.430    1.9168
   32.460    1.7904
   32.490    1.8536
   32.520    1.7799
   32.550    1.9168
   32.580    1.7799
   32.610    1.7062
   32.640    1.8325
   32.670    1.7378
   32.700    1.7588
   32.730    1.9379
   32.760    1.7799
   32.790    1.8957
   32.820    1.8747
   32.850    1.9800
   32.880    1.7694
   32.910    1.8536
   32.940    1.8009
   32.970    1.7483
   33.000    1.8536
   33.030    1.8325
   33.060    1.7694
   33.090    1.5377
   33.120    1.6640
   33.150    1.8957
   33.180    1.7588
   33.210    2.0011
   33.240    1.5903
   33.270    1.8957
   33.300    1.7694
   33.330    1.6114
   33.360    1.9063
   33.390    1.6430
   33.420    1.6008
   33.450    1.8641
   33.480    1.8536
   33.510    1.7272
   33.540    1.7272
   33.570    1.9905
   33.600    1.6324
   33.630    1.5587
   33.660    1.6956
   33.690    1.8431
   33.720    2.0221
   33.750    1.7167
   33.780    1.9063
   33.810    1.8536
   33.840    1.8852
   33.870    1.7904
   33.900    1.7588
   33.930    1.8431
   33.960    1.7483
   33.990    1.9484
   34.020    1.7799
   34.050    1.4534
   34.080    1.5798
   34.110    1.8325
   34.140    1.7062
   34.170    1.8852
   34.200    1.8536
   34.230    1.8115
   34.260    1.7378
   34.290    1.7378
   34.320    1.7694
   34.350    1.7483
   34.380    1.8747
   34.410    1.7904
   34.440    1.5903
   34.470    1.8747
   34.500    1.6535
   34.530    1.8641
   34.560    1.8009
   34.590    1.6008
   34.620    1.8852
   34.650    1.6219
   34.680    1.8115
   34.710    1.8325
   34.740    1.8431
   34.770    1.7904
   34.800    1.6430
   34.830    1.7799
   34.860    1.6746
   34.890    1.6851
   34.920    1.7799
   34.950    1.9063
   34.980    1.7272
   35.010    1.6219
   35.040    1.7272
   35.070    1.8009
   35.100    1.8220
   35.130    1.6430
   35.160    1.8220
   35.190    1.8641
   35.220    1.8115
   35.250    1.6956
   35.280    1.9063
   35.310    1.7062
   35.340    1.6114
   35.370    1.7378
   35.400    1.6219
   35.430    1.6956
   35.460    1.7904
   35.490    1.6851
   35.520    1.5903
   35.550    1.9063
   35.580    1.7272
   35.610    1.7167
   35.640    1.7588
   35.670    1.7588
   35.700    1.8009
   35.730    1.7904
   35.760    1.6114
   35.790    1.6956
   35.820    1.5692
   35.850    1.7272
   35.880    1.7588
   35.910    1.5377
   35.940    1.6746
   35.970    1.5798
   36.000    1.7062
   36.030    1.7799
   36.060    1.9695
   36.090    1.6851
   36.120    1.6640
   36.150    1.8641
   36.180    1.6535
   36.210    1.6640
   36.240    1.6430
   36.270    1.8431
   36.300    1.7799
   36.330    1.8009
   36.360    1.5903
   36.390    1.7062
   36.420    1.8747
   36.450    1.5061
   36.480    1.6008
   36.510    1.8115
   36.540    1.7694
   36.570    1.7272
   36.600    1.5482
   36.630    1.7167
   36.660    1.7272
   36.690    1.7062
   36.720    1.8431
   36.750    1.6008
   36.780    1.7062
   36.810    1.6956
   36.840    1.9063
   36.870    1.5587
   36.900    1.7694
   36.930    1.6640
   36.960    1.6008
   36.990    1.6956
   37.020    1.5271
   37.050    1.6535
   37.080    1.5587
   37.110    1.6114
   37.140    1.7272
   37.170    1.7483
   37.200    1.7588
   37.230    1.5061
   37.260    1.5061
   37.290    1.6114
   37.320    1.7167
   37.350    1.6956
   37.380    1.5903
   37.410    1.7904
   37.440    1.8325
   37.470    1.7588
   37.500    1.6219
   37.530    1.6114
   37.560    1.5482
   37.590    1.6746
   37.620    1.6535
   37.650    1.6114
   37.680    1.4955
   37.710    1.5692
   37.740    1.8957
   37.770    1.5166
   37.800    1.7694
   37.830    1.5903
   37.860    1.4429
   37.890    1.5377
   37.920    1.5271
   37.950    1.5482
   37.980    1.5377
   38.010    1.6746
   38.040    1.5166
   38.070    1.5692
   38.100    1.6956
   38.130    1.6008
   38.160    1.6324
   38.190    1.6114
   38.220    1.5903
   38.250    1.8115
   38.280    1.6535
   38.310    1.5482
   38.340    1.6746
   38.370    1.5798
   38.400    1.6956
   38.430    1.6535
   38.460    1.5377
   38.490    1.6535
   38.520    1.6851
   38.550    1.5482
   38.580    1.7799
   38.610    1.7272
   38.640    1.7062
   38.670    1.7378
   38.700    1.8009
   38.730    1.6008
   38.760    1.7588
   38.790    1.6114
   38.820    1.5692
   38.850    1.4850
   38.880    1.6008
   38.910    1.5271
   38.940    1.4534
   38.970    1.5587
   39.000    1.4850
   39.030    1.8957
   39.060    1.7167
   39.090    1.5061
   39.120    1.6114
   39.150    1.5482
   39.180    1.7062
   39.210    1.6851
   39.240    1.6430
   39.270    1.6219
   39.300    1.5377
   39.330    1.7062
   39.360    1.4639
   39.390    1.3165
   39.420    1.6114
   39.450    1.6114
   39.480    1.5482
   39.510    1.5166
   39.540    1.4955
   39.570    1.6956
   39.600    1.3902
   39.630    1.7167
   39.660    1.6430
   39.690    1.6535
   39.720    1.5903
   39.750    1.6324
   39.780    1.6535
   39.810    1.3797
   39.840    1.6008
   39.870    1.5587
   39.900    1.3586
   39.930    1.5271
   39.960    1.6324
   39.990    1.3586