File: data/MOCOF-1/PXRD/PXRD_KE-215_Co-Ka1_film-3mm_5s-deg.xyd
    1.500    3.4564
    1.530    3.3066
    1.560    3.1033
    1.590    2.8357
    1.620    2.8357
    1.650    2.6645
    1.680    2.9106
    1.710    2.6752
    1.740    2.7073
    1.770    2.7180
    1.800    2.5147
    1.830    2.4291
    1.860    2.3970
    1.890    2.2579
    1.920    2.1937
    1.950    2.2900
    1.980    2.4077
    2.010    2.0760
    2.040    2.3328
    2.070    2.0011
    2.100    1.9797
    2.130    2.2472
    2.160    1.9476
    2.190    1.8727
    2.220    2.0439
    2.250    2.0760
    2.280    2.0546
    2.310    1.9797
    2.340    1.8620
    2.370    1.8406
    2.400    1.7657
    2.430    1.6907
    2.460    1.6051
    2.490    1.7549
    2.520    1.8727
    2.550    1.7121
    2.580    1.7657
    2.610    1.6158
    2.640    1.8085
    2.670    1.7335
    2.700    1.6800
    2.730    1.7121
    2.760    1.6479
    2.790    1.3804
    2.820    1.5195
    2.850    1.4767
    2.880    1.5837
    2.910    1.5837
    2.940    1.3590
    2.970    1.5623
    3.000    1.6586
    3.030    1.6586
    3.060    1.4339
    3.090    1.5837
    3.120    1.3590
    3.150    1.3590
    3.180    1.4874
    3.210    1.7335
    3.240    1.4874
    3.270    1.5195
    3.300    1.4981
    3.330    1.2734
    3.360    1.6158
    3.390    1.6051
    3.420    1.6158
    3.450    1.2948
    3.480    1.4339
    3.510    1.5623
    3.540    1.7442
    3.570    1.5409
    3.600    1.5944
    3.630    1.4232
    3.660    1.5409
    3.690    1.4981
    3.720    1.3483
    3.750    1.4767
    3.780    1.3590
    3.810    1.5730
    3.840    1.4125
    3.870    1.4767
    3.900    1.4018
    3.930    1.3804
    3.960    1.4339
    3.990    1.4874
    4.020    1.3804
    4.050    1.5195
    4.080    1.4125
    4.110    1.3055
    4.140    1.5088
    4.170    1.3590
    4.200    1.4232
    4.230    1.2841
    4.260    1.4125
    4.290    1.3483
    4.320    1.4981
    4.350    1.4125
    4.380    1.6586
    4.410    1.5623
    4.440    1.4767
    4.470    1.6051
    4.500    1.3697
    4.530    1.3483
    4.560    1.5837
    4.590    1.6158
    4.620    1.4981
    4.650    1.3804
    4.680    1.6051
    4.710    1.4018
    4.740    1.4446
    4.770    1.4446
    4.800    1.2413
    4.830    1.3055
    4.860    1.5409
    4.890    1.3804
    4.920    1.3697
    4.950    1.5088
    4.980    1.4232
    5.010    1.3804
    5.040    1.2734
    5.070    1.4339
    5.100    1.2627
    5.130    1.4018
    5.160    1.4981
    5.190    1.5623
    5.220    1.4553
    5.250    1.4767
    5.280    1.4446
    5.310    1.4874
    5.340    1.4232
    5.370    1.4125
    5.400    1.2948
    5.430    1.3911
    5.460    1.4767
    5.490    1.4446
    5.520    1.4660
    5.550    1.4232
    5.580    1.4446
    5.610    1.6372
    5.640    1.3697
    5.670    1.5302
    5.700    1.6265
    5.730    1.7228
    5.760    1.5837
    5.790    1.7549
    5.820    1.6693
    5.850    1.4553
    5.880    1.7657
    5.910    1.6907
    5.940    1.7335
    5.970    1.8299
    6.000    1.7335
    6.030    1.9476
    6.060    1.7014
    6.090    1.5837
    6.120    1.9904
    6.150    1.8941
    6.180    1.8620
    6.210    2.0118
    6.240    1.9690
    6.270    1.9476
    6.300    1.8085
    6.330    1.9262
    6.360    1.8834
    6.390    2.0225
    6.420    1.9262
    6.450    2.0653
    6.480    1.9369
    6.510    2.1509
    6.540    1.9583
    6.570    1.8941
    6.600    1.9048
    6.630    1.8513
    6.660    1.8727
    6.690    1.7657
    6.720    2.0546
    6.750    1.7549
    6.780    1.8085
    6.810    1.7228
    6.840    1.7121
    6.870    1.8192
    6.900    1.6372
    6.930    1.6158
    6.960    1.4874
    6.990    1.5409
    7.020    1.4767
    7.050    1.4018
    7.080    1.5302
    7.110    1.6265
    7.140    1.3804
    7.170    1.4767
    7.200    1.6479
    7.230    1.4232
    7.260    1.4339
    7.290    1.2520
    7.320    1.5302
    7.350    1.5088
    7.380    1.4553
    7.410    1.4018
    7.440    1.3376
    7.470    1.5409
    7.500    1.3269
    7.530    1.1771
    7.560    1.4018
    7.590    1.3055
    7.620    1.4553
    7.650    1.3590
    7.680    1.3804
    7.710    1.2092
    7.740    1.1878
    7.770    1.4339
    7.800    1.3483
    7.830    1.3055
    7.860    1.5409
    7.890    1.3590
    7.920    1.3162
    7.950    1.2948
    7.980    1.2199
    8.010    1.1236
    8.040    1.2627
    8.070    1.2092
    8.100    1.2948
    8.130    1.1878
    8.160    1.1664
    8.190    1.3590
    8.220    1.0166
    8.250    1.1236
    8.280    1.3269
    8.310    1.1343
    8.340    1.2734
    8.370    1.1129
    8.400    1.2092
    8.430    1.2413
    8.460    1.0594
    8.490    1.2520
    8.520    1.2948
    8.550    1.0166
    8.580    1.1878
    8.610    1.1664
    8.640    1.2306
    8.670    1.2520
    8.700    1.1129
    8.730    1.1022
    8.760    1.1450
    8.790    1.1557
    8.820    0.9631
    8.850    1.1129
    8.880    0.9203
    8.910    1.0487
    8.940    0.9738
    8.970    1.0487
    9.000    1.0487
    9.030    0.9203
    9.060    0.9952
    9.090    1.0915
    9.120    1.0594
    9.150    1.0487
    9.180    1.0380
    9.210    0.9417
    9.240    0.9952
    9.270    0.9524
    9.300    0.9417
    9.330    1.0487
    9.360    0.9417
    9.390    1.0808
    9.420    0.9631
    9.450    0.9417
    9.480    1.0487
    9.510    0.9203
    9.540    0.8882
    9.570    1.0059
    9.600    0.8668
    9.630    0.9310
    9.660    1.0701
    9.690    0.9417
    9.720    0.8882
    9.750    0.8775
    9.780    0.9631
    9.810    0.9738
    9.840    0.9310
    9.870    0.8240
    9.900    0.9631
    9.930    0.8026
    9.960    0.9845
    9.990    0.8561
   10.020    1.1129
   10.050    0.8561
   10.080    0.8668
   10.110    0.7277
   10.140    0.7705
   10.170    1.0059
   10.200    1.0059
   10.230    0.6849
   10.260    0.9417
   10.290    0.8454
   10.320    0.8133
   10.350    0.8882
   10.380    0.8882
   10.410    0.7705
   10.440    0.7705
   10.470    0.9524
   10.500    0.9310
   10.530    0.9096
   10.560    0.7919
   10.590    0.8775
   10.620    1.0915
   10.650    0.9203
   10.680    0.7598
   10.710    0.8133
   10.740    0.8240
   10.770    0.8454
   10.800    0.8668
   10.830    0.8561
   10.860    1.0059
   10.890    0.7919
   10.920    0.7277
   10.950    0.8989
   10.980    1.0273
   11.010    0.9845
   11.040    0.8240
   11.070    0.8668
   11.100    0.9845
   11.130    0.9845
   11.160    0.8775
   11.190    0.8668
   11.220    0.7491
   11.250    0.9631
   11.280    0.7170
   11.310    0.9845
   11.340    0.8454
   11.370    0.9845
   11.400    1.0166
   11.430    0.7919
   11.460    0.8989
   11.490    0.8454
   11.520    0.9738
   11.550    0.7705
   11.580    0.7491
   11.610    0.7812
   11.640    0.9845
   11.670    0.9738
   11.700    0.8026
   11.730    0.8989
   11.760    0.9417
   11.790    1.0273
   11.820    0.8347
   11.850    0.6956
   11.880    0.8454
   11.910    0.8240
   11.940    0.9524
   11.970    0.7705
   12.000    0.8989
   12.030    0.7170
   12.060    0.7705
   12.090    0.9203
   12.120    0.8882
   12.150    0.8454
   12.180    0.9310
   12.210    0.8775
   12.240    0.8561
   12.270    0.8454
   12.300    0.9631
   12.330    0.8989
   12.360    0.8454
   12.390    1.1343
   12.420    0.8454
   12.450    0.8775
   12.480    0.6956
   12.510    1.0701
   12.540    0.9203
   12.570    0.8668
   12.600    0.9631
   12.630    0.9738
   12.660    0.8989
   12.690    0.8775
   12.720    0.9524
   12.750    0.8775
   12.780    0.8026
   12.810    0.8882
   12.840    1.0059
   12.870    0.8882
   12.900    0.9524
   12.930    0.8882
   12.960    0.8989
   12.990    0.8882
   13.020    0.8454
   13.050    0.7812
   13.080    0.8240
   13.110    1.1022
   13.140    0.9631
   13.170    0.9738
   13.200    0.8347
   13.230    0.8989
   13.260    0.9631
   13.290    0.7919
   13.320    0.9096
   13.350    1.1129
   13.380    0.9631
   13.410    0.9417
   13.440    0.9203
   13.470    0.8775
   13.500    0.9417
   13.530    0.7277
   13.560    0.8775
   13.590    0.8347
   13.620    0.9631
   13.650    0.9417
   13.680    0.7063
   13.710    0.9845
   13.740    1.0273
   13.770    0.7812
   13.800    0.8775
   13.830    0.7384
   13.860    0.8561
   13.890    0.8561
   13.920    0.8133
   13.950    0.8882
   13.980    0.9203
   14.010    0.8668
   14.040    0.9310
   14.070    0.8240
   14.100    0.7598
   14.130    0.8133
   14.160    0.8882
   14.190    0.9631
   14.220    0.7277
   14.250    0.8347
   14.280    0.7277
   14.310    0.7063
   14.340    0.9952
   14.370    0.7491
   14.400    0.8882
   14.430    0.8668
   14.460    0.9845
   14.490    0.7812
   14.520    0.7705
   14.550    0.8026
   14.580    0.7277
   14.610    0.8240
   14.640    0.8347
   14.670    0.7919
   14.700    0.7812
   14.730    0.9096
   14.760    0.8989
   14.790    0.7277
   14.820    0.7705
   14.850    0.7384
   14.880    0.8347
   14.910    0.7277
   14.940    0.9203
   14.970    0.8454
   15.000    0.8668
   15.030    0.7812
   15.060    0.8240
   15.090    0.8775
   15.120    0.9203
   15.150    0.6956
   15.180    0.8347
   15.210    0.7919
   15.240    0.8133
   15.270    0.8133
   15.300    0.7491
   15.330    0.6635
   15.360    0.7277
   15.390    0.8561
   15.420    0.8026
   15.450    0.6314
   15.480    0.8454
   15.510    0.8240
   15.540    0.9952
   15.570    0.8347
   15.600    0.8347
   15.630    0.7277
   15.660    0.8240
   15.690    0.7705
   15.720    0.8133
   15.750    0.9310
   15.780    0.7063
   15.810    0.8775
   15.840    0.8454
   15.870    0.9417
   15.900    0.9310
   15.930    0.7491
   15.960    0.9096
   15.990    0.8454
   16.020    0.7491
   16.050    0.7812
   16.080    0.8882
   16.110    0.8026
   16.140    0.7491
   16.170    0.8668
   16.200    0.7277
   16.230    0.9310
   16.260    1.0059
   16.290    0.8026
   16.320    0.9524
   16.350    0.8989
   16.380    0.8668
   16.410    0.9417
   16.440    0.8989
   16.470    0.8133
   16.500    1.0059
   16.530    1.0166
   16.560    0.9417
   16.590    0.7598
   16.620    0.9952
   16.650    1.0701
   16.680    0.9310
   16.710    0.8026
   16.740    0.8775
   16.770    0.9845
   16.800    1.1022
   16.830    0.8668
   16.860    0.9096
   16.890    0.8240
   16.920    0.9738
   16.950    0.9203
   16.980    0.8668
   17.010    0.9096
   17.040    0.9203
   17.070    0.8882
   17.100    0.8668
   17.130    0.8775
   17.160    0.8989
   17.190    0.8133
   17.220    1.0380
   17.250    0.8240
   17.280    0.8989
   17.310    0.7277
   17.340    0.8026
   17.370    0.9203
   17.400    0.7491
   17.430    0.7384
   17.460    0.8240
   17.490    0.8026
   17.520    0.8989
   17.550    0.9417
   17.580    0.7705
   17.610    0.8347
   17.640    0.8133
   17.670    0.6849
   17.700    0.8347
   17.730    0.8026
   17.760    0.6314
   17.790    0.8347
   17.820    0.8026
   17.850    0.8240
   17.880    0.9738
   17.910    0.8026
   17.940    0.8240
   17.970    0.6956
   18.000    0.8133
   18.030    0.7812
   18.060    0.7705
   18.090    0.8561
   18.120    0.8561
   18.150    0.7598
   18.180    0.8561
   18.210    0.7812
   18.240    0.9631
   18.270    0.7170
   18.300    0.7384
   18.330    0.7812
   18.360    0.7598
   18.390    0.8026
   18.420    1.0166
   18.450    0.9203
   18.480    0.8454
   18.510    0.7170
   18.540    0.8026
   18.570    0.7491
   18.600    0.9310
   18.630    0.9203
   18.660    0.8347
   18.690    0.8133
   18.720    0.8561
   18.750    0.7491
   18.780    0.8561
   18.810    0.8133
   18.840    0.8133
   18.870    0.7705
   18.900    0.7277
   18.930    0.7812
   18.960    0.7277
   18.990    0.6528
   19.020    0.8775
   19.050    0.9096
   19.080    0.8989
   19.110    0.9203
   19.140    0.8347
   19.170    0.8347
   19.200    0.8347
   19.230    0.8240
   19.260    0.7812
   19.290    0.5778
   19.320    0.8347
   19.350    0.6849
   19.380    0.9203
   19.410    0.6528
   19.440    0.8347
   19.470    0.8240
   19.500    0.6849
   19.530    0.8989
   19.560    0.8026
   19.590    0.7491
   19.620    0.7919
   19.650    0.7919
   19.680    0.7170
   19.710    0.8882
   19.740    0.8561
   19.770    0.6314
   19.800    0.8240
   19.830    0.7919
   19.860    0.8561
   19.890    0.7277
   19.920    0.7491
   19.950    0.7491
   19.980    0.9631
   20.010    0.7598
   20.040    0.7384
   20.070    0.7491
   20.100    0.7063
   20.130    0.8026
   20.160    0.9417
   20.190    0.7919
   20.220    0.7598
   20.250    0.8133
   20.280    0.7063
   20.310    0.7598
   20.340    0.8775
   20.370    0.8240
   20.400    0.7812
   20.430    0.9203
   20.460    0.8133
   20.490    0.9310
   20.520    0.8775
   20.550    0.8882
   20.580    0.7170
   20.610    0.8026
   20.640    0.9310
   20.670    0.7919
   20.700    0.7812
   20.730    0.9631
   20.760    0.7919
   20.790    0.6207
   20.820    0.8882
   20.850    0.6849
   20.880    0.8561
   20.910    0.7063
   20.940    0.7812
   20.970    0.6528
   21.000    0.7170
   21.030    0.7705
   21.060    0.6956
   21.090    0.8133
   21.120    0.6849
   21.150    0.7919
   21.180    0.6207
   21.210    0.7170
   21.240    0.8026
   21.270    0.8133
   21.300    0.7384
   21.330    0.8882
   21.360    1.0273
   21.390    0.7705
   21.420    0.8347
   21.450    0.8561
   21.480    0.7277
   21.510    0.7384
   21.540    0.8133
   21.570    0.6956
   21.600    0.8882
   21.630    0.7491
   21.660    0.7812
   21.690    0.6956
   21.720    0.8133
   21.750    0.7919
   21.780    0.7598
   21.810    0.7277
   21.840    0.8347
   21.870    0.7491
   21.900    0.7919
   21.930    0.7384
   21.960    0.8668
   21.990    0.7919
   22.020    0.7170
   22.050    0.8026
   22.080    0.8561
   22.110    0.8561
   22.140    0.7598
   22.170    0.7277
   22.200    0.8454
   22.230    0.7277
   22.260    0.6421
   22.290    0.7812
   22.320    0.8240
   22.350    0.7170
   22.380    0.7491
   22.410    0.7277
   22.440    0.7919
   22.470    0.8133
   22.500    0.7063
   22.530    0.7384
   22.560    0.6207
   22.590    0.7063
   22.620    0.7384
   22.650    0.8133
   22.680    0.7384
   22.710    0.8882
   22.740    0.8026
   22.770    0.8347
   22.800    0.6849
   22.830    0.8026
   22.860    0.8454
   22.890    0.6742
   22.920    0.7598
   22.950    0.7491
   22.980    0.8347
   23.010    0.7491
   23.040    0.8347
   23.070    0.6635
   23.100    0.6742
   23.130    0.7277
   23.160    0.6742
   23.190    0.8240
   23.220    0.7491
   23.250    0.6100
   23.280    0.5778
   23.310    0.6956
   23.340    0.7277
   23.370    0.6528
   23.400    0.6528
   23.430    0.5671
   23.460    0.7277
   23.490    0.7277
   23.520    0.7277
   23.550    0.7919
   23.580    0.7277
   23.610    0.7812
   23.640    0.8026
   23.670    0.5778
   23.700    0.7812
   23.730    0.5886
   23.760    0.6421
   23.790    0.6421
   23.820    0.7277
   23.850    0.7384
   23.880    0.6314
   23.910    0.6956
   23.940    0.6421
   23.970    0.7384
   24.000    0.6635
   24.030    0.7598
   24.060    0.6528
   24.090    0.6635
   24.120    0.7705
   24.150    0.6742
   24.180    0.7170
   24.210    0.7384
   24.240    0.6207
   24.270    0.7384
   24.300    0.6635
   24.330    0.5778
   24.360    0.8454
   24.390    0.6314
   24.420    0.6742
   24.450    0.7170
   24.480    0.6207
   24.510    0.6635
   24.540    0.7491
   24.570    0.7277
   24.600    0.6421
   24.630    0.6421
   24.660    0.5243
   24.690    0.5778
   24.720    0.7491
   24.750    0.6528
   24.780    0.6849
   24.810    0.7063
   24.840    0.7384
   24.870    0.7277
   24.900    0.7063
   24.930    0.5993
   24.960    0.5564
   24.990    0.5993
   25.020    0.6635
   25.050    0.7705
   25.080    0.5886
   25.110    0.6849
   25.140    0.7170
   25.170    0.6314
   25.200    0.5564
   25.230    0.7277
   25.260    0.6207
   25.290    0.7812
   25.320    0.5886
   25.350    0.6528
   25.380    0.6849
   25.410    0.6100
   25.440    0.7277
   25.470    0.7063
   25.500    0.6207
   25.530    0.6635
   25.560    0.6207
   25.590    0.5671
   25.620    0.7812
   25.650    0.6528
   25.680    0.7277
   25.710    0.8775
   25.740    0.6528
   25.770    0.6528
   25.800    0.7277
   25.830    0.6421
   25.860    0.6742
   25.890    0.5886
   25.920    0.6849
   25.950    0.6100
   25.980    0.6421
   26.010    0.5671
   26.040    0.6849
   26.070    0.5671
   26.100    0.6528
   26.130    0.6100
   26.160    0.6849
   26.190    0.6849
   26.220    0.7170
   26.250    0.6956
   26.280    0.7063
   26.310    0.7384
   26.340    0.6207
   26.370    0.6100
   26.400    0.6207
   26.430    0.7705
   26.460    0.5243
   26.490    0.5993
   26.520    0.6635
   26.550    0.6742
   26.580    0.5136
   26.610    0.5671
   26.640    0.5778
   26.670    0.6742
   26.700    0.5671
   26.730    0.5457
   26.760    0.5029
   26.790    0.4922
   26.820    0.6207
   26.850    0.5993
   26.880    0.5993
   26.910    0.6314
   26.940    0.6100
   26.970    0.7491
   27.000    0.6207
   27.030    0.7063
   27.060    0.5350
   27.090    0.5564
   27.120    0.6100
   27.150    0.6528
   27.180    0.5457
   27.210    0.6956
   27.240    0.7812
   27.270    0.5671
   27.300    0.6314
   27.330    0.5350
   27.360    0.5886
   27.390    0.5350
   27.420    0.6849
   27.450    0.5886
   27.480    0.6421
   27.510    0.5350
   27.540    0.6100
   27.570    0.5243
   27.600    0.5029
   27.630    0.7170
   27.660    0.5243
   27.690    0.5029
   27.720    0.6635
   27.750    0.6100
   27.780    0.4922
   27.810    0.5136
   27.840    0.5350
   27.870    0.6207
   27.900    0.6207
   27.930    0.6528
   27.960    0.5564
   27.990    0.5243
   28.020    0.5886
   28.050    0.5564
   28.080    0.4815
   28.110    0.6742
   28.140    0.5671
   28.170    0.6635
   28.200    0.5243
   28.230    0.5029
   28.260    0.5029
   28.290    0.4815
   28.320    0.5993
   28.350    0.6100
   28.380    0.4922
   28.410    0.5029
   28.440    0.5029
   28.470    0.4387
   28.500    0.5778
   28.530    0.6100
   28.560    0.5671
   28.590    0.5886
   28.620    0.5778
   28.650    0.4601
   28.680    0.5564
   28.710    0.5350
   28.740    0.4708
   28.770    0.5671
   28.800    0.5886
   28.830    0.4815
   28.860    0.4922
   28.890    0.5350
   28.920    0.5886
   28.950    0.5564
   28.980    0.6100
   29.010    0.5029
   29.040    0.4815
   29.070    0.5886
   29.100    0.3959
   29.130    0.4708
   29.160    0.3959
   29.190    0.5564
   29.220    0.5350
   29.250    0.4708
   29.280    0.4815
   29.310    0.5136
   29.340    0.4280
   29.370    0.5564
   29.400    0.5778
   29.430    0.6421
   29.460    0.6100
   29.490    0.4815
   29.520    0.5671
   29.550    0.5136
   29.580    0.6742
   29.610    0.4387
   29.640    0.5778
   29.670    0.5564
   29.700    0.6207
   29.730    0.6100
   29.760    0.5243
   29.790    0.5029
   29.820    0.6100
   29.850    0.4280
   29.880    0.5029
   29.910    0.4922
   29.940    0.4173
   29.970    0.4815
   30.000    0.5350
   30.030    0.4280
   30.060    0.5136
   30.090    0.4494
   30.120    0.5671
   30.150    0.5243
   30.180    0.4601
   30.210    0.4601
   30.240    0.5350
   30.270    0.4922
   30.300    0.4066
   30.330    0.5778
   30.360    0.5564
   30.390    0.6528
   30.420    0.4815
   30.450    0.3745
   30.480    0.4708
   30.510    0.4066
   30.540    0.4708
   30.570    0.4601
   30.600    0.4922
   30.630    0.5029
   30.660    0.5564
   30.690    0.5457
   30.720    0.5243
   30.750    0.5029
   30.780    0.4601
   30.810    0.5457
   30.840    0.5136
   30.870    0.5029
   30.900    0.5029
   30.930    0.4387
   30.960    0.5029
   30.990    0.4815
   31.020    0.3638
   31.050    0.5350
   31.080    0.4708
   31.110    0.5993
   31.140    0.4922
   31.170    0.5778
   31.200    0.5671
   31.230    0.5671
   31.260    0.5778
   31.290    0.3638
   31.320    0.5243
   31.350    0.4708
   31.380    0.4280
   31.410    0.4173
   31.440    0.4815
   31.470    0.4173
   31.500    0.4494
   31.530    0.4922
   31.560    0.5136
   31.590    0.3959
   31.620    0.4494
   31.650    0.5243
   31.680    0.4494
   31.710    0.5029
   31.740    0.3959
   31.770    0.5029
   31.800    0.4387
   31.830    0.4708
   31.860    0.5564
   31.890    0.5243
   31.920    0.3531
   31.950    0.3745
   31.980    0.4280
   32.010    0.5029
   32.040    0.4066
   32.070    0.4601
   32.100    0.4708
   32.130    0.3959
   32.160    0.4708
   32.190    0.3959
   32.220    0.5136
   32.250    0.5029
   32.280    0.4387
   32.310    0.5243
   32.340    0.4708
   32.370    0.4280
   32.400    0.4815
   32.430    0.4280
   32.460    0.3852
   32.490    0.5136
   32.520    0.4066
   32.550    0.3959
   32.580    0.5029
   32.610    0.6207
   32.640    0.7170
   32.670    0.5136
   32.700    0.5029
   32.730    0.4708
   32.760    0.4708
   32.790    0.3531
   32.820    0.4173
   32.850    0.4173
   32.880    0.4280
   32.910    0.4173
   32.940    0.3317
   32.970    0.3638
   33.000    0.5136
   33.030    0.4494
   33.060    0.4494
   33.090    0.4708
   33.120    0.4280
   33.150    0.3959
   33.180    0.5136
   33.210    0.3745
   33.240    0.3959
   33.270    0.4708
   33.300    0.4280
   33.330    0.4815
   33.360    0.3959
   33.390    0.4708
   33.420    0.4601
   33.450    0.4280
   33.480    0.5136
   33.510    0.5029
   33.540    0.5457
   33.570    0.4708
   33.600    0.4066
   33.630    0.4387
   33.660    0.4173
   33.690    0.3959
   33.720    0.5350
   33.750    0.6849
   33.780    0.7170
   33.810    0.4601
   33.840    0.3745
   33.870    0.5350
   33.900    0.3531
   33.930    0.4494
   33.960    0.3745
   33.990    0.4280
   34.020    0.3852
   34.050    0.3531
   34.080    0.4922
   34.110    0.5243
   34.140    0.3317
   34.170    0.5564
   34.200    0.3424
   34.230    0.3959
   34.260    0.4066
   34.290    0.4280
   34.320    0.4173
   34.350    0.3745
   34.380    0.3638
   34.410    0.3531
   34.440    0.3317
   34.470    0.3103
   34.500    0.4280
   34.530    0.3959
   34.560    0.3959
   34.590    0.3424
   34.620    0.2782
   34.650    0.3424
   34.680    0.2889
   34.710    0.3745
   34.740    0.4173
   34.770    0.4066
   34.800    0.3317
   34.830    0.3210
   34.860    0.3210
   34.890    0.3531
   34.920    0.3103
   34.950    0.4494
   34.980    0.3638
   35.010    0.3745
   35.040    0.3959
   35.070    0.3103
   35.100    0.3210
   35.130    0.3852
   35.160    0.4280
   35.190    0.3103
   35.220    0.3959
   35.250    0.4280
   35.280    0.2889
   35.310    0.3210
   35.340    0.3103
   35.370    0.3210
   35.400    0.3103
   35.430    0.3210
   35.460    0.3210
   35.490    0.2782
   35.520    0.3317
   35.550    0.3424
   35.580    0.3317
   35.610    0.3424
   35.640    0.4173
   35.670    0.3852
   35.700    0.4922
   35.730    0.3424
   35.760    0.3424
   35.790    0.3103
   35.820    0.3317
   35.850    0.3210
   35.880    0.3103
   35.910    0.2889
   35.940    0.4494
   35.970    0.3638
   36.000    0.2461
   36.030    0.2782
   36.060    0.4387
   36.090    0.2782
   36.120    0.3317
   36.150    0.3531
   36.180    0.3103
   36.210    0.3317
   36.240    0.1926
   36.270    0.2996
   36.300    0.3638
   36.330    0.3531
   36.360    0.3852
   36.390    0.2889
   36.420    0.3210
   36.450    0.3745
   36.480    0.3531
   36.510    0.3103
   36.540    0.3210
   36.570    0.2889
   36.600    0.3317
   36.630    0.2675
   36.660    0.2996
   36.690    0.2782
   36.720    0.2996
   36.750    0.3424
   36.780    0.3424
   36.810    0.3424
   36.840    0.2996
   36.870    0.3531
   36.900    0.3210
   36.930    0.2675
   36.960    0.2568
   36.990    0.2889
   37.020    0.2568
   37.050    0.3745
   37.080    0.4387
   37.110    0.2996
   37.140    0.3103
   37.170    0.3531
   37.200    0.2675
   37.230    0.3745
   37.260    0.2675
   37.290    0.3531
   37.320    0.2996
   37.350    0.2782
   37.380    0.3531
   37.410    0.4922
   37.440    0.7277
   37.470    0.6421
   37.500    0.4387
   37.530    0.3424
   37.560    0.2996
   37.590    0.2996
   37.620    0.3210
   37.650    0.3103
   37.680    0.2996
   37.710    0.3959
   37.740    0.2889
   37.770    0.3531
   37.800    0.2889
   37.830    0.2568
   37.860    0.2354
   37.890    0.3531
   37.920    0.3317
   37.950    0.3424
   37.980    0.3103
   38.010    0.3103
   38.040    0.2568
   38.070    0.2461
   38.100    0.2889
   38.130    0.2568
   38.160    0.3531
   38.190    0.2675
   38.220    0.2889
   38.250    0.3424
   38.280    0.3103
   38.310    0.3210
   38.340    0.2568
   38.370    0.2568
   38.400    0.2675
   38.430    0.3210
   38.460    0.3210
   38.490    0.3103
   38.520    0.3424
   38.550    0.3103
   38.580    0.2996
   38.610    0.3210
   38.640    0.3103
   38.670    0.3531
   38.700    0.2675
   38.730    0.2675
   38.760    0.2889
   38.790    0.2247
   38.820    0.2675
   38.850    0.2996
   38.880    0.3103
   38.910    0.3424
   38.940    0.2461
   38.970    0.2247
   39.000    0.2996
   39.030    0.2568
   39.060    0.2247
   39.090    0.2461
   39.120    0.2247
   39.150    0.2354
   39.180    0.1926
   39.210    0.2247
   39.240    0.2675
   39.270    0.2675
   39.300    0.2996
   39.330    0.3210
   39.360    0.3103
   39.390    0.2461
   39.420    0.2889
   39.450    0.3531
   39.480    0.4922
   39.510    0.2889
   39.540    0.2889
   39.570    0.2889
   39.600    0.2033
   39.630    0.2354
   39.660    0.3210
   39.690    0.2675
   39.720    0.2996
   39.750    0.2782
   39.780    0.2675
   39.810    0.2889
   39.840    0.2247
   39.870    0.3210
   39.900    0.2675
   39.930    0.2782
   39.960    0.3103
   39.990    0.2461