File: data/MOCOF-1/PXRD/PXRD_KE-328_Cu-Ka1_capillary-1mm_3s-deg.xyd
    1.500    4.4234
    1.545    4.5638
    1.590    4.1074
    1.635    4.1601
    1.680    4.1601
    1.725    4.0899
    1.770    4.1250
    1.815    4.2303
    1.860    4.4409
    1.905    4.5463
    1.950    4.7393
    1.995    4.5989
    2.040    4.9851
    2.085    5.0026
    2.130    4.9324
    2.175    4.7042
    2.220    5.0553
    2.265    4.9851
    2.310    5.3010
    2.355    5.6697
    2.400    5.3537
    2.445    5.9505
    2.490    5.7574
    2.535    6.7228
    2.580    6.1787
    2.625    7.3547
    2.670    7.3723
    2.715    8.1271
    2.760    8.9170
    2.805    9.6367
    2.850    9.4260
    2.895   10.2510
    2.940   10.9531
    2.985   12.1467
    3.030   12.6382
    3.075   13.1824
    3.120   15.4643
    3.165   17.2898
    3.210   19.2031
    3.255   22.5206
    3.300   26.7685
    3.345   30.8759
    3.390   37.3705
    3.435   37.9322
    3.480   25.3642
    3.525   15.7451
    3.570   11.5850
    3.615   10.5143
    3.660   10.7249
    3.705   10.6372
    3.750   11.1462
    3.795   12.8138
    3.840   13.4457
    3.885   15.4116
    3.930   16.2542
    3.975   16.5526
    4.020   17.6233
    4.065   16.9036
    4.110   15.6925
    4.155   12.7260
    4.200   10.9531
    4.245    8.9170
    4.290    6.8633
    4.335    5.5117
    4.380    4.9500
    4.425    4.1952
    4.470    3.7213
    4.515    3.6686
    4.560    2.7383
    4.605    3.4053
    4.650    2.9665
    4.695    2.6154
    4.740    2.8260
    4.785    2.6505
    4.830    2.8085
    4.875    2.4750
    4.920    2.5276
    4.965    2.7383
    5.010    3.0191
    5.055    2.5101
    5.100    2.7032
    5.145    2.5452
    5.190    2.2292
    5.235    2.5628
    5.280    2.5628
    5.325    2.6856
    5.370    2.5452
    5.415    2.3697
    5.460    2.5803
    5.505    2.8612
    5.550    2.2995
    5.595    2.1415
    5.640    2.4750
    5.685    2.7558
    5.730    2.4399
    5.775    2.5101
    5.820    2.8612
    5.865    2.1064
    5.910    2.3872
    5.955    2.3170
    6.000    2.1941
    6.045    2.2643
    6.090    2.4574
    6.135    2.4925
    6.180    2.6330
    6.225    2.6681
    6.270    2.5276
    6.315    2.6681
    6.360    2.5452
    6.405    2.5979
    6.450    2.7207
    6.495    2.9138
    6.540    2.5452
    6.585    2.9489
    6.630    3.1596
    6.675    3.3351
    6.720    4.1074
    6.765    4.3005
    6.810    4.7569
    6.855    5.4590
    6.900    6.6877
    6.945    5.7750
    6.990    4.2303
    7.035    3.4580
    7.080    2.6330
    7.125    3.0367
    7.170    2.8085
    7.215    2.1590
    7.260    2.7734
    7.305    2.2117
    7.350    2.2292
    7.395    2.4750
    7.440    2.6330
    7.485    2.7032
    7.530    2.9840
    7.575    2.4750
    7.620    2.7383
    7.665    2.7558
    7.710    3.0542
    7.755    2.8436
    7.800    3.1596
    7.845    2.9314
    7.890    3.4053
    7.935    3.2649
    7.980    3.6159
    8.025    3.7739
    8.070    3.9319
    8.115    3.5984
    8.160    3.5457
    8.205    3.7388
    8.250    3.5282
    8.295    3.7739
    8.340    3.4404
    8.385    3.6159
    8.430    3.3702
    8.475    3.0542
    8.520    2.8436
    8.565    2.8963
    8.610    3.0542
    8.655    3.0367
    8.700    2.7734
    8.745    2.6505
    8.790    2.7383
    8.835    2.3170
    8.880    2.4574
    8.925    2.3170
    8.970    2.4925
    9.015    2.3872
    9.060    2.5101
    9.105    1.8782
    9.150    2.0537
    9.195    2.3170
    9.240    2.5101
    9.285    2.1590
    9.330    2.3346
    9.375    2.0713
    9.420    2.3170
    9.465    2.4048
    9.510    2.1064
    9.555    2.1941
    9.600    2.2995
    9.645    2.1415
    9.690    2.1941
    9.735    2.4750
    9.780    2.5979
    9.825    2.1415
    9.870    2.2292
    9.915    2.1766
    9.960    2.3872
   10.005    2.1766
   10.050    1.8957
   10.095    2.1415
   10.140    2.4399
   10.185    2.2643
   10.230    2.4048
   10.275    2.3521
   10.320    2.6330
   10.365    2.3521
   10.410    2.5628
   10.455    2.4399
   10.500    2.2995
   10.545    2.0362
   10.590    2.1941
   10.635    2.0011
   10.680    1.9659
   10.725    2.3346
   10.770    2.2468
   10.815    2.2117
   10.860    2.1064
   10.905    2.1766
   10.950    2.1766
   10.995    2.3872
   11.040    2.1064
   11.085    2.3170
   11.130    1.9484
   11.175    2.1415
   11.220    2.4574
   11.265    2.1064
   11.310    2.1941
   11.355    1.8782
   11.400    2.1415
   11.445    2.3346
   11.490    2.3521
   11.535    2.1239
   11.580    2.2643
   11.625    2.1941
   11.670    2.5452
   11.715    2.2292
   11.760    2.5101
   11.805    2.6505
   11.850    2.2819
   11.895    2.2643
   11.940    2.0713
   11.985    2.2468
   12.030    2.3872
   12.075    2.3872
   12.120    2.3697
   12.165    2.3521
   12.210    2.0186
   12.255    2.2995
   12.300    2.3697
   12.345    2.4574
   12.390    2.3170
   12.435    2.2995
   12.480    2.5452
   12.525    2.2468
   12.570    2.4574
   12.615    2.3872
   12.660    2.3521
   12.705    2.3697
   12.750    2.2117
   12.795    2.2643
   12.840    2.2995
   12.885    2.4048
   12.930    2.1941
   12.975    2.4223
   13.020    2.2117
   13.065    2.0713
   13.110    2.2468
   13.155    2.3521
   13.200    2.5452
   13.245    2.5101
   13.290    2.5276
   13.335    2.2643
   13.380    2.1941
   13.425    2.4223
   13.470    2.4399
   13.515    2.7558
   13.560    2.0713
   13.605    2.4048
   13.650    2.2995
   13.695    2.4223
   13.740    2.5452
   13.785    2.1590
   13.830    2.4925
   13.875    2.6154
   13.920    2.2995
   13.965    2.2117
   14.010    2.3170
   14.055    2.0362
   14.100    2.0537
   14.145    1.8431
   14.190    2.2117
   14.235    2.0888
   14.280    2.0186
   14.325    2.0888
   14.370    2.3170
   14.415    2.0186
   14.460    2.1239
   14.505    2.1590
   14.550    2.0888
   14.595    2.1415
   14.640    2.1590
   14.685    1.9659
   14.730    2.2292
   14.775    2.0362
   14.820    2.1590
   14.865    2.1415
   14.910    2.2117
   14.955    1.9308
   15.000    1.9484
   15.045    2.1766
   15.090    2.2643
   15.135    2.2643
   15.180    2.1590
   15.225    2.0186
   15.270    2.2468
   15.315    2.0537
   15.360    2.0011
   15.405    2.1941
   15.450    2.0362
   15.495    2.4925
   15.540    2.1415
   15.585    2.0713
   15.630    1.9133
   15.675    2.1064
   15.720    2.2117
   15.765    1.8957
   15.810    2.3521
   15.855    2.2292
   15.900    2.1415
   15.945    2.3697
   15.990    2.5276
   16.035    2.1766
   16.080    2.1064
   16.125    2.3170
   16.170    2.1064
   16.215    1.8255
   16.260    2.2117
   16.305    2.0011
   16.350    2.1941
   16.395    1.9133
   16.440    2.0713
   16.485    2.0888
   16.530    1.8431
   16.575    2.1239
   16.620    1.8782
   16.665    2.0888
   16.710    2.0186
   16.755    2.2292
   16.800    2.1064
   16.845    2.3697
   16.890    2.1766
   16.935    2.2643
   16.980    1.9659
   17.025    2.4223
   17.070    2.2819
   17.115    2.1064
   17.160    2.2995
   17.205    2.4574
   17.250    1.9835
   17.295    2.1239
   17.340    2.1766
   17.385    2.3697
   17.430    2.2468
   17.475    2.0888
   17.520    2.1941
   17.565    1.9835
   17.610    2.2292
   17.655    1.9308
   17.700    2.3170
   17.745    2.2468
   17.790    2.0713
   17.835    2.2292
   17.880    2.3521
   17.925    2.1941
   17.970    2.1766
   18.015    2.4223
   18.060    2.0713
   18.105    2.3697
   18.150    2.5276
   18.195    2.2995
   18.240    1.9484
   18.285    1.9308
   18.330    1.8957
   18.375    2.2292
   18.420    2.1766
   18.465    2.1064
   18.510    2.1766
   18.555    2.0713
   18.600    2.0888
   18.645    2.2468
   18.690    2.0362
   18.735    2.1590
   18.780    2.4574
   18.825    2.2819
   18.870    2.3521
   18.915    2.0537
   18.960    2.4048
   19.005    2.2819
   19.050    2.0537
   19.095    2.0713
   19.140    2.0362
   19.185    2.2643
   19.230    2.2643
   19.275    2.3872
   19.320    2.3521
   19.365    2.1239
   19.410    2.1590
   19.455    2.1590
   19.500    2.2117
   19.545    2.2292
   19.590    2.3872
   19.635    2.6330
   19.680    2.4925
   19.725    2.6154
   19.770    2.3872
   19.815    2.5276
   19.860    2.2292
   19.905    2.0888
   19.950    2.7207
   19.995    2.4574
   20.040    2.4574
   20.085    2.2292
   20.130    2.5452
   20.175    2.3170
   20.220    2.2819
   20.265    2.5101
   20.310    2.2292
   20.355    2.4223
   20.400    2.3346
   20.445    2.4574
   20.490    2.6681
   20.535    2.4574
   20.580    2.5803
   20.625    2.3697
   20.670    2.2468
   20.715    1.9835
   20.760    2.1941
   20.805    2.2292
   20.850    2.4399
   20.895    2.2468
   20.940    2.2468
   20.985    2.7558
   21.030    2.2819
   21.075    2.0713
   21.120    2.5979
   21.165    2.5276
   21.210    2.6154
   21.255    2.5628
   21.300    2.1590
   21.345    2.4048
   21.390    2.1766
   21.435    2.6330
   21.480    2.3170
   21.525    2.4574
   21.570    2.4048
   21.615    2.2643
   21.660    2.4750
   21.705    2.2819
   21.750    2.1415
   21.795    2.4223
   21.840    2.4399
   21.885    2.6154
   21.930    2.0537
   21.975    2.2468
   22.020    2.2643
   22.065    2.1239
   22.110    2.2468
   22.155    2.0713
   22.200    2.1766
   22.245    2.7558
   22.290    2.4048
   22.335    2.4574
   22.380    2.0713
   22.425    2.2643
   22.470    2.4574
   22.515    2.3346
   22.560    2.4574
   22.605    2.4750
   22.650    2.3697
   22.695    2.4574
   22.740    2.1941
   22.785    2.5979
   22.830    2.0362
   22.875    2.7383
   22.920    2.3872
   22.965    2.5452
   23.010    2.2468
   23.055    2.5803
   23.100    2.4925
   23.145    2.5452
   23.190    2.5452
   23.235    2.2995
   23.280    2.1239
   23.325    2.4925
   23.370    2.2468
   23.415    2.6681
   23.460    2.0713
   23.505    2.3521
   23.550    2.2292
   23.595    2.4925
   23.640    2.2995
   23.685    2.4399
   23.730    2.0713
   23.775    2.3170
   23.820    2.5101
   23.865    2.3872
   23.910    2.3697
   23.955    2.0011
   24.000    2.5452
   24.045    2.1590
   24.090    2.4048
   24.135    2.1766
   24.180    2.4223
   24.225    2.0713
   24.270    2.2468
   24.315    2.4399
   24.360    2.3170
   24.405    2.0186
   24.450    2.4223
   24.495    2.2292
   24.540    2.1415
   24.585    2.1590
   24.630    2.2819
   24.675    2.3521
   24.720    2.5276
   24.765    2.3872
   24.810    2.0011
   24.855    2.4223
   24.900    2.1941
   24.945    1.9835
   24.990    1.9835
   25.035    2.1590
   25.080    2.3170
   25.125    2.1239
   25.170    2.2117
   25.215    2.1064
   25.260    2.2292
   25.305    1.9308
   25.350    2.1064
   25.395    2.3697
   25.440    2.1590
   25.485    2.2292
   25.530    1.9659
   25.575    2.2819
   25.620    2.2117
   25.665    2.0186
   25.710    2.2292
   25.755    2.1941
   25.800    2.2292
   25.845    2.2117
   25.890    2.5101
   25.935    2.3521
   25.980    2.2292
   26.025    1.8606
   26.070    2.1064
   26.115    1.9484
   26.160    2.0186
   26.205    2.1941
   26.250    2.0362
   26.295    2.1766
   26.340    2.0537
   26.385    2.3521
   26.430    2.0011
   26.475    2.1590
   26.520    2.0011
   26.565    2.2117
   26.610    2.0537
   26.655    2.0011
   26.700    2.1590
   26.745    2.1766
   26.790    1.9133
   26.835    1.8255
   26.880    2.0362
   26.925    1.8080
   26.970    2.0011
   27.015    2.2292
   27.060    1.9835
   27.105    1.8606
   27.150    1.8957
   27.195    2.3170
   27.240    2.0537
   27.285    1.8431
   27.330    1.9484
   27.375    2.0186
   27.420    1.9835
   27.465    1.9659
   27.510    1.9835
   27.555    2.2643
   27.600    2.1766
   27.645    1.8957
   27.690    1.8431
   27.735    1.9308
   27.780    1.9484
   27.825    1.7729
   27.870    1.9308
   27.915    1.9308
   27.960    1.9835
   28.005    2.1239
   28.050    1.8431
   28.095    2.1941
   28.140    2.0713
   28.185    2.0011
   28.230    2.2819
   28.275    2.1064
   28.320    2.0713
   28.365    2.1941
   28.410    1.9835
   28.455    1.9835
   28.500    1.9308
   28.545    2.1239
   28.590    2.0537
   28.635    1.9308
   28.680    2.1590
   28.725    1.7729
   28.770    2.0537
   28.815    1.9659
   28.860    1.7027
   28.905    2.2468
   28.950    1.8957
   28.995    1.7202
   29.040    1.8606
   29.085    1.9133
   29.130    1.8080
   29.175    2.0186
   29.220    1.9484
   29.265    2.0186
   29.310    1.9659
   29.355    2.0537
   29.400    1.8255
   29.445    1.7553
   29.490    1.5622
   29.535    2.1239
   29.580    1.8782
   29.625    1.9133
   29.670    1.7729
   29.715    2.0011
   29.760    2.0186
   29.805    1.7553
   29.850    1.7729
   29.895    2.1064
   29.940    1.8080
   29.985    1.9133
   30.030    1.5447
   30.075    1.8431
   30.120    1.9308
   30.165    1.8080
   30.210    1.8431
   30.255    1.8431
   30.300    1.7027
   30.345    1.9308
   30.390    2.1590
   30.435    1.5271
   30.480    2.0888
   30.525    1.7378
   30.570    2.0011
   30.615    1.6851
   30.660    1.8782
   30.705    1.8255
   30.750    1.7553
   30.795    1.7729
   30.840    1.7202
   30.885    2.0011
   30.930    1.7553
   30.975    1.6675
   31.020    1.8957
   31.065    1.9484
   31.110    1.5973
   31.155    1.6675
   31.200    1.9308
   31.245    1.8255
   31.290    1.8957
   31.335    1.5798
   31.380    1.9308
   31.425    1.8431
   31.470    1.9133
   31.515    1.7027
   31.560    1.6500
   31.605    1.8957
   31.650    1.7729
   31.695    1.7202
   31.740    1.6500
   31.785    1.6149
   31.830    1.7553
   31.875    1.7202
   31.920    1.5271
   31.965    1.7202
   32.010    1.6149
   32.055    1.8080
   32.100    1.7904
   32.145    1.7027
   32.190    1.6675
   32.235    1.5622
   32.280    1.6675
   32.325    1.6324
   32.370    1.7202
   32.415    1.8782
   32.460    1.8782
   32.505    1.6500
   32.550    1.7027
   32.595    1.7378
   32.640    1.6149
   32.685    1.7378
   32.730    1.5973
   32.775    1.9835
   32.820    1.3867
   32.865    1.4218
   32.910    1.6149
   32.955    1.6675
   33.000    1.4920
   33.045    1.6675
   33.090    1.8080
   33.135    2.0713
   33.180    1.5271
   33.225    1.8782
   33.270    1.4745
   33.315    1.7904
   33.360    1.6500
   33.405    1.7904
   33.450    1.2989
   33.495    1.6851
   33.540    1.4920
   33.585    1.2814
   33.630    1.4218
   33.675    1.4920
   33.720    1.5271
   33.765    1.2989
   33.810    1.3340
   33.855    1.4745
   33.900    1.4569
   33.945    1.5271
   33.990    1.5447
   34.035    1.2814
   34.080    1.4042
   34.125    1.4394
   34.170    1.5622
   34.215    1.5096
   34.260    1.5096
   34.305    1.4920
   34.350    1.6149
   34.395    1.4042
   34.440    1.4218
   34.485    1.4394
   34.530    1.4218
   34.575    1.3867
   34.620    1.4394
   34.665    1.3867
   34.710    1.5096
   34.755    1.7378
   34.800    1.4394
   34.845    1.3516
   34.890    1.1410
   34.935    1.3340
   34.980    1.6851
   35.025    1.5271
   35.070    1.6500
   35.115    1.3516
   35.160    1.4920
   35.205    1.2463
   35.250    1.5096
   35.295    1.3165
   35.340    1.4745
   35.385    1.4745
   35.430    1.7904
   35.475    1.4920
   35.520    1.3867
   35.565    1.3691
   35.610    1.2463
   35.655    1.3165
   35.700    1.3691
   35.745    1.3867
   35.790    1.3340
   35.835    1.4218
   35.880    1.2989
   35.925    1.2814
   35.970    1.3691
   36.015    1.3516
   36.060    1.3867
   36.105    1.3867
   36.150    1.1058
   36.195    1.3165
   36.240    1.2287
   36.285    1.2112
   36.330    1.2112
   36.375    1.1936
   36.420    1.3516
   36.465    1.3340
   36.510    1.1058
   36.555    1.3867
   36.600    1.1058
   36.645    1.0707
   36.690    1.2112
   36.735    1.3691
   36.780    1.2287
   36.825    1.4042
   36.870    1.4218
   36.915    1.4042
   36.960    1.2814
   37.005    1.2112
   37.050    1.2463
   37.095    1.1936
   37.140    1.2638
   37.185    1.2287
   37.230    1.2463
   37.275    1.2814
   37.320    1.1761
   37.365    1.2989
   37.410    1.1936
   37.455    1.1058
   37.500    1.1058
   37.545    1.1585
   37.590    1.3340
   37.635    1.1936
   37.680    1.2989
   37.725    1.3165
   37.770    1.0707
   37.815    1.1936
   37.860    1.3165
   37.905    1.2463
   37.950    1.1936
   37.995    1.1410
   38.040    1.3867
   38.085    1.3867
   38.130    1.2638
   38.175    1.1585
   38.220    1.1936
   38.265    1.0883
   38.310    1.1234
   38.355    1.1410
   38.400    1.2112
   38.445    1.2287
   38.490    1.1761
   38.535    1.2463
   38.580    1.2814
   38.625    1.1058
   38.670    1.2463
   38.715    1.2814
   38.760    1.1936
   38.805    1.0883
   38.850    1.5096
   38.895    1.3691
   38.940    1.1585
   38.985    0.8250
   39.030    1.2463
   39.075    1.0883
   39.120    1.3867
   39.165    1.0532
   39.210    1.4920
   39.255    1.2989
   39.300    1.5096
   39.345    1.2989
   39.390    1.1234
   39.435    1.0181
   39.480    1.2638
   39.525    1.0707
   39.570    1.0707
   39.615    1.1936
   39.660    1.1234
   39.705    1.0883
   39.750    1.2814
   39.795    1.1585
   39.840    1.2814
   39.885    1.3165
   39.930    1.0707
   39.975    1.1585
   40.020    1.0883
   40.065    1.1936
   40.110    1.2814
   40.155    1.1585
   40.200    1.2287
   40.245    1.0181
   40.290    1.0707
   40.335    1.0356
   40.380    1.3165
   40.425    1.2814
   40.470    1.0356
   40.515    1.2112
   40.560    1.2814
   40.605    1.1234
   40.650    1.1936
   40.695    1.2989
   40.740    1.0883
   40.785    1.2112
   40.830    1.2112
   40.875    1.0356
   40.920    1.2287
   40.965    1.1410
   41.010    1.2638
   41.055    1.2287
   41.100    0.9479
   41.145    1.2112
   41.190    1.0707
   41.235    1.3691
   41.280    1.1936
   41.325    0.9654
   41.370    1.0005
   41.415    1.4569
   41.460    1.3340
   41.505    1.0356
   41.550    1.2638
   41.595    0.9830
   41.640    1.2989
   41.685    1.2287
   41.730    0.9830
   41.775    1.0356
   41.820    1.0005
   41.865    1.1936
   41.910    1.0181
   41.955    1.2112
   42.000    1.1234
   42.045    1.0532
   42.090    1.2287
   42.135    1.2112
   42.180    1.1410
   42.225    1.1761
   42.270    1.1058
   42.315    1.0707
   42.360    1.0532
   42.405    1.0181
   42.450    1.1410
   42.495    1.2638
   42.540    1.3516
   42.585    1.0181
   42.630    1.1234
   42.675    0.9654
   42.720    1.0005
   42.765    1.2112
   42.810    1.2463
   42.855    1.0005
   42.900    1.1058
   42.945    0.9479
   42.990    1.1585
   43.035    1.1058
   43.080    1.1410
   43.125    0.9479
   43.170    1.1058
   43.215    0.9128
   43.260    1.2112
   43.305    1.3691
   43.350    1.2814
   43.395    1.2287
   43.440    1.1761
   43.485    1.2638
   43.530    1.0883
   43.575    1.2989
   43.620    0.8074
   43.665    1.1585
   43.710    1.2814
   43.755    1.1234
   43.800    1.1410
   43.845    1.1058
   43.890    1.2463
   43.935    1.1761
   43.980    1.2287
   44.025    1.1585
   44.070    1.2112
   44.115    1.0005
   44.160    1.1585
   44.205    1.0005
   44.250    1.2989
   44.295    0.9479
   44.340    1.0181
   44.385    1.2638
   44.430    1.1410
   44.475    0.9654
   44.520    0.8425
   44.565    0.8777
   44.610    1.2287
   44.655    1.1585
   44.700    1.0883
   44.745    1.1234
   44.790    1.2287
   44.835    1.2287
   44.880    0.8952
   44.925    1.1761
   44.970    0.9303
   45.015    1.1058
   45.060    1.0883
   45.105    1.0356
   45.150    1.2638
   45.195    1.0532
   45.240    1.2989
   45.285    1.0181
   45.330    0.9830
   45.375    1.0707
   45.420    1.1410
   45.465    1.4042
   45.510    1.0707
   45.555    0.9830
   45.600    0.9830
   45.645    1.0707
   45.690    1.0707
   45.735    1.0356
   45.780    1.1410
   45.825    0.9479
   45.870    0.8777
   45.915    1.1058
   45.960    1.0532
   46.005    1.0707
   46.050    1.3340
   46.095    1.0707
   46.140    1.1410
   46.185    0.9303
   46.230    1.0356
   46.275    1.0005
   46.320    0.9654
   46.365    1.0883
   46.410    0.9128
   46.455    1.0005
   46.500    1.1761
   46.545    0.9830
   46.590    1.0707
   46.635    1.2463
   46.680    0.9830
   46.725    0.9479
   46.770    0.8425
   46.815    1.0532
   46.860    0.9654
   46.905    0.8250
   46.950    1.1585
   46.995    1.1410
   47.040    0.8952
   47.085    0.9303
   47.130    1.3165
   47.175    1.1936
   47.220    1.0356
   47.265    1.0356
   47.310    1.1058
   47.355    0.9830
   47.400    1.0532
   47.445    0.9654
   47.490    1.0181
   47.535    0.7548
   47.580    1.0181
   47.625    0.9654
   47.670    0.7899
   47.715    1.0181
   47.760    0.9303
   47.805    1.1058
   47.850    1.1585
   47.895    0.8777
   47.940    1.0005
   47.985    1.0181
   48.030    0.7548
   48.075    0.9303
   48.120    1.1234
   48.165    0.8601
   48.210    1.0005
   48.255    1.0883
   48.300    1.1058
   48.345    0.8425
   48.390    0.9654
   48.435    0.9303
   48.480    1.0707
   48.525    0.9303
   48.570    0.8952
   48.615    1.0005
   48.660    1.0883
   48.705    1.0181
   48.750    1.0181
   48.795    1.0532
   48.840    0.8074
   48.885    0.9830
   48.930    1.2287
   48.975    0.8777
   49.020    1.0532
   49.065    1.2989
   49.110    1.1058
   49.155    1.1410
   49.200    1.1234
   49.245    1.0181
   49.290    0.8777
   49.335    1.0532
   49.380    1.0707
   49.425    1.0005
   49.470    0.8074
   49.515    1.3165
   49.560    0.9830
   49.605    1.0356
   49.650    0.9479
   49.695    0.8777
   49.740    0.9479
   49.785    0.8425
   49.830    0.9303
   49.875    0.9303
   49.920    0.9303
   49.965    0.9479
   49.980    1.0356