File: data/MOCOF-1/PXRD/PXRD_KE-305-4B_Cu-Ka1_capillary-1mm_3s-deg.xyd
    1.500   15.3063
    1.545   15.1834
    1.590   14.9728
    1.635   13.1297
    1.680   13.3755
    1.725   12.8840
    1.770   12.9191
    1.815   12.7260
    1.860   12.1467
    1.905   11.6377
    1.950   11.4797
    1.995   11.1462
    2.040   10.9707
    2.085   11.2866
    2.130   10.4090
    2.175   10.0930
    2.220   10.0755
    2.265    9.7771
    2.310    9.9175
    2.355   10.1983
    2.400    9.9526
    2.445    9.8122
    2.490    9.9175
    2.535   10.3212
    2.580   10.5319
    2.625   10.0755
    2.670   10.2159
    2.715   10.6898
    2.760   11.2340
    2.805   12.1116
    2.850   12.2170
    2.895   13.0068
    2.940   13.1473
    2.985   13.2526
    3.030   13.8318
    3.075   14.2531
    3.120   15.0606
    3.165   15.7276
    3.210   17.0090
    3.255   18.5712
    3.300   19.5893
    3.345   20.5196
    3.390   22.5031
    3.435   25.0658
    3.480   27.7163
    3.525   30.1913
    3.570   35.1062
    3.615   39.9860
    3.660   47.2003
    3.705   56.8545
    3.750   69.8087
    3.795   98.5958
    3.840  140.5828
    3.885   82.0783
    3.930   21.4850
    3.975    9.2329
    4.020    7.5127
    4.065    6.8106
    4.110    6.2138
    4.155    6.2138
    4.200    6.4069
    4.245    5.3010
    4.290    5.6521
    4.335    6.0032
    4.380    6.0207
    4.425    5.1080
    4.470    6.0032
    4.515    5.5994
    4.560    5.8276
    4.605    6.5824
    4.650    6.3016
    4.695    6.3016
    4.740    6.5122
    4.785    6.8808
    4.830    6.7404
    4.875    7.2670
    4.920    7.1617
    4.965    8.9521
    5.010    8.8994
    5.055    9.4787
    5.100   10.2510
    5.145   11.0233
    5.190   12.6382
    5.235   14.1127
    5.280   15.9733
    5.325   19.8701
    5.370   25.1711
    5.415   34.1232
    5.460   48.2535
    5.505   32.5259
    5.550   10.7952
    5.595    5.9681
    5.640    5.3010
    5.685    5.1255
    5.730    4.9500
    5.775    5.3186
    5.820    5.0377
    5.865    4.5111
    5.910    4.9675
    5.955    4.8447
    6.000    4.9851
    6.045    4.8447
    6.090    4.9675
    6.135    4.7218
    6.180    4.9500
    6.225    5.0377
    6.270    5.5819
    6.315    5.9505
    6.360    6.1436
    6.405    6.4595
    6.450    6.6351
    6.495    7.2494
    6.540    7.7058
    6.585    8.8643
    6.630   11.0058
    6.675   13.9372
    6.720   16.7632
    6.765   10.5670
    6.810    5.8276
    6.855    5.0377
    6.900    4.2303
    6.945    4.5111
    6.990    4.6516
    7.035    4.4936
    7.080    4.3707
    7.125    4.6340
    7.170    4.7744
    7.215    4.7393
    7.260    4.6867
    7.305    4.6867
    7.350    4.8447
    7.395    4.8798
    7.440    5.5117
    7.485    5.4590
    7.530    5.8978
    7.575    6.0207
    7.620    6.8106
    7.665    7.5654
    7.710    8.8117
    7.755   11.9888
    7.800   10.0579
    7.845    5.7925
    7.890    5.0202
    7.935    4.3883
    7.980    4.5287
    8.025    4.4760
    8.070    5.0553
    8.115    4.3532
    8.160    4.3883
    8.205    4.6340
    8.250    4.3005
    8.295    5.0904
    8.340    4.3005
    8.385    4.6691
    8.430    4.4409
    8.475    4.7744
    8.520    4.5287
    8.565    4.5638
    8.610    5.1255
    8.655    5.2308
    8.700    5.8627
    8.745    4.9324
    8.790    4.2127
    8.835    4.2478
    8.880    4.4234
    8.925    4.7393
    8.970    4.8095
    9.015    4.4936
    9.060    4.6340
    9.105    4.8798
    9.150    5.5819
    9.195    5.3361
    9.240    6.1436
    9.285    6.6351
    9.330    7.1266
    9.375    8.4430
    9.420   10.6021
    9.465   13.7090
    9.510   19.3962
    9.555   18.1850
    9.600    9.5313
    9.645    5.1606
    9.690    4.6340
    9.735    4.4585
    9.780    4.3005
    9.825    4.3005
    9.870    4.3181
    9.915    4.4936
    9.960    4.9324
   10.005    4.8447
   10.050    5.1080
   10.095    4.5287
   10.140    5.4415
   10.185    6.1085
   10.230    7.4952
   10.275    9.7946
   10.320    9.4611
   10.365    6.5298
   10.410    4.6516
   10.455    4.4409
   10.500    4.2654
   10.545    4.6165
   10.590    4.4585
   10.635    4.1425
   10.680    4.9675
   10.725    4.2303
   10.770    4.8447
   10.815    5.0377
   10.860    4.7569
   10.905    5.4415
   10.950    6.3718
   10.995    8.3202
   11.040    8.0218
   11.085    5.6521
   11.130    4.5111
   11.175    4.5287
   11.220    4.2478
   11.265    4.1250
   11.310    4.0372
   11.355    4.5638
   11.400    4.2654
   11.445    4.4234
   11.490    4.8095
   11.535    4.7218
   11.580    5.4064
   11.625    6.7579
   11.670    8.1797
   11.715    8.7239
   11.760    6.1787
   11.805    4.6691
   11.850    4.2478
   11.895    3.9143
   11.940    3.6862
   11.985    3.7564
   12.030    3.6510
   12.075    3.9319
   12.120    4.1601
   12.165    3.8266
   12.210    4.2127
   12.255    4.3883
   12.300    4.5989
   12.345    4.7042
   12.390    4.6165
   12.435    3.6686
   12.480    3.9494
   12.525    4.2127
   12.570    3.7915
   12.615    4.0723
   12.660    3.8441
   12.705    4.1425
   12.750    4.3883
   12.795    4.8095
   12.840    5.1080
   12.885    6.0207
   12.930    7.0915
   12.975    6.2840
   13.020    5.3010
   13.065    4.1425
   13.110    3.6335
   13.155    3.7915
   13.200    4.1601
   13.245    3.9319
   13.290    3.7037
   13.335    3.9143
   13.380    4.1425
   13.425    4.7744
   13.470    4.8798
   13.515    5.6697
   13.560    5.0553
   13.605    4.0021
   13.650    4.1601
   13.695    4.0899
   13.740    4.0548
   13.785    4.1601
   13.830    4.4234
   13.875    3.8968
   13.920    4.2830
   13.965    4.7393
   14.010    5.1782
   14.055    6.3542
   14.100    6.8457
   14.145    5.4415
   14.190    4.1250
   14.235    4.1776
   14.280    3.8617
   14.325    3.6159
   14.370    4.0548
   14.415    4.2303
   14.460    4.1074
   14.505    4.0021
   14.550    4.1074
   14.595    3.8792
   14.640    4.1425
   14.685    3.8090
   14.730    3.3351
   14.775    3.6335
   14.820    3.7388
   14.865    3.5984
   14.910    3.8441
   14.955    3.9143
   15.000    4.0372
   15.045    3.8266
   15.090    4.3707
   15.135    4.2654
   15.180    4.1601
   15.225    3.6159
   15.270    4.1250
   15.315    3.8792
   15.360    3.4931
   15.405    3.6335
   15.450    3.9143
   15.495    3.7388
   15.540    3.6862
   15.585    3.8968
   15.630    3.9319
   15.675    3.7915
   15.720    3.6862
   15.765    3.7915
   15.810    3.6510
   15.855    3.5633
   15.900    3.7739
   15.945    3.7915
   15.990    3.9670
   16.035    4.2478
   16.080    4.2478
   16.125    4.4936
   16.170    4.1074
   16.215    3.7213
   16.260    3.8792
   16.305    3.3526
   16.350    3.8090
   16.395    3.8968
   16.440    4.0899
   16.485    4.1601
   16.530    4.0372
   16.575    4.7920
   16.620    3.8968
   16.665    4.3181
   16.710    4.0899
   16.755    3.9494
   16.800    3.8792
   16.845    4.2303
   16.890    4.3883
   16.935    4.4409
   16.980    5.1782
   17.025    5.8978
   17.070    5.7048
   17.115    4.8798
   17.160    4.2127
   17.205    4.2830
   17.250    3.8090
   17.295    3.8617
   17.340    3.8968
   17.385    3.8968
   17.430    4.0372
   17.475    4.2303
   17.520    4.8798
   17.565    4.0723
   17.610    3.8968
   17.655    4.0723
   17.700    3.8441
   17.745    3.8441
   17.790    4.1952
   17.835    3.8266
   17.880    3.7739
   17.925    4.2478
   17.970    4.2303
   18.015    4.3181
   18.060    3.4229
   18.105    3.9670
   18.150    3.5457
   18.195    3.4580
   18.240    3.8090
   18.285    4.3532
   18.330    4.0372
   18.375    4.5814
   18.420    4.0899
   18.465    4.4409
   18.510    3.9143
   18.555    3.9143
   18.600    3.7388
   18.645    3.8441
   18.690    4.2478
   18.735    3.8617
   18.780    3.8617
   18.825    4.3181
   18.870    4.0021
   18.915    4.2127
   18.960    3.8441
   19.005    3.9143
   19.050    4.0723
   19.095    3.7037
   19.140    3.9319
   19.185    4.0548
   19.230    3.9846
   19.275    3.7739
   19.320    3.8441
   19.365    3.9494
   19.410    3.8617
   19.455    4.0021
   19.500    4.2830
   19.545    4.2303
   19.590    4.4585
   19.635    4.2478
   19.680    3.7915
   19.725    4.1601
   19.770    4.0372
   19.815    3.7915
   19.860    4.0548
   19.905    3.8441
   19.950    3.9319
   19.995    4.1425
   20.040    4.3181
   20.085    4.2303
   20.130    4.1601
   20.175    3.8441
   20.220    4.5638
   20.265    4.4058
   20.310    5.0553
   20.355    5.4239
   20.400    5.7574
   20.445    5.2308
   20.490    4.1952
   20.535    4.3181
   20.580    4.1250
   20.625    4.0899
   20.670    4.3181
   20.715    4.4234
   20.760    3.7915
   20.805    4.1601
   20.850    3.6686
   20.895    3.6159
   20.940    4.0548
   20.985    4.1074
   21.030    3.7388
   21.075    3.8617
   21.120    3.6510
   21.165    3.7915
   21.210    3.9846
   21.255    4.1952
   21.300    3.9143
   21.345    3.5457
   21.390    4.0021
   21.435    4.1776
   21.480    3.7564
   21.525    4.0021
   21.570    3.5457
   21.615    4.0021
   21.660    4.1425
   21.705    3.5457
   21.750    3.9494
   21.795    3.8968
   21.840    4.1250
   21.885    4.3532
   21.930    4.4760
   21.975    4.0372
   22.020    4.0021
   22.065    4.0372
   22.110    3.8617
   22.155    4.2478
   22.200    4.1952
   22.245    4.3707
   22.290    3.8441
   22.335    3.8617
   22.380    3.9319
   22.425    4.1776
   22.470    4.7569
   22.515    4.8973
   22.560    5.3361
   22.605    5.5117
   22.650    4.8973
   22.695    4.1776
   22.740    4.3356
   22.785    4.3532
   22.830    4.5814
   22.875    6.0558
   22.920    5.8978
   22.965    5.4766
   23.010    4.9149
   23.055    4.2830
   23.100    3.9143
   23.145    4.2303
   23.190    4.4058
   23.235    4.6867
   23.280    4.2127
   23.325    4.1776
   23.370    3.9319
   23.415    3.9846
   23.460    4.2478
   23.505    4.2303
   23.550    3.8090
   23.595    4.1250
   23.640    3.8090
   23.685    4.0723
   23.730    3.7213
   23.775    3.5633
   23.820    4.1074
   23.865    4.0723
   23.910    4.4760
   23.955    4.4409
   24.000    4.1776
   24.045    3.8090
   24.090    3.9846
   24.135    3.7388
   24.180    4.0197
   24.225    3.6159
   24.270    3.5282
   24.315    3.8441
   24.360    3.5457
   24.405    4.1425
   24.450    4.0021
   24.495    4.0197
   24.540    3.9319
   24.585    3.8617
   24.630    3.9143
   24.675    3.9143
   24.720    4.3707
   24.765    3.9670
   24.810    3.7564
   24.855    3.6159
   24.900    4.0021
   24.945    3.7739
   24.990    3.7739
   25.035    3.4229
   25.080    3.7037
   25.125    3.8968
   25.170    4.0548
   25.215    4.1425
   25.260    3.9494
   25.305    4.0197
   25.350    3.7213
   25.395    4.0197
   25.440    3.7388
   25.485    4.2478
   25.530    4.1776
   25.575    3.9143
   25.620    4.1074
   25.665    3.9846
   25.710    4.2303
   25.755    4.2654
   25.800    5.0026
   25.845    5.1431
   25.890    4.7042
   25.935    3.7739
   25.980    3.8617
   26.025    4.0021
   26.070    3.5633
   26.115    3.8792
   26.160    3.6159
   26.205    3.9670
   26.250    3.4053
   26.295    3.5984
   26.340    3.8792
   26.385    4.3005
   26.430    4.1776
   26.475    3.6510
   26.520    3.8792
   26.565    3.5808
   26.610    3.4755
   26.655    3.4053
   26.700    3.6510
   26.745    3.9846
   26.790    3.7037
   26.835    3.7037
   26.880    3.7037
   26.925    3.8441
   26.970    4.2830
   27.015    4.1952
   27.060    3.9143
   27.105    4.0021
   27.150    3.7915
   27.195    4.2830
   27.240    3.1947
   27.285    3.4404
   27.330    3.7037
   27.375    3.5633
   27.420    3.5984
   27.465    3.6862
   27.510    3.8441
   27.555    4.0723
   27.600    3.8441
   27.645    4.0548
   27.690    3.6862
   27.735    3.5106
   27.780    3.6159
   27.825    3.6510
   27.870    3.9846
   27.915    3.4931
   27.960    3.4755
   28.005    3.2298
   28.050    3.6159
   28.095    4.1601
   28.140    4.1952
   28.185    3.8617
   28.230    3.8617
   28.275    3.8968
   28.320    3.5808
   28.365    3.6862
   28.410    3.9670
   28.455    3.9494
   28.500    4.2303
   28.545    3.7915
   28.590    3.3877
   28.635    3.3175
   28.680    3.8617
   28.725    3.3175
   28.770    3.6159
   28.815    3.4931
   28.860    3.5984
   28.905    3.3351
   28.950    3.2649
   28.995    3.7213
   29.040    3.5808
   29.085    3.7037
   29.130    3.7739
   29.175    3.3175
   29.220    3.9494
   29.265    3.8968
   29.310    4.3532
   29.355    3.8441
   29.400    3.8090
   29.445    3.4229
   29.490    3.6510
   29.535    3.3526
   29.580    3.3175
   29.625    3.5282
   29.670    3.2298
   29.715    3.4931
   29.760    3.9846
   29.805    3.5282
   29.850    3.5984
   29.895    3.4404
   29.940    3.1947
   29.985    3.6510
   30.030    3.4931
   30.075    3.9319
   30.120    3.8266
   30.165    3.7564
   30.210    3.6686
   30.255    3.2298
   30.300    3.6510
   30.345    3.4053
   30.390    3.1069
   30.435    3.8968
   30.480    3.3351
   30.525    3.3877
   30.570    3.2824
   30.615    3.4229
   30.660    3.5984
   30.705    3.3351
   30.750    3.8792
   30.795    3.5808
   30.840    3.0016
   30.885    3.3351
   30.930    3.4755
   30.975    3.3526
   31.020    3.4404
   31.065    3.5106
   31.110    3.4931
   31.155    3.3877
   31.200    3.3351
   31.245    3.1947
   31.290    3.1947
   31.335    3.4053
   31.380    3.5633
   31.425    3.3000
   31.470    3.2298
   31.515    3.1245
   31.560    3.4404
   31.605    3.2298
   31.650    3.2824
   31.695    3.5457
   31.740    3.3351
   31.785    3.2122
   31.830    3.2298
   31.875    3.2649
   31.920    3.5282
   31.965    3.2473
   32.010    3.6335
   32.055    3.1420
   32.100    3.0893
   32.145    3.5106
   32.190    3.2649
   32.235    3.4229
   32.280    2.9840
   32.325    2.9665
   32.370    3.3702
   32.415    3.3000
   32.460    3.0016
   32.505    3.0893
   32.550    3.0893
   32.595    2.8787
   32.640    3.2824
   32.685    3.1420
   32.730    3.1069
   32.775    3.2824
   32.820    3.2473
   32.865    3.4580
   32.910    3.3526
   32.955    3.5282
   33.000    3.2122
   33.045    3.1771
   33.090    2.9314
   33.135    3.4931
   33.180    3.3526
   33.225    3.0191
   33.270    3.2298
   33.315    3.3702
   33.360    3.1245
   33.405    3.1245
   33.450    3.1069
   33.495    3.1069
   33.540    3.2298
   33.585    2.9314
   33.630    3.0718
   33.675    3.0016
   33.720    3.2122
   33.765    2.8787
   33.810    3.3526
   33.855    3.0893
   33.900    3.0367
   33.945    3.7037
   33.990    2.9665
   34.035    3.3175
   34.080    3.1245
   34.125    3.5106
   34.170    3.4053
   34.215    2.9314
   34.260    3.0016
   34.305    3.2473
   34.350    2.8963
   34.395    3.1245
   34.440    3.0893
   34.485    2.8787
   34.530    3.1069
   34.575    3.0016
   34.620    2.9665
   34.665    2.8260
   34.710    2.9840
   34.755    3.5808
   34.800    3.1245
   34.845    3.2298
   34.890    3.0718
   34.935    3.1245
   34.980    2.8260
   35.025    3.0191
   35.070    3.1771
   35.115    3.1420
   35.160    3.0016
   35.205    2.7909
   35.250    3.2298
   35.295    3.0542
   35.340    3.1771
   35.385    2.6681
   35.430    2.8963
   35.475    3.0542
   35.520    3.1069
   35.565    3.0191
   35.610    2.8612
   35.655    2.9665
   35.700    2.9314
   35.745    2.8963
   35.790    2.8963
   35.835    3.0016
   35.880    3.0191
   35.925    3.0718
   35.970    2.9314
   36.015    3.0191
   36.060    2.9840
   36.105    3.0542
   36.150    3.0016
   36.195    2.8436
   36.240    2.8787
   36.285    2.9489
   36.330    3.0893
   36.375    3.0016
   36.420    2.7383
   36.465    2.7734
   36.510    3.2824
   36.555    2.7734
   36.600    2.5979
   36.645    2.8085
   36.690    3.0893
   36.735    2.7558
   36.780    2.7032
   36.825    2.8436
   36.870    2.5628
   36.915    2.6856
   36.960    2.7909
   37.005    2.9665
   37.050    2.7032
   37.095    2.9314
   37.140    2.5979
   37.185    2.8787
   37.230    2.6330
   37.275    2.8085
   37.320    2.5628
   37.365    2.9489
   37.410    2.9489
   37.455    2.9489
   37.500    2.8612
   37.545    2.6154
   37.590    2.8963
   37.635    2.9840
   37.680    2.7558
   37.725    2.9840
   37.770    3.0718
   37.815    2.8787
   37.860    2.7383
   37.905    2.7558
   37.950    2.9489
   37.995    2.8612
   38.040    2.7383
   38.085    2.7207
   38.130    2.8085
   38.175    3.0542
   38.220    2.8436
   38.265    2.6154
   38.310    2.6505
   38.355    2.4750
   38.400    2.7558
   38.445    3.1771
   38.490    2.7207
   38.535    2.7558
   38.580    2.8787
   38.625    2.8085
   38.670    2.5979
   38.715    2.8436
   38.760    2.7558
   38.805    2.7383
   38.850    3.0893
   38.895    2.8260
   38.940    2.6330
   38.985    2.6505
   39.030    2.8260
   39.075    2.4750
   39.120    2.7032
   39.165    2.6154
   39.210    2.5979
   39.255    2.5101
   39.300    2.8787
   39.345    2.7207
   39.390    2.6681
   39.435    2.7032
   39.480    2.6681
   39.525    2.8085
   39.570    2.5276
   39.615    2.6505
   39.660    3.0893
   39.705    2.7383
   39.750    2.6856
   39.795    2.9840
   39.840    2.9314
   39.885    2.8260
   39.930    2.6681
   39.975    2.9138
   40.020    2.7734
   40.065    2.8085
   40.110    2.7032
   40.155    2.7734
   40.200    3.0016
   40.245    3.1069
   40.290    3.0893
   40.335    3.1596
   40.380    2.8436
   40.425    3.0367
   40.470    3.0016
   40.515    3.0542
   40.560    3.0893
   40.605    3.1420
   40.650    2.7558
   40.695    2.6856
   40.740    2.7558
   40.785    2.9840
   40.830    3.1420
   40.875    3.1069
   40.920    2.9665
   40.965    2.8963
   41.010    2.6505
   41.055    2.7558
   41.100    2.4925
   41.145    2.5628
   41.190    2.6681
   41.235    2.8085
   41.280    2.7383
   41.325    2.8260
   41.370    2.8787
   41.415    2.5803
   41.460    2.8085
   41.505    2.8436
   41.550    2.8260
   41.595    2.6856
   41.640    3.0016
   41.685    2.7734
   41.730    2.6330
   41.775    2.8612
   41.820    2.6330
   41.865    2.7909
   41.910    2.6154
   41.955    2.4048
   42.000    2.6330
   42.045    2.8436
   42.090    2.4574
   42.135    2.9840
   42.180    2.7909
   42.225    2.4750
   42.270    2.6505
   42.315    2.5803
   42.360    2.7383
   42.405    2.8612
   42.450    2.5628
   42.495    2.5628
   42.540    2.9840
   42.585    2.6154
   42.630    2.4223
   42.675    2.4750
   42.720    2.9138
   42.765    2.5979
   42.810    2.8612
   42.855    2.8436
   42.900    2.9840
   42.945    2.6681
   42.990    2.6330
   43.035    2.6681
   43.080    2.6856
   43.125    3.0367
   43.170    2.7383
   43.215    2.7558
   43.260    3.0718
   43.305    2.8085
   43.350    3.0718
   43.395    2.8787
   43.440    2.8260
   43.485    2.6154
   43.530    2.5628
   43.575    2.5803
   43.620    2.9489
   43.665    2.7558
   43.710    2.5979
   43.755    3.2298
   43.800    2.4399
   43.845    3.0016
   43.890    2.7909
   43.935    2.7383
   43.980    2.8260
   44.025    2.7207
   44.070    2.7909
   44.115    2.6330
   44.160    2.8963
   44.205    2.5276
   44.250    2.6856
   44.295    2.7909
   44.340    2.3697
   44.385    2.6505
   44.430    3.0542
   44.475    2.6681
   44.520    2.7734
   44.565    2.7207
   44.610    2.4574
   44.655    2.8260
   44.700    2.5628
   44.745    2.7383
   44.790    2.8787
   44.835    2.9489
   44.880    2.5803
   44.925    2.8085
   44.970    2.9489
   45.015    2.4399
   45.060    2.7734
   45.105    2.9138
   45.150    2.5101
   45.195    2.7383
   45.240    2.5276
   45.285    2.6154
   45.330    2.8787
   45.375    2.8787
   45.420    2.8787
   45.465    2.8260
   45.510    2.4574
   45.555    2.3521
   45.600    2.9314
   45.645    2.5276
   45.690    2.4925
   45.735    2.5628
   45.780    2.7909
   45.825    2.7207
   45.870    2.9489
   45.915    2.4574
   45.960    2.7032
   46.005    2.5803
   46.050    2.5452
   46.095    2.9138
   46.140    2.9840
   46.185    2.8260
   46.230    2.9314
   46.275    2.7558
   46.320    2.7734
   46.365    2.9314
   46.410    2.6505
   46.455    2.6681
   46.500    2.6856
   46.545    3.0718
   46.590    2.9665
   46.635    2.5979
   46.680    2.4574
   46.725    2.6505
   46.770    2.9840
   46.815    2.8612
   46.860    2.7558
   46.905    2.6154
   46.950    2.8085
   46.995    2.4574
   47.040    2.6681
   47.085    2.7383
   47.130    2.7558
   47.175    2.4750
   47.220    2.2117
   47.265    2.7032
   47.310    2.7909
   47.355    2.5276
   47.400    2.7032
   47.445    2.5979
   47.490    2.5979
   47.535    2.7383
   47.580    2.8085
   47.625    2.5979
   47.670    2.6505
   47.715    2.2995
   47.760    2.5452
   47.805    2.5628
   47.850    3.0016
   47.895    2.6505
   47.940    2.1766
   47.985    2.5979
   48.030    2.3521
   48.075    2.8085
   48.120    2.8085
   48.165    2.4925
   48.210    2.2995
   48.255    2.6856
   48.300    2.7383
   48.345    2.5452
   48.390    2.5452
   48.435    2.7383
   48.480    2.7207
   48.525    2.4925
   48.570    2.7383
   48.615    2.7207
   48.660    2.6330
   48.705    2.4574
   48.750    2.4925
   48.795    2.7032
   48.840    2.6154
   48.885    2.6505
   48.930    2.3521
   48.975    2.5803
   49.020    2.5276
   49.065    2.3346
   49.110    2.7032
   49.155    2.5101
   49.200    2.4925
   49.245    2.4223
   49.290    2.4574
   49.335    2.7032
   49.380    2.2117
   49.425    2.5452
   49.470    2.4574
   49.515    2.5979
   49.560    2.3872
   49.605    2.4048
   49.650    2.2292
   49.695    2.1590
   49.740    2.5276
   49.785    2.3521
   49.830    2.5979
   49.875    2.6856
   49.920    2.4574
   49.965    2.8085
   49.980    2.4750