File: data/MOCOF-1/PXRD/PXRD_KE-204_Cu-Ka1_capillary-1mm_5s-deg.xyd
    1.500    5.8557
    1.530    6.0242
    1.560    5.8347
    1.590    5.7820
    1.620    5.3291
    1.650    5.6556
    1.680    5.4766
    1.710    5.0553
    1.740    4.8236
    1.770    4.8973
    1.800    4.7604
    1.830    4.9289
    1.860    4.7709
    1.890    4.5498
    1.920    4.4866
    1.950    4.3286
    1.980    4.2233
    2.010    4.2127
    2.040    4.1074
    2.070    4.2654
    2.100    4.0969
    2.130    4.1390
    2.160    4.0232
    2.190    4.0653
    2.220    3.9600
    2.250    4.1811
    2.280    3.5808
    2.310    3.8968
    2.340    3.3175
    2.370    3.6230
    2.400    3.7809
    2.430    3.6335
    2.460    3.0121
    2.490    3.3913
    2.520    3.3281
    2.550    3.2122
    2.580    3.4755
    2.610    3.4334
    2.640    3.3175
    2.670    3.0753
    2.700    3.2122
    2.730    3.3386
    2.760    3.0858
    2.790    3.2017
    2.820    2.9805
    2.850    2.9595
    2.880    3.0753
    2.910    3.2754
    2.940    2.9384
    2.970    2.9489
    3.000    2.7909
    3.030    3.0332
    3.060    2.8541
    3.090    2.8857
    3.120    3.0016
    3.150    2.9068
    3.180    2.7699
    3.210    2.9068
    3.240    2.5066
    3.270    2.6330
    3.300    2.4434
    3.330    2.7909
    3.360    2.3802
    3.390    2.7593
    3.420    2.8120
    3.450    2.7699
    3.480    2.3486
    3.510    2.3907
    3.540    2.7488
    3.570    2.4013
    3.600    2.2854
    3.630    2.5276
    3.660    2.2854
    3.690    2.6962
    3.720    2.6330
    3.750    2.4434
    3.780    2.5382
    3.810    2.5487
    3.840    2.3486
    3.870    2.0748
    3.900    2.3170
    3.930    2.4539
    3.960    2.5592
    3.990    2.5066
    4.020    2.3275
    4.050    2.3907
    4.080    2.5171
    4.110    2.4855
    4.140    2.4539
    4.170    2.3486
    4.200    2.5382
    4.230    2.0642
    4.260    2.5066
    4.290    2.3591
    4.320    2.3275
    4.350    2.4329
    4.380    2.2538
    4.410    2.2749
    4.440    2.2433
    4.470    2.3381
    4.500    2.1696
    4.530    2.1380
    4.560    2.2328
    4.590    2.3486
    4.620    2.0853
    4.650    2.4855
    4.680    2.2854
    4.710    2.1801
    4.740    2.3275
    4.770    2.4855
    4.800    2.2012
    4.830    2.2854
    4.860    2.1590
    4.890    2.4118
    4.920    2.2433
    4.950    2.2643
    4.980    2.2012
    5.010    2.1906
    5.040    2.2854
    5.070    2.1380
    5.100    2.2117
    5.130    2.2117
    5.160    2.3591
    5.190    2.0537
    5.220    2.2959
    5.250    2.0642
    5.280    2.2538
    5.310    2.3170
    5.340    2.1485
    5.370    2.0642
    5.400    2.3275
    5.430    2.2643
    5.460    2.1906
    5.490    2.1169
    5.520    2.3170
    5.550    2.0853
    5.580    2.0748
    5.610    2.1485
    5.640    1.9905
    5.670    2.0221
    5.700    2.1801
    5.730    2.1274
    5.760    2.0116
    5.790    2.0011
    5.820    2.1169
    5.850    2.1274
    5.880    2.1485
    5.910    2.0642
    5.940    2.0011
    5.970    2.1169
    6.000    2.0642
    6.030    1.9484
    6.060    1.9168
    6.090    2.0432
    6.120    2.0011
    6.150    1.9589
    6.180    2.0116
    6.210    2.0432
    6.240    1.8431
    6.270    2.0748
    6.300    1.9800
    6.330    1.9063
    6.360    1.9589
    6.390    2.1906
    6.420    2.1485
    6.450    1.9484
    6.480    2.1485
    6.510    1.9168
    6.540    2.0326
    6.570    1.8852
    6.600    2.0221
    6.630    1.9800
    6.660    1.9589
    6.690    2.0221
    6.720    2.0116
    6.750    1.9589
    6.780    1.9695
    6.810    1.9484
    6.840    1.9695
    6.870    1.9273
    6.900    2.0748
    6.930    2.0537
    6.960    2.0748
    6.990    1.9379
    7.020    1.9273
    7.050    1.8641
    7.080    1.8641
    7.110    1.9589
    7.140    1.8325
    7.170    2.0011
    7.200    1.9063
    7.230    2.0221
    7.260    1.8957
    7.290    2.0642
    7.320    2.0537
    7.350    2.0011
    7.380    2.1274
    7.410    2.0642
    7.440    2.1169
    7.470    1.8325
    7.500    1.9063
    7.530    1.8641
    7.560    1.9063
    7.590    1.9589
    7.620    1.5692
    7.650    1.9273
    7.680    1.7272
    7.710    1.9168
    7.740    1.8431
    7.770    2.0221
    7.800    1.8325
    7.830    1.8431
    7.860    1.8325
    7.890    2.0432
    7.920    1.5798
    7.950    1.8536
    7.980    1.8220
    8.010    1.5798
    8.040    1.9589
    8.070    1.8009
    8.100    1.9484
    8.130    1.7904
    8.160    1.9273
    8.190    1.6430
    8.220    1.9273
    8.250    1.7483
    8.280    1.8641
    8.310    1.6640
    8.340    1.9589
    8.370    1.6114
    8.400    1.8009
    8.430    1.7483
    8.460    1.8957
    8.490    1.7483
    8.520    1.8536
    8.550    1.7799
    8.580    1.7588
    8.610    1.8536
    8.640    1.5482
    8.670    1.7167
    8.700    1.8220
    8.730    1.8220
    8.760    1.8852
    8.790    1.7062
    8.820    1.6851
    8.850    1.6746
    8.880    1.6851
    8.910    1.9484
    8.940    1.7904
    8.970    1.8009
    9.000    1.6535
    9.030    1.7062
    9.060    1.8220
    9.090    1.8852
    9.120    1.6535
    9.150    1.7272
    9.180    1.6008
    9.210    1.7167
    9.240    1.8957
    9.270    1.6851
    9.300    1.6640
    9.330    1.5903
    9.360    1.7167
    9.390    1.8957
    9.420    1.5692
    9.450    1.8852
    9.480    1.9273
    9.510    1.7272
    9.540    1.6851
    9.570    1.8220
    9.600    1.7378
    9.630    1.8115
    9.660    1.8009
    9.690    1.6535
    9.720    1.8009
    9.750    1.6324
    9.780    1.7167
    9.810    1.7272
    9.840    1.6851
    9.870    1.6114
    9.900    1.8009
    9.930    1.8325
    9.960    1.5061
    9.990    1.7272
   10.020    1.5903
   10.050    1.8220
   10.080    1.6008
   10.110    1.5798
   10.140    1.6640
   10.170    1.5271
   10.200    1.6324
   10.230    1.5587
   10.260    1.5377
   10.290    1.6114
   10.320    1.6851
   10.350    1.5482
   10.380    1.4113
   10.410    1.8957
   10.440    1.5692
   10.470    1.8747
   10.500    1.7799
   10.530    1.6851
   10.560    1.7167
   10.590    1.7799
   10.620    1.6219
   10.650    1.6956
   10.680    1.6746
   10.710    1.6746
   10.740    1.7378
   10.770    1.7799
   10.800    1.5587
   10.830    1.7588
   10.860    1.6746
   10.890    1.5166
   10.920    1.7167
   10.950    1.6746
   10.980    1.7483
   11.010    1.6640
   11.040    1.5166
   11.070    1.5377
   11.100    1.7378
   11.130    1.6008
   11.160    1.7272
   11.190    1.6008
   11.220    1.8747
   11.250    1.9168
   11.280    1.4955
   11.310    1.4955
   11.340    1.4850
   11.370    1.6640
   11.400    1.5903
   11.430    1.7062
   11.460    1.6008
   11.490    1.5903
   11.520    1.6430
   11.550    1.4955
   11.580    1.6324
   11.610    1.8009
   11.640    1.5061
   11.670    1.6851
   11.700    1.6324
   11.730    1.6535
   11.760    1.5166
   11.790    1.7062
   11.820    1.7799
   11.850    1.6114
   11.880    1.5482
   11.910    1.6640
   11.940    1.6219
   11.970    1.5271
   12.000    1.5692
   12.030    1.4639
   12.060    1.6324
   12.090    1.5271
   12.120    1.5377
   12.150    1.5692
   12.180    1.6851
   12.210    1.6535
   12.240    1.6640
   12.270    1.6114
   12.300    1.5061
   12.330    1.4850
   12.360    1.4955
   12.390    1.7272
   12.420    1.5166
   12.450    1.5692
   12.480    1.5798
   12.510    1.6219
   12.540    1.6640
   12.570    1.5377
   12.600    1.5903
   12.630    1.7694
   12.660    1.6640
   12.690    1.6219
   12.720    1.5692
   12.750    1.4850
   12.780    1.7483
   12.810    1.5166
   12.840    1.5903
   12.870    1.6851
   12.900    1.3691
   12.930    1.7378
   12.960    1.5482
   12.990    1.6008
   13.020    1.5692
   13.050    1.5166
   13.080    1.4639
   13.110    1.5271
   13.140    1.7694
   13.170    1.8747
   13.200    1.5903
   13.230    1.3902
   13.260    1.5061
   13.290    1.7378
   13.320    1.6114
   13.350    1.4850
   13.380    1.5271
   13.410    1.7483
   13.440    1.3691
   13.470    1.6430
   13.500    1.4850
   13.530    1.4850
   13.560    1.6008
   13.590    1.6324
   13.620    1.4955
   13.650    1.7694
   13.680    1.6008
   13.710    1.5061
   13.740    1.7167
   13.770    1.8325
   13.800    1.6324
   13.830    1.4639
   13.860    1.6008
   13.890    1.5482
   13.920    1.7167
   13.950    1.5903
   13.980    1.6640
   14.010    1.5061
   14.040    1.5903
   14.070    1.7694
   14.100    1.4534
   14.130    1.6956
   14.160    1.5061
   14.190    1.7272
   14.220    1.5587
   14.250    1.7799
   14.280    1.5271
   14.310    1.7062
   14.340    1.6535
   14.370    1.9063
   14.400    1.4534
   14.430    1.4850
   14.460    1.7694
   14.490    1.5061
   14.520    1.4429
   14.550    1.7378
   14.580    1.6114
   14.610    1.6430
   14.640    1.5482
   14.670    1.5482
   14.700    1.6535
   14.730    1.7588
   14.760    1.4955
   14.790    1.5482
   14.820    1.7378
   14.850    1.7272
   14.880    1.5271
   14.910    1.5377
   14.940    1.5692
   14.970    1.5692
   15.000    1.6851
   15.030    1.4955
   15.060    1.7904
   15.090    1.6008
   15.120    1.6430
   15.150    1.8325
   15.180    1.4429
   15.210    1.7062
   15.240    1.7062
   15.270    1.6535
   15.300    1.7167
   15.330    1.6535
   15.360    1.5692
   15.390    1.5166
   15.420    1.5061
   15.450    1.6746
   15.480    1.7799
   15.510    1.7378
   15.540    1.7167
   15.570    1.6746
   15.600    1.5377
   15.630    1.5166
   15.660    1.6640
   15.690    1.6008
   15.720    1.6219
   15.750    1.5903
   15.780    1.5798
   15.810    1.6008
   15.840    1.6008
   15.870    1.6640
   15.900    1.6746
   15.930    1.5482
   15.960    1.5798
   15.990    1.6851
   16.020    1.7272
   16.050    1.7062
   16.080    1.4639
   16.110    1.4323
   16.140    1.7272
   16.170    1.5482
   16.200    1.4955
   16.230    1.6535
   16.260    1.7167
   16.290    1.5903
   16.320    1.5166
   16.350    1.5061
   16.380    1.5061
   16.410    1.6535
   16.440    1.4323
   16.470    1.5482
   16.500    1.5903
   16.530    1.7694
   16.560    1.6430
   16.590    1.7588
   16.620    1.5166
   16.650    1.5482
   16.680    1.5587
   16.710    1.4429
   16.740    1.5692
   16.770    1.5903
   16.800    1.6324
   16.830    1.4955
   16.860    1.4218
   16.890    1.6640
   16.920    1.8009
   16.950    1.6219
   16.980    1.5166
   17.010    1.5166
   17.040    1.4745
   17.070    1.6219
   17.100    1.7904
   17.130    1.4113
   17.160    1.6746
   17.190    1.6640
   17.220    1.5166
   17.250    1.5692
   17.280    1.7694
   17.310    1.5798
   17.340    1.6219
   17.370    1.5903
   17.400    1.5692
   17.430    1.8536
   17.460    1.4639
   17.490    1.4534
   17.520    1.4955
   17.550    1.4955
   17.580    1.5166
   17.610    1.7694
   17.640    1.5587
   17.670    1.6430
   17.700    1.6430
   17.730    1.7694
   17.760    1.5587
   17.790    1.4955
   17.820    1.6535
   17.850    1.5692
   17.880    1.5587
   17.910    1.5692
   17.940    1.5587
   17.970    1.7062
   18.000    1.3902
   18.030    1.6008
   18.060    1.3375
   18.090    1.3586
   18.120    1.5587
   18.150    1.6008
   18.180    1.3902
   18.210    1.6851
   18.240    1.7272
   18.270    1.5377
   18.300    1.6324
   18.330    1.4639
   18.360    1.4745
   18.390    1.5903
   18.420    1.6956
   18.450    1.3375
   18.480    1.6851
   18.510    1.6430
   18.540    1.8220
   18.570    1.4323
   18.600    1.7799
   18.630    1.5798
   18.660    1.6640
   18.690    1.5798
   18.720    1.8220
   18.750    1.6114
   18.780    1.6324
   18.810    1.6851
   18.840    1.7904
   18.870    1.5482
   18.900    1.8115
   18.930    1.6956
   18.960    1.6219
   18.990    1.4745
   19.020    1.7167
   19.050    1.6640
   19.080    1.5587
   19.110    1.7799
   19.140    1.5587
   19.170    1.7904
   19.200    1.6219
   19.230    1.6956
   19.260    1.7378
   19.290    1.5166
   19.320    1.8220
   19.350    1.7904
   19.380    1.6851
   19.410    1.7272
   19.440    1.4850
   19.470    1.7378
   19.500    1.6956
   19.530    1.5692
   19.560    1.7272
   19.590    1.5587
   19.620    1.6114
   19.650    1.6640
   19.680    1.6430
   19.710    1.6956
   19.740    1.7272
   19.770    1.7799
   19.800    1.5166
   19.830    1.6746
   19.860    1.6956
   19.890    1.7694
   19.920    1.7904
   19.950    1.6219
   19.980    1.7272
   20.010    1.7694
   20.040    1.6851
   20.070    1.5587
   20.100    1.6640
   20.130    1.7588
   20.160    1.7167
   20.190    1.7483
   20.220    1.5166
   20.250    1.7904
   20.280    1.6430
   20.310    1.6430
   20.340    1.8852
   20.370    1.5587
   20.400    1.5482
   20.430    1.7062
   20.460    1.7272
   20.490    1.7483
   20.520    1.4955
   20.550    1.6851
   20.580    1.7799
   20.610    1.6535
   20.640    1.6535
   20.670    1.5692
   20.700    1.5482
   20.730    1.8220
   20.760    1.7272
   20.790    1.5903
   20.820    1.7062
   20.850    1.4745
   20.880    1.6851
   20.910    1.8325
   20.940    1.5692
   20.970    1.7378
   21.000    1.7272
   21.030    1.7904
   21.060    1.6219
   21.090    1.5798
   21.120    1.7167
   21.150    1.8115
   21.180    1.6324
   21.210    1.6535
   21.240    1.7272
   21.270    1.5061
   21.300    1.6219
   21.330    1.7799
   21.360    1.5587
   21.390    1.6219
   21.420    1.6219
   21.450    1.6746
   21.480    1.4429
   21.510    1.5903
   21.540    1.6640
   21.570    1.5482
   21.600    1.8115
   21.630    1.6851
   21.660    1.5166
   21.690    1.5903
   21.720    1.6535
   21.750    1.6535
   21.780    1.4745
   21.810    1.4955
   21.840    1.8220
   21.870    1.4639
   21.900    1.6008
   21.930    1.7694
   21.960    1.7272
   21.990    1.7588
   22.020    1.4639
   22.050    1.7272
   22.080    1.7588
   22.110    1.6008
   22.140    1.4113
   22.170    1.6008
   22.200    1.6430
   22.230    1.5377
   22.260    1.6430
   22.290    1.5903
   22.320    1.5061
   22.350    1.5587
   22.380    1.7483
   22.410    1.8009
   22.440    1.7062
   22.470    1.5798
   22.500    1.5061
   22.530    1.4955
   22.560    1.8115
   22.590    1.6219
   22.620    1.7904
   22.650    1.8852
   22.680    1.7694
   22.710    1.6008
   22.740    1.4429
   22.770    1.6535
   22.800    1.6535
   22.830    1.6535
   22.860    1.6640
   22.890    1.4113
   22.920    1.6746
   22.950    1.4323
   22.980    1.4745
   23.010    1.5166
   23.040    1.7483
   23.070    1.5061
   23.100    1.6219
   23.130    1.5377
   23.160    1.7378
   23.190    1.5587
   23.220    1.5166
   23.250    1.5271
   23.280    1.5903
   23.310    1.4323
   23.340    1.4639
   23.370    1.7167
   23.400    1.5587
   23.430    1.6114
   23.460    1.5166
   23.490    1.5692
   23.520    1.6324
   23.550    1.6219
   23.580    1.5798
   23.610    1.5692
   23.640    1.6114
   23.670    1.6851
   23.700    1.5166
   23.730    1.5798
   23.760    1.6430
   23.790    1.4745
   23.820    1.5271
   23.850    1.4850
   23.880    1.5692
   23.910    1.5061
   23.940    1.5692
   23.970    1.7378
   24.000    1.5061
   24.030    1.4745
   24.060    1.6746
   24.090    1.6219
   24.120    1.7272
   24.150    1.6640
   24.180    1.5587
   24.210    1.6430
   24.240    1.5271
   24.270    1.5692
   24.300    1.5482
   24.330    1.4955
   24.360    1.5482
   24.390    1.4850
   24.420    1.6956
   24.450    1.6219
   24.480    1.5271
   24.510    1.6851
   24.540    1.5903
   24.570    1.5692
   24.600    1.3902
   24.630    1.5482
   24.660    1.2744
   24.690    1.5061
   24.720    1.6219
   24.750    1.6114
   24.780    1.4850
   24.810    1.6219
   24.840    1.4639
   24.870    1.4007
   24.900    1.4955
   24.930    1.6430
   24.960    1.7272
   24.990    1.5166
   25.020    1.4850
   25.050    1.4534
   25.080    1.6430
   25.110    1.7483
   25.140    1.4007
   25.170    1.3797
   25.200    1.4534
   25.230    1.5903
   25.260    1.6430
   25.290    1.5903
   25.320    1.5903
   25.350    1.4745
   25.380    1.4007
   25.410    1.5166
   25.440    1.5482
   25.470    1.4534
   25.500    1.4429
   25.530    1.4429
   25.560    1.5482
   25.590    1.5692
   25.620    1.4955
   25.650    1.5061
   25.680    1.3375
   25.710    1.7694
   25.740    1.3691
   25.770    1.5166
   25.800    1.4007
   25.830    1.3797
   25.860    1.3691
   25.890    1.7062
   25.920    1.5166
   25.950    1.4218
   25.980    1.6535
   26.010    1.3270
   26.040    1.4113
   26.070    1.3902
   26.100    1.4639
   26.130    1.4113
   26.160    1.2744
   26.190    1.3797
   26.220    1.3481
   26.250    1.3902
   26.280    1.4639
   26.310    1.4007
   26.340    1.2322
   26.370    1.4323
   26.400    1.5692
   26.430    1.3586
   26.460    1.3165
   26.490    1.3375
   26.520    1.4955
   26.550    1.2954
   26.580    1.5587
   26.610    1.4850
   26.640    1.2849
   26.670    1.2638
   26.700    1.4113
   26.730    1.5482
   26.760    1.3375
   26.790    1.3797
   26.820    1.3165
   26.850    1.1901
   26.880    1.2533
   26.910    1.4429
   26.940    1.4218
   26.970    1.2954
   27.000    1.3586
   27.030    1.3586
   27.060    1.3375
   27.090    1.4955
   27.120    1.5482
   27.150    1.4745
   27.180    1.3481
   27.210    1.2112
   27.240    1.3797
   27.270    1.3481
   27.300    1.3165
   27.330    1.4955
   27.360    1.3586
   27.390    1.3375
   27.420    1.1480
   27.450    1.2638
   27.480    1.2006
   27.510    1.4113
   27.540    1.2638
   27.570    1.2322
   27.600    1.4534
   27.630    1.3902
   27.660    1.2112
   27.690    1.1585
   27.720    1.3060
   27.750    1.2744
   27.780    1.2954
   27.810    1.3270
   27.840    1.3165
   27.870    1.2112
   27.900    1.3375
   27.930    1.3481
   27.960    1.3797
   27.990    1.1796
   28.020    1.3270
   28.050    1.3902
   28.080    1.2638
   28.110    1.3270
   28.140    1.2533
   28.170    1.5061
   28.200    1.2322
   28.230    1.3586
   28.260    1.1374
   28.290    1.3797
   28.320    1.3797
   28.350    1.2744
   28.380    1.2744
   28.410    1.3586
   28.440    1.3165
   28.470    1.4323
   28.500    1.3691
   28.530    1.2638
   28.560    1.2428
   28.590    1.3375
   28.620    1.2217
   28.650    1.3691
   28.680    1.3060
   28.710    1.1796
   28.740    1.3586
   28.770    1.2744
   28.800    1.4955
   28.830    1.2112
   28.860    1.2112
   28.890    1.2322
   28.920    1.3165
   28.950    1.3165
   28.980    1.1796
   29.010    1.3481
   29.040    1.1796
   29.070    1.2849
   29.100    1.3691
   29.130    1.2217
   29.160    1.1585
   29.190    1.3270
   29.220    1.1901
   29.250    1.2744
   29.280    1.1901
   29.310    1.3060
   29.340    1.2428
   29.370    1.1374
   29.400    1.2533
   29.430    1.2533
   29.460    1.1901
   29.490    1.2322
   29.520    1.1269
   29.550    1.2428
   29.580    1.2638
   29.610    1.2217
   29.640    1.2428
   29.670    1.1480
   29.700    1.0953
   29.730    1.1690
   29.760    1.2849
   29.790    1.2428
   29.820    1.3060
   29.850    1.2849
   29.880    1.1585
   29.910    1.5061
   29.940    1.1058
   29.970    1.3270
   30.000    1.2954
   30.030    1.1585
   30.060    1.1690
   30.090    1.1690
   30.120    1.0637
   30.150    1.0953
   30.180    1.1480
   30.210    1.1690
   30.240    1.2638
   30.270    1.2638
   30.300    1.2217
   30.330    1.0532
   30.360    1.1480
   30.390    1.1164
   30.420    1.2112
   30.450    1.2112
   30.480    1.2849
   30.510    1.0953
   30.540    1.1585
   30.570    1.2744
   30.600    1.0532
   30.630    0.9689
   30.660    1.2112
   30.690    1.1374
   30.720    1.2428
   30.750    1.1374
   30.780    1.1164
   30.810    1.1901
   30.840    1.0321
   30.870    1.1374
   30.900    1.0532
   30.930    1.0848
   30.960    1.1164
   30.990    1.1374
   31.020    1.2849
   31.050    1.1901
   31.080    1.0953
   31.110    1.0111
   31.140    1.1480
   31.170    1.1269
   31.200    1.1480
   31.230    1.1480
   31.260    0.9689
   31.290    1.1058
   31.320    1.0216
   31.350    1.0637
   31.380    1.0637
   31.410    1.0532
   31.440    1.0427
   31.470    1.0848
   31.500    1.1480
   31.530    1.0427
   31.560    1.0953
   31.590    1.1269
   31.620    1.1269
   31.650    0.9795
   31.680    1.1796
   31.710    1.2006
   31.740    1.1690
   31.770    1.2006
   31.800    1.1374
   31.830    0.9163
   31.860    1.0216
   31.890    1.1164
   31.920    1.0427
   31.950    1.1585
   31.980    1.1796
   32.010    0.9584
   32.040    0.9900
   32.070    0.9373
   32.100    1.1796
   32.130    1.0532
   32.160    1.2322
   32.190    1.0532
   32.220    1.1480
   32.250    1.2112
   32.280    1.0742
   32.310    1.0848
   32.340    1.0321
   32.370    1.0216
   32.400    0.8741
   32.430    1.0005
   32.460    1.0427
   32.490    1.1901
   32.520    0.8847
   32.550    1.0953
   32.580    1.1480
   32.610    0.9900
   32.640    0.9163
   32.670    1.1164
   32.700    0.9795
   32.730    0.9373
   32.760    0.8952
   32.790    0.9689
   32.820    1.0427
   32.850    0.8215
   32.880    1.0216
   32.910    0.8636
   32.940    0.9373
   32.970    1.0321
   33.000    0.9584
   33.030    0.8636
   33.060    1.0742
   33.090    0.8636
   33.120    0.8847
   33.150    0.9479
   33.180    0.9900
   33.210    0.8636
   33.240    0.9795
   33.270    0.9373
   33.300    0.8847
   33.330    0.9795
   33.360    0.9584
   33.390    1.0005
   33.420    0.8741
   33.450    0.8531
   33.480    0.9057
   33.510    0.9268
   33.540    0.9900
   33.570    0.9163
   33.600    0.9900
   33.630    0.8636
   33.660    0.8531
   33.690    0.7688
   33.720    0.9900
   33.750    1.0111
   33.780    0.9373
   33.810    1.0427
   33.840    0.8425
   33.870    0.8952
   33.900    0.8847
   33.930    1.1164
   33.960    0.8636
   33.990    0.8847
   34.020    0.7899
   34.050    0.8531
   34.080    1.0111
   34.110    0.8215
   34.140    0.8847
   34.170    0.9268
   34.200    0.8847
   34.230    0.9900
   34.260    0.8531
   34.290    0.6846
   34.320    0.8320
   34.350    0.7478
   34.380    0.8425
   34.410    0.9057
   34.440    0.8847
   34.470    0.8320
   34.500    0.8004
   34.530    0.7794
   34.560    0.7899
   34.590    0.8425
   34.620    0.7899
   34.650    0.8531
   34.680    0.8004
   34.710    0.8847
   34.740    0.8741
   34.770    0.8110
   34.800    0.9163
   34.830    0.8952
   34.860    0.8215
   34.890    0.6740
   34.920    0.7267
   34.950    0.7794
   34.980    0.9163
   35.010    0.8215
   35.040    0.6740
   35.070    0.8425
   35.100    0.7478
   35.130    0.8110
   35.160    0.8215
   35.190    0.6846
   35.220    0.7583
   35.250    0.8215
   35.280    0.7478
   35.310    0.8110
   35.340    0.7162
   35.370    0.9268
   35.400    0.7899
   35.430    0.7899
   35.460    0.7688
   35.490    0.8531
   35.520    0.6740
   35.550    0.8320
   35.580    0.8847
   35.610    0.7478
   35.640    0.7056
   35.670    0.7583
   35.700    0.7794
   35.730    0.8004
   35.760    0.8636
   35.790    0.6740
   35.820    0.6108
   35.850    0.7267
   35.880    0.7162
   35.910    0.6740
   35.940    0.8425
   35.970    0.6951
   36.000    0.6635
   36.030    0.9479
   36.060    0.7794
   36.090    0.7583
   36.120    0.8004
   36.150    0.8636
   36.180    0.6424
   36.210    0.6635
   36.240    0.8425
   36.270    0.8320
   36.300    0.7794
   36.330    0.6951
   36.360    0.7162
   36.390    0.6108
   36.420    0.7899
   36.450    0.8636
   36.480    0.6003
   36.510    0.7478
   36.540    0.8847
   36.570    0.8215
   36.600    0.6530
   36.630    0.6214
   36.660    0.6951
   36.690    0.6951
   36.720    0.5898
   36.750    0.7267
   36.780    0.6846
   36.810    0.7583
   36.840    0.6108
   36.870    0.6846
   36.900    0.6740
   36.930    0.5266
   36.960    0.6846
   36.990    0.6951
   37.020    0.6530
   37.050    0.6530
   37.080    0.6635
   37.110    0.6003
   37.140    0.5898
   37.170    0.6108
   37.200    0.6003
   37.230    0.7162
   37.260    0.6424
   37.290    0.6003
   37.320    0.5477
   37.350    0.6424
   37.380    0.5161
   37.410    0.6003
   37.440    0.7794
   37.470    0.7688
   37.500    0.6846
   37.530    0.5898
   37.560    0.7056
   37.590    0.7372
   37.620    0.6530
   37.650    0.5477
   37.680    0.6319
   37.710    0.6951
   37.740    0.5898
   37.770    0.6214
   37.800    0.5898
   37.830    0.6740
   37.860    0.6424
   37.890    0.6951
   37.920    0.6424
   37.950    0.5898
   37.980    0.6108
   38.010    0.5477
   38.040    0.5793
   38.070    0.5582
   38.100    0.6214
   38.130    0.5793
   38.160    0.6530
   38.190    0.6740
   38.220    0.7372
   38.250    0.6635
   38.280    0.5371
   38.310    0.7372
   38.340    0.6740
   38.370    0.6003
   38.400    0.6846
   38.430    0.7794
   38.460    0.6635
   38.490    0.6003
   38.520    0.5793
   38.550    0.6214
   38.580    0.7162
   38.610    0.5793
   38.640    0.7056
   38.670    0.5371
   38.700    0.6108
   38.730    0.6003
   38.760    0.6530
   38.790    0.5687
   38.820    0.6319
   38.850    0.6214
   38.880    0.6108
   38.910    0.6846
   38.940    0.6108
   38.970    0.6003
   39.000    0.6214
   39.030    0.5371
   39.060    0.6108
   39.090    0.6740
   39.120    0.6846
   39.150    0.6846
   39.180    0.6740
   39.210    0.5477
   39.240    0.6424
   39.270    0.6951
   39.300    0.5266
   39.330    0.5687
   39.360    0.5687
   39.390    0.5371
   39.420    0.7162
   39.450    0.5687
   39.480    0.5687
   39.510    0.6319
   39.540    0.5371
   39.570    0.5371
   39.600    0.5898
   39.630    0.5477
   39.660    0.6424
   39.690    0.5582
   39.720    0.5898
   39.750    0.6319
   39.780    0.5582
   39.810    0.6740
   39.840    0.5477
   39.870    0.7478
   39.900    0.4845
   39.930    0.6951
   39.960    0.4529
   39.990    0.4634