File: data/MOCOF-1/PXRD/PXRD_KE-318_Cu-Ka1_capillary-1mm_3s-deg.xyd
    1.500   14.6919
    1.530   14.3935
    1.560   14.1829
    1.590   13.9196
    1.620   13.2175
    1.650   13.1999
    1.680   13.7265
    1.710   12.8489
    1.740   12.2170
    1.770   12.7611
    1.800   11.7781
    1.830   11.8659
    1.860   11.6728
    1.890   10.8654
    1.920   11.0058
    1.950   10.5670
    1.980   11.2164
    2.010   10.8478
    2.040   10.7425
    2.070   10.7952
    2.100   10.3388
    2.130   10.5319
    2.160   10.1983
    2.190    9.8297
    2.220    9.9877
    2.250    9.8122
    2.280   10.0930
    2.310   10.1281
    2.340    9.6542
    2.370    9.7420
    2.400   10.2861
    2.430   10.2335
    2.460    9.9175
    2.490   10.3037
    2.520   10.4090
    2.550   10.3914
    2.580   10.5670
    2.610   10.0579
    2.640   10.0579
    2.670   10.5670
    2.700   11.3744
    2.730   11.0058
    2.760   11.7255
    2.790   12.1643
    2.820   12.2170
    2.850   12.1819
    2.880   12.5154
    2.910   13.0595
    2.940   13.5861
    2.970   13.3579
    3.000   14.8148
    3.030   15.1308
    3.060   15.8504
    3.090   16.2366
    3.120   16.3946
    3.150   16.7983
    3.180   17.3074
    3.210   19.0627
    3.240   19.6595
    3.270   21.0813
    3.300   22.8541
    3.330   22.8190
    3.360   25.0834
    3.390   26.8562
    3.420   28.1025
    3.450   30.2615
    3.480   32.4381
    3.510   36.5807
    3.540   40.1790
    3.570   43.3386
    3.600   48.7976
    3.630   54.9412
    3.660   63.4720
    3.690   73.1789
    3.720   91.3463
    3.750  115.7978
    3.780  126.8036
    3.810   88.4150
    3.840   45.1115
    3.870   20.1159
    3.900   11.4446
    3.930    9.2154
    3.960    7.8989
    3.990    6.5473
    4.020    6.3191
    4.050    5.6521
    4.080    5.7925
    4.110    5.0728
    4.140    5.4064
    4.170    5.4590
    4.200    5.0553
    4.230    5.0202
    4.260    4.8271
    4.290    4.7920
    4.320    5.5468
    4.350    4.8973
    4.380    5.0377
    4.410    4.6340
    4.440    4.4585
    4.470    5.3186
    4.500    4.6165
    4.530    4.7218
    4.560    5.0553
    4.590    4.8447
    4.620    4.8622
    4.650    5.2133
    4.680    4.7920
    4.710    5.3186
    4.740    5.9154
    4.770    5.5994
    4.800    5.5292
    4.830    5.7048
    4.860    5.7048
    4.890    6.0383
    4.920    6.3367
    4.950    6.6000
    4.980    6.8633
    5.010    7.3723
    5.040    7.2319
    5.070    7.1968
    5.100    7.9164
    5.130    9.0574
    5.160    9.4787
    5.190   10.5845
    5.220   11.2515
    5.250   12.5680
    5.280   14.5691
    5.310   17.2722
    5.340   20.7653
    5.370   23.3632
    5.400   18.8169
    5.430   11.4973
    5.460    7.7234
    5.490    5.3010
    5.520    4.7393
    5.550    4.5287
    5.580    4.1952
    5.610    4.2303
    5.640    4.0021
    5.670    4.0197
    5.700    3.9319
    5.730    4.2830
    5.760    4.0021
    5.790    4.1601
    5.820    4.3356
    5.850    3.8441
    5.880    4.1952
    5.910    4.1250
    5.940    3.5633
    5.970    4.0197
    6.000    4.1250
    6.030    3.7564
    6.060    4.2830
    6.090    4.1952
    6.120    3.6510
    6.150    4.3005
    6.180    4.0021
    6.210    4.1601
    6.240    4.1250
    6.270    4.4409
    6.300    4.4760
    6.330    4.5814
    6.360    4.3883
    6.390    4.9675
    6.420    5.2133
    6.450    5.1431
    6.480    5.4415
    6.510    6.0909
    6.540    6.6175
    6.570    7.9867
    6.600    8.4255
    6.630    6.9686
    6.660    5.1782
    6.690    4.4234
    6.720    4.0548
    6.750    3.7915
    6.780    3.7739
    6.810    3.8266
    6.840    4.1425
    6.870    3.4755
    6.900    3.9143
    6.930    3.7915
    6.960    3.6686
    6.990    3.8441
    7.020    3.5457
    7.050    3.7915
    7.080    3.9143
    7.110    3.9319
    7.140    3.8617
    7.170    3.6159
    7.200    4.0021
    7.230    4.0548
    7.260    3.8792
    7.290    4.0021
    7.320    3.9846
    7.350    4.0372
    7.380    4.4760
    7.410    4.8271
    7.440    4.5638
    7.470    5.0728
    7.500    5.7048
    7.530    5.6345
    7.560    5.8803
    7.590    6.8984
    7.620    8.1797
    7.650    7.5127
    7.680    6.0383
    7.710    4.1074
    7.740    4.0021
    7.770    3.8617
    7.800    3.6686
    7.830    3.6335
    7.860    3.6686
    7.890    3.7213
    7.920    3.5457
    7.950    3.3877
    7.980    3.7213
    8.010    3.5282
    8.040    3.4229
    8.070    3.3877
    8.100    3.7739
    8.130    3.5633
    8.160    3.3702
    8.190    3.9494
    8.220    3.6510
    8.250    3.5984
    8.280    3.7388
    8.310    4.0723
    8.340    4.0372
    8.370    4.1425
    8.400    4.3883
    8.430    4.9324
    8.460    4.8798
    8.490    5.2835
    8.520    6.1436
    8.550    6.5824
    8.580    5.9154
    8.610    4.4058
    8.640    3.3702
    8.670    3.5984
    8.700    3.4580
    8.730    3.4404
    8.760    3.5633
    8.790    3.7915
    8.820    3.4580
    8.850    3.5633
    8.880    3.6159
    8.910    3.6335
    8.940    3.7388
    8.970    4.1250
    9.000    4.1776
    9.030    4.5814
    9.060    4.1074
    9.090    4.4409
    9.120    4.5463
    9.150    4.6165
    9.180    5.3888
    9.210    5.3361
    9.240    6.3542
    9.270    7.0739
    9.300    7.8287
    9.330   10.1808
    9.360   11.7606
    9.390    9.6015
    9.420    7.2670
    9.450    5.0904
    9.480    4.1601
    9.510    3.4404
    9.540    3.4404
    9.570    3.4755
    9.600    3.6159
    9.630    3.7213
    9.660    3.2649
    9.690    3.6862
    9.720    3.4053
    9.750    3.8792
    9.780    3.6862
    9.810    3.7564
    9.840    4.0372
    9.870    3.8792
    9.900    4.3532
    9.930    4.0548
    9.960    4.3005
    9.990    5.3361
   10.020    5.8276
   10.050    6.2840
   10.080    7.6005
   10.110    8.2500
   10.140    7.8462
   10.170    6.3893
   10.200    4.3532
   10.230    3.3702
   10.260    3.6159
   10.290    3.4229
   10.320    3.7739
   10.350    3.5282
   10.380    3.4755
   10.410    3.5106
   10.440    3.2824
   10.470    3.2298
   10.500    3.5457
   10.530    3.8617
   10.560    3.6335
   10.590    3.5282
   10.620    3.9846
   10.650    3.8617
   10.680    4.0021
   10.710    4.7569
   10.740    5.5468
   10.770    5.7574
   10.800    6.5473
   10.830    6.2489
   10.860    5.2484
   10.890    4.2303
   10.920    3.4404
   10.950    3.2298
   10.980    3.3702
   11.010    3.5106
   11.040    3.0016
   11.070    3.5808
   11.100    3.3175
   11.130    3.2298
   11.160    3.3175
   11.190    3.3526
   11.220    3.3351
   11.250    3.5282
   11.280    3.7915
   11.310    3.5457
   11.340    3.9670
   11.370    3.8617
   11.400    4.2478
   11.430    4.5287
   11.460    5.4766
   11.490    5.3888
   11.520    5.0728
   11.550    4.0021
   11.580    3.4404
   11.610    3.3877
   11.640    3.1771
   11.670    2.6681
   11.700    3.4755
   11.730    3.3351
   11.760    3.2824
   11.790    3.4755
   11.820    3.4755
   11.850    3.3877
   11.880    3.1245
   11.910    3.2824
   11.940    3.4053
   11.970    3.6159
   12.000    4.0021
   12.030    3.9143
   12.060    3.7037
   12.090    4.3181
   12.120    4.2127
   12.150    3.9143
   12.180    3.8090
   12.210    3.4580
   12.240    3.4404
   12.270    3.3000
   12.300    3.0718
   12.330    3.0367
   12.360    3.2824
   12.390    3.3702
   12.420    3.1947
   12.450    3.3702
   12.480    3.4755
   12.510    3.0893
   12.540    3.2649
   12.570    3.7213
   12.600    3.6159
   12.630    3.9670
   12.660    4.4936
   12.690    5.3186
   12.720    5.2308
   12.750    4.1952
   12.780    3.9670
   12.810    3.6335
   12.840    3.2824
   12.870    3.2473
   12.900    2.8787
   12.930    3.1771
   12.960    3.1947
   12.990    3.0016
   13.020    3.1245
   13.050    3.2649
   13.080    3.1596
   13.110    3.2824
   13.140    3.5808
   13.170    3.2649
   13.200    3.3351
   13.230    3.2824
   13.260    4.3181
   13.290    3.8617
   13.320    3.8617
   13.350    3.4229
   13.380    3.6510
   13.410    3.1069
   13.440    3.3000
   13.470    3.0718
   13.500    2.7909
   13.530    3.5282
   13.560    3.2649
   13.590    3.3175
   13.620    3.4404
   13.650    3.5282
   13.680    3.8441
   13.710    4.1074
   13.740    4.8973
   13.770    5.0202
   13.800    5.8452
   13.830    5.7223
   13.860    5.7925
   13.890    4.5111
   13.920    3.4053
   13.950    3.2649
   13.980    3.0718
   14.010    3.0718
   14.040    2.9840
   14.070    2.9489
   14.100    2.9314
   14.130    3.2649
   14.160    3.1420
   14.190    3.1069
   14.220    3.3000
   14.250    3.1245
   14.280    2.9489
   14.310    3.0718
   14.340    2.7558
   14.370    2.8963
   14.400    2.8963
   14.430    3.0191
   14.460    3.0718
   14.490    3.3877
   14.520    3.3351
   14.550    3.2824
   14.580    3.2473
   14.610    3.0718
   14.640    2.7734
   14.670    3.0893
   14.700    3.1069
   14.730    2.9665
   14.760    2.9138
   14.790    3.4755
   14.820    3.6159
   14.850    3.8441
   14.880    3.7915
   14.910    3.4580
   14.940    3.2298
   14.970    2.9665
   15.000    2.9665
   15.030    3.0893
   15.060    3.3351
   15.090    3.3351
   15.120    3.3877
   15.150    2.8260
   15.180    3.1245
   15.210    3.4053
   15.240    3.0016
   15.270    2.8963
   15.300    3.5457
   15.330    3.0718
   15.360    3.1245
   15.390    3.1420
   15.420    3.0191
   15.450    2.8612
   15.480    3.1245
   15.510    3.1420
   15.540    2.9138
   15.570    3.0367
   15.600    3.1771
   15.630    3.3351
   15.660    3.2122
   15.690    3.0367
   15.720    2.9665
   15.750    3.1771
   15.780    3.4229
   15.810    3.7915
   15.840    3.7564
   15.870    3.9319
   15.900    3.4404
   15.930    3.1420
   15.960    3.4229
   15.990    2.9489
   16.020    3.4931
   16.050    3.0191
   16.080    2.6856
   16.110    3.1069
   16.140    3.1245
   16.170    3.3351
   16.200    3.1947
   16.230    3.4404
   16.260    3.5457
   16.290    3.3351
   16.320    3.8441
   16.350    3.3000
   16.380    2.9314
   16.410    3.2122
   16.440    3.2122
   16.470    3.0718
   16.500    2.6856
   16.530    2.8085
   16.560    3.0893
   16.590    3.2473
   16.620    3.4053
   16.650    2.9665
   16.680    3.7388
   16.710    3.7739
   16.740    4.0021
   16.770    3.8441
   16.800    3.3702
   16.830    3.1069
   16.860    3.2649
   16.890    3.0542
   16.920    3.5282
   16.950    3.1596
   16.980    3.0542
   17.010    2.8085
   17.040    3.1771
   17.070    3.0893
   17.100    3.1245
   17.130    3.7388
   17.160    3.5984
   17.190    3.8792
   17.220    3.4053
   17.250    3.5457
   17.280    3.5106
   17.310    3.1069
   17.340    3.0893
   17.370    2.9314
   17.400    2.8612
   17.430    2.9665
   17.460    2.6505
   17.490    2.9840
   17.520    2.9840
   17.550    2.8787
   17.580    3.5282
   17.610    3.3877
   17.640    3.3175
   17.670    3.3526
   17.700    2.8436
   17.730    3.3877
   17.760    3.0893
   17.790    2.8787
   17.820    3.2473
   17.850    2.8963
   17.880    2.8612
   17.910    3.0542
   17.940    3.2473
   17.970    2.9665
   18.000    2.8612
   18.030    3.3175
   18.060    3.3351
   18.090    3.3702
   18.120    3.1420
   18.150    3.2298
   18.180    2.9840
   18.210    3.1420
   18.240    3.4404
   18.270    3.3000
   18.300    2.7909
   18.330    2.9665
   18.360    2.9840
   18.390    3.4404
   18.420    3.1947
   18.450    3.3351
   18.480    3.0718
   18.510    3.1069
   18.540    3.5808
   18.570    3.1947
   18.600    3.0893
   18.630    2.8260
   18.660    3.3000
   18.690    3.1069
   18.720    2.9314
   18.750    2.9138
   18.780    3.1947
   18.810    2.9840
   18.840    3.1596
   18.870    3.0718
   18.900    3.3000
   18.930    3.0367
   18.960    3.1947
   18.990    3.1069
   19.020    2.9840
   19.050    3.0191
   19.080    3.4755
   19.110    3.0191
   19.140    3.5808
   19.170    3.1771
   19.200    3.4755
   19.230    3.6159
   19.260    3.4229
   19.290    3.6335
   19.320    3.1596
   19.350    3.6159
   19.380    2.9665
   19.410    3.1069
   19.440    2.9665
   19.470    3.1596
   19.500    3.0016
   19.530    3.0016
   19.560    3.2649
   19.590    3.1245
   19.620    3.2122
   19.650    3.4931
   19.680    3.1069
   19.710    3.2122
   19.740    3.2473
   19.770    3.0016
   19.800    3.3000
   19.830    2.9840
   19.860    3.2122
   19.890    3.4931
   19.920    3.6686
   19.950    3.7739
   19.980    4.1601
   20.010    3.9494
   20.040    4.1601
   20.070    4.2127
   20.100    3.5808
   20.130    3.4931
   20.160    3.4580
   20.190    3.5457
   20.220    3.2122
   20.250    2.9489
   20.280    3.1420
   20.310    3.0718
   20.340    3.1069
   20.370    3.0542
   20.400    3.1245
   20.430    3.1947
   20.460    2.7909
   20.490    3.2298
   20.520    3.3702
   20.550    3.6862
   20.580    3.0016
   20.610    3.1069
   20.640    3.2824
   20.670    3.6335
   20.700    3.5457
   20.730    3.4053
   20.760    3.1245
   20.790    3.9846
   20.820    3.0016
   20.850    3.3175
   20.880    3.0893
   20.910    3.1245
   20.940    3.2473
   20.970    3.1069
   21.000    3.1947
   21.030    3.1596
   21.060    3.4053
   21.090    3.1771
   21.120    3.4755
   21.150    3.0542
   21.180    2.8787
   21.210    3.0542
   21.240    3.0367
   21.270    3.1771
   21.300    3.2473
   21.330    3.2824
   21.360    3.4931
   21.390    3.2473
   21.420    3.5106
   21.450    3.7388
   21.480    3.6159
   21.510    3.7739
   21.540    3.3175
   21.570    3.2122
   21.600    3.0542
   21.630    3.3351
   21.660    3.2649
   21.690    3.2473
   21.720    3.5282
   21.750    3.3000
   21.780    3.3526
   21.810    3.2649
   21.840    3.0718
   21.870    3.4404
   21.900    3.0542
   21.930    3.1596
   21.960    2.9840
   21.990    3.0542
   22.020    3.3526
   22.050    3.5282
   22.080    3.1420
   22.110    3.8792
   22.140    3.7213
   22.170    4.0548
   22.200    3.7388
   22.230    3.3702
   22.260    3.8617
   22.290    3.5106
   22.320    3.1420
   22.350    3.6510
   22.380    3.6335
   22.410    3.7388
   22.440    4.7042
   22.470    4.5463
   22.500    5.1080
   22.530    4.7218
   22.560    4.1952
   22.590    3.9670
   22.620    3.5633
   22.650    3.6510
   22.680    3.4755
   22.710    3.6159
   22.740    3.2298
   22.770    3.4404
   22.800    2.8787
   22.830    2.9840
   22.860    3.0191
   22.890    2.9314
   22.920    3.2298
   22.950    3.4053
   22.980    3.1947
   23.010    2.9840
   23.040    3.3526
   23.070    3.2649
   23.100    3.2473
   23.130    3.3000
   23.160    3.3877
   23.190    3.0893
   23.220    3.0718
   23.250    3.3877
   23.280    3.5106
   23.310    3.1069
   23.340    3.4229
   23.370    3.2649
   23.400    3.6686
   23.430    3.4580
   23.460    3.4931
   23.490    3.9143
   23.520    4.2654
   23.550    3.5808
   23.580    3.4755
   23.610    3.0367
   23.640    3.1771
   23.670    3.1596
   23.700    3.0893
   23.730    3.3000
   23.760    3.3000
   23.790    3.2473
   23.820    3.2824
   23.850    3.5808
   23.880    3.2649
   23.910    3.3175
   23.940    3.1245
   23.970    3.3526
   24.000    3.0893
   24.030    2.9665
   24.060    3.1947
   24.090    3.2473
   24.120    3.4404
   24.150    3.3175
   24.180    3.1947
   24.210    2.8612
   24.240    3.2298
   24.270    2.8436
   24.300    3.0718
   24.330    2.8436
   24.360    3.2298
   24.390    3.4053
   24.420    3.3000
   24.450    3.3526
   24.480    3.2473
   24.510    3.2649
   24.540    3.1947
   24.570    3.3526
   24.600    3.3877
   24.630    3.1771
   24.660    3.2649
   24.690    3.2824
   24.720    2.9314
   24.750    3.4053
   24.780    2.9314
   24.810    3.2824
   24.840    3.0718
   24.870    3.2824
   24.900    2.9665
   24.930    2.8787
   24.960    3.3702
   24.990    3.1069
   25.020    3.1420
   25.050    3.3175
   25.080    3.2473
   25.110    3.3000
   25.140    3.3351
   25.170    3.5808
   25.200    3.4053
   25.230    3.2649
   25.260    3.7037
   25.290    3.7388
   25.320    4.3005
   25.350    4.2127
   25.380    4.0197
   25.410    4.0899
   25.440    3.6686
   25.470    3.5984
   25.500    3.3000
   25.530    2.9840
   25.560    3.1069
   25.590    3.3877
   25.620    2.9489
   25.650    3.4755
   25.680    2.8963
   25.710    3.3351
   25.740    2.8963
   25.770    3.0367
   25.800    3.6335
   25.830    3.0893
   25.860    3.0893
   25.890    3.3000
   25.920    3.1245
   25.950    3.3877
   25.980    3.3702
   26.010    3.4404
   26.040    3.4229
   26.070    3.4931
   26.100    3.3526
   26.130    3.3351
   26.160    2.9489
   26.190    3.0542
   26.220    3.1245
   26.250    2.9489
   26.280    3.1420
   26.310    2.8085
   26.340    3.2122
   26.370    3.0016
   26.400    2.8436
   26.430    2.9665
   26.460    3.1420
   26.490    3.4931
   26.520    3.0542
   26.550    3.7388
   26.580    3.4580
   26.610    2.8085
   26.640    3.3526
   26.670    3.4053
   26.700    3.0016
   26.730    2.6856
   26.760    3.2473
   26.790    3.3351
   26.820    2.9138
   26.850    3.0367
   26.880    3.0016
   26.910    3.2473
   26.940    2.9665
   26.970    3.0016
   27.000    2.5979
   27.030    2.9314
   27.060    3.4053
   27.090    3.4229
   27.120    2.8963
   27.150    3.0893
   27.180    3.1596
   27.210    3.3000
   27.240    3.1947
   27.270    3.0893
   27.300    2.9840
   27.330    3.1420
   27.360    3.1947
   27.390    2.8787
   27.420    2.9665
   27.450    2.8436
   27.480    3.0016
   27.510    2.8963
   27.540    2.7909
   27.570    2.9314
   27.600    3.3175
   27.630    3.2298
   27.660    3.3526
   27.690    3.3702
   27.720    3.2649
   27.750    3.4053
   27.780    3.0367
   27.810    3.1245
   27.840    3.0016
   27.870    3.1069
   27.900    3.3000
   27.930    3.0718
   27.960    3.5457
   27.990    3.0367
   28.020    3.2473
   28.050    2.8963
   28.080    3.0367
   28.110    3.1947
   28.140    2.9314
   28.170    2.8963
   28.200    2.9138
   28.230    2.5452
   28.260    2.8436
   28.290    3.1245
   28.320    3.3526
   28.350    3.2824
   28.380    3.0542
   28.410    3.0016
   28.440    2.9840
   28.470    2.7734
   28.500    3.0542
   28.530    2.6154
   28.560    2.9314
   28.590    2.4574
   28.620    2.8787
   28.650    2.7558
   28.680    3.2649
   28.710    3.1596
   28.740    3.4931
   28.770    3.3351
   28.800    3.4229
   28.830    2.9314
   28.860    3.0016
   28.890    2.6330
   28.920    2.9489
   28.950    3.0542
   28.980    2.3872
   29.010    2.8612
   29.040    3.0367
   29.070    2.8612
   29.100    2.7734
   29.130    2.8085
   29.160    2.6330
   29.190    3.1420
   29.220    2.8436
   29.250    2.9138
   29.280    2.5979
   29.310    2.8963
   29.340    3.2122
   29.370    3.0893
   29.400    2.9314
   29.430    3.1947
   29.460    3.0893
   29.490    2.7558
   29.520    2.7558
   29.550    3.0191
   29.580    3.0718
   29.610    3.0191
   29.640    3.0718
   29.670    2.6505
   29.700    2.7909
   29.730    3.1069
   29.760    2.7383
   29.790    2.5803
   29.820    2.6330
   29.850    2.8787
   29.880    2.8612
   29.910    2.8963
   29.940    2.5803
   29.970    2.5628
   30.000    2.8612
   30.030    2.8963
   30.060    2.8612
   30.090    2.6154
   30.120    2.8085
   30.150    2.5803
   30.180    3.0191
   30.210    3.0367
   30.240    2.4048
   30.270    2.9665
   30.300    3.3877
   30.330    2.8612
   30.360    2.7207
   30.390    2.7032
   30.420    2.9314
   30.450    2.5803
   30.480    2.6154
   30.510    3.0016
   30.540    2.8963
   30.570    2.2819
   30.600    2.7207
   30.630    2.8787
   30.660    2.4574
   30.690    2.8436
   30.720    2.4750
   30.750    2.6154
   30.780    2.8436
   30.810    2.5979
   30.840    2.6856
   30.870    2.8787
   30.900    2.5101
   30.930    2.5979
   30.960    2.5452
   30.990    2.7207
   31.020    2.7207
   31.050    2.6154
   31.080    2.5101
   31.110    2.2995
   31.140    2.9489
   31.170    2.5452
   31.200    3.0016
   31.230    2.5979
   31.260    2.5452
   31.290    2.8260
   31.320    2.7558
   31.350    2.6330
   31.380    2.5452
   31.410    2.2643
   31.440    2.7032
   31.470    2.5979
   31.500    2.9138
   31.530    2.7032
   31.560    2.3872
   31.590    2.7734
   31.620    2.4750
   31.650    2.7558
   31.680    2.7909
   31.710    2.7734
   31.740    2.4574
   31.770    2.5803
   31.800    2.6154
   31.830    3.0893
   31.860    2.6681
   31.890    2.8612
   31.920    2.5979
   31.950    2.3170
   31.980    2.5803
   32.010    2.2819
   32.040    2.5979
   32.070    2.6154
   32.100    2.5803
   32.130    2.5276
   32.160    2.4574
   32.190    2.7558
   32.220    2.7207
   32.250    2.6330
   32.280    2.6681
   32.310    2.7032
   32.340    3.0542
   32.370    2.3697
   32.400    2.9840
   32.430    2.3346
   32.460    2.2995
   32.490    2.5979
   32.520    2.5101
   32.550    2.1941
   32.580    2.3170
   32.610    2.5276
   32.640    2.4925
   32.670    2.2643
   32.700    2.5628
   32.730    2.6154
   32.760    2.3170
   32.790    2.3872
   32.820    2.3697
   32.850    2.8085
   32.880    2.5276
   32.910    2.6681
   32.940    2.3697
   32.970    2.7207
   33.000    2.4574
   33.030    2.7734
   33.060    2.5628
   33.090    2.8260
   33.120    2.5101
   33.150    2.5452
   33.180    2.5452
   33.210    2.3872
   33.240    2.6154
   33.270    2.4574
   33.300    2.7383
   33.330    2.4750
   33.360    2.2819
   33.390    2.4925
   33.420    2.3521
   33.450    2.6856
   33.480    2.5803
   33.510    2.3170
   33.540    2.2643
   33.570    2.2643
   33.600    2.7207
   33.630    2.3697
   33.660    2.4750
   33.690    2.2117
   33.720    2.3697
   33.750    2.4223
   33.780    2.5803
   33.810    2.4925
   33.840    3.0016
   33.870    2.5276
   33.900    2.4574
   33.930    2.4750
   33.960    2.3521
   33.990    2.3872
   34.020    2.5628
   34.050    2.2995
   34.080    2.2468
   34.110    2.3697
   34.140    2.2995
   34.170    2.7032
   34.200    2.4574
   34.230    2.5101
   34.260    2.2292
   34.290    2.4750
   34.320    2.2643
   34.350    2.5803
   34.380    2.5979
   34.410    2.5101
   34.440    2.2995
   34.470    2.1941
   34.500    2.1941
   34.530    2.3697
   34.560    2.2468
   34.590    2.3170
   34.620    2.1064
   34.650    2.2643
   34.680    2.3872
   34.710    2.2117
   34.740    2.4750
   34.770    2.2468
   34.800    2.2468
   34.830    2.1766
   34.860    2.0888
   34.890    2.2995
   34.920    2.3346
   34.950    2.3872
   34.980    2.4223
   35.010    2.4750
   35.040    2.2643
   35.070    2.2643
   35.100    2.4925
   35.130    2.0362
   35.160    2.3697
   35.190    2.5276
   35.220    2.4223
   35.250    2.1941
   35.280    2.0713
   35.310    2.2995
   35.340    2.2468
   35.370    1.9835
   35.400    2.2292
   35.430    2.3872
   35.460    2.4750
   35.490    2.1239
   35.520    2.1766
   35.550    2.2117
   35.580    2.5101
   35.610    2.1766
   35.640    1.8255
   35.670    2.1064
   35.700    2.5101
   35.730    2.0888
   35.760    1.9133
   35.790    2.4048
   35.820    1.8782
   35.850    2.0888
   35.880    1.9835
   35.910    2.1941
   35.940    2.4048
   35.970    2.4925
   36.000    2.2117
   36.030    2.5101
   36.060    2.0713
   36.090    2.1239
   36.120    2.2117
   36.150    2.2292
   36.180    1.9835
   36.210    2.0713
   36.240    2.1941
   36.270    2.2468
   36.300    2.1239
   36.330    2.0011
   36.360    2.5628
   36.390    2.1590
   36.420    2.1239
   36.450    2.0888
   36.480    1.8957
   36.510    2.0713
   36.540    2.1064
   36.570    1.9484
   36.600    2.0713
   36.630    2.0713
   36.660    1.9133
   36.690    2.2292
   36.720    2.2468
   36.750    1.8431
   36.780    2.1064
   36.810    1.9133
   36.840    2.0362
   36.870    2.0888
   36.900    2.1064
   36.930    2.0713
   36.960    2.0537
   36.990    1.9659
   37.020    2.2995
   37.050    1.8431
   37.080    1.9308
   37.110    2.2468
   37.140    2.1941
   37.170    2.0537
   37.200    2.2292
   37.230    2.4399
   37.260    2.3521
   37.290    2.0362
   37.320    2.1415
   37.350    2.2819
   37.380    2.1415
   37.410    2.4399
   37.440    2.2117
   37.470    1.8782
   37.500    2.5979
   37.530    1.9308
   37.560    1.9659
   37.590    2.2117
   37.620    2.1064
   37.650    2.2292
   37.680    2.0186
   37.710    2.2819
   37.740    2.2643
   37.770    2.2819
   37.800    2.0011
   37.830    1.8255
   37.860    2.0537
   37.890    1.9484
   37.920    1.8782
   37.950    2.1590
   37.980    1.7904
   38.010    1.9835
   38.040    2.0186
   38.070    2.0362
   38.100    1.8606
   38.130    2.1239
   38.160    2.2643
   38.190    2.0362
   38.220    1.9659
   38.250    2.1239
   38.280    1.9133
   38.310    1.8957
   38.340    1.8782
   38.370    1.8782
   38.400    1.8782
   38.430    1.9484
   38.460    2.0186
   38.490    1.9659
   38.520    1.9308
   38.550    1.8080
   38.580    1.9133
   38.610    2.1064
   38.640    1.8431
   38.670    2.2819
   38.700    2.0888
   38.730    2.0186
   38.760    2.3346
   38.790    2.1590
   38.820    2.0888
   38.850    1.7904
   38.880    2.0888
   38.910    1.8255
   38.940    1.9133
   38.970    2.0362
   39.000    2.1064
   39.030    2.1415
   39.060    1.8606
   39.090    1.9133
   39.120    2.0888
   39.150    1.9835
   39.180    2.1239
   39.210    2.2117
   39.240    2.3346
   39.270    1.6851
   39.300    2.0888
   39.330    1.9484
   39.360    2.1239
   39.390    1.8957
   39.420    1.7904
   39.450    2.1064
   39.480    1.9308
   39.510    2.1239
   39.540    2.1239
   39.570    1.7904
   39.600    1.9484
   39.630    1.9133
   39.660    2.1239
   39.690    2.0537
   39.720    2.0186
   39.750    2.0186
   39.780    2.1415
   39.810    2.0362
   39.840    2.1941
   39.870    2.2643
   39.900    2.0011
   39.930    2.1239
   39.960    1.7027
   39.990    2.0362