File: data/MOCOF-1/PXRD/PXRD_KE-220_Co-Ka1_capillary-1mm_5s-deg.xyd
    1.500    8.2504
    1.530    8.0364
    1.560    7.8331
    1.590    7.8973
    1.620    7.1161
    1.650    7.3515
    1.680    7.2338
    1.710    6.8058
    1.740    6.6881
    1.770    6.4205
    1.800    5.9497
    1.830    6.1851
    1.860    5.7036
    1.890    5.3719
    1.920    5.2327
    1.950    5.2327
    1.980    5.1685
    2.010    4.8047
    2.040    4.9973
    2.070    4.6442
    2.100    4.2804
    2.130    4.7298
    2.160    4.3660
    2.190    4.5693
    2.220    4.3553
    2.250    4.2055
    2.280    4.3874
    2.310    4.2590
    2.340    4.2269
    2.370    3.7881
    2.400    3.8951
    2.430    3.8523
    2.460    4.0984
    2.490    4.0663
    2.520    3.6704
    2.550    3.5313
    2.580    3.5313
    2.610    3.3708
    2.640    3.5955
    2.670    3.4457
    2.700    3.7667
    2.730    3.6704
    2.760    3.3387
    2.790    3.7025
    2.820    3.5634
    2.850    3.6704
    2.880    3.5634
    2.910    3.8737
    2.940    3.8202
    2.970    3.7132
    3.000    3.8523
    3.030    3.9593
    3.060    3.7560
    3.090    4.1948
    3.120    3.9486
    3.150    3.7560
    3.180    3.8630
    3.210    4.2269
    3.240    3.9700
    3.270    4.4302
    3.300    4.3446
    3.330    4.5051
    3.360    4.9010
    3.390    5.0722
    3.420    5.3505
    3.450    5.4254
    3.480    5.8641
    3.510    5.3719
    3.540    6.3670
    3.570    6.5597
    3.600    7.0519
    3.630    7.4371
    3.660    7.5976
    3.690    8.9460
    3.720    9.6094
    3.750   10.2301
    3.780   10.9898
    3.810   11.9957
    3.840   13.3119
    3.870   14.8422
    3.900   16.2654
    3.930   19.2937
    3.960   20.4387
    3.990   23.1568
    4.020   24.4195
    4.050   23.1568
    4.080   19.7004
    4.110   15.8802
    4.140   13.7186
    4.170   12.8090
    4.200   13.1407
    4.230   12.8411
    4.260   14.0503
    4.290   15.4628
    4.320   15.8909
    4.350   17.7314
    4.380   19.9251
    4.410   23.9914
    4.440   27.4692
    4.470   32.2632
    4.500   44.4302
    4.530   56.3403
    4.560   28.4323
    4.590   10.3264
    4.620    7.7796
    4.650    7.7796
    4.680    7.6083
    4.710    7.7475
    4.740    8.2290
    4.770    7.5548
    4.800    7.9722
    4.830    7.8117
    4.860    7.5762
    4.890    7.3515
    4.920    7.4478
    4.950    6.5383
    4.980    6.0995
    5.010    5.3933
    5.040    5.0187
    5.070    4.2483
    5.100    3.8523
    5.130    3.4778
    5.160    3.1568
    5.190    3.0391
    5.220    2.6217
    5.250    2.3970
    5.280    2.4398
    5.310    1.9797
    5.340    1.8513
    5.370    2.0546
    5.400    1.7764
    5.430    1.9797
    5.460    1.6051
    5.490    1.7121
    5.520    1.6479
    5.550    1.7442
    5.580    1.5516
    5.610    1.6479
    5.640    1.5302
    5.670    1.6586
    5.700    1.6051
    5.730    1.3483
    5.760    1.5730
    5.790    1.4981
    5.820    1.8406
    5.850    1.5516
    5.880    1.6265
    5.910    1.8513
    5.940    1.8192
    5.970    1.7549
    6.000    1.9583
    6.030    1.9690
    6.060    2.2579
    6.090    2.4505
    6.120    2.3114
    6.150    2.4184
    6.180    2.7822
    6.210    2.8785
    6.240    3.3173
    6.270    3.5634
    6.300    4.1199
    6.330    4.5586
    6.360    6.2600
    6.390    8.7105
    6.420   10.0910
    6.450    4.3767
    6.480    1.7764
    6.510    1.2841
    6.540    1.1450
    6.570    1.1022
    6.600    1.1771
    6.630    1.1878
    6.660    0.9952
    6.690    1.1771
    6.720    1.1557
    6.750    1.1129
    6.780    0.9524
    6.810    1.0059
    6.840    0.9845
    6.870    1.1022
    6.900    1.1022
    6.930    0.9952
    6.960    0.9417
    6.990    0.9631
    7.020    1.0273
    7.050    1.1022
    7.080    1.1129
    7.110    1.0594
    7.140    1.0487
    7.170    1.0594
    7.200    1.1343
    7.230    1.1236
    7.260    1.0380
    7.290    0.9738
    7.320    0.9096
    7.350    0.9524
    7.380    0.9524
    7.410    1.2627
    7.440    0.9310
    7.470    1.1557
    7.500    0.9417
    7.530    1.1664
    7.560    1.0915
    7.590    1.0273
    7.620    1.2841
    7.650    1.3269
    7.680    1.4874
    7.710    1.2199
    7.740    1.2734
    7.770    1.5516
    7.800    1.6907
    7.830    2.0225
    7.860    2.3007
    7.890    2.1509
    7.920    1.7871
    7.950    1.9262
    7.980    2.3007
    8.010    2.3542
    8.040    2.4612
    8.070    2.8892
    8.100    2.6110
    8.130    2.3649
    8.160    2.0332
    8.190    1.6693
    8.220    1.3590
    8.250    1.1236
    8.280    1.1022
    8.310    1.1022
    8.340    1.0166
    8.370    0.9524
    8.400    1.0059
    8.430    1.0701
    8.460    1.0380
    8.490    1.0808
    8.520    1.0808
    8.550    1.1129
    8.580    1.2520
    8.610    0.9310
    8.640    1.0380
    8.670    0.9417
    8.700    0.9738
    8.730    1.0487
    8.760    1.0273
    8.790    1.1664
    8.820    1.0915
    8.850    1.4018
    8.880    1.3162
    8.910    1.4339
    8.940    1.7442
    8.970    1.8299
    9.000    2.1402
    9.030    2.5040
    9.060    3.4671
    9.090    3.7346
    9.120    2.2793
    9.150    1.3162
    9.180    1.1985
    9.210    1.0166
    9.240    1.0915
    9.270    1.1236
    9.300    0.9845
    9.330    1.0915
    9.360    1.2413
    9.390    1.4018
    9.420    1.1343
    9.450    1.3697
    9.480    1.2306
    9.510    1.2199
    9.540    1.1557
    9.570    1.4446
    9.600    1.2520
    9.630    1.4232
    9.660    1.1985
    9.690    1.1450
    9.720    1.3376
    9.750    1.3911
    9.780    1.1985
    9.810    1.2734
    9.840    1.4018
    9.870    1.5088
    9.900    1.2948
    9.930    1.4767
    9.960    1.3590
    9.990    1.3590
   10.020    1.2948
   10.050    1.5944
   10.080    1.3055
   10.110    1.5195
   10.140    1.5623
   10.170    1.5302
   10.200    1.1664
   10.230    1.0594
   10.260    1.0166
   10.290    1.2199
   10.320    1.0915
   10.350    1.0487
   10.380    0.9310
   10.410    0.9524
   10.440    0.8561
   10.470    0.8989
   10.500    0.9203
   10.530    0.8240
   10.560    0.9310
   10.590    0.8989
   10.620    1.0380
   10.650    0.8561
   10.680    0.8026
   10.710    0.9952
   10.740    0.8668
   10.770    0.8989
   10.800    0.9310
   10.830    1.1343
   10.860    0.9417
   10.890    1.0701
   10.920    1.3483
   10.950    1.3376
   10.980    1.5944
   11.010    1.8513
   11.040    2.1295
   11.070    2.4826
   11.100    3.7774
   11.130    5.0080
   11.160    3.3387
   11.190    1.7549
   11.220    0.8989
   11.250    0.9631
   11.280    0.6956
   11.310    0.7491
   11.340    0.8240
   11.370    0.7277
   11.400    0.8989
   11.430    0.8026
   11.460    0.7598
   11.490    0.7598
   11.520    0.8775
   11.550    0.8882
   11.580    0.9310
   11.610    0.7919
   11.640    0.8989
   11.670    0.8240
   11.700    0.7491
   11.730    0.7919
   11.760    0.9631
   11.790    0.9203
   11.820    0.7812
   11.850    0.9417
   11.880    1.0059
   11.910    1.0166
   11.940    1.1236
   11.970    1.5195
   12.000    1.9155
   12.030    2.0546
   12.060    1.6051
   12.090    1.0166
   12.120    0.7598
   12.150    1.1022
   12.180    1.0380
   12.210    0.8561
   12.240    0.9524
   12.270    0.7812
   12.300    0.6742
   12.330    0.6849
   12.360    0.7063
   12.390    0.6314
   12.420    0.8561
   12.450    0.6314
   12.480    0.8561
   12.510    0.8989
   12.540    0.8668
   12.570    0.7812
   12.600    0.9310
   12.630    0.8347
   12.660    0.7063
   12.690    0.8026
   12.720    0.9096
   12.750    0.9417
   12.780    1.2306
   12.810    1.1985
   12.840    1.7764
   12.870    1.8727
   12.900    1.4446
   12.930    0.8026
   12.960    0.8026
   12.990    0.7170
   13.020    0.7812
   13.050    0.7277
   13.080    0.6742
   13.110    0.7063
   13.140    0.6635
   13.170    0.8989
   13.200    0.7705
   13.230    0.8026
   13.260    0.7170
   13.290    0.6421
   13.320    0.7384
   13.350    0.5993
   13.380    0.9631
   13.410    0.8347
   13.440    0.9738
   13.470    0.9096
   13.500    0.9845
   13.530    0.9952
   13.560    1.3269
   13.590    1.1557
   13.620    1.9904
   13.650    2.0546
   13.680    1.5730
   13.710    0.9952
   13.740    0.7277
   13.770    0.6314
   13.800    0.7598
   13.830    0.7812
   13.860    0.5778
   13.890    0.7705
   13.920    0.7277
   13.950    0.8454
   13.980    0.7705
   14.010    0.7812
   14.040    0.6421
   14.070    0.6849
   14.100    0.6528
   14.130    0.9417
   14.160    0.7919
   14.190    0.7170
   14.220    0.7919
   14.250    0.8775
   14.280    0.7277
   14.310    0.9096
   14.340    0.9524
   14.370    1.0808
   14.400    1.0487
   14.430    0.9524
   14.460    0.9203
   14.490    0.8133
   14.520    0.8561
   14.550    0.8240
   14.580    0.7277
   14.610    0.7705
   14.640    0.7919
   14.670    0.6849
   14.700    0.7063
   14.730    0.7812
   14.760    0.8668
   14.790    0.8133
   14.820    0.8561
   14.850    0.7277
   14.880    0.9310
   14.910    0.8240
   14.940    0.8882
   14.970    1.0594
   15.000    0.8561
   15.030    1.3055
   15.060    1.3697
   15.090    1.7657
   15.120    1.5837
   15.150    0.9845
   15.180    1.0166
   15.210    0.8240
   15.240    0.8775
   15.270    0.8026
   15.300    0.7491
   15.330    0.8133
   15.360    0.7277
   15.390    0.7705
   15.420    0.7598
   15.450    0.8133
   15.480    0.6635
   15.510    0.7705
   15.540    0.7063
   15.570    0.7705
   15.600    0.6635
   15.630    0.7277
   15.660    0.7919
   15.690    0.9524
   15.720    0.8989
   15.750    0.9096
   15.780    1.1771
   15.810    1.0166
   15.840    0.7705
   15.870    0.8026
   15.900    0.8240
   15.930    0.7170
   15.960    0.8133
   15.990    0.7812
   16.020    0.9096
   16.050    0.6635
   16.080    0.7384
   16.110    0.8454
   16.140    0.5993
   16.170    0.7705
   16.200    0.6849
   16.230    0.8882
   16.260    0.8454
   16.290    0.8775
   16.320    0.9524
   16.350    1.1557
   16.380    1.2413
   16.410    1.5516
   16.440    1.5409
   16.470    1.2948
   16.500    0.8240
   16.530    0.8347
   16.560    0.7384
   16.590    0.7919
   16.620    0.7598
   16.650    0.7812
   16.680    0.6314
   16.710    0.6956
   16.740    0.7170
   16.770    0.6100
   16.800    0.6207
   16.830    0.5778
   16.860    0.7598
   16.890    0.6421
   16.920    0.6421
   16.950    0.8561
   16.980    0.7919
   17.010    0.7598
   17.040    0.6421
   17.070    0.5671
   17.100    0.7063
   17.130    0.6635
   17.160    0.7491
   17.190    0.7063
   17.220    0.6635
   17.250    0.5778
   17.280    0.6314
   17.310    0.6528
   17.340    0.6742
   17.370    0.7491
   17.400    0.6207
   17.430    0.6528
   17.460    0.6635
   17.490    0.6314
   17.520    0.6956
   17.550    0.8240
   17.580    0.6849
   17.610    0.8454
   17.640    0.8454
   17.670    0.8882
   17.700    0.9203
   17.730    0.6956
   17.760    0.6207
   17.790    0.6528
   17.820    0.7277
   17.850    0.6314
   17.880    0.7170
   17.910    0.6100
   17.940    0.7705
   17.970    0.5993
   18.000    0.5671
   18.030    0.6421
   18.060    0.8775
   18.090    0.7384
   18.120    0.7598
   18.150    0.7277
   18.180    0.5993
   18.210    0.6207
   18.240    0.6421
   18.270    0.6956
   18.300    0.6742
   18.330    0.5886
   18.360    0.6742
   18.390    0.6742
   18.420    0.6849
   18.450    0.7170
   18.480    0.6207
   18.510    0.6421
   18.540    0.7277
   18.570    0.7277
   18.600    0.8561
   18.630    0.7277
   18.660    0.6528
   18.690    0.8240
   18.720    0.7598
   18.750    0.8454
   18.780    0.8026
   18.810    0.9310
   18.840    0.7919
   18.870    0.9417
   18.900    0.8882
   18.930    0.5778
   18.960    0.6635
   18.990    0.6207
   19.020    0.6528
   19.050    0.7277
   19.080    0.6528
   19.110    0.6956
   19.140    0.6207
   19.170    0.7705
   19.200    0.6742
   19.230    0.7277
   19.260    0.8240
   19.290    0.8133
   19.320    0.7170
   19.350    0.9417
   19.380    0.8133
   19.410    0.8561
   19.440    0.7598
   19.470    0.7705
   19.500    0.7919
   19.530    0.6100
   19.560    0.6421
   19.590    0.6635
   19.620    0.6742
   19.650    0.7598
   19.680    0.6742
   19.710    0.8026
   19.740    0.7598
   19.770    0.7919
   19.800    1.0380
   19.830    0.9631
   19.860    0.9952
   19.890    1.1557
   19.920    1.1985
   19.950    0.9203
   19.980    0.8133
   20.010    0.7491
   20.040    0.7919
   20.070    0.7063
   20.100    0.6421
   20.130    0.7491
   20.160    0.8347
   20.190    0.6956
   20.220    0.5671
   20.250    0.5136
   20.280    0.6528
   20.310    0.8347
   20.340    0.6956
   20.370    0.6635
   20.400    0.8989
   20.430    0.7705
   20.460    0.7491
   20.490    0.5886
   20.520    0.5564
   20.550    0.5993
   20.580    0.7170
   20.610    0.6635
   20.640    0.7598
   20.670    0.6100
   20.700    0.6314
   20.730    0.8775
   20.760    0.7063
   20.790    0.7598
   20.820    0.7705
   20.850    0.6956
   20.880    0.8668
   20.910    0.8775
   20.940    0.8240
   20.970    0.7491
   21.000    0.6100
   21.030    0.7170
   21.060    0.6421
   21.090    0.7598
   21.120    0.6528
   21.150    0.8133
   21.180    0.6100
   21.210    0.6635
   21.240    0.6742
   21.270    0.8668
   21.300    0.8026
   21.330    0.8668
   21.360    0.8989
   21.390    0.8240
   21.420    0.8668
   21.450    0.8026
   21.480    0.6421
   21.510    0.6635
   21.540    0.6956
   21.570    0.6207
   21.600    0.8240
   21.630    0.7170
   21.660    0.6100
   21.690    0.7491
   21.720    0.7063
   21.750    0.8026
   21.780    0.6207
   21.810    0.7705
   21.840    0.5993
   21.870    0.6421
   21.900    0.7598
   21.930    0.6314
   21.960    0.6742
   21.990    0.7705
   22.020    0.6742
   22.050    0.6100
   22.080    0.7170
   22.110    0.5886
   22.140    0.6100
   22.170    0.6849
   22.200    0.6849
   22.230    0.6528
   22.260    0.6849
   22.290    0.6635
   22.320    0.6100
   22.350    0.6100
   22.380    0.6849
   22.410    0.6314
   22.440    0.7705
   22.470    0.6207
   22.500    0.7919
   22.530    0.7170
   22.560    0.6421
   22.590    0.8133
   22.620    0.8561
   22.650    0.7919
   22.680    0.5993
   22.710    0.5564
   22.740    0.8775
   22.770    0.7812
   22.800    0.8775
   22.830    1.0594
   22.860    0.9203
   22.890    0.9096
   22.920    0.8775
   22.950    0.8454
   22.980    0.7491
   23.010    0.5993
   23.040    0.7170
   23.070    0.9845
   23.100    0.7491
   23.130    0.6849
   23.160    0.8882
   23.190    0.6956
   23.220    0.8240
   23.250    0.7491
   23.280    0.8775
   23.310    0.7598
   23.340    0.8026
   23.370    0.7277
   23.400    0.8668
   23.430    0.7384
   23.460    0.8775
   23.490    0.7705
   23.520    0.7598
   23.550    0.7491
   23.580    0.7705
   23.610    1.0594
   23.640    0.7170
   23.670    1.0059
   23.700    1.0059
   23.730    1.0273
   23.760    1.3376
   23.790    1.1878
   23.820    1.1771
   23.850    0.8454
   23.880    0.7277
   23.910    0.7812
   23.940    0.7170
   23.970    0.5886
   24.000    0.8454
   24.030    0.5993
   24.060    0.7491
   24.090    0.7170
   24.120    0.8133
   24.150    0.7384
   24.180    0.7705
   24.210    0.7170
   24.240    0.7491
   24.270    0.7598
   24.300    0.7170
   24.330    0.7598
   24.360    0.7277
   24.390    0.6635
   24.420    0.8347
   24.450    0.7277
   24.480    0.9524
   24.510    0.8668
   24.540    0.7170
   24.570    0.8347
   24.600    0.8240
   24.630    0.8454
   24.660    0.6421
   24.690    0.7491
   24.720    0.7919
   24.750    0.6635
   24.780    0.8454
   24.810    0.6421
   24.840    0.7812
   24.870    0.6956
   24.900    0.7705
   24.930    0.8989
   24.960    0.7705
   24.990    0.7277
   25.020    0.7170
   25.050    0.6421
   25.080    0.7170
   25.110    0.8775
   25.140    0.7491
   25.170    0.7170
   25.200    0.7919
   25.230    0.7598
   25.260    0.6849
   25.290    0.7063
   25.320    0.7919
   25.350    0.8561
   25.380    0.8561
   25.410    0.8775
   25.440    0.8989
   25.470    0.9203
   25.500    0.9952
   25.530    0.9203
   25.560    0.9631
   25.590    0.8240
   25.620    0.7170
   25.650    0.7598
   25.680    0.6849
   25.710    0.7384
   25.740    0.7491
   25.770    0.7277
   25.800    0.9203
   25.830    0.7384
   25.860    0.7919
   25.890    0.8668
   25.920    1.0273
   25.950    0.9738
   25.980    0.7277
   26.010    0.8882
   26.040    0.7384
   26.070    0.8133
   26.100    0.7170
   26.130    0.7491
   26.160    0.8347
   26.190    0.8561
   26.220    0.9096
   26.250    0.8882
   26.280    1.2948
   26.310    1.2306
   26.340    1.2627
   26.370    1.1129
   26.400    0.8668
   26.430    0.7491
   26.460    0.7705
   26.490    0.8454
   26.520    0.7170
   26.550    0.8454
   26.580    0.7919
   26.610    0.9738
   26.640    0.9524
   26.670    1.0915
   26.700    1.3055
   26.730    1.2627
   26.760    1.3697
   26.790    1.0808
   26.820    0.9310
   26.850    0.7919
   26.880    0.6207
   26.910    0.7063
   26.940    0.8026
   26.970    0.6956
   27.000    0.8775
   27.030    0.7491
   27.060    0.8026
   27.090    0.8133
   27.120    0.8989
   27.150    0.8026
   27.180    0.8347
   27.210    0.6421
   27.240    0.8133
   27.270    0.7812
   27.300    0.6742
   27.330    0.7919
   27.360    0.8133
   27.390    0.8133
   27.420    0.7491
   27.450    0.7491
   27.480    0.7598
   27.510    0.8561
   27.540    0.7705
   27.570    0.5350
   27.600    0.6742
   27.630    0.6207
   27.660    0.6207
   27.690    0.6314
   27.720    0.7491
   27.750    0.7170
   27.780    0.8026
   27.810    0.6100
   27.840    0.7812
   27.870    0.7384
   27.900    0.8989
   27.930    0.8347
   27.960    0.7598
   27.990    0.8668
   28.020    0.7063
   28.050    0.6421
   28.080    0.7170
   28.110    0.6635
   28.140    0.7598
   28.170    0.8133
   28.200    0.7705
   28.230    0.7491
   28.260    0.6956
   28.290    0.7170
   28.320    0.6635
   28.350    0.7384
   28.380    0.7919
   28.410    0.7812
   28.440    0.6635
   28.470    0.5457
   28.500    0.7598
   28.530    0.6421
   28.560    0.6635
   28.590    0.6956
   28.620    0.7812
   28.650    0.8240
   28.680    0.7491
   28.710    0.7384
   28.740    0.7598
   28.770    0.7705
   28.800    0.6528
   28.830    0.7384
   28.860    0.7170
   28.890    0.7705
   28.920    0.7812
   28.950    0.6742
   28.980    0.5993
   29.010    0.6849
   29.040    0.6100
   29.070    0.8454
   29.100    0.7063
   29.130    0.6100
   29.160    0.6528
   29.190    0.6528
   29.220    0.7277
   29.250    0.6956
   29.280    0.6635
   29.310    0.5243
   29.340    0.7063
   29.370    0.7277
   29.400    0.6849
   29.430    0.7384
   29.460    0.8454
   29.490    0.6100
   29.520    0.5564
   29.550    0.7491
   29.580    0.6207
   29.610    0.5993
   29.640    0.6956
   29.670    0.6207
   29.700    0.6849
   29.730    0.7063
   29.760    0.6314
   29.790    0.7384
   29.820    0.7919
   29.850    0.6849
   29.880    0.6528
   29.910    0.7705
   29.940    0.5993
   29.970    0.7063
   30.000    0.6100
   30.030    0.5457
   30.060    0.8026
   30.090    0.9310
   30.120    1.1022
   30.150    0.9845
   30.180    0.9417
   30.210    0.9524
   30.240    0.7063
   30.270    0.5993
   30.300    0.6421
   30.330    0.5993
   30.360    0.6635
   30.390    0.7491
   30.420    0.4922
   30.450    0.6528
   30.480    0.7705
   30.510    0.5136
   30.540    0.6956
   30.570    0.6635
   30.600    0.5671
   30.630    0.6421
   30.660    0.5136
   30.690    0.6100
   30.720    0.6956
   30.750    0.6635
   30.780    0.7063
   30.810    0.7705
   30.840    0.6635
   30.870    0.6421
   30.900    0.7598
   30.930    0.6207
   30.960    0.5457
   30.990    0.5778
   31.020    0.6207
   31.050    0.5886
   31.080    0.6849
   31.110    0.7598
   31.140    0.5350
   31.170    0.5671
   31.200    0.5778
   31.230    0.6207
   31.260    0.5029
   31.290    0.6207
   31.320    0.4066
   31.350    0.6314
   31.380    0.6314
   31.410    0.6528
   31.440    0.6635
   31.470    0.6100
   31.500    0.8454
   31.530    0.8775
   31.560    0.8454
   31.590    0.8454
   31.620    0.6207
   31.650    0.6100
   31.680    0.5778
   31.710    0.5778
   31.740    0.5886
   31.770    0.5778
   31.800    0.6528
   31.830    0.4922
   31.860    0.5993
   31.890    0.6849
   31.920    0.4708
   31.950    0.6207
   31.980    0.5778
   32.010    0.4387
   32.040    0.5564
   32.070    0.6421
   32.100    0.5564
   32.130    0.6849
   32.160    0.6635
   32.190    0.6635
   32.220    0.6421
   32.250    0.5564
   32.280    0.6849
   32.310    0.7384
   32.340    0.7277
   32.370    0.5778
   32.400    0.4815
   32.430    0.5350
   32.460    0.5243
   32.490    0.4708
   32.520    0.6742
   32.550    0.7705
   32.580    0.6956
   32.610    0.6635
   32.640    0.5564
   32.670    0.6314
   32.700    0.5778
   32.730    0.5993
   32.760    0.5778
   32.790    0.6207
   32.820    0.6635
   32.850    0.7384
   32.880    0.6100
   32.910    0.7812
   32.940    0.8561
   32.970    0.6314
   33.000    0.7919
   33.030    0.6314
   33.060    0.6849
   33.090    0.5993
   33.120    0.6207
   33.150    0.7170
   33.180    0.7812
   33.210    0.6742
   33.240    0.5350
   33.270    0.6742
   33.300    0.7277
   33.330    0.5778
   33.360    0.5993
   33.390    0.4494
   33.420    0.6314
   33.450    0.5671
   33.480    0.5778
   33.510    0.5029
   33.540    0.4494
   33.570    0.5029
   33.600    0.5136
   33.630    0.4280
   33.660    0.5886
   33.690    0.6421
   33.720    0.5136
   33.750    0.5029
   33.780    0.5564
   33.810    0.5671
   33.840    0.5564
   33.870    0.5564
   33.900    0.6314
   33.930    0.5671
   33.960    0.6207
   33.990    0.5350
   34.020    0.6100
   34.050    0.4066
   34.080    0.5029
   34.110    0.6528
   34.140    0.5886
   34.170    0.6421
   34.200    0.6849
   34.230    0.6742
   34.260    0.5457
   34.290    0.4708
   34.320    0.5136
   34.350    0.4922
   34.380    0.5136
   34.410    0.6207
   34.440    0.4601
   34.470    0.5993
   34.500    0.6421
   34.530    0.6849
   34.560    0.4922
   34.590    0.4922
   34.620    0.4601
   34.650    0.5350
   34.680    0.5886
   34.710    0.4494
   34.740    0.6207
   34.770    0.6956
   34.800    0.5671
   34.830    0.5671
   34.860    0.5457
   34.890    0.5350
   34.920    0.6100
   34.950    0.5564
   34.980    0.5564
   35.010    0.6314
   35.040    0.5671
   35.070    0.4708
   35.100    0.6207
   35.130    0.4708
   35.160    0.5243
   35.190    0.4922
   35.220    0.5029
   35.250    0.5243
   35.280    0.6100
   35.310    0.5778
   35.340    0.4815
   35.370    0.5993
   35.400    0.6528
   35.430    0.5457
   35.460    0.5564
   35.490    0.5564
   35.520    0.6207
   35.550    0.5243
   35.580    0.5029
   35.610    0.3531
   35.640    0.3959
   35.670    0.5243
   35.700    0.4601
   35.730    0.4708
   35.760    0.5564
   35.790    0.6314
   35.820    0.5457
   35.850    0.4601
   35.880    0.4922
   35.910    0.4708
   35.940    0.4815
   35.970    0.4601
   36.000    0.4066
   36.030    0.4601
   36.060    0.5564
   36.090    0.5671
   36.120    0.4173
   36.150    0.3959
   36.180    0.5350
   36.210    0.4280
   36.240    0.3745
   36.270    0.5564
   36.300    0.3852
   36.330    0.4494
   36.360    0.4387
   36.390    0.4708
   36.420    0.4066
   36.450    0.4922
   36.480    0.6207
   36.510    0.5457
   36.540    0.5350
   36.570    0.4708
   36.600    0.7277
   36.630    0.6100
   36.660    0.5886
   36.690    0.6207
   36.720    0.5778
   36.750    0.5886
   36.780    0.5564
   36.810    0.4387
   36.840    0.5350
   36.870    0.5671
   36.900    0.4601
   36.930    0.4280
   36.960    0.4601
   36.990    0.6849
   37.020    0.5350
   37.050    0.4922
   37.080    0.5993
   37.110    0.5886
   37.140    0.5886
   37.170    0.4708
   37.200    0.4601
   37.230    0.4815
   37.260    0.5350
   37.290    0.5136
   37.320    0.5350
   37.350    0.5136
   37.380    0.4708
   37.410    0.4494
   37.440    0.4815
   37.470    0.4601
   37.500    0.4815
   37.530    0.3745
   37.560    0.5029
   37.590    0.4922
   37.620    0.4601
   37.650    0.5136
   37.680    0.4815
   37.710    0.4601
   37.740    0.3959
   37.770    0.4173
   37.800    0.3531
   37.830    0.3531
   37.860    0.4173
   37.890    0.4494
   37.920    0.5457
   37.950    0.3638
   37.980    0.3959
   38.010    0.4815
   38.040    0.3959
   38.070    0.3959
   38.100    0.4601
   38.130    0.2996
   38.160    0.3531
   38.190    0.4066
   38.220    0.4601
   38.250    0.4601
   38.280    0.4173
   38.310    0.5029
   38.340    0.3531
   38.370    0.3638
   38.400    0.4494
   38.430    0.3531
   38.460    0.5029
   38.490    0.4601
   38.520    0.5457
   38.550    0.5350
   38.580    0.4387
   38.610    0.4066
   38.640    0.5029
   38.670    0.3745
   38.700    0.4708
   38.730    0.3745
   38.760    0.4173
   38.790    0.4387
   38.820    0.4280
   38.850    0.3852
   38.880    0.3959
   38.910    0.3852
   38.940    0.3745
   38.970    0.3317
   39.000    0.3959
   39.030    0.2889
   39.060    0.4601
   39.090    0.4494
   39.120    0.3103
   39.150    0.4280
   39.180    0.3210
   39.210    0.4387
   39.240    0.4280
   39.270    0.4173
   39.300    0.3745
   39.330    0.4280
   39.360    0.4066
   39.390    0.3638
   39.420    0.3745
   39.450    0.3210
   39.480    0.3638
   39.510    0.4066
   39.540    0.3745
   39.570    0.4494
   39.600    0.4922
   39.630    0.4173
   39.660    0.4494
   39.690    0.4494
   39.720    0.4173
   39.750    0.3210
   39.780    0.4066
   39.810    0.3531
   39.840    0.4815
   39.870    0.5350
   39.900    0.4708
   39.930    0.4815
   39.960    0.2996
   39.990    0.3852