File: data/MOCOF-1/PXRD/PXRD_KE-026_Cu-Ka1_capillary-1mm_5s-deg.xyd
    1.500   14.7973
    1.530   14.8183
    1.560   14.4497
    1.590   13.2807
    1.620   12.6277
    1.650   12.6066
    1.680   11.8905
    1.710   11.4692
    1.740   10.6056
    1.770    9.9842
    1.800   10.0369
    1.830    9.6893
    1.860    9.4892
    1.890    9.3102
    1.920    8.8046
    1.950    8.3202
    1.980    8.2675
    2.010    7.9516
    2.040    7.8252
    2.070    8.0253
    2.100    7.6251
    2.130    7.4776
    2.160    6.9932
    2.190    6.8141
    2.220    6.7509
    2.250    6.3612
    2.280    6.5929
    2.310    6.2770
    2.340    6.7615
    2.370    6.5298
    2.400    6.1822
    2.430    5.7820
    2.460    5.6767
    2.490    5.8557
    2.520    5.6977
    2.550    5.5819
    2.580    5.2554
    2.610    5.7715
    2.640    5.5924
    2.670    5.4766
    2.700    5.4766
    2.730    5.3712
    2.760    5.0764
    2.790    5.4871
    2.820    5.2449
    2.850    5.4239
    2.880    5.2027
    2.910    5.3923
    2.940    5.2975
    2.970    5.3712
    3.000    5.3186
    3.030    5.0764
    3.060    5.0658
    3.090    5.2449
    3.120    5.0658
    3.150    5.7083
    3.180    5.6661
    3.210    5.3186
    3.240    5.6135
    3.270    5.4976
    3.300    5.6767
    3.330    5.4871
    3.360    5.6767
    3.390    6.1822
    3.420    6.1190
    3.450    5.6556
    3.480    5.8768
    3.510    6.2770
    3.540    6.2243
    3.570    6.5719
    3.600    6.2981
    3.630    6.2770
    3.660    6.2243
    3.690    5.9716
    3.720    6.0453
    3.750    5.4344
    3.780    5.3607
    3.810    5.4976
    3.840    5.2554
    3.870    4.9921
    3.900    5.3502
    3.930    5.0237
    3.960    5.1185
    3.990    4.7077
    4.020    4.9184
    4.050    4.9289
    4.080    4.6972
    4.110    4.7499
    4.140    4.5392
    4.170    4.5182
    4.200    4.5603
    4.230    4.5919
    4.260    4.7709
    4.290    4.3813
    4.320    4.3602
    4.350    4.4444
    4.380    4.0442
    4.410    4.5919
    4.440    4.4444
    4.470    4.6235
    4.500    4.6445
    4.530    4.2970
    4.560    4.2233
    4.590    3.9179
    4.620    4.1706
    4.650    4.4866
    4.680    4.3391
    4.710    4.2654
    4.740    3.8968
    4.770    4.1074
    4.800    4.0758
    4.830    4.1390
    4.860    4.3181
    4.890    4.3391
    4.920    3.9600
    4.950    4.2127
    4.980    4.4866
    5.010    4.1917
    5.040    4.0126
    5.070    4.2865
    5.100    4.0969
    5.130    4.2022
    5.160    4.0548
    5.190    4.1601
    5.220    4.2338
    5.250    4.2759
    5.280    4.1601
    5.310    4.4760
    5.340    4.0442
    5.370    4.4655
    5.400    4.1706
    5.430    4.0021
    5.460    4.3813
    5.490    4.0758
    5.520    3.9916
    5.550    4.1601
    5.580    4.2654
    5.610    4.2338
    5.640    4.2022
    5.670    3.9810
    5.700    4.0758
    5.730    4.0548
    5.760    3.8968
    5.790    4.0442
    5.820    3.7493
    5.850    3.9179
    5.880    3.8968
    5.910    4.1390
    5.940    3.8336
    5.970    4.1390
    6.000    4.0653
    6.030    3.7388
    6.060    4.2338
    6.090    4.1074
    6.120    3.7072
    6.150    4.3181
    6.180    4.1180
    6.210    4.0337
    6.240    3.9810
    6.270    3.8020
    6.300    3.7493
    6.330    3.8231
    6.360    3.8441
    6.390    3.9810
    6.420    3.8125
    6.450    4.3181
    6.480    4.1074
    6.510    4.0232
    6.540    3.9073
    6.570    3.9073
    6.600    4.3391
    6.630    3.7704
    6.660    4.2654
    6.690    3.7493
    6.720    4.0548
    6.750    4.4234
    6.780    4.4760
    6.810    4.4866
    6.840    4.5708
    6.870    4.5498
    6.900    4.6024
    6.930    4.3181
    6.960    4.5708
    6.990    4.7604
    7.020    4.6867
    7.050    4.5708
    7.080    4.7920
    7.110    5.0448
    7.140    4.8868
    7.170    4.7077
    7.200    5.0553
    7.230    4.9500
    7.260    5.5503
    7.290    5.0658
    7.320    5.3291
    7.350    5.3397
    7.380    5.0553
    7.410    5.0448
    7.440    5.4028
    7.470    5.1080
    7.500    5.4976
    7.530    4.8131
    7.560    5.0342
    7.590    5.0026
    7.620    5.2027
    7.650    4.9289
    7.680    5.0764
    7.710    4.8341
    7.740    4.7288
    7.770    4.9078
    7.800    4.4128
    7.830    4.6551
    7.860    4.4971
    7.890    4.4760
    7.920    4.2549
    7.950    4.4655
    7.980    4.3918
    8.010    3.9600
    8.040    4.4128
    8.070    4.5498
    8.100    3.9073
    8.130    3.6335
    8.160    4.1601
    8.190    4.0864
    8.220    3.8757
    8.250    3.3386
    8.280    3.7809
    8.310    4.0021
    8.340    3.5598
    8.370    3.6546
    8.400    3.5176
    8.430    3.2438
    8.460    3.2649
    8.490    3.4650
    8.520    3.5176
    8.550    3.3913
    8.580    3.5176
    8.610    3.4334
    8.640    3.0437
    8.670    3.5282
    8.700    3.2227
    8.730    3.3702
    8.760    3.2438
    8.790    3.4860
    8.820    3.2965
    8.850    3.4755
    8.880    3.4229
    8.910    3.5492
    8.940    3.3386
    8.970    3.7177
    9.000    3.6230
    9.030    3.4123
    9.060    3.3070
    9.090    3.6440
    9.120    3.2543
    9.150    3.2227
    9.180    3.2649
    9.210    3.2122
    9.240    3.3175
    9.270    3.3491
    9.300    3.5176
    9.330    3.0858
    9.360    3.2754
    9.390    3.4755
    9.420    3.4334
    9.450    3.1280
    9.480    3.0121
    9.510    3.2333
    9.540    3.4334
    9.570    3.3597
    9.600    3.4650
    9.630    3.2333
    9.660    3.6230
    9.690    3.2754
    9.720    3.0121
    9.750    3.2649
    9.780    3.1596
    9.810    3.2543
    9.840    3.3281
    9.870    3.3070
    9.900    3.7493
    9.930    3.3281
    9.960    3.3175
    9.990    2.9700
   10.020    3.3913
   10.050    3.0964
   10.080    3.0226
   10.110    3.4334
   10.140    3.5914
   10.170    2.8963
   10.200    3.5071
   10.230    3.1912
   10.260    3.2227
   10.290    3.4860
   10.320    3.2017
   10.350    3.2333
   10.380    3.2333
   10.410    3.2333
   10.440    3.1174
   10.470    3.1701
   10.500    3.3070
   10.530    3.2438
   10.560    3.3386
   10.590    3.2754
   10.620    3.6124
   10.650    3.5492
   10.680    3.7493
   10.710    3.2017
   10.740    3.1174
   10.770    3.3913
   10.800    3.4966
   10.830    3.3281
   10.860    3.4544
   10.890    3.4755
   10.920    3.1596
   10.950    3.2965
   10.980    3.2754
   11.010    2.9279
   11.040    3.3807
   11.070    3.2859
   11.100    3.6862
   11.130    3.5071
   11.160    3.5387
   11.190    3.5703
   11.220    3.2122
   11.250    3.5282
   11.280    3.7915
   11.310    3.4860
   11.340    3.7072
   11.370    3.5703
   11.400    3.5282
   11.430    3.5071
   11.460    3.7809
   11.490    3.6756
   11.520    3.4018
   11.550    3.6124
   11.580    3.3597
   11.610    3.5071
   11.640    3.2649
   11.670    3.4439
   11.700    3.6651
   11.730    3.4544
   11.760    3.5703
   11.790    3.3491
   11.820    3.2017
   11.850    3.4439
   11.880    3.4860
   11.910    3.2438
   11.940    3.1701
   11.970    2.9700
   12.000    3.4544
   12.030    3.3175
   12.060    3.3070
   12.090    3.3597
   12.120    3.6440
   12.150    3.2543
   12.180    3.4229
   12.210    3.4018
   12.240    3.6019
   12.270    3.5598
   12.300    3.4018
   12.330    3.6440
   12.360    3.4018
   12.390    3.4018
   12.420    3.5387
   12.450    3.7177
   12.480    3.4860
   12.510    3.6230
   12.540    3.3597
   12.570    3.5387
   12.600    3.2965
   12.630    3.2122
   12.660    3.3913
   12.690    3.4439
   12.720    3.3386
   12.750    3.4860
   12.780    3.1806
   12.810    3.3175
   12.840    3.1701
   12.870    3.3175
   12.900    3.1912
   12.930    3.1385
   12.960    3.4860
   12.990    3.1174
   13.020    3.3386
   13.050    3.2017
   13.080    3.1174
   13.110    3.5282
   13.140    3.4544
   13.170    3.3913
   13.200    3.4229
   13.230    3.2649
   13.260    3.3281
   13.290    3.0542
   13.320    3.3386
   13.350    3.1701
   13.380    3.2017
   13.410    3.4755
   13.440    3.2965
   13.470    3.2859
   13.500    3.1912
   13.530    3.2122
   13.560    3.2017
   13.590    3.2859
   13.620    3.3491
   13.650    3.1280
   13.680    3.0964
   13.710    3.4018
   13.740    3.0226
   13.770    3.2965
   13.800    3.1280
   13.830    3.5071
   13.860    3.1701
   13.890    3.3070
   13.920    3.0648
   13.950    3.3070
   13.980    3.2227
   14.010    3.1385
   14.040    3.0542
   14.070    3.0332
   14.100    3.2227
   14.130    2.9173
   14.160    3.3913
   14.190    3.4439
   14.220    3.4018
   14.250    3.4966
   14.280    3.3702
   14.310    3.2859
   14.340    3.3281
   14.370    3.2438
   14.400    3.4334
   14.430    3.0437
   14.460    3.2754
   14.490    3.3491
   14.520    3.2438
   14.550    3.4755
   14.580    3.4650
   14.610    3.4439
   14.640    3.5808
   14.670    3.3807
   14.700    3.5282
   14.730    3.4544
   14.760    3.4544
   14.790    3.4123
   14.820    3.1490
   14.850    3.3386
   14.880    3.4544
   14.910    3.5387
   14.940    3.4439
   14.970    3.2438
   15.000    3.2965
   15.030    3.0858
   15.060    3.5071
   15.090    3.4966
   15.120    3.8125
   15.150    3.5071
   15.180    3.2965
   15.210    3.3597
   15.240    3.3070
   15.270    3.4334
   15.300    3.6862
   15.330    3.0332
   15.360    3.3386
   15.390    3.0964
   15.420    3.2227
   15.450    3.3702
   15.480    3.2649
   15.510    3.3070
   15.540    3.4860
   15.570    3.3913
   15.600    3.2543
   15.630    3.2227
   15.660    3.3913
   15.690    3.5387
   15.720    3.4439
   15.750    3.5492
   15.780    3.3491
   15.810    3.2017
   15.840    3.5598
   15.870    3.4544
   15.900    3.4966
   15.930    3.4860
   15.960    3.1490
   15.990    3.4334
   16.020    3.6124
   16.050    3.3070
   16.080    3.6335
   16.110    3.5071
   16.140    3.8125
   16.170    3.1912
   16.200    3.5914
   16.230    3.2227
   16.260    3.4018
   16.290    3.3597
   16.320    3.3386
   16.350    3.7809
   16.380    3.2122
   16.410    3.6124
   16.440    3.4334
   16.470    3.4650
   16.500    3.4544
   16.530    3.3913
   16.560    3.5387
   16.590    3.4966
   16.620    3.4229
   16.650    3.2649
   16.680    3.4544
   16.710    3.3807
   16.740    3.3281
   16.770    3.3913
   16.800    3.2543
   16.830    3.3386
   16.860    3.4860
   16.890    3.3702
   16.920    3.3913
   16.950    3.4860
   16.980    3.4650
   17.010    3.4123
   17.040    3.3175
   17.070    3.6862
   17.100    3.4544
   17.130    3.6862
   17.160    3.2438
   17.190    3.3175
   17.220    3.3702
   17.250    3.6230
   17.280    3.2965
   17.310    3.4966
   17.340    3.5071
   17.370    3.3491
   17.400    3.4966
   17.430    3.2965
   17.460    3.6335
   17.490    3.4439
   17.520    3.4544
   17.550    3.4229
   17.580    3.5914
   17.610    3.4755
   17.640    3.5387
   17.670    3.6440
   17.700    3.5914
   17.730    3.8336
   17.760    3.7072
   17.790    3.4755
   17.820    3.9073
   17.850    3.7809
   17.880    3.7072
   17.910    3.7809
   17.940    4.1496
   17.970    3.7493
   18.000    3.7915
   18.030    4.0548
   18.060    4.2022
   18.090    4.0021
   18.120    4.2127
   18.150    3.9179
   18.180    4.2759
   18.210    3.8020
   18.240    4.1601
   18.270    4.3497
   18.300    3.8863
   18.330    4.2759
   18.360    4.3602
   18.390    4.0969
   18.420    3.8652
   18.450    3.7599
   18.480    3.9389
   18.510    3.8441
   18.540    3.9916
   18.570    3.9284
   18.600    3.7177
   18.630    3.6546
   18.660    3.7283
   18.690    4.0864
   18.720    3.4860
   18.750    3.6862
   18.780    3.9179
   18.810    3.8547
   18.840    4.0126
   18.870    3.7493
   18.900    3.6967
   18.930    3.8968
   18.960    3.8863
   18.990    3.7072
   19.020    3.7915
   19.050    3.6967
   19.080    3.6546
   19.110    3.7809
   19.140    4.0232
   19.170    3.6651
   19.200    4.2759
   19.230    4.0653
   19.260    3.9389
   19.290    3.8336
   19.320    3.8968
   19.350    3.6546
   19.380    3.8020
   19.410    3.6019
   19.440    3.8336
   19.470    4.0126
   19.500    3.6967
   19.530    3.7809
   19.560    3.8757
   19.590    3.3913
   19.620    3.9284
   19.650    3.6019
   19.680    3.6440
   19.710    3.8231
   19.740    3.8125
   19.770    3.9810
   19.800    3.5914
   19.830    3.7493
   19.860    3.5387
   19.890    3.7599
   19.920    3.7388
   19.950    3.6862
   19.980    3.9600
   20.010    3.8441
   20.040    3.9916
   20.070    3.8652
   20.100    3.5492
   20.130    3.6019
   20.160    3.8336
   20.190    3.7915
   20.220    3.9600
   20.250    3.7072
   20.280    3.7493
   20.310    3.7072
   20.340    4.0758
   20.370    3.8020
   20.400    3.8125
   20.430    3.6230
   20.460    3.6335
   20.490    3.8231
   20.520    3.6967
   20.550    3.5598
   20.580    3.5176
   20.610    4.0126
   20.640    3.7915
   20.670    3.6230
   20.700    3.8441
   20.730    3.7072
   20.760    4.1180
   20.790    3.5492
   20.820    3.8020
   20.850    3.8020
   20.880    3.8020
   20.910    4.0337
   20.940    3.8336
   20.970    3.9179
   21.000    3.6440
   21.030    3.8020
   21.060    3.8441
   21.090    3.9389
   21.120    3.8547
   21.150    3.9179
   21.180    3.9284
   21.210    3.9073
   21.240    3.7809
   21.270    4.1285
   21.300    3.8441
   21.330    3.9705
   21.360    4.0653
   21.390    3.7704
   21.420    4.0969
   21.450    3.6124
   21.480    3.7283
   21.510    3.8652
   21.540    3.9916
   21.570    3.8547
   21.600    3.8336
   21.630    3.8231
   21.660    3.9705
   21.690    4.0442
   21.720    3.9705
   21.750    3.9073
   21.780    3.9284
   21.810    3.9494
   21.840    3.9494
   21.870    4.2022
   21.900    3.8968
   21.930    3.5808
   21.960    4.1601
   21.990    3.9284
   22.020    4.1074
   22.050    3.6019
   22.080    3.9389
   22.110    3.7493
   22.140    3.8231
   22.170    3.9073
   22.200    3.7072
   22.230    3.5492
   22.260    3.7177
   22.290    3.5598
   22.320    4.0021
   22.350    3.8863
   22.380    3.8020
   22.410    3.8441
   22.440    3.5176
   22.470    4.1706
   22.500    3.7283
   22.530    3.7704
   22.560    3.4966
   22.590    3.6862
   22.620    3.8547
   22.650    3.6230
   22.680    3.4439
   22.710    3.6862
   22.740    3.6019
   22.770    3.6967
   22.800    3.6440
   22.830    3.6651
   22.860    3.7493
   22.890    3.7072
   22.920    3.4229
   22.950    3.6335
   22.980    3.8863
   23.010    3.7493
   23.040    3.6546
   23.070    3.4544
   23.100    3.4755
   23.130    3.2859
   23.160    3.4229
   23.190    3.8336
   23.220    3.6019
   23.250    3.8441
   23.280    3.7809
   23.310    3.7388
   23.340    3.5808
   23.370    3.6440
   23.400    3.6967
   23.430    3.8020
   23.460    3.9179
   23.490    3.6651
   23.520    3.6440
   23.550    3.6546
   23.580    3.9600
   23.610    3.8968
   23.640    3.9600
   23.670    3.7809
   23.700    3.7809
   23.730    4.0021
   23.760    3.5808
   23.790    4.0758
   23.820    3.6862
   23.850    3.6862
   23.880    3.7915
   23.910    3.8968
   23.940    3.7283
   23.970    3.5598
   24.000    3.9179
   24.030    3.5808
   24.060    3.5282
   24.090    3.5492
   24.120    3.6124
   24.150    3.4439
   24.180    3.7599
   24.210    3.6546
   24.240    3.5282
   24.270    4.0126
   24.300    3.7283
   24.330    3.7283
   24.360    3.6546
   24.390    3.9494
   24.420    3.9810
   24.450    3.5176
   24.480    3.5071
   24.510    3.6230
   24.540    3.5282
   24.570    3.5703
   24.600    3.3281
   24.630    3.6230
   24.660    3.7704
   24.690    3.5282
   24.720    3.5176
   24.750    3.7493
   24.780    3.6967
   24.810    3.5914
   24.840    3.8020
   24.870    3.5071
   24.900    3.5071
   24.930    3.6756
   24.960    3.6651
   24.990    3.6546
   25.020    3.4439
   25.050    3.5071
   25.080    3.5808
   25.110    3.4650
   25.140    3.2859
   25.170    3.4544
   25.200    3.7072
   25.230    3.5914
   25.260    3.5071
   25.290    3.4755
   25.320    3.4229
   25.350    3.5808
   25.380    3.7809
   25.410    3.6335
   25.440    3.3702
   25.470    3.2965
   25.500    3.1385
   25.530    3.2965
   25.560    3.3386
   25.590    3.1385
   25.620    3.5071
   25.650    3.5387
   25.680    3.6124
   25.710    3.3597
   25.740    3.3913
   25.770    3.0964
   25.800    3.4966
   25.830    3.6230
   25.860    3.3702
   25.890    3.6440
   25.920    3.4650
   25.950    3.5282
   25.980    3.2333
   26.010    3.5808
   26.040    3.4018
   26.070    3.5492
   26.100    3.3281
   26.130    3.1701
   26.160    3.2122
   26.190    3.3281
   26.220    3.5808
   26.250    3.3491
   26.280    3.2333
   26.310    3.2333
   26.340    3.3702
   26.370    3.3281
   26.400    3.4650
   26.430    3.5492
   26.460    3.1280
   26.490    3.2965
   26.520    2.9805
   26.550    3.0332
   26.580    3.2333
   26.610    3.3175
   26.640    3.5282
   26.670    3.1596
   26.700    3.2649
   26.730    3.0648
   26.760    3.3597
   26.790    3.0542
   26.820    3.0437
   26.850    3.2859
   26.880    3.0648
   26.910    3.1385
   26.940    3.0437
   26.970    3.5282
   27.000    3.1806
   27.030    3.1701
   27.060    3.0753
   27.090    3.0753
   27.120    2.9595
   27.150    2.9173
   27.180    3.0332
   27.210    2.8647
   27.240    3.0753
   27.270    3.1385
   27.300    3.0648
   27.330    3.2859
   27.360    3.2543
   27.390    3.0121
   27.420    2.9910
   27.450    3.2122
   27.480    3.1174
   27.510    3.0016
   27.540    2.8752
   27.570    3.2017
   27.600    3.2227
   27.630    3.2017
   27.660    3.0858
   27.690    3.0016
   27.720    2.8541
   27.750    3.2017
   27.780    2.9068
   27.810    3.0226
   27.840    3.0016
   27.870    3.1912
   27.900    2.9595
   27.930    3.2333
   27.960    2.9805
   27.990    3.1596
   28.020    3.1280
   28.050    3.0016
   28.080    3.0121
   28.110    2.6751
   28.140    3.2122
   28.170    3.1280
   28.200    2.9384
   28.230    2.6646
   28.260    3.0016
   28.290    2.7488
   28.320    3.2017
   28.350    3.0226
   28.380    2.9279
   28.410    2.9489
   28.440    3.2649
   28.470    3.0226
   28.500    2.9384
   28.530    2.9173
   28.560    2.9068
   28.590    2.6962
   28.620    2.8225
   28.650    2.8647
   28.680    2.7593
   28.710    2.9910
   28.740    2.8436
   28.770    2.9805
   28.800    3.0753
   28.830    2.9068
   28.860    2.8857
   28.890    3.0016
   28.920    2.9279
   28.950    2.8963
   28.980    2.9805
   29.010    2.7488
   29.040    3.0226
   29.070    2.8752
   29.100    2.8752
   29.130    2.8331
   29.160    2.6856
   29.190    2.8331
   29.220    2.8331
   29.250    2.7804
   29.280    2.9805
   29.310    2.8963
   29.340    2.8120
   29.370    2.9279
   29.400    2.8752
   29.430    2.7172
   29.460    2.8647
   29.490    3.1596
   29.520    2.7909
   29.550    2.6856
   29.580    2.9068
   29.610    2.6014
   29.640    2.7909
   29.670    2.4645
   29.700    2.8436
   29.730    2.8647
   29.760    2.8331
   29.790    2.7909
   29.820    3.1596
   29.850    2.7804
   29.880    2.8647
   29.910    2.6119
   29.940    2.8331
   29.970    2.9173
   30.000    2.8015
   30.030    2.8752
   30.060    2.7909
   30.090    2.7593
   30.120    2.8225
   30.150    2.8857
   30.180    2.6435
   30.210    2.8963
   30.240    2.6330
   30.270    2.7593
   30.300    2.5592
   30.330    2.8225
   30.360    2.6224
   30.390    2.6330
   30.420    2.7383
   30.450    2.4539
   30.480    2.7699
   30.510    2.8436
   30.540    2.6435
   30.570    2.4539
   30.600    2.7488
   30.630    2.7278
   30.660    2.6540
   30.690    2.8963
   30.720    2.6224
   30.750    2.6751
   30.780    2.4223
   30.810    2.5698
   30.840    2.3591
   30.870    2.3802
   30.900    2.2854
   30.930    2.5487
   30.960    2.6330
   30.990    2.7593
   31.020    2.6540
   31.050    2.6224
   31.080    2.2854
   31.110    2.6856
   31.140    2.4750
   31.170    2.6014
   31.200    2.5592
   31.230    2.6224
   31.260    2.4645
   31.290    2.5066
   31.320    2.5066
   31.350    2.3591
   31.380    2.3802
   31.410    2.5066
   31.440    2.5698
   31.470    2.3802
   31.500    2.5908
   31.530    2.6435
   31.560    2.7699
   31.590    2.6646
   31.620    2.3275
   31.650    2.3065
   31.680    2.5487
   31.710    2.4961
   31.740    2.2538
   31.770    2.4223
   31.800    2.3591
   31.830    2.3591
   31.860    2.5276
   31.890    2.5803
   31.920    2.4223
   31.950    2.2959
   31.980    2.6014
   32.010    2.4961
   32.040    2.2433
   32.070    2.3170
   32.100    2.1801
   32.130    2.2117
   32.160    2.3907
   32.190    2.5382
   32.220    2.5276
   32.250    2.0958
   32.280    2.1169
   32.310    2.4118
   32.340    2.3381
   32.370    2.4750
   32.400    2.4539
   32.430    2.3381
   32.460    2.1590
   32.490    2.2328
   32.520    2.1590
   32.550    2.3697
   32.580    2.3275
   32.610    2.2117
   32.640    2.0853
   32.670    2.2117
   32.700    2.4118
   32.730    2.1801
   32.760    2.1380
   32.790    2.1274
   32.820    2.2117
   32.850    2.1906
   32.880    2.2012
   32.910    1.9168
   32.940    2.4855
   32.970    2.0642
   33.000    2.0537
   33.030    2.2749
   33.060    2.2433
   33.090    2.2117
   33.120    2.3065
   33.150    2.2222
   33.180    2.0958
   33.210    2.2012
   33.240    2.1696
   33.270    2.2012
   33.300    2.0432
   33.330    2.0958
   33.360    2.0432
   33.390    2.0326
   33.420    1.9273
   33.450    1.9800
   33.480    2.0642
   33.510    2.1590
   33.540    2.0221
   33.570    2.1064
   33.600    2.0221
   33.630    1.8747
   33.660    2.0642
   33.690    1.8957
   33.720    2.0221
   33.750    1.9905
   33.780    2.0116
   33.810    2.0326
   33.840    2.1064
   33.870    2.1169
   33.900    1.7694
   33.930    1.9484
   33.960    2.0432
   33.990    2.1064
   34.020    2.1485
   34.050    2.0326
   34.080    1.9379
   34.110    1.7904
   34.140    2.0221
   34.170    1.9695
   34.200    2.1485
   34.230    1.8431
   34.260    2.0326
   34.290    1.8009
   34.320    2.0853
   34.350    1.8852
   34.380    1.8852
   34.410    2.0958
   34.440    1.9589
   34.470    1.5692
   34.500    2.0011
   34.530    1.9905
   34.560    1.9063
   34.590    2.0011
   34.620    1.8325
   34.650    2.0221
   34.680    1.7062
   34.710    1.8957
   34.740    1.9589
   34.770    1.8220
   34.800    1.8115
   34.830    1.8852
   34.860    1.7378
   34.890    1.8852
   34.920    1.8641
   34.950    1.8747
   34.980    1.7588
   35.010    1.6640
   35.040    1.9168
   35.070    1.7799
   35.100    1.8641
   35.130    1.7694
   35.160    1.9063
   35.190    1.7167
   35.220    1.7694
   35.250    1.8641
   35.280    2.1064
   35.310    1.7694
   35.340    1.8009
   35.370    1.7588
   35.400    1.8536
   35.430    1.8325
   35.460    1.8115
   35.490    1.6008
   35.520    1.5377
   35.550    1.7272
   35.580    1.8536
   35.610    1.6008
   35.640    1.5271
   35.670    1.7167
   35.700    1.6324
   35.730    1.7272
   35.760    1.7167
   35.790    1.7799
   35.820    1.8115
   35.850    1.7167
   35.880    1.3270
   35.910    1.5692
   35.940    1.8431
   35.970    1.8115
   36.000    1.6114
   36.030    1.6008
   36.060    1.7588
   36.090    1.7167
   36.120    1.5692
   36.150    1.7167
   36.180    1.6430
   36.210    1.4955
   36.240    1.8009
   36.270    1.7167
   36.300    1.7167
   36.330    1.7483
   36.360    1.7799
   36.390    1.6851
   36.420    1.6535
   36.450    1.6219
   36.480    1.6640
   36.510    1.7167
   36.540    1.6851
   36.570    1.5798
   36.600    1.5798
   36.630    1.4218
   36.660    1.6640
   36.690    1.4534
   36.720    1.3691
   36.750    1.7062
   36.780    1.5061
   36.810    1.5377
   36.840    1.6430
   36.870    1.3691
   36.900    1.8220
   36.930    1.5692
   36.960    1.4745
   36.990    1.5798
   37.020    1.5271
   37.050    1.5271
   37.080    1.4218
   37.110    1.7378
   37.140    1.5377
   37.170    1.5798
   37.200    1.5587
   37.230    1.4007
   37.260    1.4218
   37.290    1.4639
   37.320    1.4955
   37.350    1.4955
   37.380    1.3902
   37.410    1.5061
   37.440    1.3586
   37.470    1.4429
   37.500    1.5271
   37.530    1.6219
   37.560    1.3902
   37.590    1.5798
   37.620    1.4955
   37.650    1.6114
   37.680    1.4850
   37.710    1.3902
   37.740    1.3586
   37.770    1.4429
   37.800    1.1901
   37.830    1.7167
   37.860    1.4323
   37.890    1.2954
   37.920    1.3375
   37.950    1.5692
   37.980    1.4323
   38.010    1.3165
   38.040    1.4429
   38.070    1.2954
   38.100    1.4745
   38.130    1.4534
   38.160    1.3691
   38.190    1.2744
   38.220    1.4113
   38.250    1.3165
   38.280    1.6746
   38.310    1.5587
   38.340    1.3902
   38.370    1.3902
   38.400    1.6219
   38.430    1.4850
   38.460    1.5377
   38.490    1.4745
   38.520    1.6324
   38.550    1.4534
   38.580    1.4745
   38.610    1.3270
   38.640    1.5903
   38.670    1.3902
   38.700    1.2849
   38.730    1.5798
   38.760    1.3270
   38.790    1.3375
   38.820    1.6430
   38.850    1.4850
   38.880    1.4534
   38.910    1.5166
   38.940    1.2533
   38.970    1.4534
   39.000    1.5061
   39.030    1.3375
   39.060    1.4429
   39.090    1.4007
   39.120    1.4745
   39.150    1.4955
   39.180    1.4323
   39.210    1.4955
   39.240    1.4323
   39.270    1.5166
   39.300    1.3797
   39.330    1.2638
   39.360    1.5482
   39.390    1.3797
   39.420    1.4429
   39.450    1.4113
   39.480    1.2322
   39.510    1.4113
   39.540    1.2849
   39.570    1.3586
   39.600    1.2744
   39.630    1.3691
   39.660    1.2849
   39.690    1.4007
   39.720    1.3481
   39.750    1.4745
   39.780    1.3165
   39.810    1.4639
   39.840    1.2533
   39.870    1.2322
   39.900    1.2849
   39.930    1.4007
   39.960    1.2954
   39.990    1.3270