File: data/MOCOF-1/PXRD/PXRD_KE-198_Cu-Ka1_film-3mm_5s-deg.xyd
    1.500   22.4013
    1.530   22.5487
    1.560   21.0005
    1.590   21.4429
    1.620   21.3481
    1.650   20.1053
    1.680   19.7788
    1.710   18.9995
    1.740   18.9258
    1.770   18.0095
    1.800   17.0300
    1.830   16.5877
    1.860   17.4408
    1.890   16.3665
    1.920   16.5350
    1.950   16.3560
    1.980   15.3660
    2.010   15.2923
    2.040   15.4292
    2.070   15.6187
    2.100   14.8815
    2.130   14.6919
    2.160   13.8494
    2.190   14.1443
    2.220   13.9652
    2.250   13.9652
    2.280   13.9231
    2.310   13.4387
    2.340   12.8910
    2.370   12.9121
    2.400   12.5961
    2.430   13.2596
    2.460   13.3333
    2.490   13.3544
    2.520   12.8910
    2.550   13.4387
    2.580   13.7441
    2.610   13.4913
    2.640   13.5756
    2.670   14.3128
    2.700   14.3128
    2.730   14.3549
    2.760   14.5234
    2.790   15.7135
    2.820   16.4508
    2.850   16.2085
    2.880   17.3986
    2.910   18.8626
    2.940   19.2733
    2.970   20.2949
    3.000   22.6962
    3.030   24.1601
    3.060   26.2349
    3.090   28.5308
    3.120   31.2796
    3.150   34.1969
    3.180   39.5998
    3.210   43.2649
    3.240   48.9310
    3.270   56.5034
    3.300   64.6551
    3.330   74.8078
    3.360   87.6145
    3.390  102.2012
    3.420  113.5018
    3.450  115.0606
    3.480   99.8631
    3.510   74.8921
    3.540   54.8078
    3.570   41.6535
    3.600   34.7446
    3.630   30.8689
    3.660   29.4681
    3.690   29.2575
    3.720   29.8999
    3.750   29.8262
    3.780   31.8799
    3.810   33.7125
    3.840   35.5977
    3.870   37.7357
    3.900   41.2638
    3.930   44.7077
    3.960   45.4239
    3.990   48.0463
    4.020   49.7209
    4.050   49.6156
    4.080   48.3202
    4.110   46.6140
    4.140   44.0653
    4.170   40.0948
    4.200   36.3349
    4.230   32.2696
    4.260   28.0779
    4.290   24.1917
    4.320   21.3481
    4.350   18.8942
    4.380   17.4618
    4.410   14.8710
    4.440   13.6704
    4.470   12.8699
    4.500   12.0063
    4.530   11.4587
    4.560   10.7952
    4.590   10.3844
    4.620   10.2159
    4.650    9.9526
    4.680    9.3207
    4.710    9.2575
    4.740    9.2891
    4.770    9.2786
    4.800    9.0363
    4.830    8.9415
    4.860    8.6467
    4.890    8.2570
    4.920    8.5835
    4.950    8.7520
    4.980    8.8257
    5.010    8.4150
    5.040    8.2254
    5.070    8.1622
    5.100    8.1622
    5.130    8.3412
    5.160    8.4360
    5.190    8.5413
    5.220    8.1517
    5.250    8.2254
    5.280    8.3096
    5.310    9.3312
    5.340    8.5519
    5.370    8.2780
    5.400    8.8362
    5.430    8.3939
    5.460    8.6677
    5.490    8.3412
    5.520    8.7730
    5.550    8.4150
    5.580    8.6677
    5.610    8.2149
    5.640    8.4992
    5.670    8.2675
    5.700    8.6256
    5.730    8.2043
    5.760    7.9305
    5.790    8.0147
    5.820    7.8673
    5.850    7.8041
    5.880    7.8884
    5.910    7.6251
    5.940    7.0458
    5.970    7.2143
    6.000    7.0458
    6.030    7.4039
    6.060    7.0458
    6.090    6.8562
    6.120    7.0563
    6.150    6.8036
    6.180    7.0879
    6.210    6.8352
    6.240    6.6456
    6.270    7.3196
    6.300    6.9826
    6.330    6.8562
    6.360    6.9194
    6.390    6.4244
    6.420    6.8352
    6.450    7.0142
    6.480    6.7088
    6.510    6.6351
    6.540    6.8457
    6.570    6.8773
    6.600    7.4987
    6.630    7.0563
    6.660    7.4566
    6.690    7.7725
    6.720    8.3623
    6.750    8.6993
    6.780    9.4260
    6.810   10.2896
    6.840   12.0063
    6.870   12.8805
    6.900   14.5024
    6.930   15.4397
    6.960   15.9874
    6.990   14.6603
    7.020   12.3223
    7.050    9.5103
    7.080    8.6888
    7.110    7.9621
    7.140    7.2459
    7.170    7.2880
    7.200    7.0353
    7.230    6.8562
    7.260    6.4771
    7.290    6.4666
    7.320    6.4455
    7.350    6.1506
    7.380    6.2243
    7.410    6.5824
    7.440    6.0348
    7.470    6.4034
    7.500    6.2243
    7.530    5.9926
    7.560    6.6140
    7.590    6.5298
    7.620    6.2033
    7.650    6.7299
    7.680    6.7088
    7.710    6.6877
    7.740    6.4034
    7.770    6.4034
    7.800    6.8878
    7.830    7.2565
    7.860    6.9405
    7.890    7.1722
    7.920    7.0458
    7.950    7.8146
    7.980    7.4776
    8.010    7.4776
    8.040    7.8884
    8.070    7.9937
    8.100    8.0463
    8.130    8.5413
    8.160    8.2570
    8.190    8.5519
    8.220    7.9726
    8.250    8.0885
    8.280    8.4887
    8.310    8.4255
    8.340    8.0885
    8.370    8.0253
    8.400    8.0463
    8.430    7.4671
    8.460    7.8146
    8.490    7.2775
    8.520    6.8352
    8.550    7.2986
    8.580    6.9089
    8.610    6.9194
    8.640    6.3191
    8.670    6.2770
    8.700    6.2981
    8.730    6.4350
    8.760    6.0348
    8.790    5.9084
    8.820    5.3923
    8.850    5.9505
    8.880    5.4450
    8.910    5.7504
    8.940    5.3712
    8.970    5.7504
    9.000    5.6872
    9.030    5.3502
    9.060    5.4344
    9.090    5.2238
    9.120    5.1922
    9.150    5.3502
    9.180    5.3818
    9.210    5.1711
    9.240    5.5714
    9.270    5.1817
    9.300    5.0132
    9.330    4.8973
    9.360    5.2765
    9.390    5.3818
    9.420    5.1606
    9.450    5.2554
    9.480    4.7499
    9.510    5.1080
    9.540    4.7183
    9.570    4.9921
    9.600    4.9605
    9.630    4.8657
    9.660    4.8341
    9.690    4.9184
    9.720    5.1922
    9.750    5.5503
    9.780    5.0132
    9.810    5.2238
    9.840    5.1817
    9.870    5.1606
    9.900    5.0342
    9.930    4.9500
    9.960    4.9078
    9.990    5.0448
   10.020    5.1080
   10.050    5.4344
   10.080    5.0237
   10.110    5.0764
   10.140    4.8763
   10.170    5.1922
   10.200    5.3291
   10.230    4.7920
   10.260    5.1080
   10.290    4.9289
   10.320    5.6135
   10.350    5.4344
   10.380    5.6556
   10.410    5.6977
   10.440    5.3502
   10.470    5.7715
   10.500    5.4871
   10.530    5.5187
   10.560    5.3397
   10.590    5.0658
   10.620    5.1185
   10.650    4.9710
   10.680    4.7077
   10.710    5.0869
   10.740    5.3923
   10.770    5.2238
   10.800    4.9921
   10.830    4.9500
   10.860    5.1501
   10.890    5.1501
   10.920    5.4555
   10.950    4.7288
   10.980    5.4344
   11.010    5.1606
   11.040    5.3291
   11.070    5.1185
   11.100    5.1922
   11.130    5.0869
   11.160    5.1711
   11.190    5.3081
   11.220    5.1080
   11.250    4.8025
   11.280    5.2343
   11.310    5.3923
   11.340    5.3607
   11.370    5.3607
   11.400    5.0658
   11.430    5.2975
   11.460    5.1606
   11.490    5.0764
   11.520    5.0764
   11.550    5.0342
   11.580    5.4028
   11.610    5.3081
   11.640    5.2238
   11.670    5.3081
   11.700    5.3502
   11.730    5.2659
   11.760    5.2870
   11.790    5.9189
   11.820    5.0869
   11.850    5.1080
   11.880    5.3291
   11.910    5.3397
   11.940    5.3186
   11.970    5.0658
   12.000    5.5608
   12.030    5.0132
   12.060    5.7504
   12.090    5.2659
   12.120    5.1711
   12.150    5.5398
   12.180    5.5608
   12.210    5.4450
   12.240    5.0869
   12.270    5.3502
   12.300    5.4976
   12.330    5.4555
   12.360    5.4450
   12.390    5.5187
   12.420    5.4450
   12.450    5.3607
   12.480    5.2343
   12.510    5.8031
   12.540    5.3818
   12.570    5.3923
   12.600    5.7820
   12.630    5.4450
   12.660    5.4134
   12.690    5.1290
   12.720    5.6240
   12.750    4.8341
   12.780    5.3397
   12.810    5.3923
   12.840    5.2554
   12.870    5.0237
   12.900    5.1290
   12.930    4.9921
   12.960    5.2238
   12.990    4.9605
   13.020    5.1080
   13.050    5.0658
   13.080    4.9078
   13.110    5.1290
   13.140    5.1290
   13.170    5.3291
   13.200    4.8973
   13.230    5.1290
   13.260    5.0869
   13.290    5.2449
   13.320    5.2554
   13.350    5.2554
   13.380    4.8025
   13.410    5.3712
   13.440    5.2554
   13.470    5.3712
   13.500    5.3712
   13.530    5.3291
   13.560    4.7815
   13.590    5.0342
   13.620    4.8973
   13.650    5.0764
   13.680    5.1606
   13.710    5.1501
   13.740    4.9394
   13.770    4.8868
   13.800    4.8868
   13.830    5.0869
   13.860    5.0974
   13.890    5.4766
   13.920    5.2870
   13.950    5.1290
   13.980    5.4450
   14.010    4.9184
   14.040    5.3818
   14.070    5.0974
   14.100    4.8868
   14.130    5.3607
   14.160    5.0553
   14.190    5.2238
   14.220    5.4239
   14.250    5.0869
   14.280    5.0553
   14.310    4.9394
   14.340    5.1185
   14.370    5.0026
   14.400    5.2554
   14.430    5.1395
   14.460    5.0658
   14.490    5.0553
   14.520    5.1817
   14.550    5.3923
   14.580    5.1185
   14.610    5.1080
   14.640    4.9184
   14.670    4.9184
   14.700    5.3502
   14.730    5.0448
   14.760    5.1395
   14.790    5.3712
   14.820    4.7499
   14.850    4.6235
   14.880    5.1080
   14.910    4.6656
   14.940    5.0448
   14.970    4.7183
   15.000    5.1606
   15.030    4.9394
   15.060    4.5603
   15.090    4.7288
   15.120    4.9605
   15.150    5.0448
   15.180    5.2659
   15.210    4.8341
   15.240    5.1501
   15.270    4.6024
   15.300    5.1080
   15.330    4.7499
   15.360    4.8868
   15.390    4.7920
   15.420    4.8973
   15.450    5.0553
   15.480    4.5498
   15.510    5.0974
   15.540    5.1185
   15.570    5.0026
   15.600    5.1290
   15.630    4.6761
   15.660    4.7920
   15.690    4.7288
   15.720    5.3397
   15.750    5.2133
   15.780    5.1290
   15.810    5.0342
   15.840    4.7815
   15.870    4.8341
   15.900    5.2343
   15.930    5.2238
   15.960    5.0237
   15.990    4.9289
   16.020    5.3923
   16.050    5.1080
   16.080    4.7499
   16.110    5.0974
   16.140    4.9289
   16.170    4.6867
   16.200    4.9394
   16.230    4.7499
   16.260    4.9394
   16.290    4.9394
   16.320    4.6761
   16.350    4.6551
   16.380    4.8025
   16.410    5.1606
   16.440    4.9500
   16.470    4.8447
   16.500    4.8236
   16.530    4.9078
   16.560    4.6972
   16.590    4.7499
   16.620    4.8657
   16.650    4.7183
   16.680    4.7499
   16.710    4.8131
   16.740    4.6130
   16.770    4.6024
   16.800    4.8657
   16.830    4.9184
   16.860    4.5603
   16.890    4.6235
   16.920    5.0869
   16.950    4.6340
   16.980    4.6867
   17.010    4.6761
   17.040    4.8657
   17.070    5.0132
   17.100    4.8657
   17.130    5.0448
   17.160    4.3286
   17.190    5.0342
   17.220    5.0132
   17.250    4.8341
   17.280    4.5919
   17.310    4.8763
   17.340    4.8341
   17.370    4.8447
   17.400    4.5076
   17.430    4.9500
   17.460    4.7815
   17.490    4.8025
   17.520    4.9184
   17.550    4.8973
   17.580    4.7920
   17.610    4.6445
   17.640    4.8341
   17.670    4.5919
   17.700    4.9289
   17.730    4.9394
   17.760    4.7815
   17.790    4.9710
   17.820    4.8341
   17.850    4.8341
   17.880    4.7499
   17.910    4.7288
   17.940    4.7077
   17.970    4.7077
   18.000    4.7920
   18.030    5.1080
   18.060    4.9394
   18.090    4.8973
   18.120    4.8657
   18.150    4.4128
   18.180    4.8552
   18.210    4.9289
   18.240    4.9078
   18.270    4.6656
   18.300    5.1711
   18.330    4.7604
   18.360    4.5182
   18.390    4.9710
   18.420    5.1185
   18.450    4.6656
   18.480    4.7288
   18.510    5.1290
   18.540    4.3918
   18.570    4.9289
   18.600    4.8657
   18.630    4.6972
   18.660    4.7815
   18.690    4.7709
   18.720    4.6235
   18.750    4.7604
   18.780    4.9394
   18.810    4.7815
   18.840    4.7077
   18.870    4.6761
   18.900    4.6130
   18.930    4.6445
   18.960    4.8868
   18.990    5.0237
   19.020    4.9394
   19.050    4.6445
   19.080    4.9921
   19.110    4.7183
   19.140    4.5182
   19.170    4.5603
   19.200    4.7815
   19.230    4.9500
   19.260    4.8447
   19.290    4.8763
   19.320    4.8447
   19.350    5.2027
   19.380    5.0764
   19.410    5.1606
   19.440    4.7077
   19.470    5.3186
   19.500    5.2133
   19.530    4.7815
   19.560    5.0132
   19.590    5.1922
   19.620    5.2449
   19.650    5.0869
   19.680    5.0974
   19.710    4.7077
   19.740    5.3923
   19.770    4.8552
   19.800    4.8763
   19.830    4.9394
   19.860    4.9710
   19.890    5.3291
   19.920    4.8341
   19.950    4.8763
   19.980    5.0448
   20.010    5.1080
   20.040    5.0553
   20.070    4.8447
   20.100    4.6761
   20.130    5.2449
   20.160    5.2554
   20.190    5.2765
   20.220    4.9500
   20.250    4.8973
   20.280    4.8447
   20.310    5.0026
   20.340    4.9921
   20.370    4.6867
   20.400    5.0132
   20.430    4.7499
   20.460    5.3818
   20.490    4.9921
   20.520    4.9710
   20.550    4.7499
   20.580    4.9710
   20.610    4.8131
   20.640    4.7288
   20.670    5.2765
   20.700    5.0658
   20.730    4.8131
   20.760    4.8868
   20.790    5.2343
   20.820    5.0658
   20.850    4.7709
   20.880    4.7920
   20.910    4.7815
   20.940    4.7393
   20.970    5.2449
   21.000    4.8025
   21.030    4.9710
   21.060    5.3186
   21.090    4.8657
   21.120    5.0342
   21.150    4.8447
   21.180    5.1290
   21.210    4.5814
   21.240    4.8236
   21.270    5.0342
   21.300    5.1501
   21.330    4.6235
   21.360    5.0974
   21.390    4.8973
   21.420    4.8341
   21.450    4.8552
   21.480    4.5076
   21.510    5.0448
   21.540    4.9289
   21.570    4.9500
   21.600    4.6024
   21.630    5.1395
   21.660    4.7920
   21.690    4.9394
   21.720    4.8763
   21.750    4.9500
   21.780    4.6445
   21.810    4.8868
   21.840    4.9394
   21.870    4.4866
   21.900    5.0974
   21.930    4.9078
   21.960    5.0237
   21.990    4.9184
   22.020    4.8868
   22.050    4.8763
   22.080    4.7288
   22.110    4.9184
   22.140    4.7920
   22.170    4.6656
   22.200    4.8131
   22.230    4.6340
   22.260    4.8447
   22.290    4.8868
   22.320    4.7077
   22.350    4.5814
   22.380    4.9289
   22.410    4.7604
   22.440    4.6024
   22.470    4.9184
   22.500    4.7077
   22.530    4.9816
   22.560    4.7393
   22.590    5.0132
   22.620    4.8447
   22.650    4.7815
   22.680    4.5392
   22.710    4.6445
   22.740    4.8341
   22.770    4.7604
   22.800    4.5392
   22.830    4.4234
   22.860    4.7288
   22.890    4.7077
   22.920    4.6024
   22.950    4.4550
   22.980    4.6551
   23.010    4.6656
   23.040    4.4655
   23.070    4.8657
   23.100    4.7499
   23.130    4.6340
   23.160    4.8341
   23.190    4.2022
   23.220    4.3707
   23.250    4.5814
   23.280    4.4655
   23.310    4.3391
   23.340    4.9078
   23.370    4.1917
   23.400    4.4655
   23.430    4.4128
   23.460    4.5392
   23.490    4.6867
   23.520    4.2127
   23.550    4.5919
   23.580    4.4023
   23.610    4.4234
   23.640    4.3707
   23.670    4.1390
   23.700    4.4866
   23.730    4.6656
   23.760    4.4971
   23.790    4.5814
   23.820    4.8868
   23.850    4.2759
   23.880    4.3181
   23.910    4.3181
   23.940    4.3813
   23.970    4.4339
   24.000    4.3181
   24.030    4.5392
   24.060    4.3813
   24.090    4.3602
   24.120    4.5708
   24.150    4.3181
   24.180    4.5498
   24.210    4.3813
   24.240    4.5498
   24.270    4.6972
   24.300    4.3602
   24.330    4.5708
   24.360    3.9916
   24.390    4.6340
   24.420    4.2338
   24.450    4.1917
   24.480    4.4339
   24.510    4.5814
   24.540    4.4128
   24.570    4.2233
   24.600    4.6445
   24.630    4.2654
   24.660    4.3181
   24.690    4.1074
   24.720    4.0232
   24.750    4.3707
   24.780    4.3391
   24.810    4.3075
   24.840    4.0969
   24.870    4.2443
   24.900    4.3497
   24.930    4.3286
   24.960    4.3497
   24.990    4.2233
   25.020    4.1180
   25.050    4.5603
   25.080    4.6867
   25.110    4.2338
   25.140    4.1285
   25.170    3.9916
   25.200    4.5076
   25.230    4.0442
   25.260    4.0969
   25.290    4.2022
   25.320    4.4866
   25.350    4.3075
   25.380    3.9179
   25.410    4.0969
   25.440    4.4444
   25.470    4.3075
   25.500    4.1285
   25.530    4.0442
   25.560    3.9494
   25.590    4.1917
   25.620    4.1811
   25.650    4.1706
   25.680    4.5919
   25.710    3.8125
   25.740    3.7915
   25.770    4.0126
   25.800    4.2549
   25.830    4.0442
   25.860    3.6440
   25.890    4.1706
   25.920    3.8547
   25.950    4.1285
   25.980    3.9916
   26.010    4.1601
   26.040    4.4234
   26.070    4.0442
   26.100    4.0653
   26.130    4.2549
   26.160    3.9284
   26.190    3.9389
   26.220    4.0758
   26.250    4.0126
   26.280    4.0337
   26.310    3.6967
   26.340    3.9705
   26.370    3.8125
   26.400    3.9073
   26.430    4.1496
   26.460    4.0548
   26.490    4.1811
   26.520    4.2233
   26.550    3.9389
   26.580    4.0758
   26.610    3.9494
   26.640    4.0548
   26.670    4.1074
   26.700    3.8020
   26.730    3.8125
   26.760    3.9810
   26.790    3.9073
   26.820    3.6651
   26.850    3.8441
   26.880    4.1180
   26.910    4.1601
   26.940    3.8652
   26.970    3.9494
   27.000    3.7177
   27.030    3.7704
   27.060    3.6651
   27.090    3.8231
   27.120    3.8020
   27.150    3.8547
   27.180    3.9916
   27.210    3.8547
   27.240    3.8125
   27.270    3.6440
   27.300    3.9705
   27.330    3.9073
   27.360    3.7599
   27.390    3.7599
   27.420    3.5914
   27.450    4.2233
   27.480    3.8336
   27.510    3.5703
   27.540    3.7283
   27.570    4.0442
   27.600    3.6756
   27.630    3.8863
   27.660    3.5598
   27.690    3.6335
   27.720    3.7283
   27.750    3.5914
   27.780    3.7177
   27.810    3.6019
   27.840    3.8125
   27.870    3.6230
   27.900    3.8125
   27.930    3.7599
   27.960    3.5914
   27.990    3.8652
   28.020    3.8231
   28.050    3.7704
   28.080    3.9179
   28.110    4.2654
   28.140    3.4544
   28.170    3.7283
   28.200    3.5387
   28.230    4.1390
   28.260    3.6335
   28.290    4.0337
   28.320    4.2759
   28.350    4.0969
   28.380    4.0232
   28.410    4.0969
   28.440    3.9073
   28.470    4.0021
   28.500    3.6967
   28.530    3.6546
   28.560    3.5808
   28.590    3.8125
   28.620    3.6019
   28.650    3.8968
   28.680    3.6756
   28.710    3.8231
   28.740    3.7809
   28.770    3.8231
   28.800    4.0232
   28.830    3.7493
   28.860    3.9810
   28.890    3.8336
   28.920    3.9179
   28.950    3.6651
   28.980    3.8547
   29.010    3.7704
   29.040    3.6230
   29.070    3.7493
   29.100    3.6230
   29.130    3.5703
   29.160    4.1180
   29.190    3.4860
   29.220    3.6019
   29.250    3.7388
   29.280    3.9916
   29.310    3.9284
   29.340    3.8336
   29.370    3.5282
   29.400    3.8231
   29.430    3.4334
   29.460    3.5492
   29.490    3.6335
   29.520    3.4860
   29.550    3.6124
   29.580    3.4650
   29.610    3.8231
   29.640    3.5176
   29.670    3.3281
   29.700    3.5598
   29.730    3.4755
   29.760    3.6651
   29.790    3.4966
   29.820    3.3070
   29.850    3.6440
   29.880    3.4860
   29.910    3.6756
   29.940    3.5703
   29.970    3.2122
   30.000    3.7599
   30.030    3.6124
   30.060    3.6967
   30.090    3.3807
   30.120    3.6124
   30.150    3.7283
   30.180    3.6019
   30.210    3.4018
   30.240    3.6440
   30.270    3.1806
   30.300    3.4334
   30.330    3.4860
   30.360    3.4439
   30.390    3.7283
   30.420    3.6124
   30.450    3.5598
   30.480    3.4439
   30.510    3.6230
   30.540    3.7704
   30.570    3.4966
   30.600    3.4860
   30.630    3.2438
   30.660    3.6019
   30.690    3.4860
   30.720    3.5598
   30.750    3.4123
   30.780    3.6230
   30.810    3.0964
   30.840    3.3386
   30.870    3.3070
   30.900    3.5387
   30.930    3.4860
   30.960    3.5387
   30.990    3.5176
   31.020    3.4860
   31.050    3.3597
   31.080    3.3491
   31.110    3.7072
   31.140    3.4650
   31.170    3.4439
   31.200    3.4755
   31.230    3.6124
   31.260    3.4018
   31.290    3.5071
   31.320    3.6651
   31.350    3.3807
   31.380    3.1806
   31.410    3.5808
   31.440    3.3175
   31.470    3.2859
   31.500    3.3386
   31.530    3.4229
   31.560    3.5071
   31.590    3.2122
   31.620    3.5703
   31.650    3.3281
   31.680    3.5703
   31.710    3.4229
   31.740    3.4544
   31.770    3.5176
   31.800    3.6124
   31.830    3.6230
   31.860    3.5176
   31.890    3.5176
   31.920    3.8020
   31.950    3.5282
   31.980    3.3070
   32.010    3.5176
   32.040    3.4018
   32.070    3.4439
   32.100    3.2122
   32.130    3.3070
   32.160    3.3175
   32.190    3.4966
   32.220    3.3491
   32.250    3.4755
   32.280    3.5282
   32.310    3.3597
   32.340    3.5282
   32.370    3.4755
   32.400    3.2543
   32.430    3.2543
   32.460    3.2543
   32.490    3.3807
   32.520    3.5071
   32.550    3.4229
   32.580    3.3491
   32.610    3.0542
   32.640    3.3070
   32.670    3.2965
   32.700    3.1806
   32.730    3.0542
   32.760    3.3070
   32.790    3.2227
   32.820    3.5703
   32.850    3.0332
   32.880    3.2859
   32.910    3.1596
   32.940    3.0648
   32.970    3.2859
   33.000    3.2227
   33.030    3.4229
   33.060    3.4229
   33.090    2.9489
   33.120    3.2754
   33.150    3.3491
   33.180    3.0753
   33.210    3.3386
   33.240    3.4018
   33.270    3.4755
   33.300    3.1385
   33.330    3.4229
   33.360    3.2227
   33.390    3.2859
   33.420    3.2859
   33.450    3.1912
   33.480    3.1385
   33.510    3.2122
   33.540    3.3281
   33.570    3.2543
   33.600    3.2754
   33.630    3.3070
   33.660    3.3491
   33.690    3.1385
   33.720    3.3597
   33.750    3.2754
   33.780    3.2017
   33.810    3.0858
   33.840    3.3491
   33.870    3.1280
   33.900    3.4229
   33.930    3.3807
   33.960    3.1806
   33.990    3.2333
   34.020    3.1806
   34.050    3.3702
   34.080    3.0964
   34.110    3.4018
   34.140    3.1174
   34.170    3.3070
   34.200    2.9805
   34.230    3.4860
   34.260    3.1490
   34.290    3.1069
   34.320    3.1174
   34.350    3.0121
   34.380    3.3070
   34.410    3.5071
   34.440    3.2649
   34.470    3.2649
   34.500    3.0437
   34.530    2.9173
   34.560    3.2754
   34.590    3.1701
   34.620    3.2543
   34.650    3.3702
   34.680    2.9910
   34.710    3.2333
   34.740    3.0648
   34.770    3.2333
   34.800    3.3597
   34.830    3.3386
   34.860    3.2649
   34.890    3.2965
   34.920    3.2859
   34.950    3.4439
   34.980    3.1174
   35.010    3.0648
   35.040    3.2649
   35.070    3.3807
   35.100    3.2754
   35.130    3.0542
   35.160    3.0858
   35.190    3.0542
   35.220    3.2754
   35.250    3.0648
   35.280    3.3281
   35.310    3.3281
   35.340    3.5914
   35.370    3.1912
   35.400    3.3491
   35.430    3.1069
   35.460    2.9805
   35.490    3.1490
   35.520    3.1806
   35.550    3.1069
   35.580    3.3597
   35.610    3.2017
   35.640    3.3281
   35.670    3.1385
   35.700    2.9910
   35.730    3.1701
   35.760    3.4018
   35.790    3.1069
   35.820    3.0332
   35.850    3.6019
   35.880    3.3807
   35.910    3.0437
   35.940    3.2859
   35.970    3.2227
   36.000    3.1596
   36.030    3.2649
   36.060    3.0016
   36.090    3.3386
   36.120    2.9173
   36.150    3.2543
   36.180    3.1596
   36.210    3.0121
   36.240    3.1069
   36.270    3.0964
   36.300    3.2227
   36.330    3.1806
   36.360    3.0753
   36.390    3.4755
   36.420    2.9910
   36.450    2.7067
   36.480    3.3070
   36.510    2.9384
   36.540    3.1806
   36.570    3.0542
   36.600    3.4018
   36.630    3.2227
   36.660    3.1806
   36.690    2.9173
   36.720    3.1912
   36.750    3.0226
   36.780    3.1912
   36.810    3.0542
   36.840    3.3702
   36.870    3.0753
   36.900    3.4123
   36.930    2.9595
   36.960    3.5071
   36.990    3.0016
   37.020    2.8541
   37.050    3.0542
   37.080    3.1385
   37.110    2.9068
   37.140    3.1912
   37.170    3.3070
   37.200    3.3281
   37.230    3.1280
   37.260    3.1912
   37.290    3.2017
   37.320    3.0753
   37.350    2.9910
   37.380    3.0753
   37.410    3.1701
   37.440    2.9910
   37.470    3.1806
   37.500    3.2122
   37.530    2.8541
   37.560    2.9805
   37.590    2.9910
   37.620    3.0964
   37.650    3.5387
   37.680    3.4018
   37.710    3.2438
   37.740    2.8436
   37.770    3.0121
   37.800    3.1912
   37.830    2.8963
   37.860    3.2859
   37.890    3.1385
   37.920    3.1174
   37.950    3.2649
   37.980    3.0016
   38.010    3.2965
   38.040    3.0753
   38.070    3.2333
   38.100    3.0648
   38.130    3.2227
   38.160    3.3597
   38.190    3.4439
   38.220    3.0964
   38.250    2.8541
   38.280    2.8752
   38.310    3.0964
   38.340    3.0121
   38.370    3.2122
   38.400    2.9279
   38.430    3.0753
   38.460    3.0753
   38.490    3.2227
   38.520    3.0648
   38.550    3.0332
   38.580    2.9595
   38.610    3.1069
   38.640    3.3491
   38.670    3.0226
   38.700    3.0121
   38.730    2.9384
   38.760    3.0648
   38.790    3.2227
   38.820    2.9068
   38.850    3.3491
   38.880    3.0437
   38.910    3.2649
   38.940    2.9489
   38.970    3.0437
   39.000    2.9910
   39.030    3.1385
   39.060    3.1596
   39.090    3.3281
   39.120    2.9068
   39.150    3.1174
   39.180    3.1701
   39.210    3.1174
   39.240    3.0016
   39.270    2.8752
   39.300    2.9700
   39.330    2.9068
   39.360    3.2333
   39.390    3.1280
   39.420    2.9805
   39.450    3.1490
   39.480    3.0121
   39.510    3.2543
   39.540    3.6440
   39.570    3.1596
   39.600    3.1701
   39.630    3.2649
   39.660    3.1701
   39.690    3.3281
   39.720    2.7804
   39.750    2.8541
   39.780    3.0332
   39.810    3.1912
   39.840    3.2649
   39.870    3.0542
   39.900    2.9068
   39.930    2.8225
   39.960    3.0121
   39.990    3.1596