File: data/MOCOF-1/PXRD/PXRD_KE-079_Cu-Ka1_capillary-1mm_5s-deg.xyd
    1.500   12.0906
    1.530   11.9115
    1.560   12.5434
    1.590   11.9747
    1.620   12.5750
    1.650   11.7114
    1.680   11.9326
    1.710   12.1748
    1.740   11.7957
    1.770   12.0063
    1.800   11.7641
    1.830   12.0063
    1.860   12.2696
    1.890   11.6588
    1.920   12.5118
    1.950   11.8483
    1.980   12.2591
    2.010   13.1754
    2.040   13.0068
    2.070   13.0384
    2.100   13.5229
    2.130   13.7757
    2.160   13.8178
    2.190   14.6498
    2.220   15.1237
    2.250   15.3555
    2.280   16.4718
    2.310   16.7562
    2.340   17.2617
    2.370   18.2201
    2.400   19.0311
    2.430   21.0321
    2.460   21.3375
    2.490   23.1280
    2.520   24.9816
    2.550   27.0669
    2.580   29.5103
    2.610   31.6272
    2.640   35.0500
    2.670   38.2517
    2.700   43.4860
    2.730   49.8684
    2.760   55.1448
    2.790   54.0811
    2.820   45.1711
    2.850   37.1143
    2.880   31.4903
    2.910   25.9716
    2.940   21.1901
    2.970   17.4934
    3.000   14.5761
    3.030   12.9121
    3.060   10.9953
    3.090    9.6261
    3.120    9.3944
    3.150    8.2359
    3.180    7.8041
    3.210    7.1827
    3.240    6.5719
    3.270    6.2770
    3.300    6.3296
    3.330    6.3928
    3.360    5.7609
    3.390    5.4766
    3.420    5.1501
    3.450    4.9710
    3.480    4.6551
    3.510    4.6551
    3.540    4.4971
    3.570    4.5287
    3.600    4.4760
    3.630    3.9284
    3.660    4.3075
    3.690    4.0864
    3.720    4.0232
    3.750    3.7283
    3.780    3.9705
    3.810    3.8020
    3.840    3.7493
    3.870    3.7599
    3.900    3.4755
    3.930    3.6546
    3.960    3.5703
    3.990    3.4755
    4.020    3.6756
    4.050    3.3702
    4.080    3.1701
    4.110    3.2649
    4.140    3.2122
    4.170    3.6651
    4.200    3.0753
    4.230    3.4123
    4.260    3.2438
    4.290    3.3070
    4.320    3.3702
    4.350    3.0753
    4.380    3.3070
    4.410    3.3597
    4.440    3.1912
    4.470    3.6019
    4.500    3.3702
    4.530    3.7599
    4.560    3.6440
    4.590    3.7177
    4.620    4.4760
    4.650    4.4550
    4.680    5.1606
    4.710    5.7188
    4.740    6.0137
    4.770    6.1295
    4.800    6.0032
    4.830    6.1611
    4.860    6.1401
    4.890    6.0453
    4.920    6.3507
    4.950    5.7715
    4.980    5.4976
    5.010    5.4344
    5.040    4.2865
    5.070    3.8547
    5.100    3.5176
    5.130    3.2543
    5.160    2.8541
    5.190    2.8647
    5.220    2.7278
    5.250    2.7278
    5.280    2.6224
    5.310    2.8541
    5.340    2.8225
    5.370    2.7909
    5.400    3.1912
    5.430    3.1806
    5.460    3.1806
    5.490    3.5703
    5.520    3.9810
    5.550    4.3286
    5.580    4.1496
    5.610    4.3602
    5.640    3.6124
    5.670    3.3702
    5.700    3.1385
    5.730    3.2122
    5.760    2.8647
    5.790    2.7172
    5.820    2.6962
    5.850    2.3907
    5.880    2.5908
    5.910    2.2012
    5.940    2.1590
    5.970    2.1485
    6.000    2.0116
    6.030    1.9589
    6.060    2.0011
    6.090    1.7062
    6.120    1.9589
    6.150    1.8747
    6.180    1.8641
    6.210    1.6535
    6.240    1.7483
    6.270    1.8431
    6.300    1.9905
    6.330    1.7694
    6.360    1.7378
    6.390    1.6746
    6.420    1.6114
    6.450    1.7167
    6.480    1.7378
    6.510    1.9379
    6.540    1.8641
    6.570    1.8852
    6.600    1.9589
    6.630    1.8747
    6.660    1.9168
    6.690    1.7799
    6.720    1.5903
    6.750    1.6535
    6.780    1.8852
    6.810    1.6324
    6.840    1.9484
    6.870    1.6851
    6.900    1.8431
    6.930    1.8957
    6.960    1.8009
    6.990    1.8852
    7.020    2.1274
    7.050    1.8957
    7.080    1.9484
    7.110    1.8115
    7.140    2.0537
    7.170    2.1801
    7.200    2.1169
    7.230    2.3591
    7.260    2.3486
    7.290    2.4329
    7.320    2.7593
    7.350    2.9279
    7.380    2.6435
    7.410    2.7383
    7.440    2.7593
    7.470    2.7699
    7.500    2.6224
    7.530    2.7909
    7.560    2.8541
    7.590    2.5592
    7.620    2.8225
    7.650    2.4118
    7.680    2.7172
    7.710    2.3486
    7.740    2.1380
    7.770    2.1485
    7.800    2.1590
    7.830    1.7904
    7.860    1.7483
    7.890    1.6746
    7.920    1.9695
    7.950    1.8220
    7.980    1.8852
    8.010    1.6114
    8.040    1.6008
    8.070    1.6008
    8.100    1.6746
    8.130    1.6535
    8.160    1.8115
    8.190    1.5166
    8.220    1.3902
    8.250    1.9168
    8.280    1.6640
    8.310    1.7167
    8.340    1.8747
    8.370    1.6219
    8.400    1.6956
    8.430    1.5166
    8.460    1.6851
    8.490    1.6851
    8.520    1.6746
    8.550    1.4850
    8.580    1.7272
    8.610    1.5377
    8.640    1.5692
    8.670    1.7588
    8.700    1.5482
    8.730    1.5482
    8.760    1.5166
    8.790    1.6114
    8.820    1.4639
    8.850    1.6746
    8.880    1.5587
    8.910    1.6219
    8.940    1.4955
    8.970    1.3586
    9.000    1.5798
    9.030    1.5166
    9.060    1.4534
    9.090    1.4955
    9.120    1.6430
    9.150    1.5903
    9.180    1.5166
    9.210    1.6535
    9.240    1.4323
    9.270    1.6008
    9.300    1.6008
    9.330    1.6430
    9.360    1.5166
    9.390    1.7378
    9.420    1.4850
    9.450    1.6008
    9.480    1.5482
    9.510    1.7694
    9.540    1.6324
    9.570    1.7167
    9.600    1.6114
    9.630    1.7378
    9.660    1.6430
    9.690    1.5482
    9.720    1.8325
    9.750    1.7272
    9.780    1.7272
    9.810    1.6114
    9.840    1.7062
    9.870    1.8431
    9.900    1.7588
    9.930    1.7588
    9.960    1.7272
    9.990    1.9063
   10.020    1.7694
   10.050    1.9168
   10.080    1.8115
   10.110    1.7272
   10.140    1.8641
   10.170    1.6640
   10.200    1.7062
   10.230    1.7694
   10.260    1.8431
   10.290    1.5377
   10.320    1.4745
   10.350    1.5377
   10.380    1.8009
   10.410    1.6851
   10.440    1.8431
   10.470    1.7799
   10.500    1.8115
   10.530    1.8431
   10.560    1.6535
   10.590    1.6114
   10.620    1.8325
   10.650    1.6851
   10.680    1.6640
   10.710    1.5587
   10.740    1.6956
   10.770    1.5692
   10.800    1.6640
   10.830    1.5798
   10.860    1.4850
   10.890    1.6219
   10.920    1.4429
   10.950    1.4955
   10.980    1.5061
   11.010    1.8220
   11.040    1.7062
   11.070    1.7378
   11.100    1.7378
   11.130    1.5271
   11.160    1.4113
   11.190    1.6324
   11.220    1.5377
   11.250    1.7272
   11.280    1.7378
   11.310    1.6746
   11.340    1.8009
   11.370    1.6008
   11.400    1.4955
   11.430    1.5903
   11.460    1.4534
   11.490    1.6324
   11.520    1.6008
   11.550    1.5377
   11.580    1.7694
   11.610    1.7483
   11.640    1.5482
   11.670    1.7483
   11.700    1.6535
   11.730    1.7588
   11.760    1.5903
   11.790    1.5903
   11.820    1.7483
   11.850    1.6008
   11.880    1.9168
   11.910    1.8220
   11.940    1.7167
   11.970    1.5271
   12.000    1.7167
   12.030    1.6746
   12.060    1.5377
   12.090    1.7167
   12.120    1.6956
   12.150    1.6956
   12.180    2.0642
   12.210    1.5798
   12.240    1.6535
   12.270    1.6640
   12.300    1.9379
   12.330    1.7799
   12.360    1.8536
   12.390    1.9063
   12.420    1.7062
   12.450    1.8536
   12.480    1.7694
   12.510    1.8431
   12.540    1.8641
   12.570    1.7904
   12.600    1.8431
   12.630    1.7904
   12.660    1.7799
   12.690    1.7272
   12.720    1.7483
   12.750    1.6746
   12.780    1.8536
   12.810    1.6324
   12.840    1.8115
   12.870    1.8431
   12.900    1.7799
   12.930    1.6535
   12.960    1.9695
   12.990    1.7694
   13.020    1.8536
   13.050    1.7378
   13.080    1.6746
   13.110    1.6640
   13.140    1.9695
   13.170    1.8220
   13.200    1.9484
   13.230    1.8325
   13.260    1.6851
   13.290    1.9905
   13.320    1.8115
   13.350    1.8536
   13.380    2.0116
   13.410    1.6956
   13.440    1.7588
   13.470    1.9273
   13.500    1.8852
   13.530    2.0011
   13.560    1.8536
   13.590    2.0011
   13.620    1.9063
   13.650    1.6851
   13.680    1.8852
   13.710    1.8852
   13.740    2.0958
   13.770    1.7588
   13.800    1.9695
   13.830    2.0537
   13.860    2.0011
   13.890    1.9063
   13.920    2.0642
   13.950    1.9695
   13.980    1.8115
   14.010    1.8957
   14.040    1.8641
   14.070    2.0432
   14.100    2.0642
   14.130    1.7483
   14.160    1.9484
   14.190    1.8641
   14.220    1.9379
   14.250    1.9168
   14.280    1.9168
   14.310    2.3275
   14.340    1.9589
   14.370    1.9168
   14.400    2.1590
   14.430    2.2012
   14.460    2.1906
   14.490    2.0116
   14.520    2.0011
   14.550    2.2012
   14.580    2.1696
   14.610    1.9589
   14.640    2.0537
   14.670    2.1485
   14.700    2.2117
   14.730    2.0958
   14.760    2.1801
   14.790    2.2117
   14.820    2.2433
   14.850    2.1064
   14.880    2.1801
   14.910    2.3381
   14.940    2.2433
   14.970    2.3381
   15.000    2.1590
   15.030    2.3381
   15.060    2.4013
   15.090    2.3170
   15.120    2.2538
   15.150    2.2012
   15.180    2.3065
   15.210    2.1169
   15.240    2.2854
   15.270    2.0958
   15.300    2.1485
   15.330    2.1274
   15.360    2.3697
   15.390    2.3802
   15.420    2.1064
   15.450    2.4961
   15.480    2.2328
   15.510    2.3907
   15.540    2.3065
   15.570    2.4223
   15.600    2.0432
   15.630    2.2117
   15.660    2.3591
   15.690    2.4750
   15.720    2.4961
   15.750    2.3591
   15.780    2.2222
   15.810    2.3591
   15.840    2.4118
   15.870    2.4645
   15.900    2.3697
   15.930    2.3591
   15.960    2.3381
   15.990    2.1590
   16.020    2.1064
   16.050    2.2328
   16.080    2.5487
   16.110    2.4434
   16.140    2.4645
   16.170    2.5698
   16.200    2.2854
   16.230    2.5698
   16.260    2.2328
   16.290    2.3381
   16.320    2.4855
   16.350    2.5171
   16.380    2.3697
   16.410    2.3591
   16.440    2.7593
   16.470    2.4961
   16.500    2.6540
   16.530    2.5171
   16.560    2.4539
   16.590    2.6014
   16.620    2.7067
   16.650    2.8120
   16.680    2.6962
   16.710    2.6119
   16.740    2.5382
   16.770    2.6540
   16.800    2.5171
   16.830    2.5698
   16.860    2.9384
   16.890    2.7593
   16.920    2.9595
   16.950    2.5171
   16.980    2.8647
   17.010    2.6014
   17.040    2.6119
   17.070    2.6540
   17.100    2.6751
   17.130    2.4855
   17.160    2.7699
   17.190    2.7067
   17.220    2.5803
   17.250    2.6751
   17.280    2.8225
   17.310    2.8120
   17.340    2.6435
   17.370    2.6014
   17.400    2.4750
   17.430    2.5908
   17.460    2.6856
   17.490    2.6646
   17.520    2.6962
   17.550    2.8015
   17.580    2.5803
   17.610    2.6540
   17.640    2.6119
   17.670    2.7593
   17.700    2.6330
   17.730    3.0753
   17.760    2.7172
   17.790    2.7699
   17.820    2.5487
   17.850    2.8225
   17.880    2.7593
   17.910    2.9595
   17.940    2.6646
   17.970    2.8647
   18.000    3.0226
   18.030    2.9489
   18.060    2.8436
   18.090    3.0437
   18.120    3.0753
   18.150    2.7488
   18.180    2.7067
   18.210    2.7172
   18.240    2.6540
   18.270    2.5066
   18.300    3.0016
   18.330    2.7699
   18.360    2.8857
   18.390    2.9173
   18.420    2.7278
   18.450    2.9805
   18.480    2.8752
   18.510    2.9384
   18.540    3.1701
   18.570    2.6962
   18.600    2.8963
   18.630    2.8541
   18.660    3.0121
   18.690    2.9384
   18.720    3.2017
   18.750    2.7383
   18.780    2.9489
   18.810    3.2438
   18.840    2.8752
   18.870    2.8120
   18.900    3.0964
   18.930    2.9384
   18.960    3.3597
   18.990    2.8752
   19.020    3.1174
   19.050    3.2122
   19.080    3.1490
   19.110    3.0226
   19.140    3.1806
   19.170    2.9595
   19.200    3.0753
   19.230    3.0964
   19.260    3.1912
   19.290    3.2122
   19.320    3.2649
   19.350    2.9805
   19.380    2.7804
   19.410    3.0437
   19.440    3.1280
   19.470    3.2333
   19.500    3.1280
   19.530    3.0858
   19.560    2.9700
   19.590    2.9910
   19.620    3.1701
   19.650    3.0858
   19.680    3.1385
   19.710    3.1280
   19.740    3.3175
   19.770    2.8436
   19.800    3.0753
   19.830    3.2017
   19.860    3.2965
   19.890    3.2649
   19.920    2.9805
   19.950    3.1806
   19.980    3.0753
   20.010    3.0121
   20.040    2.9384
   20.070    2.9700
   20.100    3.1912
   20.130    3.2754
   20.160    3.3913
   20.190    3.0542
   20.220    3.0121
   20.250    3.0121
   20.280    3.0858
   20.310    3.0542
   20.340    2.8857
   20.370    3.2333
   20.400    3.0121
   20.430    2.9173
   20.460    3.1596
   20.490    2.8963
   20.520    2.9068
   20.550    2.9910
   20.580    2.7593
   20.610    2.9805
   20.640    3.7493
   20.670    3.2754
   20.700    3.1912
   20.730    3.2017
   20.760    3.2227
   20.790    3.3491
   20.820    3.0542
   20.850    3.0121
   20.880    3.0542
   20.910    2.8963
   20.940    3.3491
   20.970    3.0542
   21.000    3.0332
   21.030    3.1385
   21.060    3.1069
   21.090    2.9173
   21.120    3.4966
   21.150    3.1912
   21.180    3.2122
   21.210    2.8436
   21.240    3.1701
   21.270    3.2122
   21.300    2.9910
   21.330    3.3597
   21.360    3.2754
   21.390    3.2122
   21.420    3.1280
   21.450    2.9700
   21.480    3.4018
   21.510    3.2965
   21.540    3.3386
   21.570    3.0753
   21.600    2.9384
   21.630    3.2649
   21.660    3.1280
   21.690    2.9805
   21.720    3.1596
   21.750    3.1280
   21.780    2.9910
   21.810    3.0332
   21.840    3.3913
   21.870    3.2122
   21.900    3.5282
   21.930    2.9700
   21.960    3.0648
   21.990    3.0016
   22.020    3.0332
   22.050    2.8752
   22.080    3.0332
   22.110    3.0648
   22.140    3.3281
   22.170    3.2017
   22.200    3.0753
   22.230    3.4650
   22.260    3.1806
   22.290    2.8436
   22.320    2.8120
   22.350    3.0016
   22.380    3.1490
   22.410    3.3175
   22.440    3.1806
   22.470    3.3386
   22.500    3.2754
   22.530    3.3913
   22.560    3.5176
   22.590    3.3491
   22.620    3.0964
   22.650    3.2438
   22.680    3.3386
   22.710    3.0753
   22.740    3.1069
   22.770    3.4650
   22.800    3.0437
   22.830    3.2333
   22.860    3.0648
   22.890    3.1806
   22.920    2.7909
   22.950    3.0648
   22.980    2.6751
   23.010    3.0226
   23.040    2.8331
   23.070    3.0753
   23.100    3.2859
   23.130    3.2333
   23.160    3.0648
   23.190    2.9068
   23.220    3.1806
   23.250    3.1490
   23.280    2.8857
   23.310    2.8857
   23.340    3.0016
   23.370    3.1701
   23.400    2.8541
   23.430    2.8963
   23.460    2.8436
   23.490    2.9279
   23.520    3.1701
   23.550    3.3491
   23.580    3.4229
   23.610    3.3175
   23.640    3.2859
   23.670    2.8436
   23.700    3.1806
   23.730    3.1806
   23.760    3.3175
   23.790    2.9384
   23.820    2.7699
   23.850    3.0121
   23.880    3.1701
   23.910    2.7278
   23.940    3.2754
   23.970    3.2017
   24.000    2.9173
   24.030    3.1701
   24.060    2.9595
   24.090    2.8752
   24.120    3.1912
   24.150    3.0226
   24.180    2.8541
   24.210    2.8541
   24.240    2.9910
   24.270    2.8225
   24.300    3.0753
   24.330    3.0964
   24.360    3.0858
   24.390    2.8015
   24.420    3.0226
   24.450    2.8225
   24.480    3.1385
   24.510    2.9910
   24.540    3.0648
   24.570    2.9068
   24.600    3.1280
   24.630    2.8225
   24.660    2.9805
   24.690    2.8331
   24.720    2.8015
   24.750    2.9595
   24.780    2.7909
   24.810    3.1596
   24.840    3.0016
   24.870    3.1596
   24.900    3.2227
   24.930    2.9489
   24.960    2.8752
   24.990    2.9384
   25.020    2.9384
   25.050    3.1385
   25.080    3.0121
   25.110    3.0226
   25.140    3.0542
   25.170    2.9595
   25.200    2.7593
   25.230    2.8015
   25.260    3.0226
   25.290    3.0332
   25.320    3.3175
   25.350    3.5387
   25.380    2.7278
   25.410    3.0226
   25.440    3.0226
   25.470    3.3281
   25.500    2.9700
   25.530    3.2859
   25.560    3.1385
   25.590    3.0964
   25.620    3.0226
   25.650    2.9068
   25.680    3.0332
   25.710    2.9595
   25.740    2.8647
   25.770    3.1596
   25.800    2.8857
   25.830    2.8120
   25.860    2.8541
   25.890    2.7699
   25.920    2.5066
   25.950    2.7278
   25.980    2.8963
   26.010    3.0542
   26.040    2.6330
   26.070    2.6856
   26.100    2.6119
   26.130    2.9279
   26.160    2.8541
   26.190    2.8857
   26.220    2.6435
   26.250    2.7172
   26.280    2.5592
   26.310    2.4329
   26.340    2.7067
   26.370    2.6119
   26.400    2.8647
   26.430    2.7067
   26.460    2.6119
   26.490    2.6224
   26.520    2.6540
   26.550    2.8541
   26.580    2.8436
   26.610    2.6014
   26.640    2.5698
   26.670    2.6646
   26.700    2.6330
   26.730    2.6330
   26.760    2.2854
   26.790    2.4329
   26.820    2.4855
   26.850    2.7699
   26.880    2.8752
   26.910    2.6435
   26.940    2.7172
   26.970    2.7278
   27.000    2.5698
   27.030    2.4013
   27.060    2.3065
   27.090    2.5066
   27.120    2.4961
   27.150    2.6435
   27.180    2.5487
   27.210    2.7383
   27.240    2.4223
   27.270    2.4855
   27.300    2.8015
   27.330    2.7488
   27.360    2.4750
   27.390    2.6962
   27.420    2.6014
   27.450    2.4645
   27.480    2.5171
   27.510    2.5592
   27.540    2.5803
   27.570    2.4750
   27.600    2.5487
   27.630    2.4645
   27.660    2.7593
   27.690    2.3275
   27.720    2.3697
   27.750    2.5171
   27.780    2.4329
   27.810    2.5276
   27.840    2.4539
   27.870    2.1696
   27.900    2.2959
   27.930    2.6014
   27.960    2.2643
   27.990    2.5276
   28.020    2.4539
   28.050    2.4329
   28.080    2.3802
   28.110    2.5276
   28.140    2.4961
   28.170    2.4118
   28.200    2.3170
   28.230    2.5487
   28.260    2.3065
   28.290    2.5382
   28.320    2.2328
   28.350    2.3065
   28.380    2.4645
   28.410    2.3381
   28.440    2.3802
   28.470    2.5698
   28.500    2.2012
   28.530    2.1801
   28.560    2.2749
   28.590    2.1696
   28.620    2.4539
   28.650    2.5908
   28.680    2.3697
   28.710    2.0432
   28.740    2.3065
   28.770    2.1696
   28.800    2.4013
   28.830    2.0221
   28.860    2.2538
   28.890    2.5276
   28.920    2.2222
   28.950    2.2643
   28.980    2.2643
   29.010    2.2222
   29.040    2.2643
   29.070    2.0958
   29.100    2.2854
   29.130    2.4013
   29.160    2.2328
   29.190    2.1064
   29.220    2.0011
   29.250    2.2117
   29.280    2.2643
   29.310    2.0748
   29.340    2.3697
   29.370    2.3275
   29.400    2.2117
   29.430    2.3697
   29.460    2.2959
   29.490    2.3802
   29.520    2.2854
   29.550    2.2749
   29.580    2.1485
   29.610    2.1064
   29.640    2.2117
   29.670    2.4013
   29.700    2.0537
   29.730    2.2433
   29.760    2.1169
   29.790    2.2959
   29.820    2.1169
   29.850    2.1696
   29.880    1.9695
   29.910    2.2012
   29.940    2.1485
   29.970    2.3697
   30.000    2.2538
   30.030    2.0958
   30.060    2.2117
   30.090    2.2643
   30.120    2.0642
   30.150    1.9063
   30.180    2.0958
   30.210    2.1274
   30.240    2.1064
   30.270    2.0958
   30.300    2.1590
   30.330    2.2012
   30.360    1.9168
   30.390    2.1064
   30.420    1.8536
   30.450    1.8957
   30.480    2.0853
   30.510    1.9063
   30.540    2.2012
   30.570    1.9800
   30.600    2.1274
   30.630    1.8957
   30.660    1.8852
   30.690    1.9905
   30.720    1.9905
   30.750    1.9800
   30.780    2.0116
   30.810    2.0432
   30.840    1.9905
   30.870    1.8536
   30.900    2.0748
   30.930    1.8957
   30.960    1.7272
   30.990    1.8641
   31.020    1.8747
   31.050    1.8957
   31.080    2.0011
   31.110    1.7904
   31.140    1.7799
   31.170    1.9168
   31.200    2.0326
   31.230    1.8325
   31.260    1.9905
   31.290    1.9589
   31.320    1.9273
   31.350    2.1064
   31.380    1.9800
   31.410    1.8641
   31.440    1.8536
   31.470    1.8641
   31.500    2.0011
   31.530    1.9063
   31.560    1.8431
   31.590    2.0748
   31.620    1.9063
   31.650    2.0432
   31.680    2.1064
   31.710    2.0116
   31.740    2.3802
   31.770    2.2328
   31.800    2.1169
   31.830    2.1590
   31.860    2.6962
   31.890    2.0853
   31.920    1.9484
   31.950    1.8009
   31.980    1.7378
   32.010    1.7799
   32.040    1.5798
   32.070    1.7588
   32.100    1.8220
   32.130    1.9484
   32.160    1.8115
   32.190    1.5587
   32.220    1.6114
   32.250    1.6219
   32.280    1.8325
   32.310    1.8431
   32.340    1.8009
   32.370    1.9063
   32.400    1.6640
   32.430    1.6746
   32.460    1.7588
   32.490    1.8220
   32.520    1.8852
   32.550    1.6640
   32.580    1.4534
   32.610    1.6219
   32.640    1.7799
   32.670    1.6956
   32.700    1.6430
   32.730    1.6956
   32.760    1.6324
   32.790    1.8431
   32.820    1.6324
   32.850    1.8115
   32.880    1.3797
   32.910    1.6956
   32.940    1.6535
   32.970    1.7272
   33.000    1.7799
   33.030    1.5271
   33.060    1.5692
   33.090    1.5271
   33.120    1.4955
   33.150    1.6114
   33.180    1.6324
   33.210    1.5482
   33.240    1.5798
   33.270    1.5061
   33.300    1.5482
   33.330    1.8220
   33.360    1.6430
   33.390    1.6219
   33.420    1.7483
   33.450    1.3586
   33.480    1.6008
   33.510    1.6956
   33.540    1.4007
   33.570    1.6324
   33.600    1.6114
   33.630    1.5271
   33.660    1.8325
   33.690    1.6324
   33.720    1.4955
   33.750    1.5166
   33.780    1.4113
   33.810    1.5061
   33.840    1.6851
   33.870    1.5166
   33.900    1.7167
   33.930    1.8852
   33.960    1.7272
   33.990    1.8009
   34.020    1.5166
   34.050    1.7167
   34.080    1.6008
   34.110    1.5903
   34.140    1.4745
   34.170    1.3797
   34.200    1.4218
   34.230    1.4218
   34.260    1.4323
   34.290    1.5061
   34.320    1.3797
   34.350    1.3797
   34.380    1.5271
   34.410    1.3902
   34.440    1.4218
   34.470    1.4218
   34.500    1.2217
   34.530    1.4745
   34.560    1.2533
   34.590    1.6008
   34.620    1.5903
   34.650    1.4007
   34.680    1.3902
   34.710    1.6324
   34.740    1.4745
   34.770    1.2849
   34.800    1.4955
   34.830    1.3375
   34.860    1.4323
   34.890    1.3270
   34.920    1.4113
   34.950    1.2849
   34.980    1.5377
   35.010    1.2849
   35.040    1.4007
   35.070    1.4534
   35.100    1.4323
   35.130    1.3375
   35.160    1.2112
   35.190    1.1585
   35.220    1.2428
   35.250    1.1796
   35.280    1.2638
   35.310    1.2744
   35.340    1.2954
   35.370    1.2322
   35.400    1.3797
   35.430    1.3586
   35.460    1.1901
   35.490    1.3060
   35.520    1.1901
   35.550    1.3797
   35.580    1.3270
   35.610    1.2533
   35.640    1.3481
   35.670    1.3481
   35.700    1.3586
   35.730    1.3481
   35.760    1.2744
   35.790    1.2533
   35.820    1.2217
   35.850    1.0637
   35.880    1.3902
   35.910    1.2006
   35.940    1.2849
   35.970    1.3165
   36.000    1.2638
   36.030    1.2322
   36.060    1.2217
   36.090    1.0637
   36.120    1.3586
   36.150    1.1796
   36.180    1.1796
   36.210    1.2112
   36.240    1.2638
   36.270    1.3270
   36.300    1.3375
   36.330    1.1480
   36.360    1.0321
   36.390    1.0742
   36.420    1.2006
   36.450    1.0111
   36.480    1.2006
   36.510    1.1269
   36.540    1.1690
   36.570    1.2744
   36.600    1.2006
   36.630    1.3270
   36.660    1.2849
   36.690    1.2006
   36.720    1.0848
   36.750    1.2533
   36.780    1.0848
   36.810    1.1796
   36.840    1.1058
   36.870    1.2217
   36.900    0.9268
   36.930    1.0848
   36.960    1.2112
   36.990    1.1058
   37.020    1.0953
   37.050    0.9373
   37.080    1.0637
   37.110    1.2006
   37.140    1.0005
   37.170    1.2217
   37.200    1.0953
   37.230    1.3060
   37.260    0.9689
   37.290    1.0532
   37.320    1.1269
   37.350    1.1585
   37.380    1.0532
   37.410    1.1901
   37.440    0.9373
   37.470    1.2744
   37.500    1.1690
   37.530    1.1796
   37.560    1.1374
   37.590    1.1164
   37.620    1.0111
   37.650    1.2322
   37.680    1.0111
   37.710    1.1585
   37.740    1.0427
   37.770    0.9373
   37.800    1.0532
   37.830    1.0848
   37.860    0.9900
   37.890    1.1164
   37.920    1.1480
   37.950    1.0321
   37.980    1.2428
   38.010    1.0005
   38.040    1.1058
   38.070    1.1690
   38.100    1.0111
   38.130    0.8531
   38.160    0.9268
   38.190    0.8425
   38.220    1.2428
   38.250    1.0111
   38.280    1.0953
   38.310    1.1058
   38.340    1.0637
   38.370    0.9900
   38.400    1.0005
   38.430    1.2112
   38.460    0.9795
   38.490    1.0216
   38.520    1.0848
   38.550    1.1058
   38.580    0.9268
   38.610    1.1164
   38.640    1.0427
   38.670    1.0953
   38.700    0.9373
   38.730    1.0005
   38.760    1.0742
   38.790    1.0216
   38.820    1.0216
   38.850    1.0005
   38.880    0.8531
   38.910    1.1058
   38.940    1.1269
   38.970    1.0637
   39.000    1.0637
   39.030    0.9268
   39.060    1.0742
   39.090    1.1796
   39.120    1.0637
   39.150    0.9795
   39.180    0.9373
   39.210    1.2533
   39.240    1.0848
   39.270    1.0532
   39.300    1.0427
   39.330    1.1269
   39.360    0.9689
   39.390    1.0216
   39.420    1.1374
   39.450    1.1269
   39.480    1.2217
   39.510    1.1164
   39.540    0.9795
   39.570    1.0005
   39.600    1.0321
   39.630    0.9373
   39.660    1.0111
   39.690    0.9584
   39.720    1.0005
   39.750    1.1374
   39.780    1.0532
   39.810    1.0111
   39.840    1.0005
   39.870    1.0216
   39.900    1.1480
   39.930    1.0953
   39.960    0.8847
   39.990    1.1480