File: data/MOCOF-1/PXRD/PXRD_KE-035_Cu-Ka1_capillary-0.3mm_5s-deg.xyd
    1.500   23.3175
    1.530   23.1227
    1.560   22.8752
    1.590   22.7909
    1.620   22.4908
    1.650   22.1854
    1.680   21.6430
    1.710   20.9110
    1.740   21.3007
    1.770   20.9584
    1.800   20.5845
    1.830   20.5161
    1.860   20.1843
    1.890   20.2422
    1.920   20.0000
    1.950   20.1316
    1.980   20.0421
    2.010   20.2738
    2.040   19.5840
    2.070   19.6419
    2.100   19.6419
    2.130   20.0579
    2.160   19.7736
    2.190   19.8262
    2.220   19.7051
    2.250   20.0105
    2.280   20.1211
    2.310   20.5740
    2.340   20.8268
    2.370   20.5108
    2.400   21.4323
    2.430   21.4745
    2.460   22.0800
    2.490   21.8799
    2.520   22.7593
    2.550   23.6072
    2.580   23.9021
    2.610   24.0179
    2.640   24.9816
    2.670   25.5292
    2.700   25.9031
    2.730   26.4876
    2.760   27.7462
    2.790   27.5724
    2.820   29.5313
    2.850   30.8794
    2.880   31.5956
    2.910   32.5329
    2.940   33.8231
    2.970   35.4555
    3.000   36.8931
    3.030   38.5782
    3.060   40.6951
    3.090   42.8278
    3.120   44.8394
    3.150   46.7457
    3.180   49.7894
    3.210   52.7120
    3.240   56.7825
    3.270   59.2628
    3.300   64.7657
    3.330   67.9674
    3.360   72.1906
    3.390   76.5929
    3.420   81.9326
    3.450   84.3391
    3.480   86.8931
    3.510   85.2554
    3.540   81.5008
    3.570   76.2665
    3.600   71.0216
    3.630   65.9347
    3.660   62.3170
    3.690   60.2001
    3.720   57.0248
    3.750   56.8562
    3.780   56.4086
    3.810   55.8294
    3.840   55.1869
    3.870   53.7915
    3.900   51.7009
    3.930   50.3739
    3.960   46.1664
    3.990   42.7278
    4.020   38.5677
    4.050   34.6288
    4.080   31.5482
    4.110   28.1885
    4.140   25.3870
    4.170   22.5329
    4.200   20.7320
    4.230   19.0627
    4.260   17.1301
    4.290   16.3981
    4.320   15.1080
    4.350   15.1132
    4.380   14.0916
    4.410   13.1701
    4.440   12.6224
    4.470   12.4855
    4.500   12.1590
    4.530   11.0163
    4.560   11.2849
    4.590   10.7320
    4.620   10.7056
    4.650   10.5424
    4.680   10.1790
    4.710    9.8526
    4.740    9.9368
    4.770    9.7420
    4.800    9.2575
    4.830    9.4523
    4.860    8.8046
    4.890    9.3049
    4.920    8.4466
    4.950    8.7414
    4.980    8.8415
    5.010    8.5624
    5.040    8.6203
    5.070    8.5466
    5.100    8.5571
    5.130    8.3781
    5.160    7.9568
    5.190    8.1833
    5.220    8.0674
    5.250    7.7620
    5.280    8.1043
    5.310    7.7462
    5.340    7.6040
    5.370    7.9042
    5.400    7.3144
    5.430    7.4355
    5.460    8.0147
    5.490    7.5513
    5.520    7.6145
    5.550    7.1143
    5.580    7.8726
    5.610    7.6409
    5.640    7.4934
    5.670    7.5461
    5.700    7.2670
    5.730    7.2722
    5.760    7.2512
    5.790    7.3934
    5.820    7.0511
    5.850    6.9089
    5.880    6.9352
    5.910    7.0879
    5.940    6.9089
    5.970    7.2512
    6.000    7.1669
    6.030    7.0037
    6.060    7.2933
    6.090    6.8615
    6.120    7.3144
    6.150    7.3354
    6.180    7.3302
    6.210    7.6672
    6.240    7.2249
    6.270    7.5039
    6.300    7.4566
    6.330    7.4302
    6.360    7.3354
    6.390    7.7199
    6.420    7.4882
    6.450    7.8094
    6.480    8.2886
    6.510    8.0463
    6.540    8.3939
    6.570    9.1522
    6.600    8.9573
    6.630    9.1943
    6.660    9.5629
    6.690    9.8578
    6.720   10.4318
    6.750   10.9900
    6.780   11.3691
    6.810   12.4592
    6.840   13.0490
    6.870   13.4913
    6.900   14.2022
    6.930   14.9763
    6.960   15.0132
    6.990   15.0026
    7.020   14.9605
    7.050   14.7709
    7.080   13.7441
    7.110   12.9753
    7.140   11.6798
    7.170   11.2744
    7.200   10.7056
    7.230   10.3739
    7.260    9.9105
    7.290    9.8262
    7.320    9.4945
    7.350    9.6103
    7.380    9.5998
    7.410   10.0369
    7.440    9.7367
    7.470   10.1790
    7.500   10.0369
    7.530   10.4318
    7.560   10.9900
    7.590   11.0848
    7.620   11.6956
    7.650   11.6430
    7.680   12.2801
    7.710   12.6646
    7.740   12.9384
    7.770   13.0490
    7.800   12.7857
    7.830   12.8541
    7.860   12.8910
    7.890   12.5803
    7.920   12.2328
    7.950   11.7694
    7.980   11.4903
    8.010   11.1901
    8.040   10.5319
    8.070    9.8157
    8.100    9.8052
    8.130    9.3365
    8.160    9.1101
    8.190    8.5677
    8.220    8.3254
    8.250    8.5150
    8.280    8.1675
    8.310    7.7304
    8.340    7.4882
    8.370    7.5671
    8.400    7.5987
    8.430    7.2459
    8.460    7.2512
    8.490    7.1406
    8.520    7.0616
    8.550    6.8510
    8.580    6.6983
    8.610    6.9510
    8.640    6.8299
    8.670    6.8141
    8.700    6.6245
    8.730    6.6825
    8.760    6.6825
    8.790    6.3560
    8.820    6.5245
    8.850    6.6456
    8.880    6.5192
    8.910    6.6983
    8.940    6.5982
    8.970    6.7615
    9.000    6.3876
    9.030    6.5929
    9.060    6.1611
    9.090    5.9874
    9.120    6.2770
    9.150    6.1822
    9.180    6.4508
    9.210    6.3981
    9.240    6.2349
    9.270    6.3086
    9.300    6.1822
    9.330    6.2507
    9.360    6.1032
    9.390    6.6667
    9.420    6.3296
    9.450    6.1664
    9.480    6.2085
    9.510    6.1664
    9.540    6.3138
    9.570    5.8715
    9.600    5.9926
    9.630    6.3086
    9.660    5.9505
    9.690    6.2033
    9.720    6.2717
    9.750    6.2507
    9.780    6.2559
    9.810    5.7820
    9.840    6.2507
    9.870    6.1664
    9.900    6.0190
    9.930    5.9558
    9.960    5.9979
    9.990    5.9084
   10.020    6.2033
   10.050    6.0611
   10.080    5.9189
   10.110    5.7293
   10.140    6.0716
   10.170    5.9031
   10.200    5.8452
   10.230    5.7662
   10.260    6.0400
   10.290    5.9400
   10.320    6.0769
   10.350    6.0137
   10.380    6.1559
   10.410    6.2349
   10.440    6.2454
   10.470    6.1769
   10.500    6.2665
   10.530    6.0874
   10.560    6.0558
   10.590    6.4139
   10.620    6.4455
   10.650    6.3981
   10.680    5.9084
   10.710    6.2138
   10.740    5.9821
   10.770    6.2770
   10.800    6.1769
   10.830    5.8557
   10.860    6.1927
   10.890    6.2928
   10.920    6.0716
   10.950    6.3138
   10.980    6.2191
   11.010    6.2559
   11.040    6.0664
   11.070    6.0558
   11.100    5.9400
   11.130    6.1137
   11.160    5.8189
   11.190    5.9874
   11.220    6.3086
   11.250    6.0032
   11.280    6.2243
   11.310    6.1190
   11.340    6.2454
   11.370    6.3191
   11.400    6.3770
   11.430    6.1769
   11.460    6.3665
   11.490    6.4455
   11.520    6.5245
   11.550    6.6561
   11.580    6.5298
   11.610    6.4876
   11.640    6.5508
   11.670    6.6193
   11.700    6.5719
   11.730    6.5824
   11.760    6.8299
   11.790    6.5192
   11.820    6.6561
   11.850    6.1243
   11.880    6.5666
   11.910    6.4139
   11.940    6.5824
   11.970    6.4455
   12.000    6.6561
   12.030    6.3718
   12.060    6.2349
   12.090    6.2823
   12.120    6.3770
   12.150    6.3718
   12.180    6.3718
   12.210    6.2401
   12.240    6.2928
   12.270    6.2665
   12.300    6.1295
   12.330    6.2612
   12.360    6.0664
   12.390    6.0506
   12.420    5.9874
   12.450    6.1085
   12.480    6.0295
   12.510    5.9926
   12.540    6.0821
   12.570    6.3612
   12.600    6.3507
   12.630    5.7293
   12.660    5.9189
   12.690    6.0664
   12.720    6.1243
   12.750    6.1875
   12.780    6.3349
   12.810    6.2454
   12.840    6.0453
   12.870    6.0242
   12.900    6.0979
   12.930    5.9084
   12.960    5.9242
   12.990    6.1243
   13.020    5.7241
   13.050    6.2401
   13.080    6.1980
   13.110    6.1453
   13.140    6.0400
   13.170    5.8873
   13.200    6.1085
   13.230    6.0821
   13.260    5.8873
   13.290    5.9874
   13.320    5.8136
   13.350    5.9294
   13.380    5.7662
   13.410    5.9558
   13.440    5.8452
   13.470    6.0190
   13.500    6.1664
   13.530    6.1401
   13.560    5.5872
   13.590    5.8768
   13.620    6.1875
   13.650    5.8820
   13.680    5.8136
   13.710    5.8452
   13.740    6.1085
   13.770    5.8241
   13.800    5.9031
   13.830    5.8031
   13.860    5.8978
   13.890    5.9874
   13.920    5.6714
   13.950    5.9400
   13.980    5.8399
   14.010    6.1401
   14.040    6.0137
   14.070    6.0558
   14.100    5.8978
   14.130    5.7451
   14.160    5.9821
   14.190    5.6977
   14.220    5.8557
   14.250    5.8241
   14.280    5.8083
   14.310    5.8820
   14.340    5.6872
   14.370    5.9294
   14.400    6.0558
   14.430    5.5766
   14.460    5.7399
   14.490    5.9505
   14.520    5.8820
   14.550    5.8294
   14.580    5.7346
   14.610    5.8873
   14.640    5.9821
   14.670    5.9189
   14.700    5.9400
   14.730    5.9610
   14.760    5.9716
   14.790    5.5924
   14.820    5.9663
   14.850    5.7083
   14.880    5.7925
   14.910    5.7873
   14.940    5.8557
   14.970    5.7715
   15.000    5.6925
   15.030    5.5608
   15.060    5.9347
   15.090    5.8399
   15.120    5.8978
   15.150    6.0084
   15.180    5.8557
   15.210    5.7083
   15.240    5.8978
   15.270    5.6819
   15.300    5.8926
   15.330    5.7715
   15.360    6.0348
   15.390    5.8557
   15.420    6.0664
   15.450    6.0032
   15.480    5.8610
   15.510    5.5345
   15.540    6.0611
   15.570    5.8241
   15.600    5.9136
   15.630    6.2823
   15.660    5.8820
   15.690    6.0453
   15.720    5.7715
   15.750    5.8978
   15.780    5.8189
   15.810    5.8768
   15.840    5.7504
   15.870    5.7030
   15.900    5.8978
   15.930    5.7030
   15.960    5.8715
   15.990    5.7451
   16.020    5.5714
   16.050    5.7715
   16.080    5.5450
   16.110    5.7504
   16.140    5.9136
   16.170    5.6872
   16.200    5.6556
   16.230    5.7241
   16.260    5.8241
   16.290    5.5556
   16.320    5.7030
   16.350    5.7715
   16.380    5.6082
   16.410    5.6029
   16.440    5.6925
   16.470    5.7135
   16.500    5.8241
   16.530    5.6661
   16.560    5.6609
   16.590    5.6819
   16.620    5.6345
   16.650    5.5345
   16.680    5.7925
   16.710    5.9505
   16.740    5.9031
   16.770    5.8294
   16.800    5.5977
   16.830    5.6345
   16.860    5.4713
   16.890    5.6240
   16.920    5.8083
   16.950    5.7399
   16.980    5.9716
   17.010    5.7609
   17.040    5.5240
   17.070    5.5924
   17.100    5.6029
   17.130    5.7083
   17.160    5.8662
   17.190    5.7715
   17.220    5.9294
   17.250    6.0032
   17.280    5.6135
   17.310    5.5398
   17.340    5.6977
   17.370    5.5398
   17.400    5.6609
   17.430    5.6345
   17.460    5.8978
   17.490    5.7135
   17.520    5.8610
   17.550    5.9136
   17.580    5.8504
   17.610    5.7030
   17.640    5.9505
   17.670    5.6187
   17.700    5.6977
   17.730    6.0242
   17.760    5.9505
   17.790    5.8452
   17.820    5.4713
   17.850    6.2191
   17.880    5.8768
   17.910    6.2559
   17.940    5.9084
   17.970    6.0558
   18.000    5.9084
   18.030    5.8820
   18.060    5.9610
   18.090    5.7767
   18.120    6.1769
   18.150    6.0769
   18.180    5.6714
   18.210    5.9874
   18.240    5.7925
   18.270    6.0453
   18.300    5.7293
   18.330    5.7504
   18.360    5.7504
   18.390    5.5292
   18.420    5.5924
   18.450    5.7557
   18.480    5.8399
   18.510    5.7241
   18.540    5.7662
   18.570    5.7715
   18.600    5.8610
   18.630    5.7925
   18.660    5.7820
   18.690    5.7715
   18.720    5.8557
   18.750    5.7241
   18.780    5.6767
   18.810    6.0137
   18.840    5.8978
   18.870    5.7451
   18.900    5.9874
   18.930    5.7873
   18.960    5.6187
   18.990    5.8136
   19.020    5.8662
   19.050    5.9979
   19.080    5.6714
   19.110    6.0242
   19.140    5.7715
   19.170    5.6082
   19.200    5.9294
   19.230    6.0664
   19.260    6.1348
   19.290    6.0769
   19.320    5.8873
   19.350    5.8820
   19.380    5.8399
   19.410    5.9926
   19.440    5.8926
   19.470    5.8557
   19.500    5.9452
   19.530    5.7609
   19.560    5.8873
   19.590    5.8031
   19.620    5.8978
   19.650    6.0769
   19.680    6.0716
   19.710    5.8399
   19.740    5.8820
   19.770    6.2085
   19.800    5.9716
   19.830    6.0716
   19.860    6.1927
   19.890    6.1085
   19.920    5.9242
   19.950    5.8504
   19.980    5.9558
   20.010    6.2401
   20.040    6.1137
   20.070    6.0190
   20.100    6.1137
   20.130    6.2349
   20.160    6.2875
   20.190    5.8294
   20.220    6.1401
   20.250    6.2875
   20.280    6.2665
   20.310    6.1295
   20.340    6.1506
   20.370    6.3191
   20.400    6.2349
   20.430    6.4718
   20.460    6.0874
   20.490    6.2138
   20.520    6.1453
   20.550    6.1717
   20.580    6.0611
   20.610    6.1137
   20.640    6.0979
   20.670    6.0664
   20.700    6.3191
   20.730    6.0400
   20.760    6.4771
   20.790    6.5034
   20.820    6.2191
   20.850    6.2191
   20.880    6.3244
   20.910    6.3981
   20.940    6.1664
   20.970    6.2138
   21.000    6.0874
   21.030    6.3665
   21.060    6.6245
   21.090    6.4244
   21.120    6.4139
   21.150    6.2981
   21.180    6.1190
   21.210    6.4824
   21.240    6.6930
   21.270    6.0979
   21.300    6.2243
   21.330    6.2717
   21.360    6.2665
   21.390    6.2349
   21.420    6.0190
   21.450    6.3454
   21.480    6.1927
   21.510    6.4034
   21.540    6.2507
   21.570    6.5456
   21.600    6.2349
   21.630    5.9663
   21.660    6.2296
   21.690    6.0874
   21.720    5.9821
   21.750    6.1717
   21.780    5.9663
   21.810    6.0664
   21.840    6.3296
   21.870    6.1664
   21.900    6.3244
   21.930    6.0664
   21.960    5.9716
   21.990    6.1927
   22.020    6.2928
   22.050    6.3138
   22.080    6.4402
   22.110    6.1348
   22.140    6.1453
   22.170    6.2296
   22.200    6.3770
   22.230    6.1875
   22.260    6.5350
   22.290    6.4771
   22.320    6.4613
   22.350    6.1611
   22.380    6.4560
   22.410    6.5403
   22.440    6.4034
   22.470    6.2981
   22.500    6.5666
   22.530    6.4982
   22.560    6.2559
   22.590    6.4824
   22.620    6.4297
   22.650    6.6561
   22.680    6.4824
   22.710    6.3612
   22.740    6.4508
   22.770    6.5561
   22.800    6.4402
   22.830    6.3191
   22.860    6.3981
   22.890    6.3402
   22.920    6.4560
   22.950    6.3612
   22.980    6.4929
   23.010    6.5508
   23.040    6.0664
   23.070    6.3454
   23.100    6.2770
   23.130    6.3981
   23.160    6.4613
   23.190    6.0611
   23.220    6.0453
   23.250    6.2085
   23.280    6.4876
   23.310    6.1137
   23.340    6.0558
   23.370    6.0190
   23.400    5.9400
   23.430    5.9452
   23.460    6.4034
   23.490    6.1611
   23.520    5.8241
   23.550    5.9294
   23.580    5.9979
   23.610    6.0927
   23.640    6.1875
   23.670    5.8399
   23.700    5.9347
   23.730    5.9768
   23.760    5.8662
   23.790    6.0927
   23.820    5.7767
   23.850    5.8189
   23.880    5.9505
   23.910    6.0084
   23.940    5.8610
   23.970    5.8031
   24.000    5.8873
   24.030    5.5977
   24.060    5.7135
   24.090    5.7293
   24.120    5.7451
   24.150    5.6609
   24.180    5.7188
   24.210    5.7030
   24.240    5.6872
   24.270    5.8347
   24.300    5.5661
   24.330    5.9347
   24.360    5.8504
   24.390    5.7557
   24.420    5.5345
   24.450    5.9926
   24.480    5.7609
   24.510    5.9136
   24.540    5.7188
   24.570    5.7451
   24.600    5.6398
   24.630    5.8715
   24.660    5.8820
   24.690    5.5503
   24.720    5.8347
   24.750    5.8347
   24.780    5.6661
   24.810    6.0821
   24.840    5.6872
   24.870    5.8768
   24.900    5.7293
   24.930    5.9084
   24.960    5.7451
   24.990    5.9084
   25.020    5.6925
   25.050    5.6240
   25.080    5.5450
   25.110    5.5819
   25.140    5.4766
   25.170    5.3923
   25.200    5.7030
   25.230    5.5503
   25.260    5.4081
   25.290    5.6135
   25.320    5.4871
   25.350    5.5450
   25.380    5.2712
   25.410    5.4081
   25.440    5.3397
   25.470    5.2080
   25.500    5.3818
   25.530    5.2501
   25.560    5.2027
   25.590    5.3712
   25.620    5.5661
   25.650    5.3449
   25.680    5.4397
   25.710    5.0816
   25.740    5.7557
   25.770    5.5240
   25.800    5.5661
   25.830    5.0658
   25.860    5.3239
   25.890    5.1237
   25.920    5.4660
   25.950    5.3186
   25.980    5.2554
   26.010    5.3186
   26.040    5.2238
   26.070    5.4028
   26.100    5.1659
   26.130    5.2449
   26.160    5.3397
   26.190    5.4818
   26.220    5.2870
   26.250    5.2923
   26.280    5.3555
   26.310    5.2923
   26.340    5.0606
   26.370    4.9289
   26.400    5.3344
   26.430    5.1237
   26.460    5.3133
   26.490    5.2133
   26.520    5.2870
   26.550    5.2817
   26.580    5.2027
   26.610    5.1553
   26.640    5.2765
   26.670    5.2817
   26.700    5.3818
   26.730    5.3660
   26.760    5.1080
   26.790    5.2765
   26.820    5.2027
   26.850    5.3870
   26.880    5.0395
   26.910    5.2501
   26.940    5.0606
   26.970    5.1448
   27.000    5.1817
   27.030    5.1501
   27.060    5.1975
   27.090    5.2343
   27.120    5.2923
   27.150    5.3186
   27.180    5.1343
   27.210    5.3239
   27.240    4.9710
   27.270    5.1132
   27.300    5.0079
   27.330    5.2923
   27.360    5.0658
   27.390    4.8499
   27.420    5.2712
   27.450    5.1290
   27.480    5.0395
   27.510    5.0448
   27.540    5.0500
   27.570    5.1132
   27.600    4.9078
   27.630    5.2501
   27.660    5.0922
   27.690    5.2027
   27.720    4.9342
   27.750    4.9710
   27.780    5.2659
   27.810    5.1975
   27.840    5.1606
   27.870    4.9868
   27.900    5.1711
   27.930    4.8973
   27.960    5.1395
   27.990    5.1395
   28.020    5.0764
   28.050    4.9816
   28.080    4.8289
   28.110    5.2080
   28.140    5.0764
   28.170    5.0974
   28.200    5.2238
   28.230    4.9710
   28.260    5.0448
   28.290    5.0448
   28.320    5.0395
   28.350    5.1606
   28.380    4.9236
   28.410    5.1448
   28.440    4.8815
   28.470    4.9289
   28.500    4.8552
   28.530    4.8447
   28.560    4.8920
   28.590    4.9447
   28.620    4.8078
   28.650    4.9394
   28.680    4.7709
   28.710    5.0395
   28.740    5.0395
   28.770    5.1080
   28.800    5.0079
   28.830    5.1395
   28.860    4.8605
   28.890    4.5550
   28.920    4.8289
   28.950    4.9500
   28.980    4.9131
   29.010    4.7077
   29.040    4.7446
   29.070    4.5656
   29.100    4.8341
   29.130    4.9816
   29.160    4.6024
   29.190    5.1132
   29.220    4.9078
   29.250    4.8236
   29.280    4.6972
   29.310    4.9026
   29.340    4.7551
   29.370    4.6972
   29.400    4.7288
   29.430    4.8973
   29.460    4.7815
   29.490    4.7920
   29.520    4.9289
   29.550    4.8552
   29.580    4.8815
   29.610    4.6393
   29.640    4.7762
   29.670    5.0764
   29.700    4.7604
   29.730    4.7235
   29.760    4.6761
   29.790    4.9605
   29.820    4.5498
   29.850    4.8605
   29.880    4.5656
   29.910    4.7709
   29.940    4.5708
   29.970    4.9131
   30.000    4.8289
   30.030    4.9184
   30.060    4.8078
   30.090    4.7446
   30.120    4.7762
   30.150    4.7709
   30.180    4.6130
   30.210    4.5972
   30.240    4.8605
   30.270    4.8552
   30.300    4.4444
   30.330    4.6656
   30.360    4.6498
   30.390    4.7235
   30.420    4.4918
   30.450    4.4971
   30.480    4.7393
   30.510    4.7341
   30.540    5.0026
   30.570    4.6867
   30.600    4.7709
   30.630    4.8078
   30.660    4.4339
   30.690    4.8447
   30.720    4.7973
   30.750    4.7604
   30.780    4.7341
   30.810    4.8447
   30.840    4.3813
   30.870    4.7709
   30.900    4.7762
   30.930    4.7393
   30.960    4.7341
   30.990    4.9289
   31.020    4.5814
   31.050    4.6235
   31.080    4.5761
   31.110    4.5972
   31.140    4.5340
   31.170    4.5445
   31.200    4.4971
   31.230    4.8605
   31.260    4.6024
   31.290    4.4655
   31.320    4.4971
   31.350    4.8236
   31.380    4.9131
   31.410    4.7077
   31.440    4.4181
   31.470    4.4234
   31.500    4.3971
   31.530    4.6235
   31.560    4.6077
   31.590    4.4866
   31.620    4.3023
   31.650    4.6288
   31.680    4.6919
   31.710    4.8710
   31.740    4.5024
   31.770    4.7288
   31.800    4.6972
   31.830    4.3655
   31.860    4.3760
   31.890    4.5656
   31.920    4.3760
   31.950    4.6288
   31.980    4.4392
   32.010    4.5076
   32.040    4.6709
   32.070    4.2338
   32.100    4.6393
   32.130    4.6867
   32.160    4.6814
   32.190    4.5550
   32.220    4.5761
   32.250    4.6393
   32.280    4.4286
   32.310    4.2865
   32.340    4.5392
   32.370    4.5076
   32.400    4.4128
   32.430    4.5234
   32.460    4.3339
   32.490    4.6077
   32.520    4.5076
   32.550    4.5287
   32.580    4.4866
   32.610    4.4760
   32.640    4.4392
   32.670    4.4076
   32.700    4.5814
   32.730    4.3707
   32.760    4.4760
   32.790    4.4971
   32.820    4.3707
   32.850    4.4076
   32.880    4.4971
   32.910    4.3655
   32.940    4.3760
   32.970    4.4234
   33.000    4.2443
   33.030    4.2865
   33.060    4.2391
   33.090    4.4655
   33.120    4.4181
   33.150    4.2496
   33.180    4.1969
   33.210    4.3075
   33.240    4.4497
   33.270    4.3497
   33.300    4.3286
   33.330    4.2127
   33.360    4.1285
   33.390    4.1496
   33.420    4.4444
   33.450    4.1285
   33.480    4.3707
   33.510    4.2654
   33.540    4.2654
   33.570    4.3181
   33.600    4.3497
   33.630    4.1601
   33.660    4.2759
   33.690    4.2075
   33.720    4.1864
   33.750    4.2075
   33.780    4.2917
   33.810    4.1969
   33.840    4.1917
   33.870    4.1074
   33.900    4.0337
   33.930    4.4234
   33.960    4.2601
   33.990    4.0337
   34.020    4.1496
   34.050    4.1759
   34.080    4.2391
   34.110    4.2759
   34.140    4.1601
   34.170    4.2707
   34.200    4.0811
   34.230    4.0653
   34.260    4.2127
   34.290    4.1811
   34.320    3.9231
   34.350    4.0548
   34.380    4.0600
   34.410    4.0126
   34.440    3.8757
   34.470    3.9758
   34.500    4.0495
   34.530    4.2233
   34.560    3.9810
   34.590    4.3023
   34.620    4.0916
   34.650    3.9652
   34.680    4.1338
   34.710    3.8231
   34.740    3.7967
   34.770    4.1969
   34.800    4.1074
   34.830    4.3549
   34.860    3.9494
   34.890    4.0811
   34.920    3.9073
   34.950    4.0021
   34.980    3.8915
   35.010    4.0758
   35.040    4.2127
   35.070    3.9126
   35.100    3.8547
   35.130    3.9179
   35.160    3.7546
   35.190    4.0811
   35.220    3.9705
   35.250    3.9547
   35.280    3.9916
   35.310    4.1127
   35.340    4.0864
   35.370    4.1917
   35.400    4.0706
   35.430    4.0284
   35.460    4.1917
   35.490    4.0600
   35.520    4.1548
   35.550    3.9810
   35.580    3.8915
   35.610    3.8652
   35.640    3.8915
   35.670    3.8863
   35.700    3.8968
   35.730    3.8863
   35.760    3.8863
   35.790    3.9810
   35.820    3.9442
   35.850    3.9810
   35.880    4.0548
   35.910    3.8652
   35.940    3.8494
   35.970    4.0600
   36.000    3.9810
   36.030    3.9652
   36.060    3.9336
   36.090    3.7967
   36.120    3.8020
   36.150    4.0179
   36.180    3.9442
   36.210    3.9126
   36.240    3.9179
   36.270    4.1917
   36.300    3.9389
   36.330    3.9652
   36.360    3.9547
   36.390    3.8178
   36.420    4.1232
   36.450    3.8547
   36.480    3.8652
   36.510    3.8915
   36.540    4.0126
   36.570    3.6177
   36.600    3.7651
   36.630    3.7125
   36.660    3.7441
   36.690    3.7441
   36.720    3.7335
   36.750    4.0916
   36.780    3.7388
   36.810    3.8652
   36.840    4.0126
   36.870    3.7809
   36.900    3.6914
   36.930    3.9179
   36.960    3.8757
   36.990    3.8705
   37.020    4.1232
   37.050    3.8863
   37.080    3.8863
   37.110    3.8547
   37.140    4.0126
   37.170    3.8863
   37.200    3.7388
   37.230    3.6335
   37.260    3.8547
   37.290    4.1496
   37.320    3.7967
   37.350    3.6388
   37.380    3.7335
   37.410    3.9021
   37.440    3.9126
   37.470    3.7599
   37.500    3.7704
   37.530    3.5440
   37.560    3.7493
   37.590    3.7441
   37.620    4.0337
   37.650    3.7915
   37.680    3.8336
   37.710    3.7283
   37.740    3.8073
   37.770    3.8441
   37.800    3.6335
   37.830    3.6598
   37.860    3.6756
   37.890    3.8389
   37.920    4.0126
   37.950    4.0021
   37.980    3.7809
   38.010    3.7230
   38.040    4.0284
   38.070    3.6493
   38.100    3.7967
   38.130    3.8020
   38.160    3.8020
   38.190    3.7072
   38.220    3.8336
   38.250    3.9126
   38.280    3.6230
   38.310    3.7862
   38.340    3.8283
   38.370    3.6809
   38.400    3.8073
   38.430    3.5703
   38.460    3.7283
   38.490    3.9021
   38.520    3.6967
   38.550    3.6756
   38.580    3.8652
   38.610    3.5650
   38.640    3.9284
   38.670    3.7546
   38.700    3.9021
   38.730    3.6335
   38.760    3.7862
   38.790    3.8441
   38.820    3.7493
   38.850    3.7809
   38.880    3.6335
   38.910    3.7441
   38.940    3.8178
   38.970    3.8494
   39.000    3.8915
   39.030    3.7493
   39.060    3.3965
   39.090    3.6177
   39.120    3.8915
   39.150    3.6388
   39.180    3.6651
   39.210    3.8389
   39.240    3.6651
   39.270    3.7283
   39.300    3.7599
   39.330    3.5914
   39.360    3.6862
   39.390    3.7283
   39.420    3.5545
   39.450    3.9073
   39.480    3.8020
   39.510    3.7809
   39.540    3.8283
   39.570    3.7441
   39.600    3.6967
   39.630    3.6598
   39.660    3.5545
   39.690    3.6440
   39.720    3.7862
   39.750    3.6809
   39.780    3.7388
   39.810    3.6809
   39.840    3.7704
   39.870    3.8020
   39.900    3.7809
   39.930    3.7283
   39.960    3.7546
   39.990    3.6914