File: data/MOCOF-1/PXRD/PXRD_KE-049-5_Cu-Ka1_capillary-1mm_35s-deg.xyd
    1.500    4.6160
    1.515    4.5919
    1.530    4.6385
    1.545    4.5257
    1.560    4.7258
    1.575    4.5648
    1.590    4.4896
    1.605    4.5046
    1.620    4.4490
    1.635    4.2308
    1.650    4.3166
    1.665    4.3286
    1.680    4.4128
    1.695    4.3873
    1.710    4.3045
    1.725    4.1541
    1.740    4.2263
    1.755    4.2293
    1.770    4.3015
    1.785    4.1435
    1.800    4.1450
    1.815    4.1721
    1.830    4.1059
    1.845    4.0758
    1.860    4.1556
    1.875    4.1225
    1.890    4.0608
    1.905    3.9961
    1.920    3.9720
    1.935    4.0021
    1.950    4.0578
    1.965    3.9510
    1.980    4.1014
    1.995    4.0548
    2.010    4.0442
    2.025    3.9976
    2.040    3.9058
    2.055    3.8186
    2.070    3.8441
    2.085    3.9434
    2.100    3.9299
    2.115    3.9795
    2.130    3.9103
    2.145    3.9856
    2.160    3.8697
    2.175    3.8908
    2.190    3.8697
    2.205    3.8486
    2.220    3.7900
    2.235    3.7298
    2.250    3.8517
    2.265    3.9780
    2.280    3.8577
    2.295    3.8005
    2.310    3.7448
    2.325    3.8501
    2.340    3.7794
    2.355    3.7313
    2.370    3.7177
    2.385    3.8050
    2.400    3.9163
    2.415    3.8878
    2.430    3.8637
    2.445    3.7358
    2.460    3.7208
    2.475    3.7915
    2.490    3.7042
    2.505    3.6877
    2.520    3.6937
    2.535    3.7223
    2.550    3.6470
    2.565    3.6139
    2.580    3.7508
    2.595    3.7539
    2.610    3.7809
    2.625    3.6816
    2.640    3.6892
    2.655    3.6350
    2.670    3.7554
    2.685    3.7554
    2.700    3.6380
    2.715    3.6591
    2.730    3.6922
    2.745    3.7539
    2.760    3.8622
    2.775    3.8140
    2.790    3.7177
    2.805    3.7945
    2.820    3.7433
    2.835    3.6801
    2.850    3.6531
    2.865    3.7223
    2.880    3.5989
    2.895    3.6967
    2.910    3.8201
    2.925    3.7388
    2.940    3.8441
    2.955    3.7839
    2.970    3.8396
    2.985    3.8035
    3.000    3.7027
    3.015    3.8471
    3.030    3.8411
    3.045    3.8321
    3.060    3.8201
    3.075    3.7614
    3.090    3.8231
    3.105    3.8817
    3.120    3.7283
    3.135    3.8321
    3.150    3.8953
    3.165    3.8817
    3.180    3.8983
    3.195    3.8923
    3.210    3.9946
    3.225    4.0788
    3.240    4.0066
    3.255    3.9419
    3.270    4.0277
    3.285    4.0984
    3.300    4.1375
    3.315    4.3436
    3.330    4.2804
    3.345    4.4715
    3.360    4.4279
    3.375    4.4565
    3.390    4.4790
    3.405    4.5437
    3.420    4.7258
    3.435    4.8251
    3.450    4.6446
    3.465    4.7213
    3.480    4.5272
    3.495    4.3361
    3.510    4.1631
    3.525    3.9991
    3.540    3.8562
    3.555    3.7779
    3.570    3.7177
    3.585    3.7569
    3.600    3.7463
    3.615    3.5568
    3.630    3.6967
    3.645    3.6455
    3.660    3.7027
    3.675    3.7870
    3.690    3.8080
    3.705    3.7132
    3.720    3.7614
    3.735    3.7644
    3.750    3.7072
    3.765    3.7900
    3.780    3.8050
    3.795    3.7554
    3.810    3.7885
    3.825    3.7508
    3.840    3.7689
    3.855    3.6801
    3.870    3.7072
    3.885    3.8547
    3.900    3.9525
    3.915    3.8306
    3.930    3.9043
    3.945    4.0397
    3.960    3.9314
    3.975    3.9464
    3.990    3.9359
    4.005    4.0397
    4.020    4.0111
    4.035    4.0728
    4.050    4.1180
    4.065    4.1240
    4.080    4.0818
    4.095    4.0262
    4.110    3.9555
    4.125    4.0262
    4.140    3.9856
    4.155    3.8848
    4.170    3.8757
    4.185    3.8923
    4.200    3.7388
    4.215    3.6666
    4.230    3.7719
    4.245    3.6260
    4.260    3.6440
    4.275    3.5507
    4.290    3.5959
    4.305    3.6094
    4.320    3.5628
    4.335    3.5492
    4.350    3.5222
    4.365    3.5447
    4.380    3.5252
    4.395    3.5357
    4.410    3.5222
    4.425    3.4168
    4.440    3.5553
    4.455    3.4499
    4.470    3.3837
    4.485    3.5643
    4.500    3.4725
    4.515    3.4981
    4.530    3.4123
    4.545    3.5462
    4.560    3.6260
    4.575    3.4936
    4.590    3.4484
    4.605    3.3747
    4.620    3.4725
    4.635    3.3612
    4.650    3.3717
    4.665    3.4469
    4.680    3.4424
    4.695    3.4906
    4.710    3.4529
    4.725    3.4093
    4.740    3.3431
    4.755    3.4529
    4.770    3.4289
    4.785    3.3913
    4.800    3.4800
    4.815    3.5342
    4.830    3.4605
    4.845    3.5477
    4.860    3.5538
    4.875    3.4349
    4.890    3.3973
    4.905    3.3958
    4.920    3.3988
    4.935    3.3506
    4.950    3.4454
    4.965    3.4665
    4.980    3.4710
    4.995    3.4665
    5.010    3.4695
    5.025    3.5492
    5.040    3.5507
    5.055    3.5146
    5.070    3.4469
    5.085    3.4891
    5.100    3.4845
    5.115    3.4605
    5.130    3.5462
    5.145    3.6019
    5.160    3.5432
    5.175    3.5116
    5.190    3.5718
    5.205    3.5357
    5.220    3.5432
    5.235    3.5522
    5.250    3.5688
    5.265    3.6576
    5.280    3.6305
    5.295    3.6425
    5.310    3.5929
    5.325    3.6305
    5.340    3.6305
    5.355    3.6395
    5.370    3.6846
    5.385    3.6049
    5.400    3.5823
    5.415    3.5538
    5.430    3.5176
    5.445    3.5583
    5.460    3.5477
    5.475    3.5869
    5.490    3.5237
    5.505    3.5477
    5.520    3.5011
    5.535    3.5267
    5.550    3.5357
    5.565    3.3762
    5.580    3.4424
    5.595    3.4394
    5.610    3.4845
    5.625    3.3822
    5.640    3.4710
    5.655    3.4680
    5.670    3.5703
    5.685    3.4815
    5.700    3.4229
    5.715    3.3807
    5.730    3.3627
    5.745    3.5086
    5.760    3.4213
    5.775    3.4891
    5.790    3.5191
    5.805    3.4259
    5.820    3.4138
    5.835    3.3627
    5.850    3.4499
    5.865    3.4469
    5.880    3.4409
    5.895    3.4484
    5.910    3.5237
    5.925    3.4544
    5.940    3.3296
    5.955    3.4951
    5.970    3.4379
    5.985    3.4635
    6.000    3.4996
    6.015    3.4048
    6.030    3.4078
    6.045    3.3732
    6.060    3.4891
    6.075    3.4439
    6.090    3.4544
    6.105    3.4123
    6.120    3.4229
    6.135    3.4620
    6.150    3.4514
    6.165    3.4544
    6.180    3.5372
    6.195    3.5823
    6.210    3.4108
    6.225    3.4921
    6.240    3.4138
    6.255    3.4078
    6.270    3.4319
    6.285    3.5026
    6.300    3.5658
    6.315    3.4529
    6.330    3.4018
    6.345    3.4319
    6.360    3.4244
    6.375    3.4334
    6.390    3.4966
    6.405    3.4755
    6.420    3.4770
    6.435    3.4379
    6.450    3.4304
    6.465    3.4891
    6.480    3.5267
    6.495    3.4319
    6.510    3.4906
    6.525    3.6064
    6.540    3.5959
    6.555    3.3822
    6.570    3.4951
    6.585    3.5568
    6.600    3.4996
    6.615    3.5056
    6.630    3.6365
    6.645    3.5131
    6.660    3.5628
    6.675    3.5282
    6.690    3.5417
    6.705    3.5492
    6.720    3.5944
    6.735    3.6169
    6.750    3.6470
    6.765    3.6245
    6.780    3.7132
    6.795    3.6606
    6.810    3.5583
    6.825    3.6019
    6.840    3.7508
    6.855    3.5297
    6.870    3.6230
    6.885    3.7132
    6.900    3.6350
    6.915    3.7885
    6.930    3.6831
    6.945    3.6079
    6.960    3.5959
    6.975    3.7313
    6.990    3.7132
    7.005    3.6094
    7.020    3.6004
    7.035    3.6290
    7.050    3.5929
    7.065    3.5402
    7.080    3.5929
    7.095    3.5222
    7.110    3.5492
    7.125    3.5507
    7.140    3.5402
    7.155    3.5763
    7.170    3.5808
    7.185    3.5116
    7.200    3.5793
    7.215    3.6515
    7.230    3.5538
    7.245    3.5643
    7.260    3.7042
    7.275    3.6064
    7.290    3.5598
    7.305    3.5703
    7.320    3.5778
    7.335    3.5462
    7.350    3.6079
    7.365    3.6094
    7.380    3.6485
    7.395    3.6034
    7.410    3.5297
    7.425    3.4605
    7.440    3.6124
    7.455    3.6621
    7.470    3.6651
    7.485    3.6395
    7.500    3.5929
    7.515    3.7644
    7.530    3.6952
    7.545    3.5522
    7.560    3.5688
    7.575    3.7087
    7.590    3.6937
    7.605    3.6546
    7.620    3.5748
    7.635    3.6515
    7.650    3.6515
    7.665    3.5929
    7.680    3.5643
    7.695    3.5477
    7.710    3.6801
    7.725    3.7087
    7.740    3.7418
    7.755    3.6771
    7.770    3.7087
    7.785    3.7674
    7.800    3.7253
    7.815    3.6500
    7.830    3.7448
    7.845    3.6771
    7.860    3.7358
    7.875    3.7508
    7.890    3.8276
    7.905    3.6997
    7.920    3.6831
    7.935    3.7554
    7.950    3.7403
    7.965    3.8366
    7.980    3.7870
    7.995    3.7749
    8.010    3.7388
    8.025    3.7945
    8.040    3.7388
    8.055    3.8261
    8.070    3.8562
    8.085    3.9239
    8.100    3.9389
    8.115    3.8366
    8.130    3.7734
    8.145    3.8848
    8.160    3.8170
    8.175    3.9555
    8.190    3.9841
    8.205    3.9254
    8.220    3.9735
    8.235    3.8637
    8.250    3.8291
    8.265    3.7885
    8.280    3.8155
    8.295    3.7524
    8.310    3.9374
    8.325    3.8426
    8.340    3.8456
    8.355    3.8817
    8.370    3.8682
    8.385    3.7885
    8.400    3.8411
    8.415    3.8577
    8.430    3.8983
    8.445    3.8878
    8.460    3.8261
    8.475    3.6771
    8.490    3.7990
    8.505    3.8456
    8.520    3.8246
    8.535    3.8216
    8.550    3.7433
    8.565    3.8592
    8.580    3.8863
    8.595    3.9660
    8.610    3.9224
    8.625    3.8968
    8.640    3.9555
    8.655    3.8848
    8.670    3.8426
    8.685    3.8607
    8.700    3.9825
    8.715    4.0021
    8.730    3.9299
    8.745    3.9585
    8.760    3.8848
    8.775    3.8592
    8.790    3.8276
    8.805    3.9690
    8.820    4.0698
    8.835    3.9916
    8.850    4.0653
    8.865    4.0367
    8.880    3.9028
    8.895    3.8802
    8.910    3.9946
    8.925    3.9179
    8.940    3.8697
    8.955    4.0924
    8.970    3.9630
    8.985    4.0126
    9.000    3.9299
    9.015    3.9194
    9.030    4.0111
    9.045    4.0232
    9.060    4.1315
    9.075    4.1074
    9.090    4.0442
    9.105    4.0412
    9.120    4.0849
    9.135    4.1119
    9.150    4.0743
    9.165    4.1887
    9.180    4.0879
    9.195    4.1330
    9.210    4.0111
    9.225    3.9118
    9.240    3.9795
    9.255    4.0202
    9.270    3.8908
    9.285    3.8893
    9.300    4.0442
    9.315    4.0352
    9.330    4.0156
    9.345    4.0307
    9.360    4.0818
    9.375    4.0563
    9.390    3.9479
    9.405    4.0623
    9.420    3.9600
    9.435    4.0563
    9.450    4.1029
    9.465    4.0834
    9.480    4.1255
    9.495    4.0578
    9.510    3.9750
    9.525    4.1165
    9.540    4.0984
    9.555    4.1059
    9.570    4.2549
    9.585    3.9871
    9.600    4.0006
    9.615    4.1932
    9.630    4.0834
    9.645    4.1059
    9.660    4.1872
    9.675    4.1315
    9.690    4.0518
    9.705    4.1360
    9.720    4.0608
    9.735    4.0999
    9.750    4.0773
    9.765    4.0563
    9.780    3.9555
    9.795    4.1827
    9.810    4.1450
    9.825    4.0894
    9.840    4.0638
    9.855    4.0834
    9.870    4.1074
    9.885    4.1541
    9.900    4.1842
    9.915    4.0758
    9.930    4.1300
    9.945    4.1345
    9.960    4.0864
    9.975    4.1872
    9.990    4.1766
   10.005    4.2127
   10.020    4.2037
   10.035    4.1902
   10.050    4.1631
   10.065    4.1646
   10.080    4.1149
   10.095    4.2173
   10.110    4.1857
   10.125    4.1857
   10.140    4.2729
   10.155    4.2669
   10.170    4.1781
   10.185    4.2263
   10.200    4.2458
   10.215    4.2323
   10.230    4.2744
   10.245    4.1751
   10.260    4.2338
   10.275    4.2880
   10.290    4.2549
   10.305    4.3256
   10.320    4.2714
   10.335    4.3707
   10.350    4.4309
   10.365    4.3451
   10.380    4.2398
   10.395    4.2910
   10.410    4.3662
   10.425    4.3632
   10.440    4.2293
   10.455    4.1827
   10.470    4.2684
   10.485    4.4339
   10.500    4.2489
   10.515    4.3813
   10.530    4.3873
   10.545    4.3737
   10.560    4.4520
   10.575    4.4505
   10.590    4.4249
   10.605    4.3617
   10.620    4.3692
   10.635    4.3376
   10.650    4.3271
   10.665    4.4098
   10.680    4.4775
   10.695    4.4625
   10.710    4.4309
   10.725    4.4309
   10.740    4.4384
   10.755    4.4023
   10.770    4.3782
   10.785    4.3527
   10.800    4.3722
   10.815    4.4038
   10.830    4.4625
   10.845    4.4414
   10.860    4.4309
   10.875    4.3331
   10.890    4.3948
   10.905    4.5061
   10.920    4.4414
   10.935    4.4775
   10.950    4.4475
   10.965    4.4159
   10.980    4.4595
   10.995    4.4806
   11.010    4.5678
   11.025    4.5693
   11.040    4.5302
   11.055    4.5723
   11.070    4.4790
   11.085    4.5723
   11.100    4.4941
   11.115    4.5483
   11.130    4.4775
   11.145    4.5603
   11.160    4.5979
   11.175    4.5317
   11.190    4.6130
   11.205    4.6325
   11.220    4.7183
   11.235    4.5723
   11.250    4.5242
   11.265    4.6175
   11.280    4.5889
   11.295    4.6430
   11.310    4.6461
   11.325    4.6009
   11.340    4.6626
   11.355    4.6987
   11.370    4.6912
   11.385    4.6731
   11.400    4.6205
   11.415    4.6596
   11.430    4.6641
   11.445    4.8040
   11.460    4.7619
   11.475    4.7333
   11.490    4.6115
   11.505    4.6927
   11.520    4.6897
   11.535    4.7785
   11.550    4.7092
   11.565    4.9078
   11.580    4.8988
   11.595    4.7484
   11.610    4.6927
   11.625    4.8447
   11.640    4.8040
   11.655    4.8808
   11.670    4.8597
   11.685    4.8537
   11.700    4.7950
   11.715    4.7754
   11.730    4.7694
   11.745    4.7980
   11.760    4.9124
   11.775    4.8537
   11.790    4.8717
   11.805    4.8988
   11.820    4.9771
   11.835    4.9485
   11.850    4.9725
   11.865    5.0147
   11.880    5.0523
   11.895    5.0478
   11.910    5.0598
   11.925    5.0523
   11.940    5.0914
   11.955    5.0478
   11.970    5.2088
   11.985    5.0508
   12.000    5.0628
   12.015    4.9560
   12.030    5.0177
   12.045    5.0448
   12.060    5.1275
   12.075    5.1049
   12.090    5.0327
   12.105    5.0854
   12.120    4.9620
   12.135    4.9515
   12.150    4.9951
   12.165    5.0839
   12.180    5.1185
   12.195    5.1426
   12.210    5.0869
   12.225    5.0387
   12.240    5.0628
   12.255    5.1726
   12.270    5.2343
   12.285    5.2358
   12.300    5.1320
   12.315    5.1365
   12.330    5.1621
   12.345    5.2930
   12.360    5.1245
   12.375    5.1110
   12.390    5.2735
   12.405    5.2825
   12.420    5.1606
   12.435    5.1817
   12.450    5.2464
   12.465    5.3893
   12.480    5.3938
   12.495    5.2659
   12.510    5.4405
   12.525    5.4480
   12.540    5.4119
   12.555    5.3712
   12.570    5.3427
   12.585    5.4615
   12.600    5.3156
   12.615    5.3487
   12.630    5.2870
   12.645    5.3878
   12.660    5.2704
   12.675    5.3743
   12.690    5.3637
   12.705    5.2629
   12.720    5.3336
   12.735    5.4675
   12.750    5.3622
   12.765    5.4465
   12.780    5.4781
   12.795    5.4811
   12.810    5.4751
   12.825    5.4465
   12.840    5.5052
   12.855    5.5698
   12.870    5.6481
   12.885    5.5638
   12.900    5.3788
   12.915    5.5804
   12.930    5.4570
   12.945    5.6180
   12.960    5.6496
   12.975    5.5082
   12.990    5.5262
   13.005    5.6872
   13.020    5.5834
   13.035    5.5819
   13.050    5.6150
   13.065    5.6857
   13.080    5.8286
   13.095    5.8783
   13.110    5.7910
   13.125    5.5819
   13.140    5.7384
   13.155    5.7384
   13.170    5.7654
   13.185    5.6782
   13.200    5.7880
   13.215    5.7669
   13.230    5.7684
   13.245    5.6391
   13.260    5.6406
   13.275    5.8331
   13.290    5.8978
   13.305    5.9069
   13.320    5.9580
   13.335    5.9189
   13.350    5.8993
   13.365    5.9159
   13.380    5.8738
   13.395    5.8422
   13.410    6.0603
   13.425    6.1115
   13.440    5.9956
   13.455    5.9791
   13.470    5.8557
   13.485    5.9731
   13.500    5.9701
   13.515    6.0513
   13.530    5.8843
   13.545    6.0859
   13.560    5.9490
   13.575    6.1100
   13.590    6.1386
   13.605    6.1927
   13.620    6.2048
   13.635    6.1446
   13.650    6.1927
   13.665    6.3612
   13.680    6.2183
   13.695    6.2409
   13.710    6.2319
   13.725    6.2800
   13.740    6.3868
   13.755    6.2935
   13.770    6.2394
   13.785    6.2755
   13.800    6.2469
   13.815    6.3898
   13.830    6.2860
   13.845    6.3567
   13.860    6.4816
   13.875    6.3432
   13.890    6.3432
   13.905    6.3763
   13.920    6.3688
   13.935    6.4455
   13.950    6.2484
   13.965    6.3823
   13.980    6.4951
   13.995    6.4786
   14.010    6.5282
   14.025    6.4756
   14.040    6.5388
   14.055    6.6185
   14.070    6.4951
   14.085    6.5042
   14.100    6.6366
   14.115    6.4320
   14.130    6.4726
   14.145    6.6471
   14.160    6.7705
   14.175    6.7223
   14.190    6.5779
   14.205    6.6637
   14.220    6.6546
   14.235    6.7524
   14.250    6.5990
   14.265    6.7690
   14.280    6.8141
   14.295    6.6652
   14.310    6.6787
   14.325    6.7389
   14.340    6.8021
   14.355    6.9736
   14.370    6.8322
   14.385    6.7163
   14.400    6.7178
   14.415    6.9360
   14.430    6.9254
   14.445    6.9209
   14.460    7.0097
   14.475    6.9901
   14.490    6.9209
   14.505    6.8397
   14.520    6.8487
   14.535    7.2414
   14.550    7.0368
   14.565    6.9811
   14.580    7.1225
   14.595    7.1933
   14.610    7.0187
   14.625    7.0308
   14.640    7.0879
   14.655    7.1135
   14.670    7.3377
   14.685    7.3151
   14.700    7.2399
   14.715    7.2956
   14.730    7.3422
   14.745    7.2911
   14.760    7.4566
   14.775    7.4250
   14.790    7.3949
   14.805    7.4054
   14.820    7.3407
   14.835    7.3211
   14.850    7.3437
   14.865    7.3738
   14.880    7.3723
   14.895    7.6145
   14.910    7.4535
   14.925    7.4626
   14.940    7.5017
   14.955    7.5890
   14.970    7.5844
   14.985    7.7289
   15.000    7.9094
   15.015    7.7665
   15.030    7.7033
   15.045    7.7153
   15.060    7.7830
   15.075    7.8161
   15.090    7.8011
   15.105    7.9049
   15.120    7.7289
   15.135    7.8899
   15.150    7.8583
   15.165    7.8613
   15.180    7.9245
   15.195    7.9831
   15.210    7.7650
   15.225    7.9771
   15.240    8.0584
   15.255    8.1757
   15.270    8.1065
   15.285    8.0313
   15.300    8.0855
   15.315    8.0719
   15.330    8.1998
   15.345    8.2464
   15.360    8.1742
   15.375    8.3427
   15.390    8.1893
   15.405    8.2118
   15.420    8.3713
   15.435    8.1517
   15.450    8.3518
   15.465    8.3262
   15.480    8.3533
   15.495    8.4315
   15.510    8.4736
   15.525    8.5323
   15.540    8.5940
   15.555    8.6406
   15.570    8.5774
   15.585    8.4180
   15.600    8.5082
   15.615    8.7174
   15.630    8.6391
   15.645    8.5880
   15.660    8.6662
   15.675    8.5158
   15.690    8.6692
   15.705    8.6828
   15.720    8.5835
   15.735    8.7715
   15.750    8.8753
   15.765    8.8197
   15.780    8.8227
   15.795    8.8678
   15.810    8.9762
   15.825    8.9024
   15.840    8.9942
   15.855    9.0619
   15.870    9.0679
   15.885    8.9145
   15.900    9.1341
   15.915    9.1386
   15.930    9.0815
   15.945    9.0980
   15.960    9.0995
   15.975    9.1477
   15.990    9.0604
   16.005    9.2515
   16.020    9.2139
   16.035    9.3388
   16.050    9.4516
   16.065    9.4426
   16.080    9.3297
   16.095    9.3312
   16.110    9.4140
   16.125    9.6998
   16.140    9.6201
   16.155    9.6156
   16.170    9.6773
   16.185    9.6276
   16.200    9.5629
   16.215    9.6186
   16.230    9.6020
   16.245    9.7044
   16.260    9.9406
   16.275    9.7420
   16.290    9.7360
   16.305    9.7856
   16.320    9.8879
   16.335    9.9105
   16.350    9.9180
   16.365    9.9962
   16.380   10.0429
   16.395   10.1407
   16.410   10.0955
   16.425   10.1286
   16.440   10.0639
   16.455   10.1978
   16.470   10.0805
   16.485   10.1617
   16.500   10.3633
   16.515   10.2761
   16.530   10.2294
   16.545   10.3859
   16.560   10.5544
   16.575   10.3453
   16.590   10.4280
   16.605   10.4416
   16.620   10.3784
   16.635   10.6537
   16.650   10.6236
   16.665   10.5620
   16.680   10.7199
   16.695   10.8824
   16.710   10.9351
   16.725   10.8298
   16.740   11.0509
   16.755   10.7831
   16.770   10.7575
   16.785   10.7169
   16.800   10.8448
   16.815   10.9832
   16.830   10.9802
   16.845   11.1984
   16.860   11.2495
   16.875   11.3804
   16.890   10.8930
   16.905   11.0464
   16.920   11.2405
   16.935   11.1472
   16.950   11.2044
   16.965   11.2661
   16.980   11.3744
   16.995   11.3338
   17.010   11.4707
   17.025   11.3759
   17.040   11.5264
   17.055   11.3579
   17.070   11.7069
   17.085   11.5550
   17.100   11.4978
   17.115   11.5309
   17.130   11.6257
   17.145   11.8604
   17.160   11.7039
   17.175   11.8152
   17.190   11.8198
   17.205   11.7220
   17.220   12.0951
   17.235   12.0876
   17.250   11.9928
   17.265   12.0695
   17.280   11.9251
   17.295   11.9943
   17.310   12.1267
   17.325   12.0409
   17.340   12.1884
   17.355   12.0153
   17.370   12.0214
   17.385   12.2892
   17.400   12.1598
   17.415   12.0184
   17.430   12.1011
   17.445   12.3238
   17.460   12.3584
   17.475   12.2711
   17.490   12.3238
   17.505   12.4411
   17.520   12.4697
   17.535   12.5103
   17.550   12.5209
   17.565   12.6774
   17.580   12.6021
   17.595   12.9226
   17.610   12.8007
   17.625   12.7691
   17.640   12.8278
   17.655   12.9542
   17.670   13.1453
   17.685   12.9091
   17.700   12.9737
   17.715   12.8895
   17.730   12.8805
   17.745   13.1031
   17.760   13.1332
   17.775   13.2235
   17.790   12.9226
   17.805   13.1438
   17.820   13.3228
   17.835   13.3875
   17.850   13.3770
   17.865   13.3032
   17.880   13.0896
   17.895   13.2416
   17.910   13.4402
   17.925   13.3063
   17.940   13.2385
   17.955   13.5846
   17.970   13.3499
   17.985   13.5380
   18.000   13.6854
   18.015   13.5425
   18.030   13.6779
   18.045   13.6177
   18.060   13.7426
   18.075   13.7817
   18.090   13.8750
   18.105   13.7260
   18.120   13.9652
   18.135   13.8419
   18.150   13.7095
   18.165   13.9096
   18.180   13.9171
   18.195   13.8990
   18.210   13.8885
   18.225   13.7787
   18.240   13.9382
   18.255   13.9111
   18.270   14.0946
   18.285   13.9352
   18.300   13.9367
   18.315   14.0871
   18.330   14.0841
   18.345   14.0781
   18.360   14.1774
   18.375   14.1909
   18.390   14.2797
   18.405   14.1924
   18.420   14.2060
   18.435   14.1714
   18.450   14.1939
   18.465   14.1172
   18.480   14.3173
   18.495   14.2060
   18.510   14.3579
   18.525   14.3670
   18.540   14.2947
   18.555   14.3895
   18.570   14.2361
   18.585   14.4903
   18.600   14.3880
   18.615   14.4392
   18.630   14.3835
   18.645   14.6227
   18.660   14.7762
   18.675   14.8123
   18.690   14.6859
   18.705   14.5791
   18.720   14.5941
   18.735   14.5310
   18.750   14.5234
   18.765   14.8499
   18.780   14.4663
   18.795   14.7581
   18.810   14.8243
   18.825   14.7762
   18.840   14.5475
   18.855   14.8499
   18.870   14.7055
   18.885   14.7612
   18.900   14.6528
   18.915   14.8409
   18.930   14.8740
   18.945   14.8544
   18.960   15.0079
   18.975   15.0004
   18.990   14.8499
   19.005   14.9071
   19.020   14.7536
   19.035   14.8710
   19.050   14.8289
   19.065   14.9658
   19.080   14.8650
   19.095   14.8635
   19.110   14.6919
   19.125   15.0606
   19.140   14.8454
   19.155   14.9838
   19.170   15.1147
   19.185   15.1463
   19.200   15.0591
   19.215   14.8695
   19.230   14.7822
   19.245   14.9477
   19.260   14.9793