File: data/MOCOF-1/PXRD/PXRD_KE-167_Cu-Ka1_capillary-1mm_5s-deg.xyd
    1.500   50.1211
    1.530   49.4787
    1.560   47.8673
    1.590   45.7715
    1.620   42.8436
    1.650   40.6109
    1.680   39.6314
    1.710   37.6303
    1.740   37.3670
    1.770   33.8178
    1.800   33.7335
    1.830   33.1648
    1.860   31.0269
    1.890   29.9947
    1.920   29.4787
    1.950   27.2880
    1.980   26.8141
    2.010   25.4239
    2.040   25.0132
    2.070   24.6130
    2.100   23.0437
    2.130   22.2854
    2.160   22.5171
    2.190   21.2217
    2.220   21.6746
    2.250   20.2001
    2.280   20.1369
    2.310   19.0100
    2.340   19.0311
    2.370   18.5887
    2.400   17.2933
    2.430   18.2412
    2.460   17.1353
    2.490   16.9668
    2.520   16.7667
    2.550   15.9874
    2.580   15.3344
    2.610   15.0500
    2.640   14.8605
    2.670   14.7130
    2.700   14.2180
    2.730   14.1654
    2.760   13.9231
    2.790   13.7019
    2.820   13.7757
    2.850   12.4381
    2.880   13.0174
    2.910   12.7330
    2.940   12.6698
    2.970   12.0906
    3.000   12.3749
    3.030   11.8273
    3.060   12.1116
    3.090   11.9642
    3.120   11.6588
    3.150   11.1848
    3.180   11.4376
    3.210   11.0690
    3.240   10.9005
    3.270   10.6793
    3.300   10.9321
    3.330   10.9110
    3.360   10.7004
    3.390   10.6056
    3.420   10.1422
    3.450   10.4687
    3.480   10.1948
    3.510    9.9315
    3.540    9.8473
    3.570   10.1738
    3.600    9.4997
    3.630   10.2791
    3.660    9.8894
    3.690    9.8052
    3.720    9.2154
    3.750    9.7420
    3.780    9.0469
    3.810    8.7309
    3.840    8.8573
    3.870    9.2575
    3.900    8.6045
    3.930    9.4471
    3.960    9.2786
    3.990    8.6256
    4.020    8.7625
    4.050    8.4781
    4.080    9.3207
    4.110    8.4466
    4.140    8.8994
    4.170    8.5519
    4.200    8.3939
    4.230    8.4571
    4.260    8.5624
    4.290    8.3096
    4.320    8.4571
    4.350    8.0358
    4.380    8.2886
    4.410    8.3518
    4.440    8.3728
    4.470    7.8252
    4.500    8.2886
    4.530    7.9410
    4.560    8.0569
    4.590    8.2991
    4.620    8.1411
    4.650    8.1833
    4.680    7.9621
    4.710    7.7620
    4.740    8.2780
    4.770    7.8673
    4.800    7.5724
    4.830    8.2570
    4.860    7.3934
    4.890    8.1411
    4.920    8.0674
    4.950    7.4355
    4.980    7.8357
    5.010    7.9410
    5.040    7.1617
    5.070    7.8778
    5.100    7.7093
    5.130    7.7409
    5.160    7.6567
    5.190    7.7830
    5.220    7.8568
    5.250    7.6672
    5.280    7.6672
    5.310    7.6672
    5.340    7.3723
    5.370    7.7514
    5.400    7.4566
    5.430    7.6145
    5.460    7.4460
    5.490    7.4776
    5.520    7.2670
    5.550    7.4776
    5.580    7.2459
    5.610    7.4250
    5.640    7.3302
    5.670    7.2670
    5.700    7.7514
    5.730    7.4250
    5.760    7.0563
    5.790    7.2986
    5.820    7.4250
    5.850    7.4671
    5.880    7.1722
    5.910    7.1933
    5.940    7.7514
    5.970    7.4776
    6.000    7.1933
    6.030    7.3512
    6.060    7.5092
    6.090    7.6040
    6.120    7.0985
    6.150    7.3618
    6.180    7.3196
    6.210    7.3934
    6.240    7.3196
    6.270    7.0669
    6.300    6.7193
    6.330    7.1722
    6.360    6.8773
    6.390    7.6777
    6.420    7.4144
    6.450    7.3512
    6.480    7.2354
    6.510    7.1090
    6.540    7.0879
    6.570    6.7088
    6.600    7.2143
    6.630    6.6983
    6.660    7.2459
    6.690    7.2670
    6.720    7.2880
    6.750    6.8878
    6.780    7.3618
    6.810    6.7720
    6.840    7.6356
    6.870    6.9826
    6.900    7.1933
    6.930    7.2038
    6.960    7.3091
    6.990    7.1827
    7.020    7.3091
    7.050    6.9405
    7.080    7.0458
    7.110    6.8878
    7.140    6.6983
    7.170    7.2986
    7.200    7.2249
    7.230    7.0669
    7.260    6.8668
    7.290    7.4039
    7.320    7.0985
    7.350    7.2038
    7.380    6.9932
    7.410    7.2775
    7.440    6.8878
    7.470    7.6040
    7.500    6.9826
    7.530    7.4671
    7.560    7.0458
    7.590    6.5613
    7.620    7.2775
    7.650    6.8773
    7.680    7.1301
    7.710    6.8878
    7.740    6.8352
    7.770    7.1511
    7.800    7.1406
    7.830    6.8141
    7.860    7.3618
    7.890    7.4987
    7.920    6.9089
    7.950    6.7930
    7.980    6.8773
    8.010    7.1617
    8.040    7.4566
    8.070    7.0774
    8.100    7.0879
    8.130    6.9721
    8.160    6.8984
    8.190    6.7615
    8.220    7.2775
    8.250    6.8457
    8.280    7.4250
    8.310    6.7720
    8.340    6.8984
    8.370    7.0037
    8.400    7.1195
    8.430    6.9300
    8.460    7.2775
    8.490    7.5303
    8.520    7.3091
    8.550    6.9616
    8.580    6.5613
    8.610    7.2249
    8.640    7.1406
    8.670    6.8878
    8.700    7.0248
    8.730    7.2565
    8.760    7.1933
    8.790    7.3091
    8.820    6.9194
    8.850    7.1195
    8.880    7.0774
    8.910    7.4039
    8.940    7.0879
    8.970    6.6877
    9.000    6.9194
    9.030    6.8773
    9.060    6.7299
    9.090    6.7509
    9.120    7.3512
    9.150    6.8984
    9.180    6.9089
    9.210    6.8984
    9.240    7.0353
    9.270    7.0458
    9.300    6.8246
    9.330    7.0142
    9.360    6.9510
    9.390    7.0458
    9.420    6.9510
    9.450    6.8246
    9.480    6.7509
    9.510    7.0353
    9.540    7.1090
    9.570    7.1722
    9.600    6.4876
    9.630    7.3091
    9.660    6.7615
    9.690    6.4666
    9.720    7.2143
    9.750    6.8984
    9.780    6.7825
    9.810    6.8878
    9.840    6.9300
    9.870    7.3091
    9.900    6.9721
    9.930    6.9721
    9.960    7.0879
    9.990    6.7825
   10.020    6.9721
   10.050    7.3302
   10.080    6.7615
   10.110    7.1511
   10.140    7.0985
   10.170    6.9826
   10.200    6.7509
   10.230    7.2775
   10.260    6.5403
   10.290    6.3402
   10.320    6.7299
   10.350    6.8668
   10.380    7.2143
   10.410    6.8773
   10.440    6.9194
   10.470    7.2880
   10.500    6.8562
   10.530    6.6983
   10.560    6.7720
   10.590    6.7299
   10.620    7.0353
   10.650    6.7509
   10.680    7.0563
   10.710    6.6245
   10.740    6.8457
   10.770    6.7088
   10.800    6.9510
   10.830    7.1617
   10.860    7.1301
   10.890    6.9616
   10.920    6.7299
   10.950    6.8878
   10.980    6.7193
   11.010    7.0248
   11.040    6.6667
   11.070    6.7930
   11.100    7.0458
   11.130    6.7930
   11.160    6.7720
   11.190    6.8878
   11.220    7.0774
   11.250    6.9826
   11.280    6.8773
   11.310    7.1827
   11.340    7.1827
   11.370    6.3928
   11.400    6.7509
   11.430    7.0774
   11.460    7.1617
   11.490    6.7193
   11.520    6.8457
   11.550    7.4039
   11.580    6.6351
   11.610    6.4350
   11.640    6.8457
   11.670    6.6245
   11.700    7.3302
   11.730    6.6772
   11.760    6.8246
   11.790    6.9721
   11.820    6.7825
   11.850    6.6140
   11.880    6.5403
   11.910    6.8878
   11.940    6.6667
   11.970    6.2559
   12.000    6.4666
   12.030    6.6983
   12.060    6.6561
   12.090    6.6983
   12.120    6.7930
   12.150    7.1511
   12.180    6.8878
   12.210    6.6667
   12.240    6.6456
   12.270    6.8562
   12.300    6.6140
   12.330    6.8246
   12.360    6.5508
   12.390    6.3823
   12.420    6.5192
   12.450    7.1511
   12.480    6.5508
   12.510    6.9194
   12.540    6.7509
   12.570    6.7088
   12.600    6.6140
   12.630    6.8878
   12.660    6.7088
   12.690    6.8352
   12.720    6.3928
   12.750    6.4350
   12.780    6.4771
   12.810    6.5824
   12.840    6.6140
   12.870    6.5508
   12.900    6.6140
   12.930    6.3296
   12.960    6.6456
   12.990    6.4560
   13.020    6.5192
   13.050    6.2981
   13.080    6.2559
   13.110    6.5929
   13.140    6.5929
   13.170    6.6877
   13.200    6.6772
   13.230    6.8246
   13.260    6.6351
   13.290    6.3718
   13.320    6.4771
   13.350    6.6772
   13.380    6.4876
   13.410    7.0353
   13.440    6.4034
   13.470    6.7193
   13.500    6.6561
   13.530    6.6983
   13.560    6.6877
   13.590    6.4034
   13.620    6.4982
   13.650    6.7930
   13.680    7.0985
   13.710    6.5192
   13.740    6.1085
   13.770    7.0142
   13.800    6.7088
   13.830    6.7299
   13.860    6.6140
   13.890    6.6983
   13.920    6.6772
   13.950    6.1506
   13.980    6.8457
   14.010    6.2875
   14.040    6.6983
   14.070    6.5298
   14.100    6.6877
   14.130    6.2665
   14.160    6.5929
   14.190    6.8141
   14.220    6.4666
   14.250    6.6035
   14.280    6.6983
   14.310    6.6983
   14.340    6.7088
   14.370    6.5508
   14.400    6.4350
   14.430    6.6877
   14.460    6.6035
   14.490    6.2770
   14.520    6.5719
   14.550    6.4244
   14.580    6.4244
   14.610    6.6877
   14.640    5.9610
   14.670    6.6351
   14.700    6.6351
   14.730    7.0563
   14.760    6.7615
   14.790    6.1506
   14.820    6.6351
   14.850    6.7088
   14.880    6.5192
   14.910    6.8773
   14.940    6.4034
   14.970    6.4771
   15.000    6.2770
   15.030    6.8878
   15.060    6.9300
   15.090    6.8668
   15.120    6.4876
   15.150    6.4982
   15.180    6.5192
   15.210    6.5613
   15.240    6.3718
   15.270    6.7088
   15.300    6.4560
   15.330    6.2454
   15.360    6.6456
   15.390    6.4139
   15.420    6.5929
   15.450    6.3296
   15.480    6.6667
   15.510    6.8246
   15.540    6.7509
   15.570    6.7299
   15.600    6.2454
   15.630    6.9089
   15.660    6.2559
   15.690    6.7193
   15.720    6.6561
   15.750    6.1927
   15.780    6.7509
   15.810    6.5087
   15.840    6.5824
   15.870    6.8562
   15.900    6.6456
   15.930    6.3612
   15.960    6.4034
   15.990    6.7404
   16.020    6.4560
   16.050    7.0037
   16.080    6.6245
   16.110    6.5929
   16.140    6.3507
   16.170    6.9300
   16.200    6.3718
   16.230    6.2770
   16.260    6.6035
   16.290    6.9089
   16.320    6.4771
   16.350    6.4350
   16.380    6.6245
   16.410    6.9932
   16.440    6.4455
   16.470    6.7615
   16.500    6.9405
   16.530    6.6245
   16.560    6.5613
   16.590    6.5087
   16.620    6.7299
   16.650    6.6561
   16.680    6.6877
   16.710    6.5929
   16.740    6.3086
   16.770    6.5929
   16.800    6.6140
   16.830    6.3507
   16.860    6.7088
   16.890    6.4982
   16.920    6.5824
   16.950    6.3507
   16.980    6.4560
   17.010    6.5298
   17.040    6.2981
   17.070    6.8141
   17.100    5.9821
   17.130    6.4560
   17.160    6.3191
   17.190    6.6035
   17.220    6.8773
   17.250    6.2981
   17.280    6.3402
   17.310    6.2981
   17.340    6.5403
   17.370    6.8141
   17.400    6.6877
   17.430    6.1927
   17.460    6.8878
   17.490    6.3928
   17.520    6.6667
   17.550    5.9926
   17.580    6.7088
   17.610    6.3191
   17.640    6.5192
   17.670    6.6140
   17.700    6.5824
   17.730    6.3191
   17.760    6.5613
   17.790    6.6983
   17.820    6.5403
   17.850    6.4876
   17.880    6.4034
   17.910    6.8141
   17.940    6.7404
   17.970    6.5719
   18.000    6.9721
   18.030    6.6877
   18.060    6.8036
   18.090    6.3191
   18.120    6.6877
   18.150    6.4666
   18.180    6.7930
   18.210    6.4034
   18.240    6.3507
   18.270    6.5613
   18.300    6.4560
   18.330    6.2033
   18.360    6.3402
   18.390    6.4455
   18.420    6.3086
   18.450    6.3612
   18.480    6.6245
   18.510    6.7088
   18.540    6.6245
   18.570    6.4876
   18.600    6.4455
   18.630    6.5298
   18.660    6.5929
   18.690    6.8246
   18.720    6.6456
   18.750    6.8036
   18.780    6.6667
   18.810    6.2875
   18.840    6.4455
   18.870    6.6140
   18.900    6.4771
   18.930    6.8246
   18.960    7.4460
   18.990    8.1306
   19.020    8.2886
   19.050    8.1727
   19.080    6.9826
   19.110    6.9616
   19.140    6.8352
   19.170    6.2033
   19.200    6.8246
   19.230    6.5403
   19.260    6.6351
   19.290    6.5298
   19.320    6.5613
   19.350    6.5192
   19.380    6.6140
   19.410    6.6035
   19.440    6.5824
   19.470    6.5613
   19.500    6.5719
   19.530    6.7509
   19.560    6.7299
   19.590    6.7825
   19.620    6.8352
   19.650    6.7299
   19.680    6.0979
   19.710    6.6245
   19.740    6.2559
   19.770    6.5824
   19.800    6.3928
   19.830    6.7088
   19.860    6.8246
   19.890    6.7299
   19.920    6.7193
   19.950    6.8352
   19.980    6.5824
   20.010    6.2875
   20.040    6.3928
   20.070    6.2559
   20.100    6.1295
   20.130    6.2349
   20.160    6.3402
   20.190    6.5298
   20.220    6.7720
   20.250    6.2454
   20.280    6.2349
   20.310    6.5719
   20.340    6.4139
   20.370    6.8668
   20.400    6.6983
   20.430    6.6456
   20.460    6.4139
   20.490    6.7509
   20.520    6.5298
   20.550    6.4350
   20.580    6.5929
   20.610    6.2770
   20.640    6.8457
   20.670    6.3507
   20.700    6.6351
   20.730    6.6561
   20.760    6.2875
   20.790    6.5508
   20.820    6.8984
   20.850    6.9616
   20.880    6.4876
   20.910    6.4034
   20.940    6.3296
   20.970    6.2875
   21.000    6.5824
   21.030    6.5613
   21.060    6.9826
   21.090    6.6667
   21.120    6.9826
   21.150    6.6351
   21.180    6.8457
   21.210    6.8984
   21.240    6.5508
   21.270    6.4455
   21.300    7.0142
   21.330    7.0037
   21.360    6.9089
   21.390    7.2670
   21.420    6.6561
   21.450    6.7930
   21.480    6.8562
   21.510    7.0248
   21.540    6.7825
   21.570    6.5192
   21.600    7.0669
   21.630    6.4982
   21.660    6.3928
   21.690    6.5087
   21.720    6.4560
   21.750    6.4982
   21.780    6.6667
   21.810    6.4244
   21.840    6.2138
   21.870    6.1611
   21.900    6.7720
   21.930    6.7088
   21.960    6.6772
   21.990    6.4771
   22.020    6.7720
   22.050    6.3086
   22.080    6.6456
   22.110    6.6561
   22.140    6.5613
   22.170    6.3823
   22.200    6.5613
   22.230    7.0879
   22.260    6.7299
   22.290    6.6456
   22.320    6.5929
   22.350    6.2875
   22.380    6.4350
   22.410    6.4982
   22.440    6.7615
   22.470    6.6035
   22.500    6.4982
   22.530    6.8668
   22.560    7.0563
   22.590    7.0669
   22.620    6.8141
   22.650    7.1090
   22.680    6.6245
   22.710    6.6035
   22.740    6.8036
   22.770    6.9405
   22.800    6.4771
   22.830    6.4876
   22.860    6.5824
   22.890    7.0142
   22.920    6.5719
   22.950    6.7193
   22.980    6.9405
   23.010    6.9194
   23.040    6.6245
   23.070    6.5403
   23.100    6.8562
   23.130    6.8246
   23.160    6.9300
   23.190    7.0774
   23.220    6.8457
   23.250    6.5087
   23.280    6.2665
   23.310    6.8246
   23.340    6.2770
   23.370    6.5087
   23.400    6.5298
   23.430    6.8878
   23.460    6.7088
   23.490    6.7615
   23.520    6.3086
   23.550    6.7299
   23.580    6.8141
   23.610    6.7509
   23.640    6.6035
   23.670    6.6561
   23.700    6.8773
   23.730    6.9932
   23.760    6.8352
   23.790    6.3612
   23.820    6.7825
   23.850    6.6035
   23.880    6.7509
   23.910    6.4034
   23.940    6.6877
   23.970    6.3402
   24.000    6.8141
   24.030    6.6667
   24.060    6.4034
   24.090    6.8352
   24.120    6.7615
   24.150    6.4771
   24.180    6.9089
   24.210    6.5403
   24.240    6.8246
   24.270    6.7615
   24.300    6.7930
   24.330    6.7930
   24.360    6.0979
   24.390    6.5192
   24.420    6.8668
   24.450    6.6456
   24.480    6.6245
   24.510    6.4244
   24.540    6.7720
   24.570    6.2138
   24.600    6.4455
   24.630    6.0874
   24.660    6.2981
   24.690    6.5298
   24.720    6.1611
   24.750    6.6667
   24.780    6.6667
   24.810    6.2559
   24.840    6.6456
   24.870    6.5403
   24.900    6.5929
   24.930    6.5192
   24.960    6.5403
   24.990    6.6351
   25.020    6.2665
   25.050    6.2138
   25.080    6.2665
   25.110    6.1611
   25.140    6.3086
   25.170    6.2875
   25.200    6.5087
   25.230    6.4034
   25.260    6.4771
   25.290    6.3507
   25.320    6.4034
   25.350    6.7509
   25.380    6.6772
   25.410    6.4876
   25.440    6.5087
   25.470    6.3296
   25.500    6.9405
   25.530    6.7930
   25.560    6.3191
   25.590    6.5929
   25.620    6.2243
   25.650    6.2981
   25.680    6.5298
   25.710    6.6561
   25.740    6.3191
   25.770    6.1927
   25.800    6.3612
   25.830    6.1295
   25.860    6.2665
   25.890    6.2349
   25.920    6.3191
   25.950    6.5298
   25.980    6.7825
   26.010    6.5613
   26.040    6.4771
   26.070    6.3296
   26.100    6.6561
   26.130    6.4139
   26.160    6.2665
   26.190    6.8036
   26.220    6.4350
   26.250    5.9610
   26.280    6.3086
   26.310    6.7193
   26.340    6.4350
   26.370    6.1927
   26.400    6.5192
   26.430    6.6140
   26.460    6.5508
   26.490    6.1927
   26.520    6.0979
   26.550    6.4771
   26.580    6.4771
   26.610    5.9400
   26.640    6.3612
   26.670    6.2770
   26.700    6.4350
   26.730    6.0874
   26.760    6.6245
   26.790    6.5719
   26.820    6.0137
   26.850    7.0142
   26.880    6.1506
   26.910    6.1085
   26.940    6.5613
   26.970    6.2349
   27.000    6.3507
   27.030    5.7399
   27.060    5.9926
   27.090    6.3086
   27.120    6.4666
   27.150    6.6351
   27.180    6.4455
   27.210    6.6351
   27.240    6.1190
   27.270    5.9294
   27.300    6.2665
   27.330    6.3507
   27.360    6.2770
   27.390    6.6351
   27.420    5.9294
   27.450    6.3718
   27.480    5.7399
   27.510    6.4455
   27.540    6.2243
   27.570    6.3823
   27.600    6.3507
   27.630    6.1295
   27.660    6.2349
   27.690    6.3086
   27.720    5.7504
   27.750    6.1506
   27.780    5.9821
   27.810    5.9400
   27.840    6.0769
   27.870    5.8768
   27.900    6.2138
   27.930    6.2243
   27.960    7.1933
   27.990    7.2459
   28.020    7.3196
   28.050    7.1827
   28.080    6.9510
   28.110    6.3612
   28.140    6.2454
   28.170    6.2243
   28.200    6.2243
   28.230    6.0032
   28.260    6.0137
   28.290    6.2033
   28.320    6.2033
   28.350    6.4350
   28.380    6.3718
   28.410    6.1717
   28.440    6.1822
   28.470    6.2981
   28.500    6.2559
   28.530    6.3928
   28.560    5.9821
   28.590    6.2665
   28.620    6.2138
   28.650    6.0874
   28.680    6.3718
   28.710    6.1927
   28.740    6.3718
   28.770    5.8978
   28.800    6.3086
   28.830    6.2349
   28.860    6.4455
   28.890    6.4244
   28.920    7.1827
   28.950    7.6145
   28.980    7.3196
   29.010    7.1827
   29.040    6.6035
   29.070    6.0032
   29.100    6.1295
   29.130    6.3612
   29.160    6.2665
   29.190    5.9084
   29.220    5.9716
   29.250    6.0664
   29.280    6.0348
   29.310    6.4139
   29.340    6.0664
   29.370    6.5298
   29.400    6.3928
   29.430    6.0664
   29.460    5.8241
   29.490    6.0874
   29.520    6.0453
   29.550    5.9926
   29.580    5.9294
   29.610    6.0769
   29.640    6.2559
   29.670    5.9610
   29.700    5.8452
   29.730    6.4982
   29.760    6.0979
   29.790    6.3507
   29.820    6.0874
   29.850    6.2349
   29.880    6.2349
   29.910    6.2243
   29.940    6.1927
   29.970    5.9821
   30.000    5.7715
   30.030    5.9294
   30.060    5.8662
   30.090    5.7820
   30.120    5.8662
   30.150    6.1506
   30.180    6.0348
   30.210    6.6245
   30.240    5.9610
   30.270    6.2349
   30.300    5.7925
   30.330    6.5087
   30.360    6.3718
   30.390    5.8136
   30.420    5.8241
   30.450    5.6556
   30.480    5.7609
   30.510    6.4139
   30.540    5.8978
   30.570    5.5924
   30.600    6.3086
   30.630    5.8347
   30.660    5.7188
   30.690    5.9505
   30.720    6.4244
   30.750    6.1190
   30.780    6.4982
   30.810    6.2559
   30.840    6.5613
   30.870    5.9926
   30.900    5.7083
   30.930    6.2243
   30.960    6.1295
   30.990    5.8452
   31.020    6.0032
   31.050    6.2138
   31.080    5.9716
   31.110    5.9189
   31.140    6.0874
   31.170    5.9610
   31.200    6.2349
   31.230    6.1190
   31.260    5.6977
   31.290    6.2770
   31.320    5.8557
   31.350    6.4139
   31.380    5.8241
   31.410    5.8873
   31.440    6.2875
   31.470    5.6556
   31.500    5.8978
   31.530    6.0348
   31.560    6.1085
   31.590    5.8136
   31.620    6.4034
   31.650    6.2454
   31.680    6.1611
   31.710    6.3718
   31.740    6.4139
   31.770    6.7088
   31.800    6.7930
   31.830    6.7615
   31.860    7.2880
   31.890    6.5298
   31.920    6.4244
   31.950    5.8557
   31.980    6.1717
   32.010    6.6351
   32.040    7.2880
   32.070    7.8146
   32.100    8.4044
   32.130    8.0463
   32.160    8.0674
   32.190    7.5513
   32.220    6.4560
   32.250    6.6245
   32.280    5.9926
   32.310    6.0979
   32.340    6.0558
   32.370    5.7925
   32.400    5.8452
   32.430    6.0558
   32.460    5.9400
   32.490    5.9400
   32.520    6.0874
   32.550    5.5398
   32.580    6.1401
   32.610    5.9084
   32.640    6.1611
   32.670    6.0137
   32.700    6.2559
   32.730    5.8452
   32.760    6.2454
   32.790    6.0137
   32.820    5.7293
   32.850    5.9716
   32.880    5.5714
   32.910    5.5819
   32.940    5.5503
   32.970    6.3823
   33.000    6.2033
   33.030    6.0137
   33.060    6.2243
   33.090    6.0242
   33.120    5.8136
   33.150    6.2033
   33.180    5.4766
   33.210    5.7188
   33.240    5.6135
   33.270    6.0558
   33.300    5.8873
   33.330    5.4766
   33.360    5.8557
   33.390    6.0664
   33.420    6.0242
   33.450    6.0348
   33.480    5.9084
   33.510    5.8662
   33.540    5.7925
   33.570    6.1822
   33.600    6.1611
   33.630    6.0979
   33.660    6.0664
   33.690    5.7820
   33.720    6.2033
   33.750    6.4560
   33.780    6.5508
   33.810    6.6456
   33.840    6.9510
   33.870    6.5824
   33.900    6.6561
   33.930    6.3612
   33.960    6.2138
   33.990    6.6561
   34.020    6.2033
   34.050    6.0769
   34.080    5.8136
   34.110    6.1611
   34.140    5.8136
   34.170    6.1295
   34.200    5.5714
   34.230    5.8557
   34.260    6.0348
   34.290    5.5924
   34.320    5.5082
   34.350    5.8136
   34.380    5.8347
   34.410    5.9400
   34.440    5.7609
   34.470    5.5292
   34.500    5.8136
   34.530    5.5082
   34.560    5.7293
   34.590    5.7609
   34.620    5.7083
   34.650    5.8662
   34.680    5.8768
   34.710    5.9505
   34.740    5.4871
   34.770    6.1822
   34.800    6.1401
   34.830    5.9189
   34.860    5.4134
   34.890    5.9505
   34.920    5.8768
   34.950    5.6029
   34.980    5.8347
   35.010    5.7820
   35.040    5.5819
   35.070    5.7293
   35.100    5.7715
   35.130    5.5924
   35.160    6.0032
   35.190    5.6345
   35.220    5.7293
   35.250    5.8978
   35.280    5.7609
   35.310    5.6240
   35.340    5.8978
   35.370    5.8136
   35.400    5.5503
   35.430    5.7188
   35.460    5.5503
   35.490    6.0032
   35.520    5.5924
   35.550    6.0348
   35.580    5.9926
   35.610    5.7399
   35.640    5.7083
   35.670    5.4871
   35.700    5.5292
   35.730    5.7293
   35.760    5.7609
   35.790    5.5398
   35.820    5.7820
   35.850    5.6977
   35.880    5.6345
   35.910    5.3291
   35.940    5.8768
   35.970    5.7083
   36.000    5.8031
   36.030    5.3923
   36.060    5.3712
   36.090    5.4660
   36.120    5.6556
   36.150    5.3712
   36.180    5.7293
   36.210    5.4134
   36.240    5.4134
   36.270    6.4560
   36.300    5.7188
   36.330    5.3186
   36.360    5.5292
   36.390    5.3186
   36.420    6.0348
   36.450    5.8557
   36.480    5.5819
   36.510    5.5503
   36.540    5.3923
   36.570    5.1922
   36.600    5.5082
   36.630    5.6556
   36.660    5.4871
   36.690    5.7609
   36.720    5.6872
   36.750    5.6135
   36.780    5.2238
   36.810    6.1717
   36.840    5.4344
   36.870    5.5187
   36.900    5.4344
   36.930    5.7715
   36.960    5.5398
   36.990    5.8136
   37.020    5.9821
   37.050    5.6767
   37.080    5.5398
   37.110    5.4976
   37.140    5.8557
   37.170    5.7293
   37.200    5.4344
   37.230    5.7715
   37.260    5.6240
   37.290    5.4976
   37.320    5.7925
   37.350    5.3923
   37.380    6.0348
   37.410    5.3923
   37.440    5.8136
   37.470    5.8241
   37.500    5.2554
   37.530    5.5714
   37.560    5.2027
   37.590    5.5714
   37.620    5.6977
   37.650    5.3712
   37.680    5.4976
   37.710    5.8136
   37.740    5.9294
   37.770    5.8031
   37.800    5.3186
   37.830    5.6135
   37.860    5.6977
   37.890    5.6029
   37.920    5.7083
   37.950    5.8557
   37.980    5.5608
   38.010    5.4239
   38.040    5.8347
   38.070    5.4028
   38.100    5.7715
   38.130    5.4871
   38.160    5.5187
   38.190    5.3923
   38.220    5.4028
   38.250    5.6240
   38.280    5.6767
   38.310    5.5082
   38.340    5.5608
   38.370    5.5292
   38.400    5.4344
   38.430    5.6029
   38.460    5.7188
   38.490    5.4239
   38.520    6.0558
   38.550    5.7293
   38.580    5.8241
   38.610    5.9821
   38.640    5.8978
   38.670    5.3818
   38.700    5.6451
   38.730    5.5187
   38.760    5.5608
   38.790    5.6345
   38.820    5.5187
   38.850    5.2133
   38.880    5.8452
   38.910    5.5503
   38.940    5.3291
   38.970    5.4450
   39.000    5.5082
   39.030    5.7399
   39.060    5.5187
   39.090    5.6345
   39.120    5.7188
   39.150    5.6977
   39.180    5.4766
   39.210    5.3081
   39.240    5.5819
   39.270    5.2238
   39.300    5.4976
   39.330    5.5187
   39.360    5.4555
   39.390    5.4871
   39.420    5.4344
   39.450    5.2870
   39.480    5.3712
   39.510    5.5398
   39.540    5.6451
   39.570    5.5608
   39.600    5.2659
   39.630    5.0974
   39.660    5.4660
   39.690    5.6345
   39.720    5.2975
   39.750    5.2765
   39.780    5.4660
   39.810    5.3818
   39.840    5.3397
   39.870    5.3607
   39.900    5.4555
   39.930    5.6029
   39.960    5.7083
   39.990    5.3502