File: data/MOCOF-1/PXRD/PXRD_Blank_Cu-Ka1_nothing_5s-deg.xyd
    1.500    2.1274
    1.530    2.1906
    1.560    2.1274
    1.590    2.4223
    1.620    2.4539
    1.650    2.2959
    1.680    2.6962
    1.710    2.5066
    1.740    2.7067
    1.770    2.6751
    1.800    2.4539
    1.830    2.8963
    1.860    2.8857
    1.890    2.6224
    1.920    2.6751
    1.950    2.7699
    1.980    2.7278
    2.010    2.8647
    2.040    2.7593
    2.070    2.8647
    2.100    2.9279
    2.130    2.7488
    2.160    2.8963
    2.190    3.1280
    2.220    3.0226
    2.250    3.2017
    2.280    3.1806
    2.310    2.9595
    2.340    3.0016
    2.370    3.0648
    2.400    2.9805
    2.430    3.0542
    2.460    2.9384
    2.490    3.1280
    2.520    2.8436
    2.550    3.2754
    2.580    3.2438
    2.610    3.2649
    2.640    3.2543
    2.670    3.4229
    2.700    3.2543
    2.730    3.3175
    2.760    3.4123
    2.790    3.2649
    2.820    3.2543
    2.850    3.1806
    2.880    3.3807
    2.910    3.0016
    2.940    3.1701
    2.970    3.5071
    3.000    3.3175
    3.030    3.4018
    3.060    3.4544
    3.090    3.1280
    3.120    3.3597
    3.150    3.4650
    3.180    3.4650
    3.210    3.3702
    3.240    3.5914
    3.270    3.4544
    3.300    3.2543
    3.330    3.4650
    3.360    3.4123
    3.390    3.5071
    3.420    3.2227
    3.450    3.6862
    3.480    3.5703
    3.510    3.5598
    3.540    3.4229
    3.570    3.5071
    3.600    3.3386
    3.630    3.6440
    3.660    3.4860
    3.690    3.7072
    3.720    3.4755
    3.750    3.6124
    3.780    3.6967
    3.810    3.8336
    3.840    3.5598
    3.870    3.3702
    3.900    3.7177
    3.930    3.6019
    3.960    3.5598
    3.990    3.6651
    4.020    3.5071
    4.050    3.5598
    4.080    3.5808
    4.110    3.5176
    4.140    3.7177
    4.170    3.7283
    4.200    3.8125
    4.230    3.5071
    4.260    3.5808
    4.290    3.6124
    4.320    3.4123
    4.350    3.7283
    4.380    3.8020
    4.410    3.5492
    4.440    3.6335
    4.470    3.3597
    4.500    3.6335
    4.530    3.8231
    4.560    3.6440
    4.590    3.7388
    4.620    3.8441
    4.650    3.7599
    4.680    3.7072
    4.710    3.6967
    4.740    3.8336
    4.770    3.6440
    4.800    3.6440
    4.830    3.6756
    4.860    3.7388
    4.890    3.7177
    4.920    3.7177
    4.950    3.4544
    4.980    3.5282
    5.010    3.4018
    5.040    3.6651
    5.070    3.7388
    5.100    3.7072
    5.130    3.5071
    5.160    3.7809
    5.190    3.6335
    5.220    3.6124
    5.250    3.8336
    5.280    3.5808
    5.310    3.7072
    5.340    3.9600
    5.370    3.7072
    5.400    3.6124
    5.430    3.8441
    5.460    3.6862
    5.490    3.7599
    5.520    3.6967
    5.550    3.8968
    5.580    3.9073
    5.610    3.6019
    5.640    3.7177
    5.670    3.4966
    5.700    3.4650
    5.730    3.8968
    5.760    3.7283
    5.790    3.3597
    5.820    3.9073
    5.850    4.0864
    5.880    3.4860
    5.910    3.9073
    5.940    3.5492
    5.970    3.7493
    6.000    3.5598
    6.030    3.6862
    6.060    3.7915
    6.090    3.8336
    6.120    3.4018
    6.150    3.4650
    6.180    3.6651
    6.210    3.5598
    6.240    3.7072
    6.270    3.8231
    6.300    3.9705
    6.330    3.8863
    6.360    4.0653
    6.390    3.7599
    6.420    3.3913
    6.450    3.4966
    6.480    3.9494
    6.510    3.7072
    6.540    3.9073
    6.570    3.7072
    6.600    3.4650
    6.630    3.8125
    6.660    3.8125
    6.690    3.8125
    6.720    3.4650
    6.750    3.7704
    6.780    3.6967
    6.810    3.6546
    6.840    3.8547
    6.870    3.4650
    6.900    3.9073
    6.930    3.5176
    6.960    3.4755
    6.990    3.4334
    7.020    3.7915
    7.050    3.4860
    7.080    3.6756
    7.110    3.9179
    7.140    3.7599
    7.170    3.5387
    7.200    3.5914
    7.230    3.8231
    7.260    3.7704
    7.290    3.6230
    7.320    3.5598
    7.350    3.6230
    7.380    3.8441
    7.410    3.6230
    7.440    3.5282
    7.470    3.6967
    7.500    3.5071
    7.530    3.5598
    7.560    3.6651
    7.590    3.7493
    7.620    3.6019
    7.650    3.7704
    7.680    3.6440
    7.710    3.5387
    7.740    3.5071
    7.770    3.7704
    7.800    3.5071
    7.830    3.5703
    7.860    3.5492
    7.890    3.5914
    7.920    3.6967
    7.950    3.5703
    7.980    3.8020
    8.010    3.5492
    8.040    3.6546
    8.070    3.8441
    8.100    3.5808
    8.130    3.5176
    8.160    3.8757
    8.190    3.4229
    8.220    3.5914
    8.250    3.7493
    8.280    3.2754
    8.310    3.6546
    8.340    3.4650
    8.370    3.7599
    8.400    3.6651
    8.430    3.5387
    8.460    3.8231
    8.490    3.5176
    8.520    3.8231
    8.550    3.6230
    8.580    3.3913
    8.610    3.6335
    8.640    3.4650
    8.670    3.6756
    8.700    3.4544
    8.730    3.5598
    8.760    3.5492
    8.790    3.6756
    8.820    3.6124
    8.850    3.6651
    8.880    3.5598
    8.910    3.6124
    8.940    3.6230
    8.970    3.3597
    9.000    3.4544
    9.030    3.4966
    9.060    3.6124
    9.090    3.7599
    9.120    3.6546
    9.150    3.5387
    9.180    3.6230
    9.210    3.4650
    9.240    3.5808
    9.270    3.2965
    9.300    3.4755
    9.330    3.5492
    9.360    3.6967
    9.390    3.5914
    9.420    3.3913
    9.450    3.6651
    9.480    3.7599
    9.510    3.6124
    9.540    3.4860
    9.570    3.3491
    9.600    3.5703
    9.630    3.5914
    9.660    3.4018
    9.690    3.3702
    9.720    3.6862
    9.750    3.4229
    9.780    3.3281
    9.810    3.2754
    9.840    3.6546
    9.870    3.3597
    9.900    3.6967
    9.930    3.4229
    9.960    3.4544
    9.990    3.4650
   10.020    3.3597
   10.050    3.4334
   10.080    3.3491
   10.110    3.4123
   10.140    3.3281
   10.170    3.2438
   10.200    3.3597
   10.230    3.4123
   10.260    3.3281
   10.290    3.2649
   10.320    3.4229
   10.350    3.4018
   10.380    3.3175
   10.410    3.3597
   10.440    3.4334
   10.470    3.3913
   10.500    3.6546
   10.530    3.5598
   10.560    3.3491
   10.590    3.6862
   10.620    3.3597
   10.650    3.2122
   10.680    3.3070
   10.710    3.4229
   10.740    3.4544
   10.770    3.2122
   10.800    3.3386
   10.830    3.4755
   10.860    3.3807
   10.890    3.2859
   10.920    3.3281
   10.950    3.1806
   10.980    3.4334
   11.010    3.4860
   11.040    3.4650
   11.070    3.2859
   11.100    3.4018
   11.130    3.2438
   11.160    3.3491
   11.190    3.4650
   11.220    3.4018
   11.250    3.2965
   11.280    3.3281
   11.310    3.3175
   11.340    3.4966
   11.370    3.2438
   11.400    3.0964
   11.430    3.1490
   11.460    2.9595
   11.490    3.1280
   11.520    3.4860
   11.550    3.3702
   11.580    3.2965
   11.610    3.3175
   11.640    3.3386
   11.670    3.1806
   11.700    3.0226
   11.730    3.2754
   11.760    3.4860
   11.790    3.1912
   11.820    3.2649
   11.850    3.3175
   11.880    3.3386
   11.910    3.0648
   11.940    3.3070
   11.970    3.2333
   12.000    3.1280
   12.030    3.2649
   12.060    3.0121
   12.090    2.9595
   12.120    3.0964
   12.150    3.2965
   12.180    3.2438
   12.210    3.1280
   12.240    3.5071
   12.270    3.1806
   12.300    3.3913
   12.330    3.5282
   12.360    3.1385
   12.390    3.2649
   12.420    3.5282
   12.450    3.2543
   12.480    3.0648
   12.510    3.2649
   12.540    3.2859
   12.570    2.8963
   12.600    3.3070
   12.630    3.0121
   12.660    3.2965
   12.690    3.1596
   12.720    2.9700
   12.750    3.1701
   12.780    3.1280
   12.810    3.1490
   12.840    3.2649
   12.870    3.1174
   12.900    3.4544
   12.930    3.2438
   12.960    3.0121
   12.990    3.0121
   13.020    2.8963
   13.050    3.2227
   13.080    3.0226
   13.110    2.8963
   13.140    3.0648
   13.170    3.0648
   13.200    3.0016
   13.230    3.0753
   13.260    3.2754
   13.290    2.8963
   13.320    3.1912
   13.350    3.2438
   13.380    3.0437
   13.410    3.0542
   13.440    3.0858
   13.470    3.2227
   13.500    3.1912
   13.530    2.8120
   13.560    3.0016
   13.590    3.1596
   13.620    2.9700
   13.650    3.0648
   13.680    2.9910
   13.710    3.0648
   13.740    3.0858
   13.770    3.0964
   13.800    3.1069
   13.830    2.9489
   13.860    3.0648
   13.890    2.9805
   13.920    3.1174
   13.950    2.7699
   13.980    2.8857
   14.010    3.2754
   14.040    3.0016
   14.070    2.8120
   14.100    3.1280
   14.130    2.8647
   14.160    2.7909
   14.190    3.0016
   14.220    3.2965
   14.250    2.8331
   14.280    2.8225
   14.310    2.9384
   14.340    2.9068
   14.370    2.6751
   14.400    2.7909
   14.430    3.1912
   14.460    2.9173
   14.490    2.9068
   14.520    2.8331
   14.550    2.9068
   14.580    2.7278
   14.610    3.1806
   14.640    2.9173
   14.670    2.8541
   14.700    2.8541
   14.730    2.7172
   14.760    2.9384
   14.790    2.9384
   14.820    2.7172
   14.850    2.6751
   14.880    2.7383
   14.910    2.7067
   14.940    2.8752
   14.970    2.8541
   15.000    2.7172
   15.030    2.7278
   15.060    2.5698
   15.090    2.9279
   15.120    2.7067
   15.150    2.8120
   15.180    2.6751
   15.210    2.6224
   15.240    2.8541
   15.270    2.8857
   15.300    2.9173
   15.330    3.1701
   15.360    2.8331
   15.390    2.7278
   15.420    2.8752
   15.450    2.6435
   15.480    2.7067
   15.510    2.7172
   15.540    2.8436
   15.570    2.9595
   15.600    2.9489
   15.630    2.6856
   15.660    2.6962
   15.690    2.6014
   15.720    2.7909
   15.750    2.9068
   15.780    2.6751
   15.810    2.6119
   15.840    2.7278
   15.870    2.9700
   15.900    2.7278
   15.930    2.5803
   15.960    2.7488
   15.990    2.5382
   16.020    2.5171
   16.050    2.8436
   16.080    2.5171
   16.110    2.2012
   16.140    2.6330
   16.170    2.7383
   16.200    2.9910
   16.230    2.5487
   16.260    2.4961
   16.290    2.8541
   16.320    2.8015
   16.350    2.8120
   16.380    2.5908
   16.410    2.6962
   16.440    2.4223
   16.470    2.5592
   16.500    2.5698
   16.530    2.4329
   16.560    2.4645
   16.590    2.7488
   16.620    2.3591
   16.650    2.6224
   16.680    2.6540
   16.710    2.6646
   16.740    2.5382
   16.770    2.6435
   16.800    2.5382
   16.830    2.6435
   16.860    2.7383
   16.890    2.5803
   16.920    2.4118
   16.950    2.4118
   16.980    2.7278
   17.010    2.4750
   17.040    2.6014
   17.070    2.6540
   17.100    2.7067
   17.130    2.4223
   17.160    2.5487
   17.190    2.5171
   17.220    2.4539
   17.250    2.2222
   17.280    2.4013
   17.310    2.5592
   17.340    2.5171
   17.370    2.5171
   17.400    2.4750
   17.430    2.4329
   17.460    2.4434
   17.490    2.5487
   17.520    2.6751
   17.550    2.4539
   17.580    2.3065
   17.610    2.5171
   17.640    2.5066
   17.670    2.3907
   17.700    2.5276
   17.730    2.5276
   17.760    2.5803
   17.790    2.3486
   17.820    2.4118
   17.850    2.7593
   17.880    2.5382
   17.910    2.4118
   17.940    2.5171
   17.970    2.4961
   18.000    2.3275
   18.030    2.3381
   18.060    2.5382
   18.090    2.2012
   18.120    2.2433
   18.150    2.4013
   18.180    2.1696
   18.210    2.2328
   18.240    2.5066
   18.270    2.2117
   18.300    2.1590
   18.330    2.4118
   18.360    2.5066
   18.390    2.4118
   18.420    2.2538
   18.450    2.1380
   18.480    2.2328
   18.510    2.3802
   18.540    2.2854
   18.570    2.2012
   18.600    2.5066
   18.630    2.3275
   18.660    2.4013
   18.690    2.3065
   18.720    2.2538
   18.750    2.1590
   18.780    2.0748
   18.810    2.0958
   18.840    2.2959
   18.870    2.2643
   18.900    2.2643
   18.930    2.0326
   18.960    2.1169
   18.990    2.2749
   19.020    2.2959
   19.050    2.4329
   19.080    2.1380
   19.110    2.3802
   19.140    2.2749
   19.170    2.2328
   19.200    2.3170
   19.230    2.1380
   19.260    2.3381
   19.290    2.3170
   19.320    2.3486
   19.350    2.2854
   19.380    2.2854
   19.410    2.2854
   19.440    2.1590
   19.470    2.3170
   19.500    2.0221
   19.530    2.0011
   19.560    2.0958
   19.590    2.3065
   19.620    2.3381
   19.650    2.0958
   19.680    2.0537
   19.710    2.1906
   19.740    1.9905
   19.770    2.2012
   19.800    2.2117
   19.830    2.0537
   19.860    2.1696
   19.890    2.0116
   19.920    2.0537
   19.950    1.9484
   19.980    2.1485
   20.010    2.1906
   20.040    2.2328
   20.070    2.1485
   20.100    2.2643
   20.130    2.0642
   20.160    2.0748
   20.190    2.2538
   20.220    2.1274
   20.250    2.0853
   20.280    2.1590
   20.310    2.1590
   20.340    2.2222
   20.370    2.2328
   20.400    2.2222
   20.430    2.0326
   20.460    2.0537
   20.490    2.2643
   20.520    2.0432
   20.550    2.0642
   20.580    1.8536
   20.610    1.9800
   20.640    2.1169
   20.670    2.1485
   20.700    1.9695
   20.730    1.8536
   20.760    2.0011
   20.790    1.9379
   20.820    1.8431
   20.850    2.0011
   20.880    2.0221
   20.910    1.9905
   20.940    1.9695
   20.970    1.9800
   21.000    1.9273
   21.030    1.9905
   21.060    2.0221
   21.090    2.0326
   21.120    2.2328
   21.150    2.0537
   21.180    2.0432
   21.210    1.8115
   21.240    1.8431
   21.270    1.7799
   21.300    1.9273
   21.330    1.9800
   21.360    1.7483
   21.390    2.1274
   21.420    2.2328
   21.450    1.8747
   21.480    1.8220
   21.510    1.7799
   21.540    1.9484
   21.570    2.0642
   21.600    2.0011
   21.630    1.8009
   21.660    1.9695
   21.690    1.7904
   21.720    1.9168
   21.750    1.7272
   21.780    1.8115
   21.810    1.9379
   21.840    1.9589
   21.870    1.7483
   21.900    1.9063
   21.930    1.8220
   21.960    1.8641
   21.990    1.8009
   22.020    1.8852
   22.050    2.0326
   22.080    1.7272
   22.110    1.8747
   22.140    2.0011
   22.170    1.8431
   22.200    1.8431
   22.230    1.8115
   22.260    1.7062
   22.290    1.9273
   22.320    1.7272
   22.350    1.8009
   22.380    1.8115
   22.410    1.8641
   22.440    2.1590
   22.470    1.7272
   22.500    1.8641
   22.530    1.7272
   22.560    1.6430
   22.590    2.0116
   22.620    1.6851
   22.650    1.9589
   22.680    1.8852
   22.710    1.7799
   22.740    1.8747
   22.770    1.9273
   22.800    1.8009
   22.830    1.7272
   22.860    1.7167
   22.890    1.8957
   22.920    1.8220
   22.950    1.8325
   22.980    1.6640
   23.010    1.8009
   23.040    1.8641
   23.070    1.7799
   23.100    1.7483
   23.130    1.8009
   23.160    1.8852
   23.190    1.5798
   23.220    1.9273
   23.250    1.7378
   23.280    1.7483
   23.310    1.6324
   23.340    1.6640
   23.370    1.6219
   23.400    1.9273
   23.430    1.6219
   23.460    1.5061
   23.490    1.6851
   23.520    1.7799
   23.550    1.6746
   23.580    1.6430
   23.610    1.5587
   23.640    1.6746
   23.670    1.5061
   23.700    1.7799
   23.730    1.6746
   23.760    1.7588
   23.790    1.7272
   23.820    1.3586
   23.850    1.3902
   23.880    1.7694
   23.910    1.7272
   23.940    1.5798
   23.970    1.6324
   24.000    1.6535
   24.030    1.6746
   24.060    1.7378
   24.090    1.5482
   24.120    1.6430
   24.150    1.5166
   24.180    1.6430
   24.210    1.5377
   24.240    1.5377
   24.270    1.5166
   24.300    1.4534
   24.330    1.6324
   24.360    1.5798
   24.390    1.6430
   24.420    1.5798
   24.450    1.4639
   24.480    1.4218
   24.510    1.7062
   24.540    1.5271
   24.570    1.6640
   24.600    1.6008
   24.630    1.4323
   24.660    1.7483
   24.690    1.5061
   24.720    1.5798
   24.750    1.7272
   24.780    1.3691
   24.810    1.4745
   24.840    1.5903
   24.870    1.5271
   24.900    1.7062
   24.930    1.3165
   24.960    1.5271
   24.990    1.7799
   25.020    1.7062
   25.050    1.4955
   25.080    1.5482
   25.110    1.4429
   25.140    1.5377
   25.170    1.4534
   25.200    1.5903
   25.230    1.4534
   25.260    1.5377
   25.290    1.5798
   25.320    1.3902
   25.350    1.6430
   25.380    1.5271
   25.410    1.4955
   25.440    1.5377
   25.470    1.5377
   25.500    1.5166
   25.530    1.4850
   25.560    1.5271
   25.590    1.3797
   25.620    1.2849
   25.650    1.3902
   25.680    1.4534
   25.710    1.5377
   25.740    1.3797
   25.770    1.2849
   25.800    1.6008
   25.830    1.3691
   25.860    1.4007
   25.890    1.3481
   25.920    1.4745
   25.950    1.4218
   25.980    1.3586
   26.010    1.4534
   26.040    1.5587
   26.070    1.3586
   26.100    1.4007
   26.130    1.4639
   26.160    1.3902
   26.190    1.4323
   26.220    1.3586
   26.250    1.3586
   26.280    1.5587
   26.310    1.2954
   26.340    1.3902
   26.370    1.4218
   26.400    1.3797
   26.430    1.3481
   26.460    1.2849
   26.490    1.2954
   26.520    1.4218
   26.550    1.5271
   26.580    1.3270
   26.610    1.3375
   26.640    1.4745
   26.670    1.2954
   26.700    1.4323
   26.730    1.4323
   26.760    1.2638
   26.790    1.3691
   26.820    1.2954
   26.850    1.5482
   26.880    1.5271
   26.910    1.4429
   26.940    1.5377
   26.970    1.4850
   27.000    1.2006
   27.030    1.2638
   27.060    1.4639
   27.090    1.3902
   27.120    1.4007
   27.150    1.3691
   27.180    1.4323
   27.210    1.2638
   27.240    1.3060
   27.270    1.3586
   27.300    1.4218
   27.330    1.1585
   27.360    1.3375
   27.390    1.3586
   27.420    1.2744
   27.450    1.2849
   27.480    1.3270
   27.510    1.2744
   27.540    1.4007
   27.570    1.3586
   27.600    1.3060
   27.630    1.2954
   27.660    1.4218
   27.690    1.2849
   27.720    1.2428
   27.750    1.3375
   27.780    1.2322
   27.810    1.2006
   27.840    1.3691
   27.870    1.4323
   27.900    1.1164
   27.930    1.3481
   27.960    1.1901
   27.990    1.1374
   28.020    1.2849
   28.050    1.3586
   28.080    1.4007
   28.110    1.2428
   28.140    1.0848
   28.170    1.2744
   28.200    1.0742
   28.230    1.1901
   28.260    1.2006
   28.290    1.2006
   28.320    1.4113
   28.350    1.1901
   28.380    1.0848
   28.410    1.3797
   28.440    1.2849
   28.470    1.2217
   28.500    1.2533
   28.530    1.2112
   28.560    1.3165
   28.590    1.0742
   28.620    1.3375
   28.650    1.2322
   28.680    1.2744
   28.710    1.1480
   28.740    0.9479
   28.770    1.2638
   28.800    1.1796
   28.830    1.2006
   28.860    1.1269
   28.890    1.0742
   28.920    1.1585
   28.950    1.1796
   28.980    1.2638
   29.010    1.1796
   29.040    1.1901
   29.070    1.2112
   29.100    1.0742
   29.130    1.0953
   29.160    1.2006
   29.190    0.9479
   29.220    1.0742
   29.250    1.1164
   29.280    1.0742
   29.310    1.2112
   29.340    1.0427
   29.370    0.9795
   29.400    1.1374
   29.430    1.0637
   29.460    0.9795
   29.490    1.1690
   29.520    1.0532
   29.550    1.0848
   29.580    1.0742
   29.610    1.1585
   29.640    1.0321
   29.670    1.0111
   29.700    0.9900
   29.730    1.2006
   29.760    1.1796
   29.790    1.0321
   29.820    1.0321
   29.850    1.1164
   29.880    1.0637
   29.910    1.1164
   29.940    1.0848
   29.970    1.1269
   30.000    1.1374
   30.030    1.2217
   30.060    1.0742
   30.090    0.9795
   30.120    1.0532
   30.150    0.9057
   30.180    1.2217
   30.210    0.9479
   30.240    1.0111
   30.270    1.0216
   30.300    1.0637
   30.330    1.0637
   30.360    1.0532
   30.390    1.1374
   30.420    1.0111
   30.450    1.0321
   30.480    1.1374
   30.510    0.9900
   30.540    1.1901
   30.570    1.0005
   30.600    1.0637
   30.630    1.0321
   30.660    1.0742
   30.690    1.0532
   30.720    1.1690
   30.750    1.0848
   30.780    1.0111
   30.810    0.8215
   30.840    1.0321
   30.870    1.0321
   30.900    1.0532
   30.930    0.8847
   30.960    0.8636
   30.990    0.9900
   31.020    0.9163
   31.050    1.0111
   31.080    0.9689
   31.110    1.0848
   31.140    0.9163
   31.170    0.9795
   31.200    0.8952
   31.230    1.1164
   31.260    0.8741
   31.290    0.9584
   31.320    0.8110
   31.350    1.0005
   31.380    0.8741
   31.410    1.0953
   31.440    1.1690
   31.470    1.0742
   31.500    0.9373
   31.530    0.8531
   31.560    1.0427
   31.590    0.9057
   31.620    0.8847
   31.650    1.0111
   31.680    0.8741
   31.710    0.9373
   31.740    0.8847
   31.770    0.9268
   31.800    1.0427
   31.830    1.0321
   31.860    0.8320
   31.890    0.9373
   31.920    1.0321
   31.950    0.9479
   31.980    0.8952
   32.010    1.0111
   32.040    0.9057
   32.070    0.9689
   32.100    0.9479
   32.130    0.8952
   32.160    0.9163
   32.190    0.7583
   32.220    1.0216
   32.250    0.8215
   32.280    0.9900
   32.310    0.8636
   32.340    1.0111
   32.370    0.8320
   32.400    0.7899
   32.430    0.8952
   32.460    0.9268
   32.490    0.9057
   32.520    0.9900
   32.550    0.8320
   32.580    0.7162
   32.610    0.8636
   32.640    0.8425
   32.670    0.8847
   32.700    1.0216
   32.730    1.0111
   32.760    0.7794
   32.790    0.8847
   32.820    0.8847
   32.850    0.8847
   32.880    0.8952
   32.910    0.8425
   32.940    0.7478
   32.970    0.8004
   33.000    0.7478
   33.030    0.9689
   33.060    1.0216
   33.090    0.8741
   33.120    0.9900
   33.150    0.8952
   33.180    1.0637
   33.210    0.8215
   33.240    0.8320
   33.270    0.8425
   33.300    0.7688
   33.330    0.8531
   33.360    0.8636
   33.390    0.8636
   33.420    0.9163
   33.450    0.8004
   33.480    0.6635
   33.510    0.7794
   33.540    0.8741
   33.570    0.7267
   33.600    0.8215
   33.630    0.7688
   33.660    0.7794
   33.690    0.7583
   33.720    0.8425
   33.750    0.8847
   33.780    0.7899
   33.810    0.8741
   33.840    0.8425
   33.870    0.7372
   33.900    0.9163
   33.930    0.8320
   33.960    0.9479
   33.990    0.8741
   34.020    0.8425
   34.050    0.8004
   34.080    0.7794
   34.110    0.9057
   34.140    0.8215
   34.170    0.8320
   34.200    0.9268
   34.230    0.8531
   34.260    0.8425
   34.290    0.8425
   34.320    0.8215
   34.350    0.7372
   34.380    0.7162
   34.410    0.8531
   34.440    0.9689
   34.470    0.7899
   34.500    0.7688
   34.530    0.6740
   34.560    0.6424
   34.590    0.6635
   34.620    0.7478
   34.650    0.8425
   34.680    0.7794
   34.710    0.8004
   34.740    0.6951
   34.770    0.8110
   34.800    0.8215
   34.830    0.8110
   34.860    0.6740
   34.890    0.8215
   34.920    0.7478
   34.950    0.7794
   34.980    0.7267
   35.010    0.7794
   35.040    0.8004
   35.070    0.8110
   35.100    0.8847
   35.130    0.7162
   35.160    0.7688
   35.190    0.8531
   35.220    0.6003
   35.250    0.7794
   35.280    0.8215
   35.310    0.6530
   35.340    0.8531
   35.370    0.7583
   35.400    0.8110
   35.430    0.7478
   35.460    0.7899
   35.490    0.7267
   35.520    0.7267
   35.550    0.7162
   35.580    0.8004
   35.610    0.6846
   35.640    0.8004
   35.670    0.7162
   35.700    0.6846
   35.730    0.6530
   35.760    0.8215
   35.790    0.7583
   35.820    0.7478
   35.850    0.7794
   35.880    0.8952
   35.910    0.7162
   35.940    0.6740
   35.970    0.6003
   36.000    0.7794
   36.030    0.7267
   36.060    0.8110
   36.090    0.7688
   36.120    0.6635
   36.150    0.6951
   36.180    0.7056
   36.210    0.8531
   36.240    0.8741
   36.270    0.6003
   36.300    0.7372
   36.330    0.7688
   36.360    0.8110
   36.390    0.7162
   36.420    0.5793
   36.450    0.8425
   36.480    0.7794
   36.510    0.6740
   36.540    0.6846
   36.570    0.6740
   36.600    0.6530
   36.630    0.7056
   36.660    0.7899
   36.690    0.6214
   36.720    0.8110
   36.750    0.7583
   36.780    0.7056
   36.810    0.7478
   36.840    0.6635
   36.870    0.6846
   36.900    0.6740
   36.930    0.6846
   36.960    0.6424
   36.990    0.7267
   37.020    0.6635
   37.050    0.8004
   37.080    0.5477
   37.110    0.5793
   37.140    0.6214
   37.170    0.7688
   37.200    0.6319
   37.230    0.5898
   37.260    0.6530
   37.290    0.7267
   37.320    0.6424
   37.350    0.5161
   37.380    0.6740
   37.410    0.6108
   37.440    0.6740
   37.470    0.6108
   37.500    0.7478
   37.530    0.5793
   37.560    0.5582
   37.590    0.6635
   37.620    0.5898
   37.650    0.7056
   37.680    0.7056
   37.710    0.5793
   37.740    0.6846
   37.770    0.5266
   37.800    0.5371
   37.830    0.5793
   37.860    0.6108
   37.890    0.5793
   37.920    0.6214
   37.950    0.6108
   37.980    0.6319
   38.010    0.6003
   38.040    0.5793
   38.070    0.7162
   38.100    0.5687
   38.130    0.6003
   38.160    0.7372
   38.190    0.7056
   38.220    0.6108
   38.250    0.6635
   38.280    0.6951
   38.310    0.7162
   38.340    0.6635
   38.370    0.6424
   38.400    0.5582
   38.430    0.4845
   38.460    0.5477
   38.490    0.5687
   38.520    0.6740
   38.550    0.5582
   38.580    0.6319
   38.610    0.5371
   38.640    0.6951
   38.670    0.6951
   38.700    0.4529
   38.730    0.6108
   38.760    0.7267
   38.790    0.5477
   38.820    0.6319
   38.850    0.5582
   38.880    0.5793
   38.910    0.5582
   38.940    0.4845
   38.970    0.7372
   39.000    0.5687
   39.030    0.5582
   39.060    0.6319
   39.090    0.6108
   39.120    0.6424
   39.150    0.4739
   39.180    0.6740
   39.210    0.5687
   39.240    0.4423
   39.270    0.5055
   39.300    0.5582
   39.330    0.7478
   39.360    0.6214
   39.390    0.4739
   39.420    0.6108
   39.450    0.5898
   39.480    0.6214
   39.510    0.6214
   39.540    0.4107
   39.570    0.5266
   39.600    0.6530
   39.630    0.5266
   39.660    0.5371
   39.690    0.5055
   39.720    0.5898
   39.750    0.6003
   39.780    0.6424
   39.810    0.5371
   39.840    0.6530
   39.870    0.6003
   39.900    0.4950
   39.930    0.6740
   39.960    0.6003
   39.990    0.4318