File: data/MOCOF-1/PXRD/PXRD_KE-285C_Cu-Ka1_film-3mm_3s-deg.xyd
    1.500   14.4638
    1.530   13.8845
    1.560   13.2350
    1.590   13.1473
    1.620   14.0249
    1.650   12.6558
    1.680   12.4451
    1.710   12.3047
    1.740   11.5850
    1.770   11.7957
    1.800   11.4622
    1.830   10.9707
    1.860   11.0760
    1.890   10.6898
    1.920   11.3217
    1.950   10.6723
    1.980   11.8132
    2.010   10.7776
    2.040    9.8999
    2.070   10.1632
    2.100   10.4616
    2.130   10.0228
    2.160   10.4968
    2.190    9.7420
    2.220    9.4962
    2.250   10.1632
    2.280    9.3031
    2.310    8.6361
    2.340    9.4611
    2.370    9.3031
    2.400    9.2680
    2.430    8.7941
    2.460    9.0398
    2.490    8.6537
    2.520    8.5835
    2.550    8.5484
    2.580    8.7414
    2.610    8.9521
    2.640    8.3728
    2.670    8.7765
    2.700    8.6712
    2.730    8.4957
    2.760    8.3904
    2.790    8.7941
    2.820    8.4079
    2.850    8.8994
    2.880    7.8462
    2.910    8.6186
    2.940    7.8813
    2.970    7.9164
    3.000    8.5308
    3.030    8.6361
    3.060    8.2500
    3.090    8.0393
    3.120    8.8643
    3.150    7.6883
    3.180    8.6712
    3.210    8.0920
    3.240    8.6186
    3.270    8.9521
    3.300    8.7414
    3.330    8.4957
    3.360    8.4430
    3.390    8.6712
    3.420    8.7765
    3.450    8.9345
    3.480    8.3377
    3.510    8.7239
    3.540    8.7063
    3.570    9.4787
    3.600    9.8473
    3.630    9.4436
    3.660   10.1808
    3.690   11.4622
    3.720   10.2510
    3.750   11.0058
    3.780   12.3223
    3.810   12.3925
    3.840   14.2356
    3.870   14.0776
    3.900   11.9537
    3.930   10.2686
    3.960    8.1095
    3.990    8.2324
    4.020    8.1271
    4.050    7.9340
    4.080    7.8638
    4.110    7.7409
    4.140    8.3026
    4.170    8.0042
    4.200    8.5308
    4.230    8.0920
    4.260    7.8813
    4.290    8.2324
    4.320    8.2149
    4.350    7.3196
    4.380    8.4606
    4.410    7.6180
    4.440    8.3553
    4.470    7.3547
    4.500    8.0920
    4.530    8.0920
    4.560    8.4079
    4.590    8.1797
    4.620    7.6532
    4.650    8.3202
    4.680    7.8462
    4.710    8.3904
    4.740    7.7409
    4.770    8.0920
    4.800    8.0393
    4.830    8.1271
    4.860    7.6180
    4.890    9.1276
    4.920    8.6888
    4.950    7.9164
    4.980    8.5659
    5.010    8.9170
    5.040    9.2680
    5.070    9.5489
    5.100    8.7941
    5.130    9.5489
    5.160    9.5840
    5.190    9.5313
    5.220    9.9702
    5.250   10.1281
    5.280   10.4616
    5.310   10.4265
    5.340   10.5319
    5.370   11.0760
    5.400   11.0936
    5.430   11.6377
    5.460   12.4451
    5.490   11.7255
    5.520   12.2872
    5.550   11.0760
    5.580   10.1632
    5.610   10.5845
    5.640   10.6372
    5.670    9.7069
    5.700   10.8127
    5.730    9.8297
    5.760   10.2159
    5.790    9.4962
    5.820    9.9526
    5.850    9.0223
    5.880    8.5659
    5.910    8.5133
    5.940    9.5664
    5.970    8.0218
    6.000    8.3553
    6.030    8.4255
    6.060    8.1797
    6.090    7.8989
    6.120    7.7409
    6.150    8.0920
    6.180    8.1271
    6.210    7.7058
    6.240    8.2851
    6.270    8.0218
    6.300    7.5829
    6.330    7.7058
    6.360    7.1617
    6.390    7.5829
    6.420    7.7409
    6.450    7.2670
    6.480    6.8808
    6.510    7.2494
    6.540    7.2845
    6.570    7.4425
    6.600    6.8984
    6.630    7.4776
    6.660    7.3021
    6.690    7.3899
    6.720    7.0563
    6.750    7.0212
    6.780    6.7579
    6.810    6.8282
    6.840    7.1090
    6.870    6.7579
    6.900    6.9686
    6.930    6.5649
    6.960    6.4595
    6.990    6.5298
    7.020    6.4946
    7.050    6.4069
    7.080    5.8276
    7.110    6.2313
    7.140    6.5298
    7.170    6.1962
    7.200    6.6175
    7.230    6.0207
    7.260    5.9154
    7.290    6.0734
    7.320    5.7223
    7.350    6.0207
    7.380    6.0207
    7.410    5.9681
    7.440    6.2138
    7.470    5.7223
    7.500    5.4766
    7.530    5.7925
    7.560    5.9505
    7.590    5.9681
    7.620    6.0383
    7.650    5.8101
    7.680    5.4766
    7.710    5.8101
    7.740    5.8803
    7.770    5.7399
    7.800    5.8276
    7.830    5.8627
    7.860    5.5819
    7.890    5.6521
    7.920    5.3537
    7.950    5.1431
    7.980    5.6872
    8.010    5.6697
    8.040    5.5468
    8.070    5.3010
    8.100    5.3712
    8.130    5.0202
    8.160    5.4766
    8.190    5.5117
    8.220    4.7920
    8.250    5.2308
    8.280    4.8798
    8.310    4.8271
    8.340    5.5117
    8.370    5.3712
    8.400    4.7393
    8.430    5.2133
    8.460    4.8622
    8.490    4.4058
    8.520    5.1606
    8.550    4.9149
    8.580    5.2484
    8.610    5.2835
    8.640    4.8798
    8.670    4.8798
    8.700    4.8973
    8.730    5.3010
    8.760    4.7218
    8.790    4.5463
    8.820    5.0553
    8.850    4.7393
    8.880    5.2484
    8.910    4.8973
    8.940    4.6516
    8.970    4.6340
    9.000    4.5111
    9.030    4.7569
    9.060    4.7920
    9.090    4.8622
    9.120    5.2484
    9.150    4.6165
    9.180    5.0377
    9.210    4.9675
    9.240    5.2133
    9.270    4.7744
    9.300    5.3186
    9.330    4.9500
    9.360    4.9324
    9.390    4.9500
    9.420    5.4941
    9.450    5.2133
    9.480    5.3010
    9.510    5.7750
    9.540    5.2133
    9.570    5.3888
    9.600    5.2133
    9.630    4.6165
    9.660    4.7569
    9.690    5.0026
    9.720    5.0728
    9.750    4.5814
    9.780    4.7744
    9.810    4.8447
    9.840    4.5287
    9.870    4.5989
    9.900    4.8447
    9.930    5.0728
    9.960    4.9500
    9.990    4.7744
   10.020    4.8973
   10.050    5.0904
   10.080    5.1606
   10.110    4.9149
   10.140    5.1606
   10.170    5.2484
   10.200    4.8973
   10.230    4.4760
   10.260    4.9149
   10.290    5.1431
   10.320    5.2308
   10.350    5.4941
   10.380    5.2659
   10.410    5.2484
   10.440    4.8271
   10.470    5.1080
   10.500    4.6691
   10.530    4.8622
   10.560    5.2835
   10.590    4.9675
   10.620    5.0202
   10.650    4.8622
   10.680    4.9324
   10.710    5.0728
   10.740    5.3186
   10.770    4.9851
   10.800    5.7925
   10.830    5.0026
   10.860    5.4064
   10.890    5.2484
   10.920    5.5994
   10.950    4.9149
   10.980    4.8622
   11.010    5.0728
   11.040    5.3186
   11.070    5.5819
   11.100    5.2308
   11.130    4.9500
   11.160    5.2484
   11.190    4.7218
   11.220    5.2835
   11.250    5.1431
   11.280    4.7569
   11.310    4.9149
   11.340    4.9675
   11.370    5.2835
   11.400    5.3712
   11.430    5.0904
   11.460    5.1606
   11.490    5.2133
   11.520    5.0553
   11.550    5.6345
   11.580    4.8271
   11.610    5.1957
   11.640    5.1080
   11.670    5.1080
   11.700    4.8622
   11.730    5.2659
   11.760    5.2133
   11.790    5.0904
   11.820    4.5463
   11.850    4.7218
   11.880    5.1080
   11.910    4.8973
   11.940    5.2308
   11.970    5.0202
   12.000    5.1782
   12.030    4.9149
   12.060    5.2308
   12.090    5.2133
   12.120    4.8447
   12.150    5.2659
   12.180    5.4415
   12.210    4.5814
   12.240    4.4760
   12.270    5.0377
   12.300    4.9500
   12.330    4.5814
   12.360    4.9675
   12.390    4.8095
   12.420    5.1606
   12.450    4.5638
   12.480    4.7920
   12.510    4.4585
   12.540    4.8095
   12.570    4.4058
   12.600    4.7218
   12.630    4.8271
   12.660    4.5463
   12.690    4.3707
   12.720    4.6867
   12.750    4.8271
   12.780    4.5287
   12.810    4.4058
   12.840    4.4760
   12.870    4.7393
   12.900    4.6165
   12.930    4.9500
   12.960    4.4760
   12.990    4.5814
   13.020    4.7218
   13.050    4.6340
   13.080    4.3707
   13.110    4.7920
   13.140    4.8798
   13.170    4.6340
   13.200    4.3532
   13.230    4.6340
   13.260    4.4936
   13.290    5.0904
   13.320    4.9324
   13.350    4.3181
   13.380    4.7393
   13.410    4.2654
   13.440    4.7393
   13.470    4.8622
   13.500    4.6516
   13.530    4.8095
   13.560    4.7218
   13.590    4.7744
   13.620    4.8622
   13.650    4.4760
   13.680    4.6691
   13.710    4.9324
   13.740    4.3181
   13.770    4.6340
   13.800    4.7744
   13.830    4.7042
   13.860    5.0377
   13.890    4.6867
   13.920    4.8798
   13.950    4.3883
   13.980    4.9500
   14.010    5.1957
   14.040    4.8447
   14.070    5.1431
   14.100    5.4415
   14.130    4.8973
   14.160    5.1782
   14.190    5.4064
   14.220    4.9851
   14.250    4.8798
   14.280    4.9851
   14.310    4.9675
   14.340    5.3010
   14.370    4.7042
   14.400    5.2133
   14.430    5.3361
   14.460    5.0728
   14.490    4.7920
   14.520    5.6345
   14.550    4.9675
   14.580    4.8622
   14.610    5.2659
   14.640    4.9324
   14.670    4.8973
   14.700    4.8798
   14.730    5.0202
   14.760    4.7920
   14.790    5.1255
   14.820    5.4415
   14.850    5.0026
   14.880    4.7920
   14.910    5.1606
   14.940    5.1080
   14.970    4.8447
   15.000    4.4585
   15.030    5.0904
   15.060    4.8271
   15.090    4.5989
   15.120    5.0377
   15.150    4.6691
   15.180    4.2830
   15.210    4.6691
   15.240    4.4936
   15.270    4.5989
   15.300    4.8973
   15.330    4.4409
   15.360    4.5989
   15.390    4.5111
   15.420    4.3356
   15.450    4.1601
   15.480    4.1952
   15.510    4.7042
   15.540    4.3883
   15.570    4.2303
   15.600    4.4585
   15.630    4.4058
   15.660    4.8973
   15.690    4.4936
   15.720    4.7393
   15.750    4.4585
   15.780    4.6691
   15.810    4.5638
   15.840    4.3181
   15.870    4.4585
   15.900    4.3707
   15.930    4.6340
   15.960    4.4936
   15.990    4.3707
   16.020    4.6691
   16.050    4.6691
   16.080    4.5638
   16.110    4.6165
   16.140    4.8447
   16.170    4.4409
   16.200    4.2478
   16.230    4.6165
   16.260    4.6516
   16.290    4.5638
   16.320    4.7393
   16.350    4.7042
   16.380    4.6340
   16.410    4.6691
   16.440    4.4585
   16.470    4.4409
   16.500    5.0026
   16.530    4.3181
   16.560    4.4058
   16.590    4.4936
   16.620    4.5814
   16.650    4.9324
   16.680    4.7218
   16.710    4.5111
   16.740    4.2830
   16.770    4.5287
   16.800    4.5111
   16.830    4.9500
   16.860    4.4936
   16.890    4.3181
   16.920    4.6516
   16.950    4.3532
   16.980    4.8271
   17.010    4.3005
   17.040    4.7042
   17.070    4.7393
   17.100    4.5287
   17.130    4.4585
   17.160    4.5463
   17.190    4.3707
   17.220    4.1601
   17.250    4.3707
   17.280    4.3707
   17.310    4.2478
   17.340    4.2654
   17.370    4.7569
   17.400    4.6867
   17.430    4.7218
   17.460    4.4058
   17.490    4.1074
   17.520    4.7744
   17.550    4.9149
   17.580    4.3532
   17.610    4.0723
   17.640    4.1425
   17.670    4.5989
   17.700    4.8622
   17.730    4.5638
   17.760    4.4936
   17.790    4.6516
   17.820    4.5287
   17.850    4.4585
   17.880    4.0548
   17.910    4.3356
   17.940    4.4585
   17.970    4.7920
   18.000    4.4760
   18.030    4.5463
   18.060    4.3181
   18.090    4.6867
   18.120    4.5638
   18.150    4.7744
   18.180    4.4234
   18.210    4.7042
   18.240    4.3181
   18.270    4.1425
   18.300    4.5111
   18.330    4.2478
   18.360    4.4760
   18.390    4.9149
   18.420    4.4409
   18.450    4.0021
   18.480    4.3356
   18.510    4.7920
   18.540    4.6165
   18.570    4.3883
   18.600    4.4409
   18.630    4.0197
   18.660    4.1776
   18.690    4.3532
   18.720    4.3883
   18.750    4.5111
   18.780    4.9324
   18.810    4.1776
   18.840    4.2654
   18.870    4.5814
   18.900    4.0197
   18.930    4.1250
   18.960    4.2478
   18.990    4.1776
   19.020    4.9500
   19.050    4.4234
   19.080    4.4058
   19.110    4.4409
   19.140    4.4760
   19.170    4.4585
   19.200    4.2303
   19.230    4.5989
   19.260    4.5111
   19.290    4.1074
   19.320    4.4234
   19.350    4.3181
   19.380    3.9494
   19.410    4.3356
   19.440    4.3707
   19.470    4.1425
   19.500    4.6340
   19.530    4.0899
   19.560    4.5638
   19.590    4.4058
   19.620    4.1952
   19.650    4.1250
   19.680    4.1250
   19.710    4.0899
   19.740    4.4585
   19.770    3.9143
   19.800    3.8090
   19.830    4.0372
   19.860    3.8792
   19.890    4.0372
   19.920    4.2654
   19.950    3.9319
   19.980    4.5638
   20.010    3.5457
   20.040    3.8441
   20.070    3.6862
   20.100    4.2654
   20.130    4.1601
   20.160    3.8968
   20.190    4.0723
   20.220    4.2303
   20.250    3.7915
   20.280    3.9143
   20.310    4.1776
   20.340    3.9319
   20.370    4.2830
   20.400    4.3707
   20.430    3.8441
   20.460    3.9319
   20.490    4.0372
   20.520    4.3532
   20.550    3.9143
   20.580    3.7388
   20.610    3.8441
   20.640    3.6686
   20.670    4.4409
   20.700    3.9143
   20.730    4.1776
   20.760    4.1074
   20.790    4.1074
   20.820    3.8266
   20.850    4.0021
   20.880    4.2127
   20.910    3.8792
   20.940    3.7213
   20.970    3.8968
   21.000    4.1776
   21.030    3.9846
   21.060    3.3526
   21.090    3.6686
   21.120    3.8266
   21.150    4.4234
   21.180    3.9319
   21.210    4.2830
   21.240    3.7388
   21.270    4.0021
   21.300    4.4234
   21.330    3.7915
   21.360    3.6159
   21.390    3.8617
   21.420    4.1074
   21.450    4.5287
   21.480    3.9846
   21.510    4.0723
   21.540    3.6862
   21.570    3.8968
   21.600    4.1074
   21.630    4.1776
   21.660    3.9494
   21.690    4.1601
   21.720    3.8266
   21.750    3.9494
   21.780    4.1074
   21.810    3.7915
   21.840    3.7213
   21.870    3.8441
   21.900    3.5633
   21.930    3.5808
   21.960    3.5984
   21.990    3.8617
   22.020    3.9846
   22.050    3.9319
   22.080    3.6862
   22.110    3.8617
   22.140    3.8090
   22.170    3.7213
   22.200    3.4755
   22.230    4.1425
   22.260    3.6510
   22.290    4.2127
   22.320    3.6335
   22.350    3.8441
   22.380    3.6862
   22.410    3.7915
   22.440    3.4931
   22.470    4.0548
   22.500    3.4931
   22.530    4.0021
   22.560    3.8617
   22.590    3.3877
   22.620    3.6686
   22.650    3.5457
   22.680    3.3702
   22.710    3.4404
   22.740    3.4229
   22.770    3.3526
   22.800    3.7739
   22.830    3.5633
   22.860    3.6335
   22.890    3.4404
   22.920    4.0548
   22.950    3.7037
   22.980    3.8968
   23.010    3.4580
   23.040    3.6862
   23.070    3.8090
   23.100    3.3000
   23.130    3.8090
   23.160    3.2824
   23.190    3.5457
   23.220    4.2654
   23.250    3.2824
   23.280    3.6510
   23.310    3.3877
   23.340    3.5282
   23.370    3.7388
   23.400    3.7037
   23.430    3.7037
   23.460    3.4755
   23.490    3.6862
   23.520    3.5457
   23.550    3.6686
   23.580    3.4053
   23.610    3.7388
   23.640    3.8266
   23.670    3.5106
   23.700    3.4580
   23.730    3.7564
   23.760    3.2298
   23.790    3.4053
   23.820    3.4580
   23.850    3.2122
   23.880    3.5633
   23.910    3.5633
   23.940    3.6159
   23.970    3.5282
   24.000    3.7037
   24.030    3.2473
   24.060    3.3877
   24.090    3.1245
   24.120    3.4755
   24.150    3.4755
   24.180    3.3877
   24.210    3.5457
   24.240    3.3526
   24.270    3.1947
   24.300    3.3702
   24.330    3.0718
   24.360    3.3000
   24.390    3.3000
   24.420    3.3877
   24.450    3.4931
   24.480    3.4053
   24.510    3.4229
   24.540    3.4580
   24.570    3.4580
   24.600    3.4580
   24.630    3.8090
   24.660    3.2122
   24.690    3.4053
   24.720    3.3877
   24.750    3.0191
   24.780    3.2122
   24.810    3.1245
   24.840    3.1420
   24.870    2.9665
   24.900    3.3702
   24.930    3.5282
   24.960    2.9489
   24.990    3.1069
   25.020    3.3351
   25.050    3.0191
   25.080    3.2298
   25.110    3.2122
   25.140    3.3877
   25.170    3.3351
   25.200    3.4229
   25.230    3.1771
   25.260    3.0191
   25.290    3.1947
   25.320    3.3000
   25.350    3.0893
   25.380    3.2298
   25.410    3.2473
   25.440    2.9314
   25.470    2.9489
   25.500    3.2473
   25.530    2.8787
   25.560    3.4404
   25.590    3.3000
   25.620    3.2473
   25.650    3.2649
   25.680    3.3702
   25.710    3.1596
   25.740    3.4931
   25.770    3.2122
   25.800    3.0542
   25.830    3.2298
   25.860    2.9665
   25.890    3.1245
   25.920    3.2122
   25.950    3.3351
   25.980    3.1420
   26.010    3.1596
   26.040    3.1069
   26.070    2.7558
   26.100    3.2649
   26.130    3.1245
   26.160    3.1069
   26.190    3.0191
   26.220    3.1947
   26.250    2.9314
   26.280    3.0893
   26.310    3.1420
   26.340    2.9138
   26.370    3.4229
   26.400    3.3175
   26.430    3.2649
   26.460    2.8085
   26.490    3.1420
   26.520    2.9840
   26.550    3.1771
   26.580    2.9489
   26.610    2.8787
   26.640    3.1420
   26.670    3.3877
   26.700    3.0191
   26.730    3.0016
   26.760    2.8436
   26.790    2.9138
   26.820    2.8787
   26.850    2.7207
   26.880    3.0367
   26.910    3.0016
   26.940    2.4399
   26.970    2.6505
   27.000    3.0367
   27.030    2.9314
   27.060    3.1596
   27.090    2.9489
   27.120    2.8963
   27.150    3.0542
   27.180    2.8260
   27.210    3.1596
   27.240    2.7734
   27.270    3.0542
   27.300    2.7734
   27.330    3.0718
   27.360    2.8085
   27.390    2.4399
   27.420    2.6505
   27.450    2.9138
   27.480    2.6330
   27.510    3.1420
   27.540    3.0367
   27.570    2.6681
   27.600    2.7207
   27.630    2.8085
   27.660    2.8260
   27.690    2.8436
   27.720    2.6330
   27.750    2.7558
   27.780    2.6681
   27.810    2.7734
   27.840    3.0016
   27.870    2.7909
   27.900    2.7734
   27.930    2.6681
   27.960    2.7383
   27.990    2.8260
   28.020    3.1069
   28.050    2.6856
   28.080    2.7383
   28.110    3.2122
   28.140    2.8963
   28.170    3.0718
   28.200    2.8085
   28.230    2.8963
   28.260    2.9665
   28.290    2.4750
   28.320    2.6154
   28.350    2.5452
   28.380    2.5979
   28.410    2.6505
   28.440    2.4574
   28.470    3.0893
   28.500    2.5979
   28.530    3.0367
   28.560    2.7558
   28.590    2.5628
   28.620    2.7734
   28.650    2.8612
   28.680    3.0367
   28.710    2.7558
   28.740    2.8612
   28.770    2.7734
   28.800    2.8085
   28.830    2.8963
   28.860    2.9665
   28.890    2.3170
   28.920    2.8260
   28.950    2.6505
   28.980    2.8787
   29.010    2.7383
   29.040    2.5452
   29.070    2.8787
   29.100    3.1771
   29.130    2.5101
   29.160    2.7032
   29.190    2.6330
   29.220    2.9665
   29.250    2.5628
   29.280    2.3872
   29.310    3.0542
   29.340    2.4925
   29.370    2.6681
   29.400    2.5452
   29.430    2.5101
   29.460    2.5276
   29.490    2.6154
   29.520    2.4750
   29.550    2.1064
   29.580    2.8436
   29.610    2.8436
   29.640    2.2117
   29.670    2.4925
   29.700    2.4048
   29.730    2.5452
   29.760    2.4223
   29.790    2.2292
   29.820    2.2117
   29.850    2.8963
   29.880    2.5979
   29.910    2.3170
   29.940    2.3170
   29.970    2.2995
   30.000    2.6154
   30.030    2.2292
   30.060    2.4223
   30.090    2.2643
   30.120    2.1590
   30.150    2.0888
   30.180    2.3697
   30.210    2.1766
   30.240    2.1590
   30.270    2.8436
   30.300    2.1941
   30.330    2.2468
   30.360    2.0713
   30.390    2.4925
   30.420    2.3521
   30.450    2.4399
   30.480    2.3346
   30.510    2.4399
   30.540    2.0186
   30.570    2.3170
   30.600    1.8957
   30.630    2.0888
   30.660    2.4048
   30.690    2.4399
   30.720    2.3346
   30.750    2.2292
   30.780    2.2117
   30.810    2.3521
   30.840    2.2643
   30.870    2.3170
   30.900    2.1590
   30.930    2.0888
   30.960    2.4750
   30.990    1.7904
   31.020    2.0011
   31.050    2.2643
   31.080    2.1064
   31.110    2.4223
   31.140    1.8957
   31.170    1.8782
   31.200    2.1415
   31.230    2.5452
   31.260    1.9133
   31.290    2.0362
   31.320    2.1941
   31.350    2.0713
   31.380    1.8782
   31.410    1.9484
   31.440    2.2292
   31.470    2.0713
   31.500    2.0537
   31.530    2.1590
   31.560    2.3346
   31.590    1.7202
   31.620    2.1415
   31.650    1.9835
   31.680    2.1941
   31.710    2.0011
   31.740    1.9659
   31.770    2.0713
   31.800    1.9133
   31.830    2.4574
   31.860    1.9308
   31.890    2.1064
   31.920    1.9133
   31.950    2.0713
   31.980    1.9133
   32.010    2.1239
   32.040    1.9659
   32.070    1.9133
   32.100    2.2468
   32.130    1.9835
   32.160    2.1239
   32.190    1.9835
   32.220    1.9308
   32.250    1.7553
   32.280    1.8080
   32.310    2.0537
   32.340    2.0537
   32.370    1.7553
   32.400    2.2995
   32.430    2.1766
   32.460    1.8957
   32.490    2.1064
   32.520    2.2117
   32.550    2.0011
   32.580    1.7553
   32.610    1.8782
   32.640    2.0713
   32.670    1.9659
   32.700    2.1064
   32.730    2.1941
   32.760    2.1590
   32.790    1.9659
   32.820    2.0537
   32.850    1.8606
   32.880    2.0888
   32.910    1.9659
   32.940    1.7027
   32.970    1.8606
   33.000    1.9308
   33.030    1.7904
   33.060    1.8606
   33.090    1.9659
   33.120    1.9835
   33.150    1.9133
   33.180    1.7202
   33.210    1.9659
   33.240    2.0011
   33.270    1.8080
   33.300    1.7027
   33.330    2.0537
   33.360    1.8957
   33.390    1.9133
   33.420    1.8782
   33.450    1.9308
   33.480    2.0186
   33.510    2.1590
   33.540    1.9133
   33.570    1.7202
   33.600    1.6675
   33.630    2.1064
   33.660    1.8957
   33.690    1.8957
   33.720    1.8782
   33.750    1.7378
   33.780    2.0362
   33.810    1.9659
   33.840    2.0362
   33.870    1.8606
   33.900    1.8606
   33.930    1.8782
   33.960    1.7729
   33.990    1.8255
   34.020    1.5622
   34.050    2.1590
   34.080    1.7027
   34.110    1.8606
   34.140    1.8431
   34.170    1.9484
   34.200    2.0537
   34.230    1.6851
   34.260    2.1590
   34.290    1.7027
   34.320    1.8255
   34.350    2.1415
   34.380    2.0011
   34.410    1.6675
   34.440    1.7729
   34.470    1.6675
   34.500    1.7027
   34.530    1.5798
   34.560    2.0362
   34.590    1.8957
   34.620    1.6324
   34.650    2.0713
   34.680    1.7202
   34.710    2.0011
   34.740    1.8080
   34.770    1.5271
   34.800    1.7378
   34.830    1.8255
   34.860    2.1590
   34.890    1.9133
   34.920    1.6675
   34.950    1.7553
   34.980    1.6324
   35.010    1.7553
   35.040    2.0011
   35.070    1.9133
   35.100    1.7553
   35.130    1.8080
   35.160    1.6675
   35.190    2.0362
   35.220    1.7729
   35.250    1.9308
   35.280    1.9133
   35.310    1.6675
   35.340    1.7729
   35.370    1.6851
   35.400    1.9484
   35.430    1.6500
   35.460    1.9659
   35.490    1.6500
   35.520    1.5973
   35.550    1.6851
   35.580    1.9308
   35.610    1.8080
   35.640    1.7553
   35.670    1.5973
   35.700    1.7553
   35.730    1.5622
   35.760    1.7553
   35.790    1.6324
   35.820    1.7904
   35.850    1.9484
   35.880    1.9484
   35.910    1.8782
   35.940    2.0011
   35.970    1.8606
   36.000    1.8782
   36.030    1.5622
   36.060    2.0011
   36.090    1.7027
   36.120    2.0537
   36.150    2.1590
   36.180    1.5973
   36.210    2.0537
   36.240    1.8957
   36.270    2.0713
   36.300    1.7202
   36.330    1.9659
   36.360    1.8255
   36.390    1.8431
   36.420    1.5798
   36.450    1.8080
   36.480    1.7904
   36.510    1.7378
   36.540    1.7378
   36.570    1.8255
   36.600    1.8606
   36.630    1.8431
   36.660    1.5973
   36.690    1.4569
   36.720    1.7904
   36.750    1.7027
   36.780    1.8431
   36.810    1.7904
   36.840    1.6149
   36.870    1.6324
   36.900    1.8080
   36.930    1.9484
   36.960    1.7904
   36.990    1.5271
   37.020    1.8255
   37.050    1.7553
   37.080    1.8431
   37.110    1.7553
   37.140    1.7202
   37.170    1.5622
   37.200    1.6851
   37.230    1.6675
   37.260    1.4394
   37.290    1.7027
   37.320    1.8431
   37.350    1.7904
   37.380    1.8080
   37.410    1.6149
   37.440    1.7553
   37.470    1.6149
   37.500    1.8255
   37.530    1.9835
   37.560    1.8255
   37.590    1.6675
   37.620    1.8080
   37.650    1.8606
   37.680    1.7202
   37.710    1.7202
   37.740    1.9308
   37.770    1.6324
   37.800    1.4745
   37.830    1.7553
   37.860    1.4920
   37.890    1.7553
   37.920    1.7729
   37.950    1.8782
   37.980    1.3340
   38.010    1.6851
   38.040    1.7378
   38.070    1.5973
   38.100    1.5973
   38.130    1.5622
   38.160    1.5973
   38.190    1.6675
   38.220    1.5271
   38.250    1.5447
   38.280    1.3340
   38.310    1.7904
   38.340    1.6500
   38.370    1.7553
   38.400    1.7378
   38.430    1.4745
   38.460    1.5973
   38.490    1.7904
   38.520    1.6149
   38.550    1.5622
   38.580    1.7202
   38.610    1.5447
   38.640    1.7378
   38.670    1.5271
   38.700    1.6149
   38.730    1.5973
   38.760    1.6149
   38.790    1.5096
   38.820    1.6149
   38.850    1.5798
   38.880    1.6324
   38.910    1.8606
   38.940    1.7202
   38.970    1.5973
   39.000    1.8782
   39.030    1.7202
   39.060    1.5973
   39.090    1.8431
   39.120    1.7202
   39.150    1.7904
   39.180    1.6149
   39.210    1.7378
   39.240    1.5447
   39.270    1.4218
   39.300    1.8255
   39.330    1.6851
   39.360    1.6324
   39.390    1.6675
   39.420    1.3691
   39.450    1.5622
   39.480    1.4042
   39.510    1.4569
   39.540    1.5096
   39.570    1.5447
   39.600    1.5096
   39.630    1.4042
   39.660    1.5798
   39.690    1.5096
   39.720    1.8606
   39.750    1.5622
   39.780    1.4218
   39.810    1.6324
   39.840    1.4042
   39.870    1.7378
   39.900    1.5447
   39.930    1.3691
   39.960    1.6324
   39.990    1.4218