File: data/MOCOF-1/PXRD/PXRD_KE-146_Cu-Ka1_capillary-1mm_5s-deg.xyd
    1.500   35.8926
    1.530   35.7135
    1.560   33.0595
    1.590   32.2801
    1.620   30.5845
    1.650   29.8684
    1.680   28.2675
    1.710   27.9726
    1.740   26.5719
    1.770   25.8031
    1.800   24.1390
    1.830   23.7704
    1.860   23.5703
    1.890   22.1801
    1.920   21.4639
    1.950   21.0743
    1.980   20.6003
    2.010   19.8631
    2.040   20.2528
    2.070   19.4102
    2.100   17.7251
    2.130   18.1043
    2.160   17.6935
    2.190   17.1669
    2.220   18.0095
    2.250   16.5982
    2.280   16.8510
    2.310   16.0506
    2.340   16.0400
    2.370   16.5561
    2.400   15.3344
    2.430   16.2085
    2.460   15.4397
    2.490   16.1559
    2.520   15.9136
    2.550   15.5977
    2.580   15.9347
    2.610   15.6503
    2.640   15.2501
    2.670   15.4502
    2.700   16.9036
    2.730   16.0295
    2.760   16.1875
    2.790   16.8720
    2.820   16.7246
    2.850   16.8088
    2.880   17.3038
    2.910   18.2622
    2.940   19.0732
    2.970   19.1259
    3.000   19.4207
    3.030   20.0421
    3.060   20.7372
    3.090   20.6214
    3.120   22.0326
    3.150   22.5698
    3.180   24.9605
    3.210   26.8141
    3.240   27.1406
    3.270   28.5940
    3.300   30.0790
    3.330   32.0590
    3.360   32.9753
    3.390   35.1132
    3.420   36.4718
    3.450   36.4402
    3.480   36.4718
    3.510   36.7457
    3.540   35.8399
    3.570   31.9221
    3.600   30.8268
    3.630   28.2570
    3.660   28.2254
    3.690   25.9084
    3.720   24.1601
    3.750   23.4229
    3.780   22.6435
    3.810   21.5482
    3.840   20.8636
    3.870   20.4739
    3.900   18.9679
    3.930   19.8104
    3.960   18.7678
    3.990   18.8520
    4.020   17.9252
    4.050   16.8404
    4.080   16.7141
    4.110   15.8504
    4.140   15.8715
    4.170   14.4392
    4.200   14.3233
    4.230   13.7230
    4.260   13.6072
    4.290   12.5645
    4.320   12.2696
    4.350   11.7114
    4.380   11.1532
    4.410   11.2270
    4.440   10.5845
    4.470   10.1527
    4.500    9.9631
    4.530    9.6998
    4.560    9.3312
    4.590    8.7520
    4.620    9.0995
    4.650    9.1206
    4.680    8.6151
    4.710    8.2043
    4.740    8.3623
    4.770    7.7514
    4.800    7.5092
    4.830    7.7409
    4.860    7.4882
    4.890    7.6251
    4.920    7.4566
    4.950    7.3302
    4.980    7.0142
    5.010    7.0879
    5.040    7.3196
    5.070    7.0774
    5.100    7.3723
    5.130    7.2986
    5.160    6.7509
    5.190    6.7404
    5.220    6.4876
    5.250    6.7509
    5.280    7.0142
    5.310    6.4455
    5.340    6.4560
    5.370    6.4139
    5.400    6.8246
    5.430    6.7088
    5.460    6.5087
    5.490    6.3823
    5.520    6.7615
    5.550    6.1717
    5.580    6.0979
    5.610    6.2349
    5.640    6.5508
    5.670    6.1927
    5.700    6.0137
    5.730    6.1927
    5.760    6.4455
    5.790    6.3928
    5.820    6.2138
    5.850    5.7820
    5.880    5.8031
    5.910    6.2665
    5.940    6.3823
    5.970    5.9189
    6.000    6.2454
    6.030    6.3823
    6.060    5.9400
    6.090    6.2559
    6.120    5.6872
    6.150    5.9926
    6.180    6.1611
    6.210    6.1190
    6.240    6.2349
    6.270    5.6872
    6.300    5.8557
    6.330    6.2981
    6.360    5.7399
    6.390    5.9610
    6.420    6.3191
    6.450    6.1611
    6.480    6.0348
    6.510    6.0453
    6.540    6.2138
    6.570    6.2770
    6.600    6.0979
    6.630    6.5719
    6.660    6.6245
    6.690    6.6877
    6.720    6.9616
    6.750    6.8457
    6.780    6.7193
    6.810    7.0353
    6.840    6.8246
    6.870    7.2986
    6.900    7.7620
    6.930    7.3934
    6.960    7.5619
    6.990    7.7093
    7.020    7.9200
    7.050    7.5408
    7.080    7.5724
    7.110    7.0879
    7.140    7.4987
    7.170    7.3723
    7.200    6.9826
    7.230    6.5087
    7.260    6.5508
    7.290    6.4666
    7.320    6.4244
    7.350    6.3823
    7.380    6.4560
    7.410    6.5192
    7.440    6.4350
    7.470    6.7509
    7.500    6.1295
    7.530    6.3612
    7.560    6.5613
    7.590    6.4244
    7.620    6.8457
    7.650    6.7720
    7.680    6.3191
    7.710    6.3296
    7.740    6.2875
    7.770    6.5719
    7.800    6.5403
    7.830    6.5508
    7.860    6.3823
    7.890    6.7404
    7.920    6.4666
    7.950    6.4139
    7.980    6.5824
    8.010    6.6561
    8.040    6.5403
    8.070    6.3718
    8.100    6.4666
    8.130    6.3296
    8.160    6.5298
    8.190    6.8036
    8.220    6.6140
    8.250    6.3928
    8.280    6.0874
    8.310    5.8662
    8.340    6.4139
    8.370    6.2770
    8.400    6.2454
    8.430    6.7509
    8.460    6.1611
    8.490    6.0979
    8.520    6.1611
    8.550    6.3507
    8.580    6.2981
    8.610    6.2559
    8.640    6.2981
    8.670    6.1401
    8.700    6.2243
    8.730    6.2349
    8.760    5.8031
    8.790    6.2665
    8.820    5.9926
    8.850    5.8347
    8.880    6.2138
    8.910    5.8873
    8.940    5.8031
    8.970    6.3296
    9.000    5.8031
    9.030    5.5819
    9.060    5.8978
    9.090    5.7715
    9.120    5.5714
    9.150    5.7293
    9.180    5.6240
    9.210    5.9400
    9.240    5.8452
    9.270    5.3818
    9.300    6.2033
    9.330    5.6977
    9.360    5.4028
    9.390    5.7188
    9.420    5.8241
    9.450    5.4134
    9.480    5.5608
    9.510    5.5398
    9.540    5.3607
    9.570    5.6767
    9.600    5.7925
    9.630    5.4239
    9.660    5.6345
    9.690    5.8978
    9.720    5.3081
    9.750    5.7399
    9.780    5.3081
    9.810    5.6345
    9.840    5.0237
    9.870    5.4660
    9.900    5.6029
    9.930    5.3502
    9.960    5.3081
    9.990    5.8662
   10.020    5.8452
   10.050    5.6661
   10.080    5.6345
   10.110    5.7083
   10.140    5.4028
   10.170    5.3923
   10.200    5.2449
   10.230    5.7293
   10.260    5.8136
   10.290    5.5398
   10.320    5.3712
   10.350    5.7820
   10.380    5.6872
   10.410    5.8557
   10.440    5.4871
   10.470    5.6135
   10.500    5.8136
   10.530    5.7609
   10.560    5.8241
   10.590    5.8031
   10.620    5.4660
   10.650    5.8452
   10.680    5.5924
   10.710    5.3923
   10.740    5.4976
   10.770    5.4134
   10.800    5.3607
   10.830    5.4134
   10.860    5.5924
   10.890    5.3607
   10.920    5.3923
   10.950    5.7504
   10.980    5.4344
   11.010    5.4239
   11.040    5.4344
   11.070    5.2870
   11.100    5.5292
   11.130    5.1395
   11.160    5.9926
   11.190    5.2870
   11.220    5.6977
   11.250    5.9610
   11.280    5.6135
   11.310    5.4555
   11.340    5.3818
   11.370    5.3923
   11.400    5.3607
   11.430    5.1711
   11.460    5.6345
   11.490    5.6029
   11.520    5.3818
   11.550    5.5503
   11.580    5.5924
   11.610    5.2765
   11.640    5.6451
   11.670    5.6345
   11.700    5.4660
   11.730    5.5924
   11.760    5.2449
   11.790    5.5819
   11.820    5.6345
   11.850    4.8973
   11.880    5.6345
   11.910    5.0658
   11.940    5.5292
   11.970    5.3607
   12.000    5.2554
   12.030    5.4134
   12.060    5.5608
   12.090    5.3712
   12.120    5.4976
   12.150    5.5398
   12.180    5.5819
   12.210    5.3397
   12.240    5.4344
   12.270    5.6556
   12.300    5.6135
   12.330    5.2238
   12.360    5.3291
   12.390    5.4976
   12.420    5.5292
   12.450    5.4028
   12.480    5.3081
   12.510    5.1185
   12.540    5.5187
   12.570    5.2343
   12.600    5.2238
   12.630    5.1711
   12.660    5.7399
   12.690    5.3081
   12.720    5.1922
   12.750    5.4028
   12.780    5.2765
   12.810    5.3186
   12.840    5.5398
   12.870    5.2870
   12.900    5.4028
   12.930    5.3291
   12.960    5.3818
   12.990    5.4344
   13.020    5.5292
   13.050    5.0448
   13.080    5.5714
   13.110    5.1817
   13.140    5.2238
   13.170    5.1711
   13.200    5.1395
   13.230    5.1185
   13.260    5.1290
   13.290    5.0974
   13.320    5.2765
   13.350    5.1395
   13.380    5.4028
   13.410    5.2449
   13.440    5.8662
   13.470    5.3712
   13.500    5.3712
   13.530    5.4239
   13.560    5.0026
   13.590    5.4239
   13.620    5.3397
   13.650    5.4766
   13.680    5.1501
   13.710    5.2975
   13.740    5.3186
   13.770    5.0764
   13.800    5.5187
   13.830    5.2133
   13.860    5.4344
   13.890    5.3502
   13.920    5.2975
   13.950    5.0869
   13.980    5.1080
   14.010    5.2343
   14.040    5.3081
   14.070    5.3291
   14.100    5.1395
   14.130    5.2659
   14.160    5.0342
   14.190    5.3818
   14.220    5.5082
   14.250    5.2554
   14.280    5.1185
   14.310    5.2027
   14.340    5.2449
   14.370    5.1922
   14.400    5.3607
   14.430    5.2343
   14.460    5.6345
   14.490    5.2659
   14.520    5.2027
   14.550    5.2343
   14.580    5.4766
   14.610    5.4766
   14.640    5.1395
   14.670    4.9921
   14.700    5.1606
   14.730    4.6867
   14.760    5.0448
   14.790    5.1817
   14.820    5.1501
   14.850    5.4028
   14.880    5.0342
   14.910    4.9500
   14.940    5.3712
   14.970    5.4766
   15.000    4.9710
   15.030    4.9184
   15.060    5.2975
   15.090    5.1922
   15.120    5.2870
   15.150    5.3818
   15.180    5.2975
   15.210    5.0869
   15.240    4.7920
   15.270    5.3818
   15.300    5.1395
   15.330    5.3607
   15.360    5.0658
   15.390    5.2554
   15.420    4.9078
   15.450    5.3397
   15.480    5.3712
   15.510    5.6451
   15.540    5.2238
   15.570    5.2238
   15.600    5.0342
   15.630    5.2870
   15.660    5.3502
   15.690    5.0869
   15.720    5.0553
   15.750    5.3923
   15.780    5.1606
   15.810    5.0132
   15.840    5.1395
   15.870    5.0658
   15.900    5.0553
   15.930    5.6240
   15.960    5.3397
   15.990    4.9500
   16.020    5.4660
   16.050    5.0869
   16.080    5.5082
   16.110    5.3923
   16.140    5.2343
   16.170    4.9921
   16.200    5.2975
   16.230    5.4976
   16.260    4.8763
   16.290    5.4134
   16.320    5.2133
   16.350    5.0658
   16.380    5.1606
   16.410    4.8025
   16.440    5.5819
   16.470    5.2765
   16.500    5.2343
   16.530    4.8973
   16.560    5.3818
   16.590    5.1080
   16.620    5.3712
   16.650    5.0237
   16.680    5.5924
   16.710    5.3081
   16.740    5.7399
   16.770    4.7604
   16.800    5.1606
   16.830    5.2449
   16.860    5.0869
   16.890    5.1080
   16.920    4.9816
   16.950    4.8657
   16.980    5.2343
   17.010    5.1080
   17.040    5.1080
   17.070    5.2238
   17.100    5.0764
   17.130    5.2554
   17.160    5.1290
   17.190    5.3397
   17.220    5.5503
   17.250    5.2133
   17.280    4.8447
   17.310    4.8236
   17.340    5.1501
   17.370    5.3397
   17.400    5.1711
   17.430    5.0974
   17.460    5.3291
   17.490    5.0237
   17.520    4.9078
   17.550    5.2554
   17.580    5.4871
   17.610    5.4660
   17.640    5.2449
   17.670    5.0237
   17.700    5.7083
   17.730    5.6345
   17.760    5.2027
   17.790    4.9816
   17.820    5.1817
   17.850    5.2554
   17.880    5.4555
   17.910    5.2449
   17.940    5.1817
   17.970    5.0132
   18.000    5.2554
   18.030    5.6872
   18.060    5.4766
   18.090    5.3818
   18.120    4.8552
   18.150    5.1185
   18.180    4.9921
   18.210    5.2027
   18.240    5.2027
   18.270    5.3186
   18.300    5.3291
   18.330    5.6029
   18.360    5.2870
   18.390    5.0974
   18.420    5.3818
   18.450    5.2027
   18.480    5.4344
   18.510    5.1290
   18.540    5.1606
   18.570    5.4239
   18.600    5.5082
   18.630    5.3712
   18.660    5.6345
   18.690    5.6556
   18.720    5.2133
   18.750    5.2343
   18.780    5.7083
   18.810    5.2133
   18.840    5.2343
   18.870    5.4450
   18.900    5.1395
   18.930    5.5187
   18.960    5.0448
   18.990    5.5608
   19.020    5.5608
   19.050    5.6240
   19.080    5.6872
   19.110    5.5503
   19.140    5.0132
   19.170    5.3291
   19.200    5.2449
   19.230    5.4555
   19.260    5.3923
   19.290    5.0974
   19.320    5.1817
   19.350    5.5503
   19.380    5.4555
   19.410    5.7715
   19.440    5.3607
   19.470    5.3923
   19.500    5.4976
   19.530    5.5608
   19.560    5.6240
   19.590    5.4028
   19.620    5.2870
   19.650    6.0032
   19.680    5.4766
   19.710    5.7188
   19.740    5.5292
   19.770    5.5819
   19.800    5.3712
   19.830    5.3923
   19.860    5.2870
   19.890    5.6872
   19.920    5.6135
   19.950    5.4028
   19.980    5.5292
   20.010    5.5082
   20.040    5.5608
   20.070    5.4239
   20.100    5.5503
   20.130    5.4766
   20.160    5.2133
   20.190    5.4344
   20.220    5.6556
   20.250    5.5398
   20.280    5.2343
   20.310    5.6240
   20.340    5.3818
   20.370    5.8557
   20.400    5.5924
   20.430    5.5819
   20.460    5.3923
   20.490    5.3818
   20.520    5.3712
   20.550    5.7504
   20.580    5.5292
   20.610    5.6345
   20.640    5.3502
   20.670    5.5714
   20.700    5.5608
   20.730    5.4134
   20.760    5.2975
   20.790    5.4450
   20.820    5.7609
   20.850    5.6661
   20.880    5.2133
   20.910    5.6345
   20.940    5.4766
   20.970    5.6451
   21.000    5.3081
   21.030    5.5187
   21.060    5.3186
   21.090    5.8347
   21.120    5.7925
   21.150    5.5714
   21.180    5.7188
   21.210    5.5082
   21.240    5.4344
   21.270    5.4134
   21.300    5.5924
   21.330    5.7715
   21.360    5.6029
   21.390    5.5503
   21.420    5.3186
   21.450    5.8452
   21.480    5.2975
   21.510    5.5503
   21.540    5.5819
   21.570    5.4028
   21.600    5.8768
   21.630    5.6345
   21.660    5.3186
   21.690    5.6029
   21.720    5.3291
   21.750    5.5608
   21.780    5.2659
   21.810    5.6240
   21.840    5.6240
   21.870    5.2449
   21.900    5.6767
   21.930    5.4134
   21.960    5.6135
   21.990    5.6977
   22.020    5.5608
   22.050    5.4028
   22.080    5.6977
   22.110    5.4450
   22.140    5.6872
   22.170    5.4871
   22.200    5.3081
   22.230    5.4239
   22.260    5.4766
   22.290    5.4028
   22.320    5.7820
   22.350    5.4028
   22.380    6.0874
   22.410    5.8662
   22.440    5.4344
   22.470    5.5714
   22.500    5.6135
   22.530    5.5292
   22.560    5.5503
   22.590    5.4871
   22.620    5.9821
   22.650    5.5608
   22.680    5.6556
   22.710    5.2870
   22.740    5.5924
   22.770    5.2975
   22.800    5.6767
   22.830    5.6345
   22.860    5.9400
   22.890    5.5608
   22.920    5.3712
   22.950    5.6135
   22.980    5.4028
   23.010    5.4766
   23.040    5.3923
   23.070    5.2133
   23.100    5.7820
   23.130    5.2659
   23.160    5.6661
   23.190    5.5714
   23.220    5.3923
   23.250    5.6661
   23.280    5.3397
   23.310    5.4028
   23.340    5.4028
   23.370    5.1606
   23.400    5.2659
   23.430    5.8768
   23.460    5.1922
   23.490    4.9921
   23.520    5.5187
   23.550    5.6661
   23.580    5.0974
   23.610    5.5503
   23.640    5.0026
   23.670    5.7188
   23.700    5.3291
   23.730    5.3607
   23.760    5.4239
   23.790    5.7293
   23.820    5.1395
   23.850    5.3712
   23.880    5.3607
   23.910    5.4028
   23.940    5.2133
   23.970    5.5503
   24.000    5.2659
   24.030    5.5714
   24.060    5.1711
   24.090    5.4660
   24.120    5.3397
   24.150    5.4766
   24.180    5.1606
   24.210    5.5398
   24.240    5.2765
   24.270    5.5187
   24.300    5.2554
   24.330    5.4871
   24.360    5.6029
   24.390    5.3502
   24.420    5.0026
   24.450    5.0764
   24.480    5.4028
   24.510    5.4028
   24.540    5.1817
   24.570    5.0869
   24.600    5.4660
   24.630    5.4344
   24.660    5.2133
   24.690    5.1395
   24.720    5.0237
   24.750    5.1501
   24.780    5.0764
   24.810    5.7504
   24.840    5.3712
   24.870    5.0869
   24.900    5.3081
   24.930    5.5187
   24.960    5.1395
   24.990    5.4555
   25.020    5.2975
   25.050    5.4344
   25.080    5.1395
   25.110    5.2238
   25.140    5.4239
   25.170    5.2133
   25.200    5.1185
   25.230    5.1395
   25.260    5.1395
   25.290    5.1080
   25.320    5.3923
   25.350    5.3397
   25.380    5.1185
   25.410    5.2027
   25.440    5.1290
   25.470    5.0342
   25.500    5.2659
   25.530    5.1395
   25.560    5.4344
   25.590    5.1817
   25.620    4.9500
   25.650    5.3607
   25.680    4.9816
   25.710    4.7815
   25.740    4.9816
   25.770    5.2765
   25.800    5.2343
   25.830    5.3186
   25.860    4.7815
   25.890    4.8973
   25.920    4.9921
   25.950    5.2554
   25.980    5.1711
   26.010    5.1606
   26.040    5.1185
   26.070    4.8973
   26.100    5.0026
   26.130    5.7504
   26.160    4.9078
   26.190    5.3607
   26.220    5.2765
   26.250    5.0448
   26.280    4.8973
   26.310    5.3291
   26.340    5.0132
   26.370    5.4555
   26.400    4.9289
   26.430    4.7077
   26.460    5.0237
   26.490    4.6024
   26.520    4.8868
   26.550    5.0026
   26.580    4.8763
   26.610    4.9605
   26.640    5.1080
   26.670    5.1501
   26.700    5.1290
   26.730    4.9816
   26.760    5.0658
   26.790    4.6024
   26.820    5.1711
   26.850    4.9289
   26.880    4.8973
   26.910    5.0764
   26.940    4.9710
   26.970    4.7077
   27.000    4.9394
   27.030    4.5708
   27.060    5.1080
   27.090    5.0974
   27.120    4.9816
   27.150    4.9394
   27.180    5.0342
   27.210    4.8973
   27.240    4.8131
   27.270    4.8973
   27.300    4.6024
   27.330    4.6235
   27.360    5.1185
   27.390    4.6445
   27.420    4.7288
   27.450    4.7077
   27.480    4.8868
   27.510    5.2133
   27.540    4.5287
   27.570    4.7604
   27.600    4.8973
   27.630    4.9605
   27.660    4.9184
   27.690    4.6972
   27.720    4.3918
   27.750    4.7815
   27.780    4.6024
   27.810    4.7393
   27.840    4.7604
   27.870    4.9078
   27.900    4.6656
   27.930    5.2027
   27.960    5.0764
   27.990    4.9394
   28.020    4.9710
   28.050    5.1501
   28.080    5.2870
   28.110    4.6340
   28.140    4.5603
   28.170    4.5287
   28.200    4.9921
   28.230    4.8025
   28.260    4.7393
   28.290    4.6761
   28.320    4.8025
   28.350    4.8868
   28.380    4.7709
   28.410    4.6551
   28.440    4.5708
   28.470    4.5814
   28.500    4.4655
   28.530    4.4971
   28.560    4.8973
   28.590    4.6024
   28.620    4.6340
   28.650    4.5182
   28.680    5.0132
   28.710    4.6445
   28.740    4.7920
   28.770    4.8236
   28.800    4.7920
   28.830    4.7393
   28.860    4.7709
   28.890    4.6972
   28.920    4.7920
   28.950    4.5392
   28.980    4.7183
   29.010    4.7604
   29.040    4.4234
   29.070    4.9394
   29.100    4.6867
   29.130    4.6130
   29.160    4.4760
   29.190    4.6761
   29.220    4.2338
   29.250    4.5392
   29.280    4.8763
   29.310    4.7183
   29.340    4.8025
   29.370    4.1917
   29.400    4.6340
   29.430    4.6024
   29.460    4.3918
   29.490    4.6761
   29.520    4.5708
   29.550    4.8236
   29.580    4.4655
   29.610    4.8973
   29.640    4.2759
   29.670    4.2338
   29.700    4.6024
   29.730    4.6024
   29.760    4.6761
   29.790    4.3075
   29.820    4.5603
   29.850    4.5603
   29.880    4.4760
   29.910    4.4655
   29.940    4.3497
   29.970    4.5919
   30.000    4.3918
   30.030    4.4550
   30.060    4.6972
   30.090    4.4339
   30.120    4.5498
   30.150    4.3918
   30.180    4.3918
   30.210    4.7920
   30.240    4.4444
   30.270    4.6867
   30.300    4.6867
   30.330    4.3707
   30.360    4.4550
   30.390    4.2443
   30.420    4.5182
   30.450    4.6130
   30.480    4.4550
   30.510    4.3497
   30.540    4.4128
   30.570    4.1390
   30.600    4.5498
   30.630    4.1601
   30.660    4.4550
   30.690    4.4550
   30.720    4.3391
   30.750    4.2865
   30.780    4.3391
   30.810    4.3497
   30.840    4.7709
   30.870    4.6972
   30.900    4.6761
   30.930    4.2127
   30.960    4.5287
   30.990    4.4339
   31.020    4.2127
   31.050    4.8236
   31.080    4.3391
   31.110    4.3497
   31.140    4.4971
   31.170    4.2127
   31.200    4.5076
   31.230    4.2233
   31.260    4.4655
   31.290    4.2865
   31.320    4.6130
   31.350    4.5919
   31.380    4.4444
   31.410    4.3918
   31.440    4.3075
   31.470    4.4550
   31.500    4.2443
   31.530    4.6445
   31.560    4.0864
   31.590    4.1074
   31.620    4.3813
   31.650    4.4655
   31.680    4.4971
   31.710    4.2338
   31.740    4.5919
   31.770    4.4550
   31.800    4.5076
   31.830    4.5498
   31.860    4.5287
   31.890    4.5392
   31.920    4.6551
   31.950    4.2233
   31.980    4.3075
   32.010    4.3286
   32.040    4.1706
   32.070    4.7499
   32.100    4.8868
   32.130    5.0237
   32.160    4.3075
   32.190    4.2127
   32.220    4.0864
   32.250    4.3497
   32.280    4.3075
   32.310    4.2970
   32.340    4.4866
   32.370    4.3918
   32.400    4.1180
   32.430    4.3286
   32.460    4.3707
   32.490    4.2865
   32.520    4.3707
   32.550    4.2443
   32.580    4.0653
   32.610    3.9916
   32.640    4.3391
   32.670    4.3391
   32.700    4.3497
   32.730    4.1811
   32.760    4.2759
   32.790    4.2970
   32.820    3.7599
   32.850    4.0548
   32.880    4.1285
   32.910    4.3181
   32.940    4.3391
   32.970    4.1496
   33.000    3.8231
   33.030    4.3075
   33.060    4.4234
   33.090    4.1811
   33.120    4.3497
   33.150    4.2338
   33.180    4.2865
   33.210    4.1074
   33.240    4.2759
   33.270    4.0021
   33.300    4.2127
   33.330    4.2233
   33.360    3.9705
   33.390    4.6024
   33.420    4.1811
   33.450    4.2443
   33.480    3.9494
   33.510    4.3602
   33.540    4.1496
   33.570    4.1285
   33.600    4.2759
   33.630    4.1180
   33.660    3.8863
   33.690    4.1496
   33.720    4.0758
   33.750    3.8231
   33.780    4.2865
   33.810    4.2443
   33.840    4.1074
   33.870    4.4971
   33.900    4.2970
   33.930    4.0758
   33.960    4.2654
   33.990    3.8547
   34.020    4.0758
   34.050    4.1180
   34.080    3.9179
   34.110    3.9494
   34.140    4.3075
   34.170    4.0864
   34.200    3.8652
   34.230    3.8231
   34.260    4.1285
   34.290    3.8020
   34.320    3.8441
   34.350    3.7072
   34.380    3.9284
   34.410    3.8863
   34.440    4.0864
   34.470    4.1496
   34.500    4.0969
   34.530    3.8441
   34.560    3.8757
   34.590    3.6756
   34.620    3.9284
   34.650    3.8020
   34.680    4.1180
   34.710    4.1917
   34.740    3.8336
   34.770    3.8336
   34.800    3.8336
   34.830    4.0758
   34.860    3.9073
   34.890    3.6230
   34.920    3.9810
   34.950    4.1180
   34.980    3.4860
   35.010    3.9810
   35.040    3.9179
   35.070    3.7809
   35.100    3.7704
   35.130    4.0232
   35.160    3.9284
   35.190    4.0021
   35.220    3.8652
   35.250    3.9810
   35.280    3.7704
   35.310    4.0548
   35.340    3.8231
   35.370    3.7177
   35.400    3.6230
   35.430    3.7704
   35.460    3.7388
   35.490    3.5914
   35.520    3.6440
   35.550    3.9705
   35.580    4.0653
   35.610    4.0969
   35.640    4.1180
   35.670    3.8020
   35.700    3.7809
   35.730    3.6230
   35.760    3.8125
   35.790    3.7493
   35.820    3.6230
   35.850    3.8863
   35.880    3.7493
   35.910    3.9916
   35.940    3.5176
   35.970    3.4755
   36.000    3.8863
   36.030    3.8547
   36.060    3.7283
   36.090    3.6546
   36.120    3.9916
   36.150    3.7388
   36.180    4.0864
   36.210    3.7283
   36.240    3.7388
   36.270    3.5808
   36.300    3.5282
   36.330    3.8968
   36.360    3.7493
   36.390    3.6756
   36.420    3.8231
   36.450    3.6862
   36.480    3.8020
   36.510    3.8547
   36.540    3.3913
   36.570    3.8231
   36.600    3.4755
   36.630    3.7704
   36.660    3.3913
   36.690    3.2438
   36.720    3.5492
   36.750    3.5914
   36.780    3.6546
   36.810    3.6440
   36.840    3.6967
   36.870    3.6756
   36.900    3.4439
   36.930    3.5176
   36.960    3.4544
   36.990    3.5703
   37.020    3.6124
   37.050    3.4439
   37.080    3.6230
   37.110    3.6651
   37.140    3.5808
   37.170    3.8863
   37.200    3.5914
   37.230    3.6335
   37.260    3.8020
   37.290    3.4018
   37.320    3.5387
   37.350    3.8863
   37.380    3.5387
   37.410    3.6651
   37.440    3.5808
   37.470    3.7388
   37.500    3.7388
   37.530    3.3702
   37.560    3.5176
   37.590    3.5387
   37.620    3.5282
   37.650    3.6335
   37.680    3.6124
   37.710    3.5282
   37.740    3.4439
   37.770    3.5703
   37.800    3.8547
   37.830    3.5598
   37.860    3.9073
   37.890    3.5387
   37.920    3.7599
   37.950    3.6335
   37.980    3.7072
   38.010    3.5703
   38.040    3.7915
   38.070    3.9284
   38.100    3.4334
   38.130    3.7072
   38.160    3.4966
   38.190    3.7072
   38.220    3.5598
   38.250    3.5282
   38.280    3.7704
   38.310    3.5808
   38.340    3.5387
   38.370    3.5598
   38.400    3.3597
   38.430    3.3386
   38.460    3.6124
   38.490    3.5598
   38.520    3.6335
   38.550    3.7177
   38.580    3.6124
   38.610    3.6651
   38.640    3.4334
   38.670    3.3491
   38.700    3.8652
   38.730    3.7388
   38.760    3.4229
   38.790    3.6756
   38.820    3.5282
   38.850    3.6546
   38.880    3.4650
   38.910    3.7915
   38.940    3.8336
   38.970    3.5071
   39.000    3.4334
   39.030    3.7809
   39.060    3.3913
   39.090    3.4229
   39.120    3.6230
   39.150    3.5598
   39.180    3.5071
   39.210    3.7177
   39.240    3.4860
   39.270    3.5808
   39.300    3.4334
   39.330    3.6230
   39.360    3.5598
   39.390    3.5387
   39.420    3.3491
   39.450    3.5492
   39.480    3.7599
   39.510    3.5808
   39.540    3.4755
   39.570    3.5387
   39.600    3.6230
   39.630    3.7704
   39.660    3.5808
   39.690    3.4966
   39.720    3.4544
   39.750    3.5914
   39.780    3.3597
   39.810    3.3807
   39.840    3.5282
   39.870    3.7177
   39.900    3.6546
   39.930    3.2754
   39.960    3.5598
   39.990    3.4229