File: data/MOCOF-1/PXRD/PXRD_KE-242_Co-Ka1_capillary-1mm_5s-deg.xyd
    1.500    2.7073
    1.530    2.6003
    1.560    2.6752
    1.590    2.6110
    1.620    2.5254
    1.650    2.1937
    1.680    2.1723
    1.710    1.8834
    1.740    2.2686
    1.770    1.8727
    1.800    1.7228
    1.830    1.9369
    1.860    1.6800
    1.890    1.6051
    1.920    1.8085
    1.950    1.6800
    1.980    1.4660
    2.010    1.4018
    2.040    1.5088
    2.070    1.4339
    2.100    1.4660
    2.130    1.3590
    2.160    1.2092
    2.190    1.1129
    2.220    1.2306
    2.250    1.1664
    2.280    1.2306
    2.310    1.1985
    2.340    1.2413
    2.370    1.1022
    2.400    1.1878
    2.430    1.2306
    2.460    0.9738
    2.490    0.9631
    2.520    1.1022
    2.550    1.0701
    2.580    0.9203
    2.610    0.9203
    2.640    0.9203
    2.670    0.8454
    2.700    0.9845
    2.730    0.7491
    2.760    0.9738
    2.790    0.9631
    2.820    0.7812
    2.850    0.9631
    2.880    0.9417
    2.910    0.7598
    2.940    0.8882
    2.970    0.8133
    3.000    0.8347
    3.030    0.7919
    3.060    0.7277
    3.090    0.7919
    3.120    0.7384
    3.150    0.8882
    3.180    0.6207
    3.210    0.8454
    3.240    0.7919
    3.270    0.8775
    3.300    0.8026
    3.330    0.7384
    3.360    0.6528
    3.390    0.7277
    3.420    0.6742
    3.450    0.7491
    3.480    0.8347
    3.510    0.5993
    3.540    0.7063
    3.570    0.6742
    3.600    0.8989
    3.630    0.8026
    3.660    0.7491
    3.690    0.7277
    3.720    0.8133
    3.750    0.8240
    3.780    0.7705
    3.810    0.8775
    3.840    0.8347
    3.870    0.9738
    3.900    1.0273
    3.930    1.1878
    3.960    1.0701
    3.990    1.3911
    4.020    1.6158
    4.050    1.7549
    4.080    2.0011
    4.110    2.1188
    4.140    2.4291
    4.170    2.7287
    4.200    3.2210
    4.230    3.5955
    4.260    4.1306
    4.290    5.1150
    4.320    5.6394
    4.350    7.4050
    4.380    9.3312
    4.410   10.8400
    4.440   13.6330
    4.470   18.7587
    4.500   28.4323
    4.530   35.6233
    4.560   12.7876
    4.590    2.8571
    4.620    1.4446
    4.650    0.9845
    4.680    0.7277
    4.710    0.8775
    4.740    0.7598
    4.770    0.7063
    4.800    0.6635
    4.830    0.7170
    4.860    0.6528
    4.890    0.5993
    4.920    0.5350
    4.950    0.5029
    4.980    0.5993
    5.010    0.4494
    5.040    0.4708
    5.070    0.6528
    5.100    0.5993
    5.130    0.5778
    5.160    0.4280
    5.190    0.5457
    5.220    0.6314
    5.250    0.4708
    5.280    0.5029
    5.310    0.5993
    5.340    0.5564
    5.370    0.4922
    5.400    0.5993
    5.430    0.6100
    5.460    0.6635
    5.490    0.5029
    5.520    0.5457
    5.550    0.5457
    5.580    0.5993
    5.610    0.5778
    5.640    0.5029
    5.670    0.5671
    5.700    0.5136
    5.730    0.5243
    5.760    0.4601
    5.790    0.5457
    5.820    0.6956
    5.850    0.5564
    5.880    0.5457
    5.910    0.6100
    5.940    0.6421
    5.970    0.5564
    6.000    0.6742
    6.030    0.7170
    6.060    0.5350
    6.090    0.6421
    6.120    0.8561
    6.150    0.8882
    6.180    0.8561
    6.210    0.9631
    6.240    1.1664
    6.270    1.3804
    6.300    1.5516
    6.330    1.9369
    6.360    2.7715
    6.390    4.1734
    6.420    4.2697
    6.450    1.5516
    6.480    0.6849
    6.510    0.5350
    6.540    0.5457
    6.570    0.6956
    6.600    0.4494
    6.630    0.5136
    6.660    0.5886
    6.690    0.5029
    6.720    0.3959
    6.750    0.5136
    6.780    0.4922
    6.810    0.5778
    6.840    0.4173
    6.870    0.4815
    6.900    0.4708
    6.930    0.6421
    6.960    0.4601
    6.990    0.5778
    7.020    0.5778
    7.050    0.4494
    7.080    0.5457
    7.110    0.5350
    7.140    0.5564
    7.170    0.3959
    7.200    0.4708
    7.230    0.4815
    7.260    0.4708
    7.290    0.4601
    7.320    0.5136
    7.350    0.4922
    7.380    0.5029
    7.410    0.5886
    7.440    0.4708
    7.470    0.5778
    7.500    0.5350
    7.530    0.5029
    7.560    0.5671
    7.590    0.5886
    7.620    0.5457
    7.650    0.7491
    7.680    0.7384
    7.710    0.7812
    7.740    1.0808
    7.770    1.0701
    7.800    1.4981
    7.830    1.9797
    7.860    2.4077
    7.890    1.3911
    7.920    0.8347
    7.950    0.6421
    7.980    0.5029
    8.010    0.5029
    8.040    0.4815
    8.070    0.4173
    8.100    0.5029
    8.130    0.5136
    8.160    0.5243
    8.190    0.4173
    8.220    0.5778
    8.250    0.4173
    8.280    0.5243
    8.310    0.5029
    8.340    0.3959
    8.370    0.4494
    8.400    0.4387
    8.430    0.4066
    8.460    0.4280
    8.490    0.4066
    8.520    0.5350
    8.550    0.4280
    8.580    0.5564
    8.610    0.5243
    8.640    0.5243
    8.670    0.4173
    8.700    0.4601
    8.730    0.5029
    8.760    0.5136
    8.790    0.4815
    8.820    0.4922
    8.850    0.4280
    8.880    0.5671
    8.910    0.5778
    8.940    0.7598
    8.970    0.8882
    9.000    1.1236
    9.030    1.4660
    9.060    1.9690
    9.090    1.7657
    9.120    0.9203
    9.150    0.5457
    9.180    0.5457
    9.210    0.5243
    9.240    0.5564
    9.270    0.4280
    9.300    0.3959
    9.330    0.4494
    9.360    0.4173
    9.390    0.6207
    9.420    0.4173
    9.450    0.4066
    9.480    0.4280
    9.510    0.3638
    9.540    0.4494
    9.570    0.5136
    9.600    0.5029
    9.630    0.3638
    9.660    0.5564
    9.690    0.5243
    9.720    0.4708
    9.750    0.4280
    9.780    0.4280
    9.810    0.4815
    9.840    0.5886
    9.870    0.4601
    9.900    0.5350
    9.930    0.4387
    9.960    0.3852
    9.990    0.5778
   10.020    0.4815
   10.050    0.7170
   10.080    0.5886
   10.110    0.7705
   10.140    0.8240
   10.170    0.7598
   10.200    0.6100
   10.230    0.4708
   10.260    0.2889
   10.290    0.4494
   10.320    0.5243
   10.350    0.5350
   10.380    0.4066
   10.410    0.5243
   10.440    0.4708
   10.470    0.4387
   10.500    0.4815
   10.530    0.3745
   10.560    0.5029
   10.590    0.4280
   10.620    0.4494
   10.650    0.4922
   10.680    0.5350
   10.710    0.4494
   10.740    0.5243
   10.770    0.4708
   10.800    0.5029
   10.830    0.4601
   10.860    0.5778
   10.890    0.4387
   10.920    0.7812
   10.950    0.5993
   10.980    0.8454
   11.010    1.0701
   11.040    1.7121
   11.070    2.2686
   11.100    3.4350
   11.130    4.3981
   11.160    2.8464
   11.190    1.0594
   11.220    0.5993
   11.250    0.5564
   11.280    0.4280
   11.310    0.4815
   11.340    0.4494
   11.370    0.5029
   11.400    0.4708
   11.430    0.3103
   11.460    0.4280
   11.490    0.4387
   11.520    0.5243
   11.550    0.4601
   11.580    0.4922
   11.610    0.5243
   11.640    0.3745
   11.670    0.4922
   11.700    0.4708
   11.730    0.3210
   11.760    0.5778
   11.790    0.5243
   11.820    0.4601
   11.850    0.4922
   11.880    0.7919
   11.910    0.9631
   11.940    0.9845
   11.970    1.3376
   12.000    2.1616
   12.030    2.2258
   12.060    1.4125
   12.090    0.6849
   12.120    0.5350
   12.150    0.4494
   12.180    0.5350
   12.210    0.4922
   12.240    0.3959
   12.270    0.4280
   12.300    0.5029
   12.330    0.5136
   12.360    0.5136
   12.390    0.4494
   12.420    0.4173
   12.450    0.4494
   12.480    0.5778
   12.510    0.4387
   12.540    0.3959
   12.570    0.4708
   12.600    0.5029
   12.630    0.4066
   12.660    0.4173
   12.690    0.4708
   12.720    0.5778
   12.750    0.5671
   12.780    0.9310
   12.810    1.2520
   12.840    1.7764
   12.870    1.7442
   12.900    1.0380
   12.930    0.6421
   12.960    0.4708
   12.990    0.4173
   13.020    0.4173
   13.050    0.4922
   13.080    0.3852
   13.110    0.5243
   13.140    0.3959
   13.170    0.5350
   13.200    0.3317
   13.230    0.4708
   13.260    0.2782
   13.290    0.4708
   13.320    0.4708
   13.350    0.4280
   13.380    0.4280
   13.410    0.5564
   13.440    0.4387
   13.470    0.5029
   13.500    0.5350
   13.530    0.6956
   13.560    0.7277
   13.590    1.3697
   13.620    1.8941
   13.650    1.8299
   13.680    1.0915
   13.710    0.6528
   13.740    0.5564
   13.770    0.4815
   13.800    0.3852
   13.830    0.4280
   13.860    0.3959
   13.890    0.4708
   13.920    0.3852
   13.950    0.3745
   13.980    0.3317
   14.010    0.4922
   14.040    0.3852
   14.070    0.4280
   14.100    0.4815
   14.130    0.3959
   14.160    0.3745
   14.190    0.4601
   14.220    0.4280
   14.250    0.3852
   14.280    0.4387
   14.310    0.5243
   14.340    0.5671
   14.370    0.6421
   14.400    0.5136
   14.430    0.4922
   14.460    0.4173
   14.490    0.3531
   14.520    0.3959
   14.550    0.4173
   14.580    0.3745
   14.610    0.4173
   14.640    0.4173
   14.670    0.5350
   14.700    0.3638
   14.730    0.3424
   14.760    0.5029
   14.790    0.4601
   14.820    0.4173
   14.850    0.3745
   14.880    0.3210
   14.910    0.4066
   14.940    0.5243
   14.970    0.5350
   15.000    0.7170
   15.030    0.9310
   15.060    1.5088
   15.090    1.6265
   15.120    1.2306
   15.150    0.7384
   15.180    0.4708
   15.210    0.3959
   15.240    0.4280
   15.270    0.5350
   15.300    0.4601
   15.330    0.5243
   15.360    0.4280
   15.390    0.3745
   15.420    0.3745
   15.450    0.3852
   15.480    0.3424
   15.510    0.4922
   15.540    0.4601
   15.570    0.2996
   15.600    0.3959
   15.630    0.3317
   15.660    0.5029
   15.690    0.6742
   15.720    0.7277
   15.750    0.9417
   15.780    0.8133
   15.810    0.6956
   15.840    0.5029
   15.870    0.5564
   15.900    0.3959
   15.930    0.4601
   15.960    0.3638
   15.990    0.4066
   16.020    0.4173
   16.050    0.5136
   16.080    0.4280
   16.110    0.3424
   16.140    0.3959
   16.170    0.4280
   16.200    0.3531
   16.230    0.4708
   16.260    0.3852
   16.290    0.4173
   16.320    0.5029
   16.350    0.6956
   16.380    1.0166
   16.410    0.9524
   16.440    0.9417
   16.470    0.6314
   16.500    0.4066
   16.530    0.3852
   16.560    0.5350
   16.590    0.4066
   16.620    0.3959
   16.650    0.4601
   16.680    0.4280
   16.710    0.3745
   16.740    0.4280
   16.770    0.3852
   16.800    0.4280
   16.830    0.3745
   16.860    0.5136
   16.890    0.2782
   16.920    0.2889
   16.950    0.3852
   16.980    0.3531
   17.010    0.3959
   17.040    0.5136
   17.070    0.3424
   17.100    0.4922
   17.130    0.5136
   17.160    0.3745
   17.190    0.4601
   17.220    0.4280
   17.250    0.4494
   17.280    0.4173
   17.310    0.4387
   17.340    0.5136
   17.370    0.3638
   17.400    0.4280
   17.430    0.5243
   17.460    0.3531
   17.490    0.4280
   17.520    0.5029
   17.550    0.5029
   17.580    0.5993
   17.610    0.7598
   17.640    0.5564
   17.670    0.7277
   17.700    0.4387
   17.730    0.4494
   17.760    0.4708
   17.790    0.5671
   17.820    0.4387
   17.850    0.4387
   17.880    0.3852
   17.910    0.3317
   17.940    0.3638
   17.970    0.4173
   18.000    0.3852
   18.030    0.4708
   18.060    0.3103
   18.090    0.3745
   18.120    0.3638
   18.150    0.3959
   18.180    0.5136
   18.210    0.4387
   18.240    0.3638
   18.270    0.2996
   18.300    0.4708
   18.330    0.3424
   18.360    0.4601
   18.390    0.4387
   18.420    0.2996
   18.450    0.4387
   18.480    0.4494
   18.510    0.3210
   18.540    0.4708
   18.570    0.4280
   18.600    0.4066
   18.630    0.3424
   18.660    0.4173
   18.690    0.4922
   18.720    0.4708
   18.750    0.5671
   18.780    0.8026
   18.810    0.6742
   18.840    0.5243
   18.870    0.5457
   18.900    0.4815
   18.930    0.4280
   18.960    0.3638
   18.990    0.3852
   19.020    0.4387
   19.050    0.4387
   19.080    0.3852
   19.110    0.2889
   19.140    0.4387
   19.170    0.4280
   19.200    0.5993
   19.230    0.4708
   19.260    0.4708
   19.290    0.5993
   19.320    0.8668
   19.350    0.8454
   19.380    0.6100
   19.410    0.4494
   19.440    0.4601
   19.470    0.3531
   19.500    0.3745
   19.530    0.4280
   19.560    0.4280
   19.590    0.4494
   19.620    0.3531
   19.650    0.3424
   19.680    0.4173
   19.710    0.4280
   19.740    0.4387
   19.770    0.5136
   19.800    0.5243
   19.830    0.8775
   19.860    1.0380
   19.890    1.0915
   19.920    0.8133
   19.950    0.6100
   19.980    0.4601
   20.010    0.6100
   20.040    0.4708
   20.070    0.3959
   20.100    0.4708
   20.130    0.4387
   20.160    0.3745
   20.190    0.4708
   20.220    0.4922
   20.250    0.4815
   20.280    0.5029
   20.310    0.3103
   20.340    0.4922
   20.370    0.4815
   20.400    0.3424
   20.430    0.4173
   20.460    0.4601
   20.490    0.4066
   20.520    0.4280
   20.550    0.5457
   20.580    0.3745
   20.610    0.3424
   20.640    0.4708
   20.670    0.3103
   20.700    0.3317
   20.730    0.5029
   20.760    0.3852
   20.790    0.3852
   20.820    0.5350
   20.850    0.4387
   20.880    0.5350
   20.910    0.5778
   20.940    0.5350
   20.970    0.5136
   21.000    0.4173
   21.030    0.4066
   21.060    0.4066
   21.090    0.3745
   21.120    0.5350
   21.150    0.4173
   21.180    0.4815
   21.210    0.4173
   21.240    0.3745
   21.270    0.4280
   21.300    0.4708
   21.330    0.5136
   21.360    0.5457
   21.390    0.6100
   21.420    0.6528
   21.450    0.6742
   21.480    0.5564
   21.510    0.3959
   21.540    0.4601
   21.570    0.4173
   21.600    0.4066
   21.630    0.4173
   21.660    0.3424
   21.690    0.4280
   21.720    0.4601
   21.750    0.3852
   21.780    0.3317
   21.810    0.4280
   21.840    0.5993
   21.870    0.5671
   21.900    0.5350
   21.930    0.3531
   21.960    0.4066
   21.990    0.4387
   22.020    0.4601
   22.050    0.4173
   22.080    0.4280
   22.110    0.4280
   22.140    0.3531
   22.170    0.4708
   22.200    0.3959
   22.230    0.4066
   22.260    0.3852
   22.290    0.3638
   22.320    0.5243
   22.350    0.4815
   22.380    0.6314
   22.410    0.4708
   22.440    0.5029
   22.470    0.4922
   22.500    0.4494
   22.530    0.3745
   22.560    0.3638
   22.590    0.3531
   22.620    0.5243
   22.650    0.3745
   22.680    0.5457
   22.710    0.4601
   22.740    0.5564
   22.770    0.6207
   22.800    0.8240
   22.830    0.7705
   22.860    0.8026
   22.890    0.7598
   22.920    0.7063
   22.950    0.5350
   22.980    0.4708
   23.010    0.3210
   23.040    0.3424
   23.070    0.6207
   23.100    0.3852
   23.130    0.4601
   23.160    0.4922
   23.190    0.4494
   23.220    0.3210
   23.250    0.3210
   23.280    0.4601
   23.310    0.4922
   23.340    0.4815
   23.370    0.5029
   23.400    0.4708
   23.430    0.5350
   23.460    0.4173
   23.490    0.4922
   23.520    0.5136
   23.550    0.5136
   23.580    0.3424
   23.610    0.5564
   23.640    0.3531
   23.670    0.5136
   23.700    0.7491
   23.730    1.1236
   23.760    1.1129
   23.790    0.9524
   23.820    0.8454
   23.850    0.5350
   23.880    0.4922
   23.910    0.3852
   23.940    0.4601
   23.970    0.4601
   24.000    0.5350
   24.030    0.4708
   24.060    0.3852
   24.090    0.4280
   24.120    0.4280
   24.150    0.5671
   24.180    0.5136
   24.210    0.5778
   24.240    0.4708
   24.270    0.4922
   24.300    0.4601
   24.330    0.4387
   24.360    0.3745
   24.390    0.6314
   24.420    0.4708
   24.450    0.4708
   24.480    0.4387
   24.510    0.4708
   24.540    0.4494
   24.570    0.4708
   24.600    0.3959
   24.630    0.4815
   24.660    0.4280
   24.690    0.3745
   24.720    0.4922
   24.750    0.4815
   24.780    0.4815
   24.810    0.4494
   24.840    0.3959
   24.870    0.4815
   24.900    0.4494
   24.930    0.4387
   24.960    0.4173
   24.990    0.4494
   25.020    0.4173
   25.050    0.4494
   25.080    0.4494
   25.110    0.4387
   25.140    0.4066
   25.170    0.5243
   25.200    0.4494
   25.230    0.5457
   25.260    0.5350
   25.290    0.5886
   25.320    0.4173
   25.350    0.3531
   25.380    0.6100
   25.410    0.5564
   25.440    0.5564
   25.470    0.7812
   25.500    0.6314
   25.530    0.7491
   25.560    0.5993
   25.590    0.5778
   25.620    0.3852
   25.650    0.3424
   25.680    0.3531
   25.710    0.4601
   25.740    0.5564
   25.770    0.4708
   25.800    0.6421
   25.830    0.5350
   25.860    0.6742
   25.890    0.5671
   25.920    0.5671
   25.950    0.5457
   25.980    0.4387
   26.010    0.4280
   26.040    0.4708
   26.070    0.5243
   26.100    0.4922
   26.130    0.4922
   26.160    0.5350
   26.190    0.5778
   26.220    0.7491
   26.250    1.0487
   26.280    1.2306
   26.310    0.9631
   26.340    1.1878
   26.370    1.0273
   26.400    0.5993
   26.430    0.6207
   26.460    0.5029
   26.490    0.5886
   26.520    0.5029
   26.550    0.4494
   26.580    0.5029
   26.610    0.6100
   26.640    0.7919
   26.670    0.9524
   26.700    1.2948
   26.730    1.0915
   26.760    1.1129
   26.790    0.7491
   26.820    0.5671
   26.850    0.5778
   26.880    0.5778
   26.910    0.5778
   26.940    0.5029
   26.970    0.5457
   27.000    0.4173
   27.030    0.6742
   27.060    0.6635
   27.090    0.7919
   27.120    0.7384
   27.150    0.6421
   27.180    0.6635
   27.210    0.4815
   27.240    0.4601
   27.270    0.4815
   27.300    0.5243
   27.330    0.3959
   27.360    0.5136
   27.390    0.5350
   27.420    0.4494
   27.450    0.6100
   27.480    0.4815
   27.510    0.6100
   27.540    0.4066
   27.570    0.5350
   27.600    0.6635
   27.630    0.5243
   27.660    0.3959
   27.690    0.4494
   27.720    0.5778
   27.750    0.4280
   27.780    0.5243
   27.810    0.6314
   27.840    0.7277
   27.870    0.6100
   27.900    0.6314
   27.930    0.7705
   27.960    0.6849
   27.990    0.5243
   28.020    0.3959
   28.050    0.4815
   28.080    0.5136
   28.110    0.3959
   28.140    0.4173
   28.170    0.4601
   28.200    0.5564
   28.230    0.5029
   28.260    0.5886
   28.290    0.5029
   28.320    0.4066
   28.350    0.4815
   28.380    0.4066
   28.410    0.4066
   28.440    0.3745
   28.470    0.3852
   28.500    0.4173
   28.530    0.5457
   28.560    0.2782
   28.590    0.5778
   28.620    0.5993
   28.650    0.5136
   28.680    0.4494
   28.710    0.5350
   28.740    0.4173
   28.770    0.4601
   28.800    0.5350
   28.830    0.4601
   28.860    0.4815
   28.890    0.3424
   28.920    0.4708
   28.950    0.4280
   28.980    0.4494
   29.010    0.4387
   29.040    0.5136
   29.070    0.5564
   29.100    0.4066
   29.130    0.4708
   29.160    0.4815
   29.190    0.4494
   29.220    0.4815
   29.250    0.5350
   29.280    0.3317
   29.310    0.5029
   29.340    0.5350
   29.370    0.4922
   29.400    0.5886
   29.430    0.5350
   29.460    0.6314
   29.490    0.4280
   29.520    0.3959
   29.550    0.4280
   29.580    0.5671
   29.610    0.4494
   29.640    0.4815
   29.670    0.4387
   29.700    0.5993
   29.730    0.5993
   29.760    0.5564
   29.790    0.6956
   29.820    0.4066
   29.850    0.4922
   29.880    0.4708
   29.910    0.3317
   29.940    0.3424
   29.970    0.5243
   30.000    0.5243
   30.030    0.4815
   30.060    0.8026
   30.090    0.8026
   30.120    0.8989
   30.150    0.8133
   30.180    0.9524
   30.210    0.6207
   30.240    0.3852
   30.270    0.4922
   30.300    0.4922
   30.330    0.5350
   30.360    0.5243
   30.390    0.4815
   30.420    0.4601
   30.450    0.4387
   30.480    0.4708
   30.510    0.4280
   30.540    0.4494
   30.570    0.4280
   30.600    0.4601
   30.630    0.4708
   30.660    0.3424
   30.690    0.4815
   30.720    0.4494
   30.750    0.4387
   30.780    0.5350
   30.810    0.5029
   30.840    0.5457
   30.870    0.5886
   30.900    0.6421
   30.930    0.4494
   30.960    0.3317
   30.990    0.3959
   31.020    0.4387
   31.050    0.4494
   31.080    0.4387
   31.110    0.5993
   31.140    0.4494
   31.170    0.2996
   31.200    0.3959
   31.230    0.3531
   31.260    0.3745
   31.290    0.3424
   31.320    0.4601
   31.350    0.4280
   31.380    0.4387
   31.410    0.4494
   31.440    0.5243
   31.470    0.5886
   31.500    0.5564
   31.530    0.5564
   31.560    0.7170
   31.590    0.5993
   31.620    0.6100
   31.650    0.4280
   31.680    0.3424
   31.710    0.3638
   31.740    0.3317
   31.770    0.4494
   31.800    0.4387
   31.830    0.3852
   31.860    0.3424
   31.890    0.5243
   31.920    0.4173
   31.950    0.2140
   31.980    0.3852
   32.010    0.4922
   32.040    0.4494
   32.070    0.4173
   32.100    0.2996
   32.130    0.4601
   32.160    0.4387
   32.190    0.5457
   32.220    0.5243
   32.250    0.5136
   32.280    0.5778
   32.310    0.4387
   32.340    0.4173
   32.370    0.4601
   32.400    0.4173
   32.430    0.3424
   32.460    0.3638
   32.490    0.5243
   32.520    0.4815
   32.550    0.5029
   32.580    0.4494
   32.610    0.4066
   32.640    0.4066
   32.670    0.3959
   32.700    0.4280
   32.730    0.3745
   32.760    0.4708
   32.790    0.5029
   32.820    0.5778
   32.850    0.6635
   32.880    0.7384
   32.910    0.5136
   32.940    0.6207
   32.970    0.5029
   33.000    0.4280
   33.030    0.3745
   33.060    0.4494
   33.090    0.4387
   33.120    0.5243
   33.150    0.5457
   33.180    0.4173
   33.210    0.4494
   33.240    0.5350
   33.270    0.5029
   33.300    0.5136
   33.330    0.4066
   33.360    0.4280
   33.390    0.4815
   33.420    0.3424
   33.450    0.3745
   33.480    0.4280
   33.510    0.4708
   33.540    0.3852
   33.570    0.3638
   33.600    0.4494
   33.630    0.3852
   33.660    0.4922
   33.690    0.3959
   33.720    0.3424
   33.750    0.4173
   33.780    0.3852
   33.810    0.3852
   33.840    0.4280
   33.870    0.4601
   33.900    0.4601
   33.930    0.4173
   33.960    0.4708
   33.990    0.4280
   34.020    0.4280
   34.050    0.4066
   34.080    0.4815
   34.110    0.4601
   34.140    0.3959
   34.170    0.5778
   34.200    0.5671
   34.230    0.4815
   34.260    0.5350
   34.290    0.3531
   34.320    0.3317
   34.350    0.2568
   34.380    0.4387
   34.410    0.3745
   34.440    0.3959
   34.470    0.3317
   34.500    0.3852
   34.530    0.4708
   34.560    0.2996
   34.590    0.3210
   34.620    0.2354
   34.650    0.3959
   34.680    0.4922
   34.710    0.3210
   34.740    0.4708
   34.770    0.5350
   34.800    0.5136
   34.830    0.4066
   34.860    0.4387
   34.890    0.3852
   34.920    0.4494
   34.950    0.4280
   34.980    0.5243
   35.010    0.3424
   35.040    0.3531
   35.070    0.3638
   35.100    0.2996
   35.130    0.3852
   35.160    0.2568
   35.190    0.3317
   35.220    0.3210
   35.250    0.4066
   35.280    0.3638
   35.310    0.2461
   35.340    0.3424
   35.370    0.3959
   35.400    0.3531
   35.430    0.3959
   35.460    0.4494
   35.490    0.3317
   35.520    0.3852
   35.550    0.3959
   35.580    0.3103
   35.610    0.3745
   35.640    0.2889
   35.670    0.2782
   35.700    0.4708
   35.730    0.4601
   35.760    0.4494
   35.790    0.4922
   35.820    0.4173
   35.850    0.3317
   35.880    0.3745
   35.910    0.3745
   35.940    0.2568
   35.970    0.3210
   36.000    0.3531
   36.030    0.2782
   36.060    0.3638
   36.090    0.4280
   36.120    0.4066
   36.150    0.2461
   36.180    0.3210
   36.210    0.2782
   36.240    0.3210
   36.270    0.3745
   36.300    0.2996
   36.330    0.2782
   36.360    0.3317
   36.390    0.3103
   36.420    0.3210
   36.450    0.2675
   36.480    0.3210
   36.510    0.3424
   36.540    0.2996
   36.570    0.2782
   36.600    0.3317
   36.630    0.4173
   36.660    0.3424
   36.690    0.4280
   36.720    0.2675
   36.750    0.3103
   36.780    0.2996
   36.810    0.2889
   36.840    0.3317
   36.870    0.2889
   36.900    0.2782
   36.930    0.3103
   36.960    0.3424
   36.990    0.3959
   37.020    0.2889
   37.050    0.3210
   37.080    0.3103
   37.110    0.3103
   37.140    0.2996
   37.170    0.3638
   37.200    0.4066
   37.230    0.3745
   37.260    0.3745
   37.290    0.3210
   37.320    0.2889
   37.350    0.3424
   37.380    0.2996
   37.410    0.2461
   37.440    0.2996
   37.470    0.2996
   37.500    0.2247
   37.530    0.2889
   37.560    0.2782
   37.590    0.2568
   37.620    0.3103
   37.650    0.2889
   37.680    0.2889
   37.710    0.2996
   37.740    0.2568
   37.770    0.3103
   37.800    0.2247
   37.830    0.2675
   37.860    0.2782
   37.890    0.3210
   37.920    0.2461
   37.950    0.2675
   37.980    0.3424
   38.010    0.2996
   38.040    0.3210
   38.070    0.2889
   38.100    0.1819
   38.130    0.3210
   38.160    0.3317
   38.190    0.2782
   38.220    0.2889
   38.250    0.2996
   38.280    0.2889
   38.310    0.3638
   38.340    0.3531
   38.370    0.4280
   38.400    0.3531
   38.430    0.2675
   38.460    0.4494
   38.490    0.3531
   38.520    0.2782
   38.550    0.4387
   38.580    0.2996
   38.610    0.3424
   38.640    0.2461
   38.670    0.2996
   38.700    0.2461
   38.730    0.3103
   38.760    0.2996
   38.790    0.2675
   38.820    0.2247
   38.850    0.2461
   38.880    0.2033
   38.910    0.2568
   38.940    0.2568
   38.970    0.2782
   39.000    0.2568
   39.030    0.3531
   39.060    0.2354
   39.090    0.2996
   39.120    0.2889
   39.150    0.3103
   39.180    0.2889
   39.210    0.3210
   39.240    0.2568
   39.270    0.2354
   39.300    0.2889
   39.330    0.2889
   39.360    0.3103
   39.390    0.2675
   39.420    0.3745
   39.450    0.3210
   39.480    0.2461
   39.510    0.3210
   39.540    0.2461
   39.570    0.3531
   39.600    0.2461
   39.630    0.3210
   39.660    0.3531
   39.690    0.2461
   39.720    0.2996
   39.750    0.2461
   39.780    0.2889
   39.810    0.1926
   39.840    0.3210
   39.870    0.3103
   39.900    0.1926
   39.930    0.2568
   39.960    0.2140
   39.990    0.2461