File: data/MOCOF-1/PXRD/PXRD_KE-203_Cu-Ka1_capillary-1mm_5s-deg.xyd
    1.500    9.7314
    1.530    9.6472
    1.560    9.0679
    1.590    9.3944
    1.620    8.2043
    1.650    8.0885
    1.680    8.0147
    1.710    7.7514
    1.740    7.6356
    1.770    7.6777
    1.800    6.9826
    1.830    6.5403
    1.860    7.0142
    1.890    6.1717
    1.920    6.4876
    1.950    6.5087
    1.980    6.3402
    2.010    5.7820
    2.040    5.9716
    2.070    5.8557
    2.100    6.0453
    2.130    5.6029
    2.160    5.7609
    2.190    5.7083
    2.220    6.0032
    2.250    4.9921
    2.280    5.4344
    2.310    5.6240
    2.340    5.5714
    2.370    5.6345
    2.400    5.7083
    2.430    5.5608
    2.460    5.0342
    2.490    5.8136
    2.520    5.6556
    2.550    5.5503
    2.580    5.1922
    2.610    5.7609
    2.640    5.9716
    2.670    6.0769
    2.700    5.9716
    2.730    5.8662
    2.760    6.3928
    2.790    7.1301
    2.820    7.1090
    2.850    7.3934
    2.880    7.8884
    2.910    7.9937
    2.940    8.8468
    2.970    8.9837
    3.000   10.3002
    3.030   10.9426
    3.060   11.7641
    3.090   12.5329
    3.120   13.9968
    3.150   14.7551
    3.180   16.8510
    3.210   19.2628
    3.240   21.1480
    3.270   23.6124
    3.300   25.9084
    3.330   29.8894
    3.360   33.3965
    3.390   35.0816
    3.420   36.2717
    3.450   35.7873
    3.480   34.4076
    3.510   31.6904
    3.540   27.4039
    3.570   23.9705
    3.600   21.1374
    3.630   18.4729
    3.660   17.2512
    3.690   15.5661
    3.720   15.0922
    3.750   15.1553
    3.780   15.9347
    3.810   15.2291
    3.840   15.3660
    3.870   15.3555
    3.900   16.0400
    3.930   15.4186
    3.960   16.2191
    3.990   15.4397
    4.020   14.6919
    4.050   14.4286
    4.080   14.0284
    4.110   13.2807
    4.140   12.4171
    4.170   11.6904
    4.200   11.2796
    4.230   10.2159
    4.260    9.4260
    4.290    8.5413
    4.320    8.5413
    4.350    7.5303
    4.380    7.0353
    4.410    6.3718
    4.440    6.1927
    4.470    5.7188
    4.500    5.4134
    4.530    5.2975
    4.560    4.7183
    4.590    4.7288
    4.620    4.3391
    4.650    4.3075
    4.680    4.0969
    4.710    3.6756
    4.740    3.7493
    4.770    3.5914
    4.800    3.3597
    4.830    3.2754
    4.860    3.2438
    4.890    3.6862
    4.920    3.2017
    4.950    3.0858
    4.980    3.3913
    5.010    3.3597
    5.040    3.2333
    5.070    3.2333
    5.100    2.8541
    5.130    2.7067
    5.160    2.8120
    5.190    3.0753
    5.220    2.9279
    5.250    3.0332
    5.280    2.5592
    5.310    2.6646
    5.340    3.0858
    5.370    2.6330
    5.400    2.6119
    5.430    2.9068
    5.460    2.5066
    5.490    2.4750
    5.520    2.6330
    5.550    2.4223
    5.580    2.3802
    5.610    2.6330
    5.640    2.4645
    5.670    2.4118
    5.700    2.4645
    5.730    2.5803
    5.760    2.5908
    5.790    2.4750
    5.820    2.5698
    5.850    2.6330
    5.880    2.6330
    5.910    2.3065
    5.940    2.4329
    5.970    2.6224
    6.000    2.5276
    6.030    2.2538
    6.060    2.8120
    6.090    2.4855
    6.120    2.2012
    6.150    2.4118
    6.180    2.4329
    6.210    2.5382
    6.240    2.4855
    6.270    2.2854
    6.300    2.3802
    6.330    2.2749
    6.360    2.3907
    6.390    2.3591
    6.420    2.6435
    6.450    2.6962
    6.480    2.5382
    6.510    2.5066
    6.540    2.5171
    6.570    2.7488
    6.600    2.7067
    6.630    3.0437
    6.660    2.8541
    6.690    2.9595
    6.720    3.3491
    6.750    3.2017
    6.780    3.7388
    6.810    4.0864
    6.840    4.5708
    6.870    5.3397
    6.900    4.7815
    6.930    4.8973
    6.960    5.3502
    6.990    4.8236
    7.020    4.4234
    7.050    4.3075
    7.080    3.8020
    7.110    3.5808
    7.140    3.3386
    7.170    3.3070
    7.200    3.0437
    7.230    3.2017
    7.260    2.9068
    7.290    2.6646
    7.320    2.8436
    7.350    2.5698
    7.380    2.2433
    7.410    2.7278
    7.440    2.6751
    7.470    2.6224
    7.500    2.5803
    7.530    2.5803
    7.560    2.7172
    7.590    2.7067
    7.620    2.7593
    7.650    2.4645
    7.680    2.5908
    7.710    2.9279
    7.740    2.7067
    7.770    2.7593
    7.800    2.8436
    7.830    2.9173
    7.860    2.9805
    7.890    2.9910
    7.920    2.9068
    7.950    3.0437
    7.980    3.1490
    8.010    3.1490
    8.040    3.1806
    8.070    3.2649
    8.100    3.2227
    8.130    3.0121
    8.160    3.2227
    8.190    3.0332
    8.220    3.1912
    8.250    2.9279
    8.280    3.0753
    8.310    3.3807
    8.340    3.0121
    8.370    3.0016
    8.400    3.1280
    8.430    3.1069
    8.460    3.1596
    8.490    3.2859
    8.520    3.1174
    8.550    2.8647
    8.580    2.7699
    8.610    2.7383
    8.640    2.7804
    8.670    2.7488
    8.700    2.9173
    8.730    2.7488
    8.760    2.3486
    8.790    2.4750
    8.820    2.7909
    8.850    2.5908
    8.880    2.5592
    8.910    2.5171
    8.940    2.5382
    8.970    2.3275
    9.000    2.4118
    9.030    2.4013
    9.060    2.2854
    9.090    2.4961
    9.120    2.3486
    9.150    2.1380
    9.180    2.4539
    9.210    2.3697
    9.240    2.3170
    9.270    2.2222
    9.300    2.0011
    9.330    2.4539
    9.360    2.2538
    9.390    2.2433
    9.420    2.1696
    9.450    2.2117
    9.480    1.9589
    9.510    2.3065
    9.540    2.1801
    9.570    2.2854
    9.600    1.9695
    9.630    2.0221
    9.660    2.1485
    9.690    2.2959
    9.720    2.0326
    9.750    2.0432
    9.780    2.0642
    9.810    2.2328
    9.840    2.1380
    9.870    1.9589
    9.900    2.3591
    9.930    2.0748
    9.960    2.3170
    9.990    2.0958
   10.020    2.4013
   10.050    2.4118
   10.080    2.1169
   10.110    2.0958
   10.140    2.2222
   10.170    2.1380
   10.200    2.1696
   10.230    2.0748
   10.260    2.0748
   10.290    2.2643
   10.320    2.2117
   10.350    2.2959
   10.380    2.4855
   10.410    2.3486
   10.440    2.3591
   10.470    2.5592
   10.500    2.2117
   10.530    2.2012
   10.560    2.2222
   10.590    2.2433
   10.620    2.2538
   10.650    2.2328
   10.680    2.2012
   10.710    2.1801
   10.740    2.2222
   10.770    2.2012
   10.800    2.1169
   10.830    2.0853
   10.860    2.1274
   10.890    2.0958
   10.920    2.0326
   10.950    2.2854
   10.980    2.2012
   11.010    1.9063
   11.040    2.0116
   11.070    2.2222
   11.100    2.1064
   11.130    1.9168
   11.160    2.1801
   11.190    2.1485
   11.220    2.0432
   11.250    1.9168
   11.280    2.0853
   11.310    2.1274
   11.340    2.2222
   11.370    1.9589
   11.400    2.2959
   11.430    2.0642
   11.460    2.2012
   11.490    2.0642
   11.520    2.2643
   11.550    2.1274
   11.580    2.3486
   11.610    1.9379
   11.640    2.1906
   11.670    2.2643
   11.700    2.2222
   11.730    2.0958
   11.760    2.3591
   11.790    2.0853
   11.820    2.0642
   11.850    2.0853
   11.880    2.3591
   11.910    2.3065
   11.940    2.1801
   11.970    2.1906
   12.000    2.1064
   12.030    2.3065
   12.060    2.3381
   12.090    2.3907
   12.120    2.2538
   12.150    2.1590
   12.180    2.1064
   12.210    2.1274
   12.240    2.2117
   12.270    2.2117
   12.300    2.2222
   12.330    2.1590
   12.360    2.3802
   12.390    2.1274
   12.420    2.1801
   12.450    2.1274
   12.480    2.4434
   12.510    2.3802
   12.540    2.2854
   12.570    2.2433
   12.600    2.1485
   12.630    2.3591
   12.660    2.2328
   12.690    2.1274
   12.720    2.2222
   12.750    2.0642
   12.780    2.0537
   12.810    2.1064
   12.840    2.3275
   12.870    2.4118
   12.900    2.2959
   12.930    2.0853
   12.960    2.0958
   12.990    2.2012
   13.020    2.1906
   13.050    2.1064
   13.080    2.2328
   13.110    2.1485
   13.140    2.3697
   13.170    2.4013
   13.200    2.0642
   13.230    2.1696
   13.260    2.1064
   13.290    2.1801
   13.320    2.0326
   13.350    2.1380
   13.380    2.1380
   13.410    2.1485
   13.440    2.1380
   13.470    2.3381
   13.500    2.1274
   13.530    1.9905
   13.560    2.1485
   13.590    2.0432
   13.620    2.1906
   13.650    2.3065
   13.680    2.0958
   13.710    1.9589
   13.740    2.3170
   13.770    2.3381
   13.800    1.9905
   13.830    1.9695
   13.860    2.2433
   13.890    2.1380
   13.920    2.0326
   13.950    2.1380
   13.980    2.2328
   14.010    2.2854
   14.040    2.0748
   14.070    2.1906
   14.100    2.2012
   14.130    2.1064
   14.160    2.0537
   14.190    2.1801
   14.220    2.2433
   14.250    2.2012
   14.280    2.0537
   14.310    2.1801
   14.340    2.2328
   14.370    2.0326
   14.400    2.1169
   14.430    2.1064
   14.460    2.1380
   14.490    2.0537
   14.520    1.9589
   14.550    2.0537
   14.580    2.2854
   14.610    1.9800
   14.640    2.0853
   14.670    2.0432
   14.700    1.9168
   14.730    2.2012
   14.760    2.2012
   14.790    1.9800
   14.820    2.0853
   14.850    1.7799
   14.880    1.9905
   14.910    1.9589
   14.940    2.0221
   14.970    2.0221
   15.000    2.0853
   15.030    2.0326
   15.060    2.1064
   15.090    2.0853
   15.120    2.1590
   15.150    2.0853
   15.180    2.0326
   15.210    2.1274
   15.240    1.9905
   15.270    1.8852
   15.300    1.9273
   15.330    2.0221
   15.360    2.0011
   15.390    2.0221
   15.420    2.0116
   15.450    1.9589
   15.480    1.9800
   15.510    2.0116
   15.540    2.1274
   15.570    1.9589
   15.600    2.0853
   15.630    2.0853
   15.660    2.0432
   15.690    2.0221
   15.720    2.0642
   15.750    2.2749
   15.780    2.1064
   15.810    1.7904
   15.840    2.1801
   15.870    2.1274
   15.900    1.9905
   15.930    1.9484
   15.960    1.9800
   15.990    1.9168
   16.020    1.9168
   16.050    2.1801
   16.080    2.2433
   16.110    1.9168
   16.140    1.7904
   16.170    1.9379
   16.200    2.0537
   16.230    2.0011
   16.260    2.0011
   16.290    2.0642
   16.320    2.1169
   16.350    1.9484
   16.380    2.0432
   16.410    1.8852
   16.440    2.0011
   16.470    1.8536
   16.500    2.0432
   16.530    2.0537
   16.560    2.1064
   16.590    2.0537
   16.620    2.2012
   16.650    2.1169
   16.680    1.9063
   16.710    1.9905
   16.740    2.0221
   16.770    1.8957
   16.800    1.8431
   16.830    1.9484
   16.860    2.2854
   16.890    1.7904
   16.920    2.0432
   16.950    1.9905
   16.980    2.0432
   17.010    2.0748
   17.040    2.1169
   17.070    2.0221
   17.100    1.9379
   17.130    2.0011
   17.160    1.9905
   17.190    1.9905
   17.220    2.1590
   17.250    2.2538
   17.280    2.1801
   17.310    2.3170
   17.340    1.9589
   17.370    2.1274
   17.400    2.0853
   17.430    2.0116
   17.460    2.2328
   17.490    2.1485
   17.520    2.2222
   17.550    1.9695
   17.580    2.2222
   17.610    2.1590
   17.640    1.9589
   17.670    1.7378
   17.700    1.9273
   17.730    2.0642
   17.760    2.0432
   17.790    2.0748
   17.820    1.9589
   17.850    1.9905
   17.880    2.2328
   17.910    2.0326
   17.940    2.0748
   17.970    2.1696
   18.000    2.2328
   18.030    1.8641
   18.060    2.1064
   18.090    2.1801
   18.120    1.9168
   18.150    2.1064
   18.180    2.1274
   18.210    2.1169
   18.240    2.2643
   18.270    1.9063
   18.300    2.2117
   18.330    2.3697
   18.360    2.0958
   18.390    1.9695
   18.420    2.0853
   18.450    2.2538
   18.480    2.2433
   18.510    1.9800
   18.540    2.0642
   18.570    2.0116
   18.600    2.0642
   18.630    2.1696
   18.660    2.0958
   18.690    2.0958
   18.720    2.0642
   18.750    2.2328
   18.780    2.0748
   18.810    2.0011
   18.840    1.7904
   18.870    1.8641
   18.900    1.9484
   18.930    1.9800
   18.960    1.9063
   18.990    2.1064
   19.020    2.0958
   19.050    2.2012
   19.080    1.9379
   19.110    2.3065
   19.140    2.1696
   19.170    1.9695
   19.200    2.1590
   19.230    2.1590
   19.260    2.2959
   19.290    2.1064
   19.320    2.0116
   19.350    2.2012
   19.380    1.9695
   19.410    2.0326
   19.440    2.2222
   19.470    1.9905
   19.500    2.0958
   19.530    2.1696
   19.560    2.1485
   19.590    2.3697
   19.620    2.0221
   19.650    2.1169
   19.680    2.0326
   19.710    2.2222
   19.740    2.3907
   19.770    2.1590
   19.800    2.4118
   19.830    2.2538
   19.860    2.1485
   19.890    2.2328
   19.920    2.1696
   19.950    2.1380
   19.980    2.1380
   20.010    2.2222
   20.040    2.1169
   20.070    2.3381
   20.100    2.0748
   20.130    2.2012
   20.160    2.3591
   20.190    2.2749
   20.220    2.3802
   20.250    2.3907
   20.280    2.1696
   20.310    2.4750
   20.340    2.2328
   20.370    2.2012
   20.400    2.3275
   20.430    2.3486
   20.460    2.2012
   20.490    2.3065
   20.520    2.1485
   20.550    2.3486
   20.580    2.1801
   20.610    2.3697
   20.640    2.2959
   20.670    2.0537
   20.700    2.2222
   20.730    2.2328
   20.760    2.1380
   20.790    2.3907
   20.820    2.2854
   20.850    2.3065
   20.880    2.1906
   20.910    2.1485
   20.940    2.3275
   20.970    2.2117
   21.000    2.2749
   21.030    2.2643
   21.060    2.2117
   21.090    2.1064
   21.120    2.1380
   21.150    2.4118
   21.180    2.2749
   21.210    2.2854
   21.240    2.4013
   21.270    2.3275
   21.300    2.2854
   21.330    2.5698
   21.360    2.2749
   21.390    2.0011
   21.420    2.1169
   21.450    2.3381
   21.480    2.0642
   21.510    2.2959
   21.540    2.2643
   21.570    2.1274
   21.600    2.2959
   21.630    2.2433
   21.660    2.3591
   21.690    2.1274
   21.720    2.3381
   21.750    2.2222
   21.780    2.2433
   21.810    2.4434
   21.840    2.2854
   21.870    2.2328
   21.900    2.3907
   21.930    2.4329
   21.960    2.0853
   21.990    2.2433
   22.020    2.5276
   22.050    2.1801
   22.080    2.1696
   22.110    2.1696
   22.140    2.2538
   22.170    2.1696
   22.200    2.2854
   22.230    2.3907
   22.260    2.4013
   22.290    2.4645
   22.320    2.2117
   22.350    2.0642
   22.380    2.4539
   22.410    2.2433
   22.440    2.3065
   22.470    2.2012
   22.500    2.2117
   22.530    2.2538
   22.560    2.4013
   22.590    2.2222
   22.620    2.2854
   22.650    2.2012
   22.680    1.9905
   22.710    2.3065
   22.740    2.2959
   22.770    2.2433
   22.800    2.4013
   22.830    2.2538
   22.860    2.2433
   22.890    2.4223
   22.920    2.3486
   22.950    2.0748
   22.980    2.0537
   23.010    2.0853
   23.040    2.1274
   23.070    2.0853
   23.100    2.0748
   23.130    2.3065
   23.160    2.1801
   23.190    2.2012
   23.220    2.1274
   23.250    2.1169
   23.280    2.1064
   23.310    2.3381
   23.340    2.1169
   23.370    2.0326
   23.400    2.2012
   23.430    2.0853
   23.460    2.0642
   23.490    2.1274
   23.520    2.1906
   23.550    2.1801
   23.580    2.1696
   23.610    1.9379
   23.640    2.3275
   23.670    2.2643
   23.700    2.0748
   23.730    2.2012
   23.760    2.5382
   23.790    2.2749
   23.820    2.1696
   23.850    2.1274
   23.880    2.1380
   23.910    1.9800
   23.940    2.2433
   23.970    2.4118
   24.000    2.1274
   24.030    2.2538
   24.060    1.9589
   24.090    1.9800
   24.120    2.2854
   24.150    2.2328
   24.180    2.1169
   24.210    2.1801
   24.240    2.2433
   24.270    2.1590
   24.300    2.0011
   24.330    2.1906
   24.360    2.0221
   24.390    2.0432
   24.420    2.2117
   24.450    2.0537
   24.480    2.1064
   24.510    2.2012
   24.540    1.9695
   24.570    2.2012
   24.600    2.3381
   24.630    1.9905
   24.660    2.0853
   24.690    2.2749
   24.720    2.2222
   24.750    2.1590
   24.780    2.1274
   24.810    2.0326
   24.840    2.0326
   24.870    1.9168
   24.900    1.9800
   24.930    2.0221
   24.960    2.0537
   24.990    2.0011
   25.020    2.1380
   25.050    2.1590
   25.080    1.8852
   25.110    2.1274
   25.140    2.0326
   25.170    1.8957
   25.200    2.1274
   25.230    2.0326
   25.260    1.8957
   25.290    2.2433
   25.320    2.1801
   25.350    2.2959
   25.380    2.0748
   25.410    2.1590
   25.440    2.1169
   25.470    2.0853
   25.500    2.1169
   25.530    2.1169
   25.560    1.7694
   25.590    1.8957
   25.620    1.9484
   25.650    2.1274
   25.680    1.9168
   25.710    1.9273
   25.740    1.8852
   25.770    1.9800
   25.800    2.0116
   25.830    2.0537
   25.860    2.1274
   25.890    2.0116
   25.920    1.8747
   25.950    2.1169
   25.980    1.9273
   26.010    2.0221
   26.040    2.0221
   26.070    1.7799
   26.100    2.0432
   26.130    2.0537
   26.160    1.9800
   26.190    1.7904
   26.220    1.9589
   26.250    2.1064
   26.280    1.8747
   26.310    1.9800
   26.340    2.0853
   26.370    1.9273
   26.400    1.8957
   26.430    2.0326
   26.460    1.9273
   26.490    1.7694
   26.520    1.6956
   26.550    1.9379
   26.580    2.0432
   26.610    1.8431
   26.640    2.0011
   26.670    1.6956
   26.700    1.8747
   26.730    1.8536
   26.760    2.0011
   26.790    1.7272
   26.820    2.0326
   26.850    1.8115
   26.880    1.7694
   26.910    1.9484
   26.940    1.8957
   26.970    2.0958
   27.000    1.9273
   27.030    1.9800
   27.060    1.8220
   27.090    1.8536
   27.120    1.7799
   27.150    1.8115
   27.180    1.7694
   27.210    1.8536
   27.240    1.8957
   27.270    1.7588
   27.300    2.0748
   27.330    1.9905
   27.360    1.7904
   27.390    1.9063
   27.420    1.8747
   27.450    1.7904
   27.480    2.0011
   27.510    1.7378
   27.540    1.8641
   27.570    1.8220
   27.600    1.7588
   27.630    1.8957
   27.660    2.1696
   27.690    1.9695
   27.720    1.6956
   27.750    1.8957
   27.780    1.7483
   27.810    1.9273
   27.840    1.9484
   27.870    1.5798
   27.900    1.7904
   27.930    1.7588
   27.960    1.7272
   27.990    1.9063
   28.020    1.7694
   28.050    1.8009
   28.080    1.9063
   28.110    1.8641
   28.140    2.1064
   28.170    2.0011
   28.200    1.8431
   28.230    1.7483
   28.260    1.8852
   28.290    1.9905
   28.320    1.8536
   28.350    1.9273
   28.380    1.8536
   28.410    1.9800
   28.440    1.9379
   28.470    1.8536
   28.500    1.7483
   28.530    1.7588
   28.560    1.7062
   28.590    1.8852
   28.620    1.6219
   28.650    2.0642
   28.680    1.7062
   28.710    1.7694
   28.740    1.7694
   28.770    1.9379
   28.800    1.8747
   28.830    1.6746
   28.860    1.7167
   28.890    1.7799
   28.920    1.7483
   28.950    1.6430
   28.980    1.9273
   29.010    1.8852
   29.040    1.8431
   29.070    1.6114
   29.100    1.7272
   29.130    1.6746
   29.160    1.7167
   29.190    1.8115
   29.220    1.9589
   29.250    1.7694
   29.280    1.8220
   29.310    2.0221
   29.340    1.7904
   29.370    1.5166
   29.400    1.7799
   29.430    1.5903
   29.460    1.9168
   29.490    1.7378
   29.520    1.8852
   29.550    1.8220
   29.580    1.8957
   29.610    1.6430
   29.640    1.8852
   29.670    1.7378
   29.700    1.7167
   29.730    1.7062
   29.760    1.6746
   29.790    1.8431
   29.820    1.6219
   29.850    1.6746
   29.880    1.7272
   29.910    1.7904
   29.940    1.8325
   29.970    1.6956
   30.000    1.6114
   30.030    1.8115
   30.060    1.8641
   30.090    1.6956
   30.120    1.4534
   30.150    1.7904
   30.180    1.7904
   30.210    1.6851
   30.240    1.6008
   30.270    1.7167
   30.300    1.8957
   30.330    1.6430
   30.360    1.7062
   30.390    1.6324
   30.420    1.8325
   30.450    1.6956
   30.480    1.5798
   30.510    1.6640
   30.540    1.6746
   30.570    1.7378
   30.600    1.5692
   30.630    1.6851
   30.660    1.6956
   30.690    1.6430
   30.720    1.7378
   30.750    1.7694
   30.780    1.7904
   30.810    1.8009
   30.840    1.4745
   30.870    1.7272
   30.900    1.6956
   30.930    1.6114
   30.960    1.5903
   30.990    1.6535
   31.020    1.7904
   31.050    1.6956
   31.080    1.6008
   31.110    1.7062
   31.140    1.6640
   31.170    1.6640
   31.200    1.6956
   31.230    1.5587
   31.260    1.7483
   31.290    1.7062
   31.320    1.6008
   31.350    1.5798
   31.380    1.5903
   31.410    1.5798
   31.440    1.5377
   31.470    1.5377
   31.500    1.7272
   31.530    1.6219
   31.560    1.6746
   31.590    1.5166
   31.620    1.6535
   31.650    1.6851
   31.680    1.5903
   31.710    1.4113
   31.740    1.5903
   31.770    1.6219
   31.800    1.7483
   31.830    1.6956
   31.860    1.6430
   31.890    1.8536
   31.920    1.4639
   31.950    1.4534
   31.980    1.6956
   32.010    1.6535
   32.040    1.5377
   32.070    1.6746
   32.100    1.5482
   32.130    1.7588
   32.160    1.6008
   32.190    1.6640
   32.220    1.6114
   32.250    1.5377
   32.280    1.5903
   32.310    1.5903
   32.340    1.6430
   32.370    1.7062
   32.400    1.5482
   32.430    1.4850
   32.460    1.6535
   32.490    1.6640
   32.520    1.5271
   32.550    1.7062
   32.580    1.6114
   32.610    1.5061
   32.640    1.5271
   32.670    1.4639
   32.700    1.6535
   32.730    1.4955
   32.760    1.5271
   32.790    1.4850
   32.820    1.4639
   32.850    1.6114
   32.880    1.4534
   32.910    1.4323
   32.940    1.4955
   32.970    1.7588
   33.000    1.4639
   33.030    1.3481
   33.060    1.4850
   33.090    1.4745
   33.120    1.4534
   33.150    1.5903
   33.180    1.5903
   33.210    1.2638
   33.240    1.6746
   33.270    1.3691
   33.300    1.4850
   33.330    1.2744
   33.360    1.4323
   33.390    1.3902
   33.420    1.4429
   33.450    1.3270
   33.480    1.6114
   33.510    1.5482
   33.540    1.5377
   33.570    1.4113
   33.600    1.2744
   33.630    1.4639
   33.660    1.5587
   33.690    1.4534
   33.720    1.3270
   33.750    1.5798
   33.780    1.3691
   33.810    1.5166
   33.840    1.3902
   33.870    1.4534
   33.900    1.4850
   33.930    1.4639
   33.960    1.4745
   33.990    1.3797
   34.020    1.3902
   34.050    1.4113
   34.080    1.3586
   34.110    1.4745
   34.140    1.4534
   34.170    1.3375
   34.200    1.4429
   34.230    1.5271
   34.260    1.4745
   34.290    1.3691
   34.320    1.5482
   34.350    1.5061
   34.380    1.3060
   34.410    1.3060
   34.440    1.4429
   34.470    1.2744
   34.500    1.4745
   34.530    1.4429
   34.560    1.2849
   34.590    1.2217
   34.620    1.4639
   34.650    1.4745
   34.680    1.3902
   34.710    1.2322
   34.740    1.4639
   34.770    1.2533
   34.800    1.4850
   34.830    1.2638
   34.860    1.3691
   34.890    1.5166
   34.920    1.2533
   34.950    1.3165
   34.980    1.3797
   35.010    1.3375
   35.040    1.4113
   35.070    1.4323
   35.100    1.3270
   35.130    1.2954
   35.160    1.3270
   35.190    1.3481
   35.220    1.3165
   35.250    1.2533
   35.280    1.2744
   35.310    1.5377
   35.340    1.4007
   35.370    1.1901
   35.400    1.2638
   35.430    1.4218
   35.460    1.2006
   35.490    1.4639
   35.520    1.2744
   35.550    1.4218
   35.580    1.3165
   35.610    1.3375
   35.640    1.3060
   35.670    1.1164
   35.700    1.3797
   35.730    1.1269
   35.760    1.1796
   35.790    1.2744
   35.820    1.0953
   35.850    1.3797
   35.880    1.3481
   35.910    1.2744
   35.940    1.2744
   35.970    1.2428
   36.000    1.3375
   36.030    1.3060
   36.060    1.3691
   36.090    1.2533
   36.120    1.1374
   36.150    1.3691
   36.180    1.0427
   36.210    1.3586
   36.240    1.2954
   36.270    1.3481
   36.300    1.1901
   36.330    1.1058
   36.360    1.2112
   36.390    1.2006
   36.420    1.2322
   36.450    1.2533
   36.480    1.3586
   36.510    1.3165
   36.540    1.1690
   36.570    1.3375
   36.600    1.2533
   36.630    1.3165
   36.660    1.2849
   36.690    1.2006
   36.720    1.1480
   36.750    1.3375
   36.780    1.1796
   36.810    1.1164
   36.840    1.2849
   36.870    1.3060
   36.900    1.0953
   36.930    1.2006
   36.960    1.3270
   36.990    1.2006
   37.020    1.2638
   37.050    1.2006
   37.080    1.3902
   37.110    1.3270
   37.140    1.2322
   37.170    1.2428
   37.200    1.2954
   37.230    1.2217
   37.260    1.1796
   37.290    1.2533
   37.320    1.1374
   37.350    1.0953
   37.380    1.1585
   37.410    1.0111
   37.440    1.1796
   37.470    1.2428
   37.500    1.1585
   37.530    1.2533
   37.560    1.0848
   37.590    0.9900
   37.620    1.2849
   37.650    1.1374
   37.680    1.1796
   37.710    1.0321
   37.740    1.1164
   37.770    0.9900
   37.800    1.1058
   37.830    1.3375
   37.860    1.4113
   37.890    1.1374
   37.920    1.1480
   37.950    1.1901
   37.980    1.1269
   38.010    1.0848
   38.040    1.2744
   38.070    1.2322
   38.100    1.2533
   38.130    1.1269
   38.160    1.2954
   38.190    1.1690
   38.220    1.1164
   38.250    1.2112
   38.280    1.1480
   38.310    1.2006
   38.340    1.1164
   38.370    1.3165
   38.400    1.2006
   38.430    1.3375
   38.460    1.2954
   38.490    1.2006
   38.520    1.1796
   38.550    1.2322
   38.580    1.4323
   38.610    1.2322
   38.640    1.3270
   38.670    1.0321
   38.700    1.1374
   38.730    1.1374
   38.760    1.2533
   38.790    1.2006
   38.820    1.2638
   38.850    1.3270
   38.880    1.3165
   38.910    1.1374
   38.940    1.0637
   38.970    1.2849
   39.000    0.9900
   39.030    1.0953
   39.060    1.2849
   39.090    1.0953
   39.120    1.1480
   39.150    1.1164
   39.180    1.2533
   39.210    1.1901
   39.240    0.9689
   39.270    1.0005
   39.300    1.1690
   39.330    1.1690
   39.360    1.1164
   39.390    1.0953
   39.420    1.2006
   39.450    1.0637
   39.480    1.1796
   39.510    1.0005
   39.540    1.0532
   39.570    1.2533
   39.600    1.2112
   39.630    1.0637
   39.660    1.0637
   39.690    1.1585
   39.720    1.1585
   39.750    1.1585
   39.780    1.0427
   39.810    1.1164
   39.840    1.1796
   39.870    1.0637
   39.900    1.2428
   39.930    1.1480
   39.960    1.1901
   39.990    1.0216