File: data/MOCOF-1/PXRD/PXRD_KE-135_Cu-Ka1_capillary-1mm_5s-deg.xyd
    1.500   18.5571
    1.530   18.2833
    1.560   17.7883
    1.590   17.9463
    1.620   17.5671
    1.650   17.4513
    1.680   17.3565
    1.710   16.6087
    1.740   17.2301
    1.770   16.3244
    1.800   16.2612
    1.830   16.2612
    1.860   16.6614
    1.890   15.9136
    1.920   16.3244
    1.950   15.7241
    1.980   16.1348
    2.010   16.3665
    2.040   15.7030
    2.070   15.6293
    2.100   15.9136
    2.130   16.3876
    2.160   15.3765
    2.190   15.6503
    2.220   16.1664
    2.250   15.7451
    2.280   16.8299
    2.310   16.6087
    2.340   16.9984
    2.370   16.6825
    2.400   17.4618
    2.430   16.7983
    2.460   17.3776
    2.490   17.9463
    2.520   17.1037
    2.550   18.4623
    2.580   18.6519
    2.610   19.6103
    2.640   19.9789
    2.670   20.9268
    2.700   21.5903
    2.730   21.2006
    2.760   22.1696
    2.790   24.0021
    2.820   24.3707
    2.850   25.2238
    2.880   26.5824
    2.910   27.0669
    2.940   28.7941
    2.970   29.3312
    3.000   31.5956
    3.030   33.8073
    3.060   35.6187
    3.090   38.2306
    3.120   39.7788
    3.150   43.5387
    3.180   47.2038
    3.210   50.5529
    3.240   53.7651
    3.270   59.4313
    3.300   65.2975
    3.330   72.7120
    3.360   81.0953
    3.390   90.8268
    3.420  101.9589
    3.450  107.8884
    3.480  103.4123
    3.510   90.4687
    3.540   71.7746
    3.570   54.3339
    3.600   44.8552
    3.630   38.7046
    3.660   36.9668
    3.690   35.8820
    3.720   35.9452
    3.750   34.9868
    3.780   36.6403
    3.810   37.0300
    3.840   37.7988
    3.870   40.0737
    3.900   41.4850
    3.930   43.1806
    3.960   43.7493
    3.990   45.3397
    4.020   44.9078
    4.050   45.2554
    4.080   44.3391
    4.110   42.9805
    4.140   40.3370
    4.170   38.9784
    4.200   34.9763
    4.230   31.4481
    4.260   27.2986
    4.290   24.6235
    4.320   21.1585
    4.350   18.8942
    4.380   16.4824
    4.410   14.7867
    4.440   13.5334
    4.470   11.8694
    4.500   11.2375
    4.530   10.4897
    4.560    9.7630
    4.590    8.7098
    4.620    9.1101
    4.650    8.5729
    4.680    8.5835
    4.710    8.1517
    4.740    8.0779
    4.770    8.1306
    4.800    7.8989
    4.830    7.5829
    4.860    7.4355
    4.890    7.0669
    4.920    7.3828
    4.950    6.9194
    4.980    6.8246
    5.010    6.8352
    5.040    7.0458
    5.070    6.9405
    5.100    6.9089
    5.130    6.5403
    5.160    6.6877
    5.190    6.4876
    5.220    6.5087
    5.250    6.6140
    5.280    6.4666
    5.310    6.8246
    5.340    6.4244
    5.370    6.4982
    5.400    6.5824
    5.430    6.5403
    5.460    6.2875
    5.490    6.3823
    5.520    6.0664
    5.550    6.3402
    5.580    5.8557
    5.610    6.1611
    5.640    5.8978
    5.670    5.6556
    5.700    5.8347
    5.730    5.9400
    5.760    6.2033
    5.790    5.7715
    5.820    5.8978
    5.850    5.7399
    5.880    6.0664
    5.910    5.6345
    5.940    5.9084
    5.970    5.9400
    6.000    5.5082
    6.030    6.1611
    6.060    5.9189
    6.090    5.9821
    6.120    5.5608
    6.150    5.5924
    6.180    6.3402
    6.210    6.1085
    6.240    5.8768
    6.270    6.1506
    6.300    6.1401
    6.330    6.1190
    6.360    6.3086
    6.390    6.1611
    6.420    6.3086
    6.450    6.9932
    6.480    6.6667
    6.510    6.9510
    6.540    6.5087
    6.570    6.9089
    6.600    7.4144
    6.630    7.5935
    6.660    8.0147
    6.690    8.1201
    6.720    8.5097
    6.750    8.9837
    6.780    9.4892
    6.810   10.0369
    6.840   11.3639
    6.870   12.2170
    6.900   12.8805
    6.930   15.0079
    6.960   15.1343
    6.990   14.0811
    7.020   13.1648
    7.050   10.9847
    7.080    9.3418
    7.110    8.5308
    7.140    7.7093
    7.170    7.3196
    7.200    6.7930
    7.230    6.7930
    7.260    6.6877
    7.290    6.4139
    7.320    6.6035
    7.350    6.7088
    7.380    6.4139
    7.410    6.2875
    7.440    6.4982
    7.470    7.0669
    7.500    6.9721
    7.530    7.2038
    7.560    6.7299
    7.590    6.6983
    7.620    7.0248
    7.650    6.9616
    7.680    7.0669
    7.710    7.0353
    7.740    7.1617
    7.770    7.6356
    7.800    7.2565
    7.830    7.5724
    7.860    7.5303
    7.890    7.7199
    7.920    7.6567
    7.950    8.3623
    7.980    8.3518
    8.010    8.0990
    8.040    8.7309
    8.070    8.3202
    8.100    8.7941
    8.130    8.3623
    8.160    8.1622
    8.190    8.6888
    8.220    9.0995
    8.250    8.9731
    8.280    8.5413
    8.310    9.0363
    8.340    8.4992
    8.370    8.8889
    8.400    8.4887
    8.430    8.0358
    8.460    7.7620
    8.490    7.8146
    8.520    7.8041
    8.550    7.4460
    8.580    7.9831
    8.610    7.4039
    8.640    7.0458
    8.670    6.5719
    8.700    6.7615
    8.730    6.8878
    8.760    6.0979
    8.790    6.3296
    8.820    6.2875
    8.850    6.0558
    8.880    5.9294
    8.910    5.8662
    8.940    5.6977
    8.970    6.2138
    9.000    5.6872
    9.030    5.7715
    9.060    5.8241
    9.090    5.5924
    9.120    5.8031
    9.150    5.8662
    9.180    6.0032
    9.210    5.5187
    9.240    5.7188
    9.270    5.8873
    9.300    5.6135
    9.330    5.6451
    9.360    5.8557
    9.390    5.8031
    9.420    5.6872
    9.450    5.6135
    9.480    5.6767
    9.510    5.6135
    9.540    5.3818
    9.570    5.5924
    9.600    5.3186
    9.630    5.2870
    9.660    5.1817
    9.690    5.6977
    9.720    5.2765
    9.750    5.7083
    9.780    5.3291
    9.810    5.4660
    9.840    5.4766
    9.870    5.3081
    9.900    5.3923
    9.930    5.6029
    9.960    5.5924
    9.990    5.5503
   10.020    5.2975
   10.050    5.4028
   10.080    5.7820
   10.110    5.3923
   10.140    5.5924
   10.170    5.3397
   10.200    5.3291
   10.230    5.7820
   10.260    6.0664
   10.290    5.2343
   10.320    5.9926
   10.350    5.7399
   10.380    5.7609
   10.410    6.2981
   10.440    5.6135
   10.470    5.9716
   10.500    5.8031
   10.530    5.6767
   10.560    5.8662
   10.590    5.7925
   10.620    5.8557
   10.650    5.0026
   10.680    5.6135
   10.710    5.3818
   10.740    5.4028
   10.770    5.5398
   10.800    5.4555
   10.830    5.6556
   10.860    5.4344
   10.890    5.4028
   10.920    5.3186
   10.950    5.5819
   10.980    5.2659
   11.010    5.5292
   11.040    5.4766
   11.070    4.9605
   11.100    5.3607
   11.130    5.4344
   11.160    5.5292
   11.190    5.4450
   11.220    5.2238
   11.250    5.4555
   11.280    5.3607
   11.310    5.2975
   11.340    5.2449
   11.370    5.3081
   11.400    5.3291
   11.430    5.6451
   11.460    5.6872
   11.490    5.4344
   11.520    5.3081
   11.550    5.5608
   11.580    5.3607
   11.610    5.6661
   11.640    5.7188
   11.670    5.1922
   11.700    5.3502
   11.730    5.4660
   11.760    5.8347
   11.790    5.6661
   11.820    5.6345
   11.850    5.7504
   11.880    5.8768
   11.910    5.6135
   11.940    5.7504
   11.970    5.9189
   12.000    5.6451
   12.030    5.6451
   12.060    5.7925
   12.090    5.9610
   12.120    5.4134
   12.150    5.4766
   12.180    5.6977
   12.210    5.9084
   12.240    5.6977
   12.270    5.8662
   12.300    5.5924
   12.330    5.7820
   12.360    5.6872
   12.390    5.7399
   12.420    5.5398
   12.450    5.9084
   12.480    5.7820
   12.510    5.4555
   12.540    5.8768
   12.570    6.2243
   12.600    5.4555
   12.630    6.0137
   12.660    5.4660
   12.690    5.5714
   12.720    5.4028
   12.750    6.0453
   12.780    5.7820
   12.810    5.5082
   12.840    5.9610
   12.870    6.0348
   12.900    5.8452
   12.930    5.3502
   12.960    5.8662
   12.990    5.3923
   13.020    5.4344
   13.050    5.5924
   13.080    5.6240
   13.110    5.3502
   13.140    5.7925
   13.170    5.2133
   13.200    5.6451
   13.230    5.5187
   13.260    5.4028
   13.290    5.6872
   13.320    5.7609
   13.350    5.6661
   13.380    5.4134
   13.410    5.6872
   13.440    5.3502
   13.470    5.4450
   13.500    5.5082
   13.530    5.7399
   13.560    5.4555
   13.590    5.5714
   13.620    5.3291
   13.650    5.5503
   13.680    5.4976
   13.710    5.5292
   13.740    5.6345
   13.770    5.5187
   13.800    5.5292
   13.830    5.5187
   13.860    5.6345
   13.890    5.2133
   13.920    5.2343
   13.950    5.4555
   13.980    5.4555
   14.010    5.5398
   14.040    5.4028
   14.070    5.0658
   14.100    5.3818
   14.130    5.7293
   14.160    5.0237
   14.190    5.4450
   14.220    5.2765
   14.250    5.6029
   14.280    5.1817
   14.310    5.0237
   14.340    5.5082
   14.370    5.5187
   14.400    4.9816
   14.430    5.1185
   14.460    5.5608
   14.490    5.5819
   14.520    5.1711
   14.550    5.0764
   14.580    5.2133
   14.610    5.2133
   14.640    5.2449
   14.670    5.3291
   14.700    5.3502
   14.730    5.1501
   14.760    5.0026
   14.790    5.3502
   14.820    5.0132
   14.850    5.2870
   14.880    5.3397
   14.910    5.1185
   14.940    5.2975
   14.970    5.2133
   15.000    5.4028
   15.030    5.3923
   15.060    5.0869
   15.090    5.2133
   15.120    5.2449
   15.150    5.0553
   15.180    5.2238
   15.210    5.2975
   15.240    5.4871
   15.270    5.3081
   15.300    5.2027
   15.330    5.2554
   15.360    5.4134
   15.390    5.4976
   15.420    5.2765
   15.450    5.4660
   15.480    5.2870
   15.510    5.5082
   15.540    5.4028
   15.570    5.1606
   15.600    5.2870
   15.630    5.1817
   15.660    5.5082
   15.690    5.4450
   15.720    5.2027
   15.750    5.3607
   15.780    5.1817
   15.810    5.5082
   15.840    5.2133
   15.870    5.5082
   15.900    5.3923
   15.930    5.5187
   15.960    5.3291
   15.990    5.2133
   16.020    5.5082
   16.050    5.1080
   16.080    5.4028
   16.110    5.4239
   16.140    5.4450
   16.170    5.3081
   16.200    5.5819
   16.230    5.1080
   16.260    5.2449
   16.290    5.3291
   16.320    5.0553
   16.350    5.2133
   16.380    5.6135
   16.410    5.1606
   16.440    5.5819
   16.470    5.1922
   16.500    5.7083
   16.530    5.5714
   16.560    5.1606
   16.590    5.2449
   16.620    5.3186
   16.650    5.4028
   16.680    4.9184
   16.710    5.3397
   16.740    5.3607
   16.770    4.9289
   16.800    5.0658
   16.830    5.1501
   16.860    5.0132
   16.890    5.2765
   16.920    5.3502
   16.950    5.2027
   16.980    5.0026
   17.010    5.3502
   17.040    4.8447
   17.070    4.7604
   17.100    5.3081
   17.130    5.3818
   17.160    5.0237
   17.190    5.2975
   17.220    5.2449
   17.250    5.2765
   17.280    5.4239
   17.310    5.1395
   17.340    5.4239
   17.370    5.4766
   17.400    5.4555
   17.430    5.3291
   17.460    5.1395
   17.490    5.2027
   17.520    5.4239
   17.550    5.4976
   17.580    5.1606
   17.610    5.1080
   17.640    5.4450
   17.670    5.6661
   17.700    5.4871
   17.730    5.2449
   17.760    5.6240
   17.790    5.3923
   17.820    5.3923
   17.850    5.3712
   17.880    5.2554
   17.910    5.2659
   17.940    5.2554
   17.970    5.3818
   18.000    5.1395
   18.030    5.0764
   18.060    5.2870
   18.090    5.2975
   18.120    5.4344
   18.150    5.3923
   18.180    5.7188
   18.210    5.0869
   18.240    5.4028
   18.270    5.3186
   18.300    5.1711
   18.330    5.4344
   18.360    5.4344
   18.390    5.4134
   18.420    5.4028
   18.450    5.1817
   18.480    5.0132
   18.510    5.1922
   18.540    5.3081
   18.570    5.6029
   18.600    5.4976
   18.630    5.3081
   18.660    5.1606
   18.690    5.3818
   18.720    5.6977
   18.750    5.6029
   18.780    5.2238
   18.810    5.4028
   18.840    5.5292
   18.870    5.4871
   18.900    5.9294
   18.930    5.9084
   18.960    6.1717
   18.990    6.3191
   19.020    6.3402
   19.050    5.9400
   19.080    5.7820
   19.110    5.7293
   19.140    5.4555
   19.170    5.6977
   19.200    5.3291
   19.230    5.4660
   19.260    5.5924
   19.290    5.3397
   19.320    5.6661
   19.350    5.7293
   19.380    5.8136
   19.410    5.4976
   19.440    5.5608
   19.470    5.6661
   19.500    5.8452
   19.530    5.6556
   19.560    6.0137
   19.590    5.1922
   19.620    6.0348
   19.650    5.6451
   19.680    5.6556
   19.710    5.7293
   19.740    5.8452
   19.770    5.7504
   19.800    5.5714
   19.830    5.9610
   19.860    6.2349
   19.890    5.5082
   19.920    5.9716
   19.950    5.6240
   19.980    5.4450
   20.010    5.6135
   20.040    5.5292
   20.070    5.8136
   20.100    5.9189
   20.130    5.8768
   20.160    5.5819
   20.190    5.9084
   20.220    5.7293
   20.250    6.1085
   20.280    5.9821
   20.310    5.8557
   20.340    5.8768
   20.370    5.4344
   20.400    5.7504
   20.430    6.0979
   20.460    5.6661
   20.490    5.7083
   20.520    5.9189
   20.550    5.7504
   20.580    5.7083
   20.610    5.5924
   20.640    5.3186
   20.670    5.8557
   20.700    5.7399
   20.730    5.6556
   20.760    5.9926
   20.790    5.6556
   20.820    5.9926
   20.850    5.6977
   20.880    6.2665
   20.910    5.8978
   20.940    6.1401
   20.970    5.8241
   21.000    5.8347
   21.030    5.7925
   21.060    5.9926
   21.090    5.4976
   21.120    5.6240
   21.150    5.7399
   21.180    5.4555
   21.210    5.5714
   21.240    5.8241
   21.270    5.9505
   21.300    5.7399
   21.330    5.6661
   21.360    5.8241
   21.390    6.0242
   21.420    5.6135
   21.450    5.9505
   21.480    5.9189
   21.510    5.8452
   21.540    6.0769
   21.570    5.4766
   21.600    6.0453
   21.630    5.8241
   21.660    5.7925
   21.690    6.2875
   21.720    5.4766
   21.750    5.7293
   21.780    5.8662
   21.810    5.6767
   21.840    5.8452
   21.870    5.7715
   21.900    6.1506
   21.930    6.0979
   21.960    5.9084
   21.990    5.7925
   22.020    5.9400
   22.050    6.0348
   22.080    5.6872
   22.110    5.7188
   22.140    5.7504
   22.170    5.8241
   22.200    5.6240
   22.230    5.7715
   22.260    5.8031
   22.290    6.0664
   22.320    5.6661
   22.350    5.6661
   22.380    5.9821
   22.410    5.9505
   22.440    5.4028
   22.470    5.7609
   22.500    5.6029
   22.530    6.1717
   22.560    6.1927
   22.590    5.8452
   22.620    5.6240
   22.650    5.7083
   22.680    5.7293
   22.710    5.8347
   22.740    6.0453
   22.770    5.9084
   22.800    5.9610
   22.830    5.5398
   22.860    5.7609
   22.890    5.7820
   22.920    5.7504
   22.950    5.5292
   22.980    5.7083
   23.010    5.5608
   23.040    5.6977
   23.070    5.6240
   23.100    6.0032
   23.130    6.1190
   23.160    6.1190
   23.190    5.5924
   23.220    5.6029
   23.250    6.1611
   23.280    5.2659
   23.310    5.4028
   23.340    5.6767
   23.370    5.7715
   23.400    5.3397
   23.430    5.5819
   23.460    6.0558
   23.490    5.6661
   23.520    6.0032
   23.550    5.2765
   23.580    5.3818
   23.610    5.5608
   23.640    5.5819
   23.670    5.8347
   23.700    5.3607
   23.730    5.8136
   23.760    5.3397
   23.790    5.4239
   23.820    5.4134
   23.850    5.2765
   23.880    5.8452
   23.910    5.7083
   23.940    5.5503
   23.970    5.4766
   24.000    5.9189
   24.030    5.7293
   24.060    5.2975
   24.090    5.6135
   24.120    5.4871
   24.150    5.8978
   24.180    5.6345
   24.210    5.6029
   24.240    5.3923
   24.270    5.1817
   24.300    5.4766
   24.330    5.5924
   24.360    5.0869
   24.390    5.3712
   24.420    5.5503
   24.450    5.5819
   24.480    5.3502
   24.510    5.1922
   24.540    5.5082
   24.570    5.5924
   24.600    5.7820
   24.630    5.6556
   24.660    5.4028
   24.690    5.5924
   24.720    5.9821
   24.750    5.2027
   24.780    5.7293
   24.810    5.0553
   24.840    5.2659
   24.870    5.4976
   24.900    5.5187
   24.930    5.3186
   24.960    5.3818
   24.990    5.4766
   25.020    5.3502
   25.050    5.1290
   25.080    5.0448
   25.110    5.5082
   25.140    5.0974
   25.170    4.7077
   25.200    5.3081
   25.230    5.3712
   25.260    5.1711
   25.290    5.1185
   25.320    5.4766
   25.350    5.3607
   25.380    5.3081
   25.410    5.5714
   25.440    5.1711
   25.470    5.0448
   25.500    5.4976
   25.530    5.5714
   25.560    5.4976
   25.590    5.5292
   25.620    5.4871
   25.650    5.0026
   25.680    5.3291
   25.710    5.1711
   25.740    5.4450
   25.770    5.2554
   25.800    5.3397
   25.830    5.1501
   25.860    5.3923
   25.890    5.1817
   25.920    5.2027
   25.950    5.1290
   25.980    5.2133
   26.010    5.0553
   26.040    4.8657
   26.070    5.1395
   26.100    5.0974
   26.130    5.1501
   26.160    5.4766
   26.190    5.3081
   26.220    5.4976
   26.250    5.1711
   26.280    5.0869
   26.310    4.9710
   26.340    5.3818
   26.370    5.2027
   26.400    5.2133
   26.430    5.1185
   26.460    5.1922
   26.490    5.1817
   26.520    5.2554
   26.550    5.2027
   26.580    5.0658
   26.610    5.4555
   26.640    5.0448
   26.670    5.1501
   26.700    4.9184
   26.730    4.7183
   26.760    4.6130
   26.790    5.1606
   26.820    5.2343
   26.850    4.9605
   26.880    4.9710
   26.910    4.8868
   26.940    4.9289
   26.970    5.0658
   27.000    5.1080
   27.030    4.7604
   27.060    4.8763
   27.090    5.2027
   27.120    4.8868
   27.150    4.9710
   27.180    5.0869
   27.210    4.9184
   27.240    5.1080
   27.270    5.2554
   27.300    4.8763
   27.330    4.6761
   27.360    5.0026
   27.390    5.1185
   27.420    4.9710
   27.450    4.7393
   27.480    4.8552
   27.510    4.8868
   27.540    4.6972
   27.570    5.1080
   27.600    4.9500
   27.630    4.8447
   27.660    4.7920
   27.690    5.2765
   27.720    5.1395
   27.750    4.9078
   27.780    4.6972
   27.810    5.0342
   27.840    4.8341
   27.870    4.8973
   27.900    5.0974
   27.930    5.0237
   27.960    5.5503
   27.990    5.6556
   28.020    5.5503
   28.050    5.1922
   28.080    5.1080
   28.110    5.0448
   28.140    4.6340
   28.170    5.0342
   28.200    4.7815
   28.230    4.8025
   28.260    4.9184
   28.290    5.0448
   28.320    4.9816
   28.350    5.0553
   28.380    5.5714
   28.410    4.8657
   28.440    5.1817
   28.470    4.7815
   28.500    5.0132
   28.530    5.3712
   28.560    5.1922
   28.590    4.8657
   28.620    5.0342
   28.650    4.9184
   28.680    4.9394
   28.710    4.9500
   28.740    5.0448
   28.770    4.9921
   28.800    4.8025
   28.830    4.9394
   28.860    4.7604
   28.890    4.9078
   28.920    5.1290
   28.950    5.4450
   28.980    5.4028
   29.010    5.8241
   29.040    4.9921
   29.070    5.1711
   29.100    4.6235
   29.130    4.8131
   29.160    4.7183
   29.190    4.6972
   29.220    4.9605
   29.250    4.9710
   29.280    5.0974
   29.310    4.9500
   29.340    5.4239
   29.370    5.2870
   29.400    5.7609
   29.430    5.0026
   29.460    5.0026
   29.490    4.8131
   29.520    4.8236
   29.550    5.0658
   29.580    4.9289
   29.610    4.6445
   29.640    4.5919
   29.670    4.8025
   29.700    4.7709
   29.730    4.4866
   29.760    4.8236
   29.790    4.5498
   29.820    4.5392
   29.850    4.5182
   29.880    4.8657
   29.910    5.0342
   29.940    4.6761
   29.970    4.5603
   30.000    4.6761
   30.030    4.5498
   30.060    4.5498
   30.090    4.5076
   30.120    4.6972
   30.150    4.3918
   30.180    4.4128
   30.210    5.0132
   30.240    4.6445
   30.270    4.9605
   30.300    4.5182
   30.330    4.4655
   30.360    4.7288
   30.390    4.8973
   30.420    4.6340
   30.450    4.3497
   30.480    4.4550
   30.510    4.5182
   30.540    4.3813
   30.570    4.4339
   30.600    4.7288
   30.630    4.3707
   30.660    4.6656
   30.690    4.6235
   30.720    4.4444
   30.750    4.4444
   30.780    4.3813
   30.810    4.6867
   30.840    4.4550
   30.870    4.6551
   30.900    4.4339
   30.930    4.2654
   30.960    4.7077
   30.990    4.1811
   31.020    4.7077
   31.050    4.4550
   31.080    4.6340
   31.110    4.4339
   31.140    4.6024
   31.170    4.6867
   31.200    4.6340
   31.230    4.5498
   31.260    4.8236
   31.290    4.1496
   31.320    4.5182
   31.350    4.4760
   31.380    4.3075
   31.410    4.8973
   31.440    4.8131
   31.470    4.8131
   31.500    4.5076
   31.530    4.5392
   31.560    4.5182
   31.590    4.2654
   31.620    4.7709
   31.650    4.5392
   31.680    4.7183
   31.710    4.6551
   31.740    4.8025
   31.770    5.0869
   31.800    4.6551
   31.830    4.8868
   31.860    4.7077
   31.890    4.6656
   31.920    5.0658
   31.950    4.5182
   31.980    4.5814
   32.010    4.8131
   32.040    5.3081
   32.070    5.8768
   32.100    5.8768
   32.130    5.8452
   32.160    5.5819
   32.190    4.9500
   32.220    4.6024
   32.250    4.5919
   32.280    4.0548
   32.310    4.4339
   32.340    4.3391
   32.370    4.2549
   32.400    4.4128
   32.430    4.3813
   32.460    4.3075
   32.490    4.4866
   32.520    4.1496
   32.550    4.4550
   32.580    4.4023
   32.610    4.3918
   32.640    4.0758
   32.670    4.3286
   32.700    4.4866
   32.730    4.3075
   32.760    4.6972
   32.790    4.5708
   32.820    4.1811
   32.850    4.3181
   32.880    4.1180
   32.910    4.2338
   32.940    4.4234
   32.970    4.0653
   33.000    4.4023
   33.030    4.4444
   33.060    4.2654
   33.090    3.9600
   33.120    4.4339
   33.150    4.1496
   33.180    4.3286
   33.210    4.1285
   33.240    4.3075
   33.270    4.1285
   33.300    3.8968
   33.330    4.2549
   33.360    4.1811
   33.390    4.1390
   33.420    4.3918
   33.450    4.2443
   33.480    4.1601
   33.510    4.2127
   33.540    3.9705
   33.570    4.1074
   33.600    3.8231
   33.630    3.8125
   33.660    4.4444
   33.690    4.1074
   33.720    4.6235
   33.750    4.4444
   33.780    4.4655
   33.810    4.6867
   33.840    4.7499
   33.870    4.3286
   33.900    4.7604
   33.930    4.2127
   33.960    4.1917
   33.990    4.5708
   34.020    4.1917
   34.050    4.2654
   34.080    4.2127
   34.110    4.1601
   34.140    4.0337
   34.170    3.9600
   34.200    4.2022
   34.230    4.0864
   34.260    3.7599
   34.290    4.2443
   34.320    3.8336
   34.350    3.8863
   34.380    4.2865
   34.410    4.1285
   34.440    3.9494
   34.470    3.9916
   34.500    3.9284
   34.530    3.9600
   34.560    4.2233
   34.590    4.1180
   34.620    3.7915
   34.650    4.2338
   34.680    4.0337
   34.710    3.9179
   34.740    4.0126
   34.770    3.8441
   34.800    3.9179
   34.830    4.2759
   34.860    4.2127
   34.890    3.8652
   34.920    3.7493
   34.950    3.8757
   34.980    4.4444
   35.010    4.1601
   35.040    4.2970
   35.070    4.1811
   35.100    3.7599
   35.130    4.2233
   35.160    3.9810
   35.190    3.8652
   35.220    4.2127
   35.250    3.9179
   35.280    3.8441
   35.310    3.6756
   35.340    4.0548
   35.370    4.2338
   35.400    3.7177
   35.430    4.0864
   35.460    3.8441
   35.490    3.8652
   35.520    3.8125
   35.550    4.0864
   35.580    4.0653
   35.610    3.9705
   35.640    3.5387
   35.670    3.7493
   35.700    3.8441
   35.730    4.0864
   35.760    3.8757
   35.790    3.7809
   35.820    4.0337
   35.850    3.8968
   35.880    3.9073
   35.910    4.0232
   35.940    4.0021
   35.970    3.7177
   36.000    4.1074
   36.030    3.8652
   36.060    4.0442
   36.090    3.9073
   36.120    3.7704
   36.150    3.7915
   36.180    3.7704
   36.210    3.8231
   36.240    3.6756
   36.270    3.6230
   36.300    3.6756
   36.330    3.5282
   36.360    3.6967
   36.390    3.7915
   36.420    3.9600
   36.450    3.5703
   36.480    3.7493
   36.510    3.8336
   36.540    3.9179
   36.570    3.7599
   36.600    3.6335
   36.630    3.7704
   36.660    3.7599
   36.690    3.8441
   36.720    3.5914
   36.750    3.6651
   36.780    3.7493
   36.810    3.7072
   36.840    3.8652
   36.870    3.8020
   36.900    3.6124
   36.930    3.8231
   36.960    3.3702
   36.990    3.6440
   37.020    3.3597
   37.050    3.9705
   37.080    3.8547
   37.110    3.7388
   37.140    3.6546
   37.170    3.7915
   37.200    3.7283
   37.230    3.4229
   37.260    3.7072
   37.290    3.5914
   37.320    3.7177
   37.350    3.7915
   37.380    3.9494
   37.410    4.0548
   37.440    3.8020
   37.470    3.6967
   37.500    3.8125
   37.530    3.6124
   37.560    3.6335
   37.590    3.4966
   37.620    3.4544
   37.650    3.5808
   37.680    3.5914
   37.710    3.9705
   37.740    3.5176
   37.770    3.6651
   37.800    3.5282
   37.830    3.4860
   37.860    3.9916
   37.890    3.5282
   37.920    3.6440
   37.950    3.6230
   37.980    3.7072
   38.010    3.8020
   38.040    3.4439
   38.070    3.4650
   38.100    3.8441
   38.130    3.4966
   38.160    3.5387
   38.190    3.9600
   38.220    3.3597
   38.250    3.5914
   38.280    3.6019
   38.310    3.6651
   38.340    3.4018
   38.370    3.7283
   38.400    3.6651
   38.430    3.7283
   38.460    3.6756
   38.490    3.8757
   38.520    3.6651
   38.550    3.7704
   38.580    4.2443
   38.610    3.9389
   38.640    3.6862
   38.670    3.9179
   38.700    3.4123
   38.730    3.6862
   38.760    3.3175
   38.790    3.6440
   38.820    3.4966
   38.850    3.8757
   38.880    3.7704
   38.910    3.8231
   38.940    3.6335
   38.970    3.6230
   39.000    3.5598
   39.030    3.6019
   39.060    3.6967
   39.090    3.3913
   39.120    3.7177
   39.150    3.5387
   39.180    3.7283
   39.210    3.7493
   39.240    3.8652
   39.270    3.6546
   39.300    3.7072
   39.330    3.8231
   39.360    3.7915
   39.390    3.9916
   39.420    3.8336
   39.450    3.8441
   39.480    3.6019
   39.510    3.7177
   39.540    3.7072
   39.570    3.6230
   39.600    3.5492
   39.630    3.2965
   39.660    3.6440
   39.690    3.7072
   39.720    3.4334
   39.750    3.7493
   39.780    3.5071
   39.810    3.8441
   39.840    3.7072
   39.870    3.4544
   39.900    3.8125
   39.930    3.6335
   39.960    3.7599
   39.990    3.4755