File: data/MOCOF-1/PXRD/PXRD_KE-091_Cu-Ka1_capillary-1mm_5s-deg.xyd
    1.500   31.5219
    1.530   31.1954
    1.560   30.3002
    1.590   29.1522
    1.620   28.3728
    1.650   28.2149
    1.680   26.9194
    1.710   25.5398
    1.740   25.0342
    1.770   22.9068
    1.800   22.6646
    1.830   22.7488
    1.860   21.2006
    1.890   20.8215
    1.920   20.7162
    1.950   20.3686
    1.980   19.3997
    2.010   19.0627
    2.040   19.0416
    2.070   18.6098
    2.100   18.1780
    2.130   17.6725
    2.160   17.3881
    2.190   16.9668
    2.220   17.4513
    2.250   16.8510
    2.280   16.7562
    2.310   16.3665
    2.340   16.1243
    2.370   16.2823
    2.400   16.3033
    2.430   16.2507
    2.460   15.8610
    2.490   15.2712
    2.520   16.0084
    2.550   15.7030
    2.580   16.0084
    2.610   16.5456
    2.640   15.9558
    2.670   16.3665
    2.700   16.2296
    2.730   16.2401
    2.760   17.0405
    2.790   16.2296
    2.820   17.4724
    2.850   17.1775
    2.880   17.8726
    2.910   17.9989
    2.940   19.2312
    2.970   19.5261
    3.000   20.2422
    3.030   20.4950
    3.060   21.7272
    3.090   21.5587
    3.120   22.7383
    3.150   24.2654
    3.180   25.9400
    3.210   27.3091
    3.240   28.2886
    3.270   29.6367
    3.300   30.7741
    3.330   32.3539
    3.360   32.9331
    3.390   34.8183
    3.420   33.2280
    3.450   33.0806
    3.480   32.3539
    3.510   30.3423
    3.540   28.5519
    3.570   26.4560
    3.600   24.1601
    3.630   21.6746
    3.660   20.2422
    3.690   18.4939
    3.720   16.9984
    3.750   16.6087
    3.780   16.0821
    3.810   15.0500
    3.840   15.0606
    3.870   15.7557
    3.900   15.8294
    3.930   15.3449
    3.960   16.0821
    3.990   15.6082
    4.020   17.2407
    4.050   17.1248
    4.080   18.2096
    4.110   18.7256
    4.140   19.0837
    4.170   19.6946
    4.200   20.2738
    4.230   20.5266
    4.260   20.2212
    4.290   20.2949
    4.320   19.3576
    4.350   17.9674
    4.380   16.5561
    4.410   15.4397
    4.440   13.6388
    4.470   12.8805
    4.500   11.3112
    4.530   10.7741
    4.560   10.0158
    4.590    8.9310
    4.620    8.2149
    4.650    8.0042
    4.680    7.5197
    4.710    7.2143
    4.740    7.2459
    4.770    6.8773
    4.800    6.4034
    4.830    6.4455
    4.860    6.5719
    4.890    5.8978
    4.920    5.5714
    4.950    5.8768
    4.980    5.4028
    5.010    5.8978
    5.040    5.6556
    5.070    5.1922
    5.100    5.4450
    5.130    5.5082
    5.160    5.4239
    5.190    5.3291
    5.220    4.9605
    5.250    5.0026
    5.280    5.5398
    5.310    5.0658
    5.340    5.2870
    5.370    5.5292
    5.400    5.3186
    5.430    5.3818
    5.460    5.0132
    5.490    5.4660
    5.520    4.9289
    5.550    5.2027
    5.580    5.3607
    5.610    5.0237
    5.640    5.2343
    5.670    4.8763
    5.700    4.7815
    5.730    5.0342
    5.760    5.0553
    5.790    4.9816
    5.820    4.9078
    5.850    4.7288
    5.880    4.6656
    5.910    4.8973
    5.940    4.6656
    5.970    4.4760
    6.000    4.9394
    6.030    4.9289
    6.060    4.8657
    6.090    4.7183
    6.120    4.8236
    6.150    4.9500
    6.180    4.5287
    6.210    4.5287
    6.240    4.6445
    6.270    4.7709
    6.300    4.9078
    6.330    4.5392
    6.360    4.9605
    6.390    5.0974
    6.420    5.2765
    6.450    5.0553
    6.480    5.2870
    6.510    5.2765
    6.540    5.2449
    6.570    5.4239
    6.600    5.4976
    6.630    5.9505
    6.660    5.8873
    6.690    6.1506
    6.720    6.3928
    6.750    6.7615
    6.780    6.8141
    6.810    7.1090
    6.840    7.7514
    6.870    8.2254
    6.900    8.4150
    6.930    8.5835
    6.960    8.4150
    6.990    8.0253
    7.020    8.2675
    7.050    7.7830
    7.080    7.2459
    7.110    7.0142
    7.140    6.6245
    7.170    6.0032
    7.200    5.9926
    7.230    5.5819
    7.260    5.4450
    7.290    5.1606
    7.320    5.3923
    7.350    4.9921
    7.380    5.1501
    7.410    5.0974
    7.440    4.8236
    7.470    4.8447
    7.500    4.7815
    7.530    4.6761
    7.560    4.4444
    7.590    4.5814
    7.620    4.3181
    7.650    4.4866
    7.680    4.4339
    7.710    4.6656
    7.740    4.3813
    7.770    4.6656
    7.800    4.3918
    7.830    4.7077
    7.860    4.6340
    7.890    5.0658
    7.920    5.0448
    7.950    4.8973
    7.980    4.8763
    8.010    4.6445
    8.040    4.5498
    8.070    4.7815
    8.100    4.6867
    8.130    4.7077
    8.160    4.7709
    8.190    4.9394
    8.220    4.7393
    8.250    4.9500
    8.280    5.0553
    8.310    5.3712
    8.340    5.3186
    8.370    5.6135
    8.400    5.8452
    8.430    5.9821
    8.460    5.6872
    8.490    6.1295
    8.520    6.0137
    8.550    6.1927
    8.580    6.3191
    8.610    6.1822
    8.640    5.8768
    8.670    6.2981
    8.700    6.2138
    8.730    6.4666
    8.760    5.9821
    8.790    5.6767
    8.820    5.8136
    8.850    5.5714
    8.880    5.3923
    8.910    5.5292
    8.940    5.3291
    8.970    5.0658
    9.000    4.6340
    9.030    4.8868
    9.060    4.9500
    9.090    4.5498
    9.120    4.6235
    9.150    4.7604
    9.180    4.5182
    9.210    4.2338
    9.240    4.1180
    9.270    4.3286
    9.300    4.2022
    9.330    4.0653
    9.360    4.0653
    9.390    4.4550
    9.420    4.0969
    9.450    4.0864
    9.480    4.3286
    9.510    4.4760
    9.540    4.0548
    9.570    4.2127
    9.600    4.2443
    9.630    4.0021
    9.660    3.7809
    9.690    3.9179
    9.720    4.0021
    9.750    4.0232
    9.780    4.3391
    9.810    4.0548
    9.840    3.8968
    9.870    4.2654
    9.900    3.8125
    9.930    4.0864
    9.960    4.0969
    9.990    4.2127
   10.020    4.0021
   10.050    4.1496
   10.080    3.9916
   10.110    4.0232
   10.140    3.9916
   10.170    3.9179
   10.200    4.0337
   10.230    3.9916
   10.260    4.1706
   10.290    3.9284
   10.320    3.9389
   10.350    4.0021
   10.380    4.1496
   10.410    3.9494
   10.440    4.2338
   10.470    4.2127
   10.500    3.9073
   10.530    4.2970
   10.560    3.9494
   10.590    3.8863
   10.620    3.8125
   10.650    4.0337
   10.680    3.6756
   10.710    4.1811
   10.740    3.9705
   10.770    4.1811
   10.800    3.9179
   10.830    3.8231
   10.860    3.7493
   10.890    3.9600
   10.920    3.7493
   10.950    3.8547
   10.980    3.7915
   11.010    3.9389
   11.040    3.9179
   11.070    3.3913
   11.100    4.0758
   11.130    3.7915
   11.160    3.8652
   11.190    3.6230
   11.220    4.2022
   11.250    3.9284
   11.280    3.7809
   11.310    3.9705
   11.340    4.0126
   11.370    4.0969
   11.400    4.0232
   11.430    3.8547
   11.460    3.8652
   11.490    3.7493
   11.520    3.7599
   11.550    4.1496
   11.580    3.7915
   11.610    3.9494
   11.640    3.5492
   11.670    4.0021
   11.700    3.9705
   11.730    4.0021
   11.760    3.9284
   11.790    3.7704
   11.820    3.6967
   11.850    3.9600
   11.880    3.6862
   11.910    3.9600
   11.940    4.0758
   11.970    3.9389
   12.000    3.8125
   12.030    4.3286
   12.060    3.8231
   12.090    4.0337
   12.120    3.7072
   12.150    3.8336
   12.180    3.8020
   12.210    3.7809
   12.240    3.8863
   12.270    4.1180
   12.300    3.5914
   12.330    3.5703
   12.360    3.7388
   12.390    3.9073
   12.420    3.8757
   12.450    3.6756
   12.480    3.7809
   12.510    3.8020
   12.540    3.8231
   12.570    3.9179
   12.600    3.8968
   12.630    3.8231
   12.660    4.0653
   12.690    4.0232
   12.720    3.9916
   12.750    3.9916
   12.780    3.8336
   12.810    3.9179
   12.840    3.9600
   12.870    4.1917
   12.900    4.2233
   12.930    4.2233
   12.960    4.1074
   12.990    4.0969
   13.020    3.9810
   13.050    3.6335
   13.080    3.9284
   13.110    3.8652
   13.140    4.0548
   13.170    4.0232
   13.200    3.5914
   13.230    3.8863
   13.260    3.6546
   13.290    3.9705
   13.320    3.8231
   13.350    3.8652
   13.380    3.9389
   13.410    3.8125
   13.440    3.7283
   13.470    3.6756
   13.500    3.8020
   13.530    3.9284
   13.560    3.6230
   13.590    4.0758
   13.620    3.5703
   13.650    3.9705
   13.680    3.8336
   13.710    3.8020
   13.740    3.8547
   13.770    3.5282
   13.800    3.8125
   13.830    3.8547
   13.860    3.5492
   13.890    3.5703
   13.920    3.7704
   13.950    3.9389
   13.980    3.6756
   14.010    3.9389
   14.040    3.6756
   14.070    3.5282
   14.100    3.8547
   14.130    3.5071
   14.160    3.8757
   14.190    3.9073
   14.220    3.8863
   14.250    3.8125
   14.280    3.4755
   14.310    3.7177
   14.340    4.0548
   14.370    3.4966
   14.400    3.8125
   14.430    3.7388
   14.460    3.7072
   14.490    3.5492
   14.520    4.0021
   14.550    3.9600
   14.580    3.5808
   14.610    3.7493
   14.640    3.8863
   14.670    3.7283
   14.700    3.7072
   14.730    3.6967
   14.760    3.6862
   14.790    3.5492
   14.820    3.7809
   14.850    3.7809
   14.880    3.6546
   14.910    3.8757
   14.940    3.6019
   14.970    3.3702
   15.000    3.5808
   15.030    3.8547
   15.060    3.7177
   15.090    3.9705
   15.120    3.7388
   15.150    3.6019
   15.180    3.6862
   15.210    3.9073
   15.240    3.6546
   15.270    3.6546
   15.300    3.5703
   15.330    3.6651
   15.360    3.9179
   15.390    3.7915
   15.420    3.7599
   15.450    3.8441
   15.480    3.8547
   15.510    3.6019
   15.540    3.8547
   15.570    4.1074
   15.600    3.6651
   15.630    3.6546
   15.660    3.8336
   15.690    3.5703
   15.720    3.6335
   15.750    3.7599
   15.780    3.5914
   15.810    3.4018
   15.840    3.7493
   15.870    3.6967
   15.900    3.6967
   15.930    3.6019
   15.960    3.8020
   15.990    3.6124
   16.020    4.0126
   16.050    3.9179
   16.080    3.5703
   16.110    3.7388
   16.140    3.5808
   16.170    3.7072
   16.200    3.5703
   16.230    3.8863
   16.260    3.6335
   16.290    3.5176
   16.320    3.3913
   16.350    3.6019
   16.380    3.3913
   16.410    3.5176
   16.440    3.6440
   16.470    3.5703
   16.500    3.8125
   16.530    3.8863
   16.560    3.8863
   16.590    3.6230
   16.620    3.6335
   16.650    3.6230
   16.680    3.8547
   16.710    3.6546
   16.740    3.5176
   16.770    3.6440
   16.800    3.6124
   16.830    3.6756
   16.860    3.7177
   16.890    3.3597
   16.920    3.6124
   16.950    3.7809
   16.980    4.0021
   17.010    3.8547
   17.040    3.9389
   17.070    4.0337
   17.100    3.8125
   17.130    3.6862
   17.160    3.6756
   17.190    3.6651
   17.220    3.5387
   17.250    3.5492
   17.280    4.0021
   17.310    3.4544
   17.340    3.5703
   17.370    3.5598
   17.400    3.7388
   17.430    3.9810
   17.460    3.5808
   17.490    3.7915
   17.520    3.5598
   17.550    3.6862
   17.580    3.9916
   17.610    4.0232
   17.640    4.1074
   17.670    3.8020
   17.700    3.4860
   17.730    4.0021
   17.760    3.8441
   17.790    3.5598
   17.820    3.8231
   17.850    3.9389
   17.880    3.8757
   17.910    3.9494
   17.940    3.8125
   17.970    3.6335
   18.000    3.8863
   18.030    3.7388
   18.060    3.9179
   18.090    3.7072
   18.120    3.6967
   18.150    4.0021
   18.180    3.2965
   18.210    3.8125
   18.240    3.8968
   18.270    3.9179
   18.300    4.0021
   18.330    3.7704
   18.360    3.8336
   18.390    3.6756
   18.420    3.7283
   18.450    3.6230
   18.480    3.8336
   18.510    3.9073
   18.540    3.6440
   18.570    3.9600
   18.600    4.1601
   18.630    3.9284
   18.660    3.7809
   18.690    3.7177
   18.720    3.9705
   18.750    3.8968
   18.780    3.8863
   18.810    3.9284
   18.840    3.8652
   18.870    3.6230
   18.900    3.7809
   18.930    4.1601
   18.960    3.6546
   18.990    4.1074
   19.020    4.0337
   19.050    3.9600
   19.080    3.7388
   19.110    3.8441
   19.140    3.8968
   19.170    4.0021
   19.200    4.0758
   19.230    4.0548
   19.260    3.8547
   19.290    3.9705
   19.320    3.5914
   19.350    3.8968
   19.380    4.4023
   19.410    4.0442
   19.440    3.9810
   19.470    4.0548
   19.500    4.1390
   19.530    4.0969
   19.560    3.8547
   19.590    4.0758
   19.620    3.8652
   19.650    4.1811
   19.680    4.0758
   19.710    4.2654
   19.740    4.1811
   19.770    4.2443
   19.800    4.6024
   19.830    4.2338
   19.860    4.2022
   19.890    4.2022
   19.920    3.9073
   19.950    4.0021
   19.980    4.0758
   20.010    4.0969
   20.040    3.9494
   20.070    4.3602
   20.100    3.8336
   20.130    4.1074
   20.160    4.3918
   20.190    3.8020
   20.220    4.0442
   20.250    4.3286
   20.280    4.1285
   20.310    3.9179
   20.340    4.0232
   20.370    3.9705
   20.400    4.3602
   20.430    3.9810
   20.460    4.1706
   20.490    4.1074
   20.520    4.2443
   20.550    4.0653
   20.580    3.6651
   20.610    4.1390
   20.640    4.2127
   20.670    4.6761
   20.700    3.9916
   20.730    4.0337
   20.760    4.4339
   20.790    4.0337
   20.820    4.0758
   20.850    4.1917
   20.880    4.0969
   20.910    4.2865
   20.940    4.4971
   20.970    4.2759
   21.000    4.1180
   21.030    4.0758
   21.060    4.1285
   21.090    4.4023
   21.120    4.4760
   21.150    4.2127
   21.180    3.9179
   21.210    4.3391
   21.240    4.3497
   21.270    4.1285
   21.300    4.2338
   21.330    4.0021
   21.360    4.3075
   21.390    4.0337
   21.420    4.2233
   21.450    4.2970
   21.480    4.1917
   21.510    4.2022
   21.540    4.3707
   21.570    4.4234
   21.600    4.4339
   21.630    4.4234
   21.660    4.3813
   21.690    3.9810
   21.720    4.0969
   21.750    3.9073
   21.780    4.0442
   21.810    4.3391
   21.840    4.1180
   21.870    4.2233
   21.900    4.1285
   21.930    4.2759
   21.960    4.3286
   21.990    4.3918
   22.020    4.3813
   22.050    4.4444
   22.080    4.2127
   22.110    4.4866
   22.140    4.1601
   22.170    4.2443
   22.200    4.4128
   22.230    4.4971
   22.260    4.4444
   22.290    4.5708
   22.320    4.4760
   22.350    4.2127
   22.380    4.3181
   22.410    4.2338
   22.440    3.9284
   22.470    4.3286
   22.500    4.4339
   22.530    4.2759
   22.560    4.1074
   22.590    4.0232
   22.620    3.9916
   22.650    4.3181
   22.680    4.2865
   22.710    4.0548
   22.740    4.2759
   22.770    4.0969
   22.800    4.2865
   22.830    4.3602
   22.860    4.1285
   22.890    4.3075
   22.920    4.2759
   22.950    4.5076
   22.980    4.2022
   23.010    4.0653
   23.040    4.0653
   23.070    4.0758
   23.100    4.1706
   23.130    4.0969
   23.160    4.0126
   23.190    4.2865
   23.220    4.2970
   23.250    4.2443
   23.280    3.8547
   23.310    4.1180
   23.340    4.1074
   23.370    3.8020
   23.400    4.0021
   23.430    3.9600
   23.460    4.0126
   23.490    3.6862
   23.520    3.9389
   23.550    4.0021
   23.580    3.7599
   23.610    4.0548
   23.640    3.9073
   23.670    3.9494
   23.700    3.9179
   23.730    3.9810
   23.760    4.0337
   23.790    4.0021
   23.820    3.9600
   23.850    4.0653
   23.880    4.1285
   23.910    4.1496
   23.940    3.8968
   23.970    4.0969
   24.000    4.2127
   24.030    3.7283
   24.060    4.0864
   24.090    3.8231
   24.120    4.3497
   24.150    3.8652
   24.180    3.7177
   24.210    3.7599
   24.240    4.1390
   24.270    3.9179
   24.300    3.7388
   24.330    4.2865
   24.360    4.1285
   24.390    4.4128
   24.420    3.9494
   24.450    4.1285
   24.480    4.0864
   24.510    3.8863
   24.540    3.8863
   24.570    4.1496
   24.600    4.0758
   24.630    4.4023
   24.660    4.1496
   24.690    4.2970
   24.720    4.0969
   24.750    3.9705
   24.780    4.3918
   24.810    4.0442
   24.840    4.0653
   24.870    4.0758
   24.900    3.9705
   24.930    3.7072
   24.960    3.9600
   24.990    4.1601
   25.020    3.7915
   25.050    3.7599
   25.080    4.0232
   25.110    4.0548
   25.140    4.0442
   25.170    4.0337
   25.200    3.7915
   25.230    4.2759
   25.260    3.6967
   25.290    3.7177
   25.320    3.6967
   25.350    3.8863
   25.380    3.9916
   25.410    4.3075
   25.440    3.6862
   25.470    3.7809
   25.500    3.8863
   25.530    3.9705
   25.560    4.0442
   25.590    4.1180
   25.620    4.0337
   25.650    4.3181
   25.680    3.6335
   25.710    4.0021
   25.740    3.7177
   25.770    3.6440
   25.800    3.8968
   25.830    3.6230
   25.860    3.6335
   25.890    3.7072
   25.920    4.0548
   25.950    3.6440
   25.980    3.7809
   26.010    3.7283
   26.040    3.4650
   26.070    3.7915
   26.100    3.6124
   26.130    3.8020
   26.160    3.6546
   26.190    3.9916
   26.220    3.6967
   26.250    3.6124
   26.280    3.8652
   26.310    3.5808
   26.340    3.6862
   26.370    3.9494
   26.400    3.8441
   26.430    3.8441
   26.460    3.7072
   26.490    4.0126
   26.520    3.7388
   26.550    3.8547
   26.580    3.4334
   26.610    4.0653
   26.640    3.7704
   26.670    3.7177
   26.700    3.8441
   26.730    3.7072
   26.760    3.7915
   26.790    3.3702
   26.820    3.5387
   26.850    3.7704
   26.880    3.6862
   26.910    3.4650
   26.940    3.4860
   26.970    3.6124
   27.000    3.5914
   27.030    3.6967
   27.060    3.6230
   27.090    3.5282
   27.120    3.8863
   27.150    4.0548
   27.180    3.5387
   27.210    3.9494
   27.240    3.6967
   27.270    3.6019
   27.300    3.8547
   27.330    3.5492
   27.360    3.7704
   27.390    3.7388
   27.420    3.7283
   27.450    3.9494
   27.480    3.7599
   27.510    3.8125
   27.540    3.8757
   27.570    3.4755
   27.600    3.5282
   27.630    3.6756
   27.660    3.6440
   27.690    3.6546
   27.720    3.3597
   27.750    3.7809
   27.780    3.9179
   27.810    3.3807
   27.840    3.6651
   27.870    3.8441
   27.900    3.3913
   27.930    3.8020
   27.960    3.6230
   27.990    3.8652
   28.020    3.2227
   28.050    3.4860
   28.080    3.4334
   28.110    3.7704
   28.140    3.5176
   28.170    3.7704
   28.200    3.9389
   28.230    3.8336
   28.260    3.5598
   28.290    3.6651
   28.320    3.4650
   28.350    3.5914
   28.380    3.6440
   28.410    3.5282
   28.440    3.7388
   28.470    3.7072
   28.500    3.7915
   28.530    3.6440
   28.560    3.8125
   28.590    3.5176
   28.620    3.5282
   28.650    3.5176
   28.680    3.5387
   28.710    3.4544
   28.740    3.5071
   28.770    3.8652
   28.800    3.3386
   28.830    3.3070
   28.860    3.4123
   28.890    3.4334
   28.920    3.2333
   28.950    3.3281
   28.980    3.4018
   29.010    3.6230
   29.040    3.5387
   29.070    3.5282
   29.100    3.5703
   29.130    3.2859
   29.160    3.3913
   29.190    3.3597
   29.220    3.5282
   29.250    3.4755
   29.280    3.3070
   29.310    3.3702
   29.340    3.5176
   29.370    3.2543
   29.400    3.5492
   29.430    3.0016
   29.460    3.8968
   29.490    3.4650
   29.520    3.3913
   29.550    3.3702
   29.580    3.2333
   29.610    3.4018
   29.640    3.3386
   29.670    3.3070
   29.700    3.1174
   29.730    3.4755
   29.760    3.4544
   29.790    3.2333
   29.820    3.6124
   29.850    3.7177
   29.880    3.5598
   29.910    3.2122
   29.940    3.2438
   29.970    3.4755
   30.000    3.4439
   30.030    3.4966
   30.060    3.4229
   30.090    3.3070
   30.120    3.2438
   30.150    3.0121
   30.180    3.2543
   30.210    3.4439
   30.240    3.0964
   30.270    3.1912
   30.300    3.3281
   30.330    3.3070
   30.360    3.1701
   30.390    3.4123
   30.420    3.4966
   30.450    3.2649
   30.480    3.5176
   30.510    3.0964
   30.540    3.5176
   30.570    3.1385
   30.600    3.4334
   30.630    3.3281
   30.660    3.3175
   30.690    3.3913
   30.720    3.2859
   30.750    3.3175
   30.780    3.2543
   30.810    3.1385
   30.840    3.5598
   30.870    3.2122
   30.900    3.1912
   30.930    3.1280
   30.960    3.5387
   30.990    3.4544
   31.020    3.4439
   31.050    3.1912
   31.080    3.3281
   31.110    3.1701
   31.140    3.1174
   31.170    3.3913
   31.200    3.0542
   31.230    2.9173
   31.260    3.0648
   31.290    3.1701
   31.320    3.6335
   31.350    3.0121
   31.380    3.3281
   31.410    3.1701
   31.440    3.3386
   31.470    3.3597
   31.500    3.4544
   31.530    3.1912
   31.560    3.3807
   31.590    3.3702
   31.620    3.5598
   31.650    3.2543
   31.680    3.2122
   31.710    3.3807
   31.740    3.2438
   31.770    3.3070
   31.800    3.4650
   31.830    3.2438
   31.860    3.2122
   31.890    3.1806
   31.920    3.2017
   31.950    2.9805
   31.980    3.2017
   32.010    3.1701
   32.040    3.3913
   32.070    3.0437
   32.100    3.0226
   32.130    3.2227
   32.160    3.0964
   32.190    3.2017
   32.220    3.2227
   32.250    2.9384
   32.280    3.0332
   32.310    3.0542
   32.340    2.8436
   32.370    2.9279
   32.400    3.1069
   32.430    3.1385
   32.460    3.1701
   32.490    3.0121
   32.520    3.1701
   32.550    3.0858
   32.580    3.3281
   32.610    3.0542
   32.640    3.0332
   32.670    3.1385
   32.700    2.7593
   32.730    2.6224
   32.760    3.1069
   32.790    2.8225
   32.820    2.8436
   32.850    2.8857
   32.880    3.0753
   32.910    3.1174
   32.940    2.9489
   32.970    2.9910
   33.000    2.9910
   33.030    3.0858
   33.060    2.7699
   33.090    3.0332
   33.120    2.9805
   33.150    2.8647
   33.180    2.8752
   33.210    2.8857
   33.240    2.6540
   33.270    2.9910
   33.300    2.8331
   33.330    2.8541
   33.360    2.9279
   33.390    2.8225
   33.420    3.0121
   33.450    2.9279
   33.480    2.8120
   33.510    2.7383
   33.540    2.7909
   33.570    2.8963
   33.600    2.8541
   33.630    3.1490
   33.660    2.7699
   33.690    2.8752
   33.720    2.9700
   33.750    2.9173
   33.780    2.6540
   33.810    2.9173
   33.840    2.6540
   33.870    2.8225
   33.900    2.8015
   33.930    2.7804
   33.960    2.8120
   33.990    2.9068
   34.020    2.6751
   34.050    2.6856
   34.080    2.9384
   34.110    2.5592
   34.140    2.7278
   34.170    2.8331
   34.200    2.8857
   34.230    2.6224
   34.260    2.6119
   34.290    2.6856
   34.320    2.6751
   34.350    2.8015
   34.380    2.5803
   34.410    2.7909
   34.440    2.5592
   34.470    2.9279
   34.500    2.6540
   34.530    2.6014
   34.560    2.7067
   34.590    2.5592
   34.620    2.5487
   34.650    2.4855
   34.680    2.6751
   34.710    2.4855
   34.740    2.8120
   34.770    2.5592
   34.800    2.4434
   34.830    2.7909
   34.860    2.6014
   34.890    2.7804
   34.920    2.6751
   34.950    2.6119
   34.980    2.5066
   35.010    2.6435
   35.040    2.6646
   35.070    2.6962
   35.100    2.5382
   35.130    2.5698
   35.160    2.6435
   35.190    2.4329
   35.220    2.5487
   35.250    2.7383
   35.280    2.4855
   35.310    2.8331
   35.340    2.3275
   35.370    2.4223
   35.400    2.4118
   35.430    2.3591
   35.460    2.2433
   35.490    2.5908
   35.520    2.5276
   35.550    2.3697
   35.580    2.5487
   35.610    2.4118
   35.640    2.2959
   35.670    2.8541
   35.700    2.5908
   35.730    2.2854
   35.760    2.5171
   35.790    2.6435
   35.820    2.3065
   35.850    2.4539
   35.880    2.4329
   35.910    2.3591
   35.940    2.3907
   35.970    2.2854
   36.000    2.6119
   36.030    2.5592
   36.060    2.6646
   36.090    2.3486
   36.120    2.6014
   36.150    2.1906
   36.180    2.1169
   36.210    2.4855
   36.240    2.5171
   36.270    2.0853
   36.300    2.5171
   36.330    2.5803
   36.360    2.4750
   36.390    2.2854
   36.420    2.5171
   36.450    2.4434
   36.480    2.6330
   36.510    2.2643
   36.540    2.5066
   36.570    2.3591
   36.600    2.2538
   36.630    2.3907
   36.660    2.4329
   36.690    2.4750
   36.720    2.5276
   36.750    2.4539
   36.780    2.1696
   36.810    2.4539
   36.840    2.4329
   36.870    2.5066
   36.900    2.5592
   36.930    2.4223
   36.960    2.2749
   36.990    2.5487
   37.020    2.4434
   37.050    2.1906
   37.080    2.4118
   37.110    2.5066
   37.140    2.5592
   37.170    2.2328
   37.200    2.4329
   37.230    2.2328
   37.260    2.4645
   37.290    2.4013
   37.320    2.3907
   37.350    2.2012
   37.380    2.2012
   37.410    2.4329
   37.440    2.3170
   37.470    2.6330
   37.500    2.1380
   37.530    2.2117
   37.560    2.3486
   37.590    2.4539
   37.620    2.2538
   37.650    2.4118
   37.680    2.3275
   37.710    2.1906
   37.740    2.2538
   37.770    2.1274
   37.800    2.1485
   37.830    2.2012
   37.860    2.1380
   37.890    2.2643
   37.920    2.2749
   37.950    2.3275
   37.980    2.1380
   38.010    2.3381
   38.040    2.3065
   38.070    2.1274
   38.100    2.3486
   38.130    2.3275
   38.160    2.2222
   38.190    2.2012
   38.220    2.3170
   38.250    2.5276
   38.280    2.2433
   38.310    2.2117
   38.340    2.4750
   38.370    2.1274
   38.400    2.1906
   38.430    2.4434
   38.460    2.3486
   38.490    2.3275
   38.520    2.5698
   38.550    2.3170
   38.580    2.2749
   38.610    2.1801
   38.640    2.2117
   38.670    2.2959
   38.700    2.3275
   38.730    2.3802
   38.760    2.3907
   38.790    2.2538
   38.820    2.2012
   38.850    2.2012
   38.880    2.2538
   38.910    2.0853
   38.940    2.1064
   38.970    2.1590
   39.000    2.1169
   39.030    2.2433
   39.060    2.1906
   39.090    2.2117
   39.120    2.2222
   39.150    2.4013
   39.180    2.1169
   39.210    2.2538
   39.240    2.4645
   39.270    2.2222
   39.300    2.5066
   39.330    2.3486
   39.360    2.2749
   39.390    2.3170
   39.420    2.3697
   39.450    2.1064
   39.480    2.4961
   39.510    2.3907
   39.540    2.2328
   39.570    2.3381
   39.600    2.3697
   39.630    2.1801
   39.660    2.2117
   39.690    2.1590
   39.720    2.0853
   39.750    2.2749
   39.780    2.2643
   39.810    2.0853
   39.840    2.4329
   39.870    2.0116
   39.900    2.3907
   39.930    2.1590
   39.960    2.2749
   39.990    1.9905