File: data/MOCOF-1/PXRD/PXRD_KE-183_Cu-Ka1_capillary-1mm_5s-deg.xyd
    1.500   16.2928
    1.530   16.4718
    1.560   14.7762
    1.590   14.4918
    1.620   15.0500
    1.650   13.2070
    1.680   12.6382
    1.710   12.5645
    1.740   11.7325
    1.770   11.0585
    1.800   10.7109
    1.830   10.8794
    1.860   10.0369
    1.890   10.0895
    1.920    9.6893
    1.950    9.6156
    1.980    9.2680
    2.010    9.4155
    2.040    8.7204
    2.070    8.6783
    2.100    8.7836
    2.130    8.4255
    2.160    8.0674
    2.190    8.4466
    2.220    8.4360
    2.250    7.7093
    2.280    7.3512
    2.310    8.0463
    2.340    7.4460
    2.370    7.5408
    2.400    7.8673
    2.430    8.0779
    2.460    7.9516
    2.490    7.9200
    2.520    7.9831
    2.550    8.0042
    2.580    8.0885
    2.610    8.4992
    2.640    8.8573
    2.670    8.5624
    2.700    9.1101
    2.730    9.6682
    2.760    9.0679
    2.790   10.0685
    2.820   10.7741
    2.850   11.0900
    2.880   12.0800
    2.910   12.8067
    2.940   13.7757
    2.970   15.6398
    3.000   16.3770
    3.030   17.3038
    3.060   18.7888
    3.090   20.5582
    3.120   22.0853
    3.150   24.0232
    3.180   27.1722
    3.210   31.0690
    3.240   35.5766
    3.270   38.5150
    3.300   45.2659
    3.330   51.8694
    3.360   60.1159
    3.390   69.6261
    3.420   79.6103
    3.450   86.6667
    3.480   82.3275
    3.510   72.6382
    3.540   55.8505
    3.570   41.7062
    3.600   32.7014
    3.630   26.5929
    3.660   23.2754
    3.690   21.9484
    3.720   22.4855
    3.750   22.8225
    3.780   22.8647
    3.810   23.3070
    3.840   25.8347
    3.870   27.5303
    3.900   28.2464
    3.930   30.2264
    3.960   30.8268
    3.990   32.3223
    4.020   33.2701
    4.050   33.1648
    4.080   31.3639
    4.110   30.5635
    4.140   29.5840
    4.170   27.7620
    4.200   25.3397
    4.230   24.5603
    4.260   21.7062
    4.290   20.4213
    4.320   18.0727
    4.350   15.5556
    4.380   14.2917
    4.410   12.3223
    4.440   11.6482
    4.470    9.9842
    4.500    8.9310
    4.530    7.9094
    4.560    7.5197
    4.590    7.3302
    4.620    6.5613
    4.650    6.1085
    4.680    5.7399
    4.710    5.3712
    4.740    5.0026
    4.770    5.1290
    4.800    4.9710
    4.830    4.6867
    4.860    4.5392
    4.890    4.3602
    4.920    4.2865
    4.950    4.1706
    4.980    3.7493
    5.010    4.0232
    5.040    4.5287
    5.070    4.1180
    5.100    4.1706
    5.130    3.5808
    5.160    3.7915
    5.190    3.9284
    5.220    3.5387
    5.250    3.6651
    5.280    3.5914
    5.310    3.5598
    5.340    3.7177
    5.370    3.5492
    5.400    3.6440
    5.430    3.5808
    5.460    3.5598
    5.490    3.5808
    5.520    3.6967
    5.550    2.8857
    5.580    3.4123
    5.610    3.0437
    5.640    3.3913
    5.670    3.3491
    5.700    3.4018
    5.730    3.0016
    5.760    3.0437
    5.790    3.2543
    5.820    3.1912
    5.850    3.1280
    5.880    2.9700
    5.910    3.2017
    5.940    3.0964
    5.970    2.9595
    6.000    2.9595
    6.030    3.1596
    6.060    3.3597
    6.090    3.6019
    6.120    2.9068
    6.150    3.0016
    6.180    3.0648
    6.210    2.9700
    6.240    3.0753
    6.270    3.1385
    6.300    3.2438
    6.330    3.4123
    6.360    3.2122
    6.390    3.1596
    6.420    3.3913
    6.450    3.0648
    6.480    3.1069
    6.510    2.8752
    6.540    3.2754
    6.570    3.5282
    6.600    3.5387
    6.630    4.0442
    6.660    3.8547
    6.690    4.0126
    6.720    4.2443
    6.750    4.8552
    6.780    5.4660
    6.810    6.2770
    6.840    7.3196
    6.870    8.0885
    6.900   10.0053
    6.930   10.3844
    6.960   11.2059
    6.990   10.4792
    7.020    8.6677
    7.050    7.1933
    7.080    6.2770
    7.110    5.1711
    7.140    4.2759
    7.170    3.8863
    7.200    4.1180
    7.230    3.5071
    7.260    3.6862
    7.290    3.5492
    7.320    3.3070
    7.350    3.3491
    7.380    3.4860
    7.410    3.5914
    7.440    3.3913
    7.470    3.2333
    7.500    3.4544
    7.530    3.6019
    7.560    3.5598
    7.590    3.4334
    7.620    3.4544
    7.650    3.2754
    7.680    3.3386
    7.710    3.6335
    7.740    3.5492
    7.770    3.6124
    7.800    3.6967
    7.830    4.2127
    7.860    4.2338
    7.890    4.0758
    7.920    4.0021
    7.950    4.1390
    7.980    4.5392
    8.010    4.3918
    8.040    4.5498
    8.070    4.7183
    8.100    4.5076
    8.130    4.5603
    8.160    4.6972
    8.190    4.9500
    8.220    4.6235
    8.250    4.8341
    8.280    4.8025
    8.310    5.0342
    8.340    4.6235
    8.370    5.3923
    8.400    4.7183
    8.430    4.5708
    8.460    4.6551
    8.490    4.8447
    8.520    5.0342
    8.550    4.5814
    8.580    4.2022
    8.610    4.4550
    8.640    4.5919
    8.670    4.1917
    8.700    4.2865
    8.730    3.8757
    8.760    3.7599
    8.790    3.8547
    8.820    3.8968
    8.850    3.4755
    8.880    3.4123
    8.910    3.3913
    8.940    3.0964
    8.970    3.2859
    9.000    3.2754
    9.030    3.2859
    9.060    3.1806
    9.090    3.0648
    9.120    3.0121
    9.150    3.0437
    9.180    2.9910
    9.210    2.7067
    9.240    3.0753
    9.270    3.0016
    9.300    2.7699
    9.330    2.7909
    9.360    2.9173
    9.390    2.6330
    9.420    2.7699
    9.450    2.9068
    9.480    2.6224
    9.510    2.8120
    9.540    2.8436
    9.570    2.6856
    9.600    2.7804
    9.630    2.8436
    9.660    2.6540
    9.690    2.8120
    9.720    2.9805
    9.750    2.7383
    9.780    2.9279
    9.810    2.9489
    9.840    2.8647
    9.870    2.5908
    9.900    2.7067
    9.930    2.6330
    9.960    2.7067
    9.990    2.7067
   10.020    2.8857
   10.050    2.5171
   10.080    2.6014
   10.110    2.8120
   10.140    2.8647
   10.170    2.6751
   10.200    2.9279
   10.230    2.7278
   10.260    2.6751
   10.290    3.0858
   10.320    3.2333
   10.350    2.9910
   10.380    2.8647
   10.410    3.0648
   10.440    3.2227
   10.470    3.0542
   10.500    3.1912
   10.530    3.1385
   10.560    3.1280
   10.590    2.7067
   10.620    2.7172
   10.650    2.5592
   10.680    2.6540
   10.710    2.4961
   10.740    2.4013
   10.770    2.6751
   10.800    2.6119
   10.830    2.6330
   10.860    2.7699
   10.890    2.7488
   10.920    2.6751
   10.950    2.6435
   10.980    2.6962
   11.010    2.5698
   11.040    2.8225
   11.070    2.5803
   11.100    2.4961
   11.130    2.8331
   11.160    2.2749
   11.190    2.8752
   11.220    2.9384
   11.250    2.6962
   11.280    2.5066
   11.310    2.6224
   11.340    2.8857
   11.370    2.8015
   11.400    2.9910
   11.430    2.7383
   11.460    2.6540
   11.490    2.8752
   11.520    2.6962
   11.550    2.6540
   11.580    3.1280
   11.610    2.7383
   11.640    2.5487
   11.670    2.7699
   11.700    2.7909
   11.730    2.7909
   11.760    2.8015
   11.790    2.6330
   11.820    2.8331
   11.850    2.6646
   11.880    2.6646
   11.910    2.8436
   11.940    3.1069
   11.970    2.8436
   12.000    2.9489
   12.030    2.6751
   12.060    2.8963
   12.090    2.9279
   12.120    2.9910
   12.150    3.0121
   12.180    3.0964
   12.210    3.2017
   12.240    2.9805
   12.270    2.9910
   12.300    2.9384
   12.330    2.8015
   12.360    2.8857
   12.390    3.0542
   12.420    2.7172
   12.450    2.9489
   12.480    2.9700
   12.510    3.1912
   12.540    2.9910
   12.570    3.3281
   12.600    3.0858
   12.630    3.0121
   12.660    3.0964
   12.690    2.9489
   12.720    3.0648
   12.750    3.2333
   12.780    3.1069
   12.810    2.9384
   12.840    3.0332
   12.870    3.0016
   12.900    2.8331
   12.930    2.7488
   12.960    2.7067
   12.990    3.0121
   13.020    2.7699
   13.050    2.5908
   13.080    2.8647
   13.110    2.9595
   13.140    3.2649
   13.170    2.9805
   13.200    3.0121
   13.230    2.8015
   13.260    2.8857
   13.290    2.5592
   13.320    2.8331
   13.350    2.9489
   13.380    2.8015
   13.410    2.6856
   13.440    3.0858
   13.470    2.7593
   13.500    2.7699
   13.530    2.9805
   13.560    2.9595
   13.590    2.8015
   13.620    2.6962
   13.650    2.8752
   13.680    2.8647
   13.710    2.8331
   13.740    2.6962
   13.770    3.0437
   13.800    2.4118
   13.830    2.7067
   13.860    2.6540
   13.890    2.7909
   13.920    2.7172
   13.950    2.8015
   13.980    2.5276
   14.010    2.8331
   14.040    2.8963
   14.070    2.9173
   14.100    2.6962
   14.130    2.7909
   14.160    2.6330
   14.190    2.9068
   14.220    2.9384
   14.250    2.8541
   14.280    2.8120
   14.310    2.5276
   14.340    2.4855
   14.370    2.7278
   14.400    2.8857
   14.430    2.5171
   14.460    2.7699
   14.490    2.4961
   14.520    2.5698
   14.550    2.3170
   14.580    2.4539
   14.610    2.4645
   14.640    2.9595
   14.670    2.8120
   14.700    2.5487
   14.730    2.6330
   14.760    2.6540
   14.790    2.5592
   14.820    2.4329
   14.850    2.3486
   14.880    2.4434
   14.910    2.6224
   14.940    2.5171
   14.970    2.6224
   15.000    2.3591
   15.030    2.6962
   15.060    2.5276
   15.090    2.4961
   15.120    2.5066
   15.150    2.4539
   15.180    2.6751
   15.210    2.6646
   15.240    2.6014
   15.270    2.6646
   15.300    2.5908
   15.330    2.6646
   15.360    2.2433
   15.390    2.7804
   15.420    2.5592
   15.450    2.4750
   15.480    2.3486
   15.510    2.9279
   15.540    2.8015
   15.570    2.5276
   15.600    2.8647
   15.630    2.7699
   15.660    2.9279
   15.690    2.5276
   15.720    2.3697
   15.750    2.7067
   15.780    2.6856
   15.810    2.9173
   15.840    2.5803
   15.870    2.6435
   15.900    2.7804
   15.930    2.8331
   15.960    2.8331
   15.990    2.8015
   16.020    2.5382
   16.050    2.6962
   16.080    2.6856
   16.110    3.0226
   16.140    2.8015
   16.170    2.4750
   16.200    2.6751
   16.230    2.6540
   16.260    2.6540
   16.290    2.6014
   16.320    2.5382
   16.350    2.6224
   16.380    2.7699
   16.410    2.7067
   16.440    2.6751
   16.470    2.7383
   16.500    2.4329
   16.530    2.6962
   16.560    2.6540
   16.590    2.6856
   16.620    2.6224
   16.650    2.5276
   16.680    2.4329
   16.710    2.4434
   16.740    2.6119
   16.770    2.7172
   16.800    2.4118
   16.830    2.4223
   16.860    2.3907
   16.890    2.5276
   16.920    2.5698
   16.950    2.6330
   16.980    2.3802
   17.010    2.6224
   17.040    2.6540
   17.070    2.6014
   17.100    2.5908
   17.130    2.5592
   17.160    2.8436
   17.190    2.5382
   17.220    2.4434
   17.250    2.3591
   17.280    2.6856
   17.310    2.5908
   17.340    2.6540
   17.370    2.3802
   17.400    2.5803
   17.430    2.6646
   17.460    2.6540
   17.490    2.5066
   17.520    2.7278
   17.550    2.5487
   17.580    2.7488
   17.610    2.6962
   17.640    2.7278
   17.670    2.7909
   17.700    2.7067
   17.730    2.5908
   17.760    2.8120
   17.790    2.7909
   17.820    2.6646
   17.850    2.7172
   17.880    2.6435
   17.910    2.9068
   17.940    2.8120
   17.970    3.0226
   18.000    2.6646
   18.030    2.8541
   18.060    2.6014
   18.090    2.7278
   18.120    2.9173
   18.150    2.6435
   18.180    2.6330
   18.210    2.6646
   18.240    2.5908
   18.270    2.6014
   18.300    2.6330
   18.330    2.6751
   18.360    2.8857
   18.390    2.8541
   18.420    2.7067
   18.450    2.6751
   18.480    2.5487
   18.510    2.6330
   18.540    2.7593
   18.570    2.6330
   18.600    2.4645
   18.630    2.6224
   18.660    2.5487
   18.690    2.8120
   18.720    2.6540
   18.750    2.4855
   18.780    2.4013
   18.810    2.4855
   18.840    2.8331
   18.870    2.5908
   18.900    2.7699
   18.930    2.5171
   18.960    2.5592
   18.990    2.7278
   19.020    2.8541
   19.050    2.6014
   19.080    2.4539
   19.110    2.8225
   19.140    2.6962
   19.170    2.7278
   19.200    2.5698
   19.230    2.5066
   19.260    2.8857
   19.290    2.7067
   19.320    2.8331
   19.350    2.8541
   19.380    2.7909
   19.410    2.4539
   19.440    2.8541
   19.470    2.8015
   19.500    2.7909
   19.530    2.8015
   19.560    2.7172
   19.590    3.0858
   19.620    2.6751
   19.650    2.8541
   19.680    3.2438
   19.710    2.7488
   19.740    2.8647
   19.770    2.7699
   19.800    2.8436
   19.830    2.9384
   19.860    2.9279
   19.890    3.0437
   19.920    2.6330
   19.950    2.8225
   19.980    2.7909
   20.010    2.8857
   20.040    2.9700
   20.070    3.1385
   20.100    3.0121
   20.130    2.9279
   20.160    2.9173
   20.190    2.8541
   20.220    2.8963
   20.250    2.8015
   20.280    2.8857
   20.310    3.0226
   20.340    3.0648
   20.370    2.9700
   20.400    2.9068
   20.430    2.8120
   20.460    2.8436
   20.490    2.9068
   20.520    2.9805
   20.550    2.8120
   20.580    2.8015
   20.610    2.9700
   20.640    2.7488
   20.670    3.1701
   20.700    3.0437
   20.730    2.8963
   20.760    2.9910
   20.790    3.0964
   20.820    3.0016
   20.850    2.7593
   20.880    2.8225
   20.910    3.0437
   20.940    2.8225
   20.970    2.7488
   21.000    2.9910
   21.030    2.8857
   21.060    3.0226
   21.090    2.7804
   21.120    3.1701
   21.150    2.9595
   21.180    2.7278
   21.210    2.8120
   21.240    3.0016
   21.270    3.2122
   21.300    2.9173
   21.330    2.9173
   21.360    2.8331
   21.390    2.9068
   21.420    2.8225
   21.450    3.0753
   21.480    2.7383
   21.510    2.8647
   21.540    2.5803
   21.570    2.9910
   21.600    2.9068
   21.630    3.1596
   21.660    2.8331
   21.690    3.0121
   21.720    2.8436
   21.750    3.2122
   21.780    2.9068
   21.810    2.7278
   21.840    2.9384
   21.870    2.9384
   21.900    2.7699
   21.930    2.8752
   21.960    3.0542
   21.990    2.9700
   22.020    2.9279
   22.050    2.6330
   22.080    3.0226
   22.110    3.0753
   22.140    2.9805
   22.170    3.0226
   22.200    3.2122
   22.230    2.8436
   22.260    2.9700
   22.290    2.9489
   22.320    2.9595
   22.350    2.8752
   22.380    3.2438
   22.410    2.8963
   22.440    2.9595
   22.470    2.9279
   22.500    2.9384
   22.530    3.1490
   22.560    3.0753
   22.590    2.8015
   22.620    2.8331
   22.650    2.8436
   22.680    3.0858
   22.710    2.6646
   22.740    3.1701
   22.770    2.8857
   22.800    2.8541
   22.830    2.8857
   22.860    3.0648
   22.890    2.7383
   22.920    2.9384
   22.950    2.6540
   22.980    3.0332
   23.010    2.8857
   23.040    2.7383
   23.070    2.6224
   23.100    2.8857
   23.130    2.8963
   23.160    2.8541
   23.190    2.6646
   23.220    2.7488
   23.250    2.9279
   23.280    2.9384
   23.310    2.8331
   23.340    2.3486
   23.370    2.8647
   23.400    2.7909
   23.430    2.5803
   23.460    2.6330
   23.490    2.6962
   23.520    2.8225
   23.550    2.4013
   23.580    2.6540
   23.610    2.5382
   23.640    2.9384
   23.670    2.6962
   23.700    2.7488
   23.730    2.6119
   23.760    2.8225
   23.790    2.5592
   23.820    2.6962
   23.850    2.7488
   23.880    2.5592
   23.910    2.8963
   23.940    2.7593
   23.970    2.6119
   24.000    2.8225
   24.030    2.7383
   24.060    3.0226
   24.090    2.9805
   24.120    2.7699
   24.150    3.0016
   24.180    2.8436
   24.210    2.7909
   24.240    3.0226
   24.270    2.6751
   24.300    2.9700
   24.330    2.7383
   24.360    2.7383
   24.390    2.7278
   24.420    2.7804
   24.450    2.7383
   24.480    2.8857
   24.510    2.8647
   24.540    2.9279
   24.570    2.8541
   24.600    2.6962
   24.630    2.9279
   24.660    3.2122
   24.690    2.9384
   24.720    2.7593
   24.750    2.7278
   24.780    2.5803
   24.810    2.8436
   24.840    2.6751
   24.870    2.8541
   24.900    2.7593
   24.930    2.6435
   24.960    2.8647
   24.990    2.4855
   25.020    3.2122
   25.050    2.5592
   25.080    2.4855
   25.110    2.6224
   25.140    2.6856
   25.170    2.5698
   25.200    2.6962
   25.230    2.9700
   25.260    2.4645
   25.290    2.4329
   25.320    2.5698
   25.350    2.7593
   25.380    2.5698
   25.410    2.5698
   25.440    2.4329
   25.470    2.4961
   25.500    2.5592
   25.530    2.7699
   25.560    2.4750
   25.590    2.5487
   25.620    2.4855
   25.650    2.5487
   25.680    2.7067
   25.710    2.7488
   25.740    2.4961
   25.770    2.4961
   25.800    2.5803
   25.830    2.5066
   25.860    2.6962
   25.890    2.3170
   25.920    2.5592
   25.950    2.6330
   25.980    2.5382
   26.010    2.4855
   26.040    2.4750
   26.070    2.6435
   26.100    2.4961
   26.130    2.5171
   26.160    2.2433
   26.190    2.2749
   26.220    2.4013
   26.250    2.4223
   26.280    2.2222
   26.310    2.2959
   26.340    2.5066
   26.370    2.3697
   26.400    2.5171
   26.430    2.6435
   26.460    2.4223
   26.490    2.6014
   26.520    2.5066
   26.550    2.5171
   26.580    2.4118
   26.610    2.6435
   26.640    2.6856
   26.670    2.5487
   26.700    2.3697
   26.730    2.3697
   26.760    2.3802
   26.790    2.5803
   26.820    2.4329
   26.850    2.3486
   26.880    2.2328
   26.910    2.4013
   26.940    2.6014
   26.970    2.4013
   27.000    2.2538
   27.030    2.6330
   27.060    2.6014
   27.090    2.3170
   27.120    2.6119
   27.150    2.2328
   27.180    2.2643
   27.210    2.4961
   27.240    2.2959
   27.270    2.4118
   27.300    2.3802
   27.330    2.4961
   27.360    2.5171
   27.390    2.3802
   27.420    2.3907
   27.450    2.5698
   27.480    2.3486
   27.510    2.2012
   27.540    2.3486
   27.570    2.2328
   27.600    2.1801
   27.630    2.4329
   27.660    2.1380
   27.690    2.4750
   27.720    2.4539
   27.750    2.2538
   27.780    2.4118
   27.810    2.3907
   27.840    2.2222
   27.870    2.4329
   27.900    2.5276
   27.930    2.2538
   27.960    2.4329
   27.990    2.3697
   28.020    2.4539
   28.050    2.4855
   28.080    2.3275
   28.110    2.4855
   28.140    2.4434
   28.170    2.5276
   28.200    2.6435
   28.230    2.5908
   28.260    2.3802
   28.290    2.5276
   28.320    2.3802
   28.350    2.4434
   28.380    2.4855
   28.410    2.4434
   28.440    2.2538
   28.470    2.4645
   28.500    2.4013
   28.530    2.4223
   28.560    2.3381
   28.590    2.3697
   28.620    2.1169
   28.650    2.4645
   28.680    2.6435
   28.710    2.4961
   28.740    2.2328
   28.770    2.1169
   28.800    2.2643
   28.830    2.4223
   28.860    2.2222
   28.890    2.1169
   28.920    2.1274
   28.950    2.1696
   28.980    2.3486
   29.010    2.4750
   29.040    2.2117
   29.070    2.3802
   29.100    2.3275
   29.130    2.4329
   29.160    2.3591
   29.190    2.0011
   29.220    2.2012
   29.250    2.2222
   29.280    2.3907
   29.310    2.1274
   29.340    2.2222
   29.370    2.3697
   29.400    2.2012
   29.430    2.4855
   29.460    2.6330
   29.490    2.3486
   29.520    2.5066
   29.550    2.2749
   29.580    2.3591
   29.610    2.4329
   29.640    2.3591
   29.670    2.3170
   29.700    2.2012
   29.730    2.2328
   29.760    2.2328
   29.790    2.3275
   29.820    1.9905
   29.850    2.3065
   29.880    2.2222
   29.910    2.1590
   29.940    2.0221
   29.970    2.3065
   30.000    2.3907
   30.030    2.3486
   30.060    2.0748
   30.090    2.1590
   30.120    2.4013
   30.150    2.3170
   30.180    2.3802
   30.210    2.5066
   30.240    2.2643
   30.270    2.3907
   30.300    2.2433
   30.330    2.4645
   30.360    2.5171
   30.390    2.1801
   30.420    2.3275
   30.450    2.1274
   30.480    2.5171
   30.510    1.9905
   30.540    2.3907
   30.570    2.1485
   30.600    2.2749
   30.630    2.1906
   30.660    2.2117
   30.690    2.3486
   30.720    2.3907
   30.750    2.3591
   30.780    2.0011
   30.810    2.4223
   30.840    2.1696
   30.870    2.2433
   30.900    2.0537
   30.930    2.1696
   30.960    2.0748
   30.990    2.3907
   31.020    2.4013
   31.050    2.0221
   31.080    2.1801
   31.110    2.3170
   31.140    2.2117
   31.170    2.2959
   31.200    2.3907
   31.230    2.0958
   31.260    2.3065
   31.290    2.2749
   31.320    2.3275
   31.350    2.1274
   31.380    2.0642
   31.410    2.2328
   31.440    2.0432
   31.470    2.0958
   31.500    2.4013
   31.530    2.4118
   31.560    2.3170
   31.590    2.2328
   31.620    2.3170
   31.650    2.0853
   31.680    2.1485
   31.710    2.5487
   31.740    2.2854
   31.770    2.1485
   31.800    2.1169
   31.830    2.1274
   31.860    2.2328
   31.890    2.4013
   31.920    2.0958
   31.950    2.1485
   31.980    2.4118
   32.010    2.0642
   32.040    2.1485
   32.070    2.1590
   32.100    2.0221
   32.130    2.0958
   32.160    2.1274
   32.190    2.0642
   32.220    2.1590
   32.250    2.1696
   32.280    2.3170
   32.310    2.1169
   32.340    2.2538
   32.370    2.2012
   32.400    2.2538
   32.430    2.1801
   32.460    2.0326
   32.490    2.1485
   32.520    2.0011
   32.550    1.9063
   32.580    2.1274
   32.610    1.9273
   32.640    2.2854
   32.670    1.9484
   32.700    2.0116
   32.730    2.1696
   32.760    2.2117
   32.790    2.1169
   32.820    2.1380
   32.850    1.9800
   32.880    1.7904
   32.910    1.9589
   32.940    2.0116
   32.970    1.9695
   33.000    2.1801
   33.030    2.0432
   33.060    2.1485
   33.090    1.9905
   33.120    2.1380
   33.150    1.9905
   33.180    2.0326
   33.210    1.9168
   33.240    1.8957
   33.270    1.9589
   33.300    2.0748
   33.330    2.1380
   33.360    1.8957
   33.390    1.9695
   33.420    1.9695
   33.450    1.8957
   33.480    1.9589
   33.510    1.9273
   33.540    1.9379
   33.570    1.9800
   33.600    1.8536
   33.630    2.0432
   33.660    1.9589
   33.690    1.8852
   33.720    1.8852
   33.750    1.9484
   33.780    1.9800
   33.810    2.0537
   33.840    1.9905
   33.870    2.0116
   33.900    2.1590
   33.930    1.8220
   33.960    1.9905
   33.990    1.8747
   34.020    2.0853
   34.050    2.1169
   34.080    1.9273
   34.110    1.7904
   34.140    1.7799
   34.170    1.9905
   34.200    2.0748
   34.230    1.8431
   34.260    1.7799
   34.290    1.8115
   34.320    1.9168
   34.350    2.1064
   34.380    1.9589
   34.410    1.8747
   34.440    1.9484
   34.470    1.9063
   34.500    1.8641
   34.530    1.9063
   34.560    1.9589
   34.590    1.8747
   34.620    1.9905
   34.650    2.0642
   34.680    1.8536
   34.710    1.8325
   34.740    1.8852
   34.770    1.9168
   34.800    1.8115
   34.830    1.5482
   34.860    2.0326
   34.890    1.8641
   34.920    1.7799
   34.950    2.0326
   34.980    2.0116
   35.010    1.8431
   35.040    1.8957
   35.070    1.7694
   35.100    1.8220
   35.130    1.8220
   35.160    1.9589
   35.190    1.8957
   35.220    1.7588
   35.250    1.8747
   35.280    1.8220
   35.310    1.9168
   35.340    2.0326
   35.370    1.8115
   35.400    1.9168
   35.430    1.8115
   35.460    1.8957
   35.490    1.8536
   35.520    1.7588
   35.550    2.0537
   35.580    1.8431
   35.610    1.9484
   35.640    1.7904
   35.670    1.7483
   35.700    1.9168
   35.730    1.9379
   35.760    1.8641
   35.790    1.8220
   35.820    1.6430
   35.850    1.8747
   35.880    1.7272
   35.910    1.8852
   35.940    1.8325
   35.970    1.7904
   36.000    1.9273
   36.030    1.7483
   36.060    1.9379
   36.090    1.7062
   36.120    1.8957
   36.150    1.9905
   36.180    1.6219
   36.210    1.8431
   36.240    1.5482
   36.270    1.9168
   36.300    1.8747
   36.330    1.5482
   36.360    1.8747
   36.390    1.7483
   36.420    1.8852
   36.450    1.6324
   36.480    2.0221
   36.510    1.5061
   36.540    1.7904
   36.570    1.7904
   36.600    1.6640
   36.630    1.8957
   36.660    1.7799
   36.690    1.7694
   36.720    1.5798
   36.750    1.8009
   36.780    1.8641
   36.810    1.8220
   36.840    1.8325
   36.870    1.8536
   36.900    1.6219
   36.930    1.8431
   36.960    1.6746
   36.990    1.8115
   37.020    1.7904
   37.050    1.7378
   37.080    1.5692
   37.110    1.8220
   37.140    1.7694
   37.170    1.7904
   37.200    1.6430
   37.230    1.6324
   37.260    1.8641
   37.290    1.6640
   37.320    1.7062
   37.350    1.6746
   37.380    1.7588
   37.410    1.8325
   37.440    1.6640
   37.470    1.7483
   37.500    1.7378
   37.530    1.7062
   37.560    1.6219
   37.590    2.0221
   37.620    1.6430
   37.650    1.5482
   37.680    1.6114
   37.710    1.6746
   37.740    1.8747
   37.770    1.7272
   37.800    1.8325
   37.830    1.7694
   37.860    1.8325
   37.890    1.6746
   37.920    1.7378
   37.950    1.6956
   37.980    1.6640
   38.010    1.7588
   38.040    1.5377
   38.070    1.7062
   38.100    1.8957
   38.130    1.6956
   38.160    1.7694
   38.190    1.8747
   38.220    1.7483
   38.250    1.9484
   38.280    1.8009
   38.310    1.7694
   38.340    1.8325
   38.370    1.7694
   38.400    1.7799
   38.430    1.7483
   38.460    1.6114
   38.490    1.7167
   38.520    1.5061
   38.550    1.7062
   38.580    1.7378
   38.610    1.8009
   38.640    1.8220
   38.670    1.6851
   38.700    1.8009
   38.730    1.7062
   38.760    1.5798
   38.790    1.8115
   38.820    1.5692
   38.850    1.8641
   38.880    1.8325
   38.910    1.5903
   38.940    1.6324
   38.970    1.8536
   39.000    1.7694
   39.030    1.7588
   39.060    1.7167
   39.090    1.8852
   39.120    1.7483
   39.150    1.9273
   39.180    1.7272
   39.210    1.6008
   39.240    1.6324
   39.270    1.8747
   39.300    1.7904
   39.330    1.5166
   39.360    1.6324
   39.390    1.7378
   39.420    1.6851
   39.450    1.7062
   39.480    1.7062
   39.510    1.8009
   39.540    1.5692
   39.570    1.6114
   39.600    1.7378
   39.630    1.5166
   39.660    1.6008
   39.690    1.6430
   39.720    1.5061
   39.750    1.6008
   39.780    1.8641
   39.810    1.5061
   39.840    1.8220
   39.870    1.7167
   39.900    1.7483
   39.930    1.6640
   39.960    1.6114
   39.990    1.7799