File: data/MOCOF-1/PXRD/PXRD_KE-254_Co-Ka1_film-8mm_3s-deg.xyd
    1.500    5.5288
    1.530    5.4575
    1.560    5.2256
    1.590    4.7084
    1.620    4.9938
    1.650    4.6727
    1.680    4.3517
    1.710    4.3160
    1.740    4.2625
    1.770    4.0307
    1.800    4.2447
    1.830    4.2982
    1.860    3.8880
    1.890    3.7810
    1.920    4.1734
    1.950    4.0485
    1.980    3.6918
    2.010    3.9058
    2.040    3.5491
    2.070    4.0485
    2.100    3.9950
    2.130    3.6383
    2.160    3.3351
    2.190    3.5135
    2.220    3.4956
    2.250    3.7988
    2.280    3.5135
    2.310    3.4778
    2.340    3.7453
    2.370    3.1924
    2.400    3.5848
    2.430    3.3173
    2.460    3.2281
    2.490    3.2281
    2.520    3.2459
    2.550    3.6383
    2.580    3.2638
    2.610    3.2994
    2.640    3.3173
    2.670    3.1568
    2.700    2.9428
    2.730    2.8892
    2.760    3.4243
    2.790    2.9071
    2.820    3.0854
    2.850    3.1568
    2.880    2.8714
    2.910    3.1211
    2.940    2.9963
    2.970    3.1211
    3.000    3.0141
    3.030    2.6931
    3.060    3.1924
    3.090    3.0498
    3.120    3.2103
    3.150    2.9071
    3.180    2.9428
    3.210    2.9071
    3.240    2.8179
    3.270    2.6752
    3.300    3.2281
    3.330    2.9606
    3.360    2.9249
    3.390    2.9784
    3.420    2.7287
    3.450    2.9249
    3.480    3.1033
    3.510    2.5325
    3.540    3.0141
    3.570    2.7287
    3.600    2.6396
    3.630    2.9071
    3.660    2.9963
    3.690    2.9963
    3.720    2.9071
    3.750    3.2103
    3.780    3.1033
    3.810    3.2994
    3.840    3.3351
    3.870    3.3351
    3.900    3.4600
    3.930    3.6026
    3.960    3.7632
    3.990    3.2994
    4.020    3.8523
    4.050    3.7453
    4.080    3.7275
    4.110    3.6205
    4.140    4.1199
    4.170    3.6740
    4.200    4.0842
    4.230    4.2447
    4.260    4.7441
    4.290    5.4396
    4.320    5.1899
    4.350    6.1887
    4.380    6.7772
    4.410    8.0970
    4.440    9.2385
    4.470   12.9659
    4.500   18.9584
    4.530   19.3508
    4.560    3.9593
    4.590    3.1568
    4.620    2.9606
    4.650    3.1746
    4.680    3.1033
    4.710    3.1568
    4.740    2.6396
    4.770    3.0854
    4.800    2.7466
    4.830    2.8892
    4.860    3.0141
    4.890    3.1033
    4.920    3.4065
    4.950    3.1033
    4.980    2.8179
    5.010    2.9249
    5.040    2.8536
    5.070    2.9784
    5.100    2.6396
    5.130    2.7466
    5.160    3.0319
    5.190    2.8536
    5.220    2.8001
    5.250    3.1389
    5.280    3.0141
    5.310    3.0319
    5.340    2.6396
    5.370    3.0141
    5.400    2.8179
    5.430    3.1211
    5.460    3.0141
    5.490    2.7109
    5.520    3.1746
    5.550    2.6574
    5.580    3.1568
    5.610    3.2994
    5.640    3.0676
    5.670    2.8892
    5.700    3.5135
    5.730    2.9963
    5.760    3.2103
    5.790    2.8714
    5.820    3.1568
    5.850    3.1568
    5.880    3.1924
    5.910    3.1033
    5.940    3.3530
    5.970    3.3530
    6.000    3.4600
    6.030    3.6026
    6.060    3.4421
    6.090    3.8167
    6.120    3.9058
    6.150    3.7453
    6.180    3.9058
    6.210    4.3339
    6.240    4.5301
    6.270    5.1899
    6.300    5.8677
    6.330    6.1709
    6.360    7.7582
    6.390   11.5391
    6.420    6.5632
    6.450    3.8702
    6.480    3.3708
    6.510    3.5491
    6.540    3.6918
    6.570    3.4421
    6.600    3.5491
    6.630    3.6561
    6.660    3.6740
    6.690    3.5135
    6.720    3.3173
    6.750    3.4065
    6.780    3.3351
    6.810    3.1211
    6.840    2.8892
    6.870    2.9428
    6.900    3.2994
    6.930    2.7287
    6.960    2.8714
    6.990    2.6039
    7.020    2.5325
    7.050    2.6217
    7.080    2.6752
    7.110    2.9784
    7.140    2.9606
    7.170    2.9249
    7.200    2.3364
    7.230    2.6039
    7.260    2.4434
    7.290    2.6931
    7.320    2.1402
    7.350    2.7466
    7.380    2.4969
    7.410    2.6039
    7.440    2.6752
    7.470    2.8001
    7.500    2.3720
    7.530    2.5861
    7.560    2.4969
    7.590    2.5861
    7.620    2.8001
    7.650    2.8179
    7.680    2.6931
    7.710    2.7466
    7.740    2.7466
    7.770    3.0854
    7.800    3.3351
    7.830    4.2269
    7.860    3.1211
    7.890    2.4255
    7.920    2.4434
    7.950    2.3720
    7.980    1.9975
    8.010    2.4612
    8.040    2.2115
    8.070    2.4255
    8.100    2.1759
    8.130    2.1580
    8.160    2.3364
    8.190    2.1223
    8.220    2.2650
    8.250    2.3899
    8.280    2.1402
    8.310    1.8727
    8.340    2.4434
    8.370    2.1223
    8.400    2.0153
    8.430    2.1223
    8.460    1.8013
    8.490    2.0332
    8.520    2.2115
    8.550    2.2829
    8.580    1.9975
    8.610    2.0867
    8.640    1.9262
    8.670    1.8727
    8.700    1.8548
    8.730    2.2115
    8.760    1.6765
    8.790    1.9262
    8.820    1.8548
    8.850    1.9975
    8.880    2.1759
    8.910    2.1937
    8.940    2.0867
    8.970    2.1223
    9.000    2.5682
    9.030    2.7644
    9.060    3.3173
    9.090    2.1223
    9.120    2.1045
    9.150    1.8013
    9.180    2.1045
    9.210    1.9797
    9.240    1.7121
    9.270    1.5873
    9.300    1.7657
    9.330    2.0688
    9.360    2.2650
    9.390    1.6051
    9.420    1.8727
    9.450    1.8370
    9.480    1.8013
    9.510    1.4268
    9.540    1.5338
    9.570    1.8013
    9.600    1.5873
    9.630    1.6230
    9.660    1.9618
    9.690    1.8013
    9.720    1.6230
    9.750    1.7657
    9.780    1.6408
    9.810    1.6586
    9.840    1.7121
    9.870    2.0688
    9.900    1.6586
    9.930    1.8013
    9.960    1.6408
    9.990    1.5338
   10.020    1.4981
   10.050    1.6943
   10.080    1.5160
   10.110    1.8370
   10.140    1.4981
   10.170    1.5516
   10.200    1.7478
   10.230    1.5516
   10.260    1.7478
   10.290    1.4090
   10.320    1.5160
   10.350    1.6586
   10.380    1.6765
   10.410    1.5873
   10.440    1.5695
   10.470    1.4268
   10.500    1.3554
   10.530    1.5338
   10.560    1.5338
   10.590    1.7657
   10.620    1.5160
   10.650    1.6230
   10.680    1.4090
   10.710    1.5695
   10.740    1.5695
   10.770    1.4803
   10.800    1.3554
   10.830    1.5873
   10.860    1.5338
   10.890    1.6051
   10.920    1.9083
   10.950    1.7478
   10.980    1.9975
   11.010    2.1045
   11.040    2.7822
   11.070    3.4778
   11.100    5.0829
   11.130    2.3542
   11.160    1.6051
   11.190    1.8370
   11.220    1.6230
   11.250    1.5160
   11.280    1.6051
   11.310    1.6408
   11.340    1.5338
   11.370    1.6230
   11.400    1.5338
   11.430    1.6765
   11.460    1.5160
   11.490    1.4981
   11.520    1.4803
   11.550    1.3198
   11.580    1.8905
   11.610    1.4446
   11.640    1.6586
   11.670    1.7478
   11.700    1.6943
   11.730    1.5695
   11.760    1.5338
   11.790    1.6586
   11.820    1.5873
   11.850    1.5338
   11.880    1.4625
   11.910    1.7835
   11.940    1.9262
   11.970    2.1045
   12.000    2.1580
   12.030    1.6408
   12.060    1.4625
   12.090    1.6230
   12.120    1.5873
   12.150    1.6230
   12.180    1.4625
   12.210    1.8013
   12.240    1.3911
   12.270    1.7121
   12.300    1.4981
   12.330    1.6408
   12.360    1.4446
   12.390    1.6051
   12.420    1.4981
   12.450    1.6051
   12.480    1.8370
   12.510    1.7300
   12.540    1.4268
   12.570    1.5695
   12.600    1.6230
   12.630    1.7478
   12.660    1.5695
   12.690    1.9083
   12.720    1.7835
   12.750    1.7300
   12.780    2.0867
   12.810    2.5682
   12.840    2.3185
   12.870    1.6943
   12.900    1.5516
   12.930    1.9262
   12.960    1.6586
   12.990    1.5873
   13.020    1.5338
   13.050    1.4090
   13.080    1.7121
   13.110    1.7657
   13.140    1.4981
   13.170    1.6765
   13.200    1.7121
   13.230    1.6943
   13.260    1.6586
   13.290    1.5338
   13.320    1.8548
   13.350    1.6586
   13.380    1.7300
   13.410    1.6230
   13.440    1.4625
   13.470    1.5338
   13.500    1.6586
   13.530    1.6408
   13.560    2.0153
   13.590    2.5682
   13.620    2.6752
   13.650    1.4803
   13.680    1.6051
   13.710    1.8370
   13.740    1.5873
   13.770    1.6943
   13.800    1.4803
   13.830    1.6586
   13.860    1.6051
   13.890    1.6586
   13.920    1.6765
   13.950    1.3733
   13.980    1.5873
   14.010    1.6586
   14.040    1.6230
   14.070    1.6586
   14.100    1.3554
   14.130    1.8192
   14.160    1.4446
   14.190    1.3198
   14.220    1.5160
   14.250    1.7835
   14.280    1.5160
   14.310    1.5338
   14.340    1.5338
   14.370    1.5873
   14.400    1.8905
   14.430    1.4625
   14.460    1.3019
   14.490    1.3911
   14.520    1.5160
   14.550    1.4446
   14.580    1.4803
   14.610    1.5516
   14.640    1.6230
   14.670    1.6051
   14.700    1.3554
   14.730    1.2841
   14.760    1.6943
   14.790    1.5516
   14.820    1.4268
   14.850    1.6586
   14.880    1.4268
   14.910    1.6230
   14.940    1.5160
   14.970    1.5516
   15.000    1.7121
   15.030    1.7478
   15.060    2.1580
   15.090    1.5338
   15.120    1.5873
   15.150    1.3554
   15.180    1.3733
   15.210    1.5516
   15.240    1.4090
   15.270    1.3733
   15.300    1.3554
   15.330    1.3911
   15.360    1.4268
   15.390    1.7121
   15.420    1.6408
   15.450    1.3554
   15.480    1.5695
   15.510    1.4090
   15.540    1.4268
   15.570    1.1949
   15.600    1.4446
   15.630    1.4803
   15.660    1.8192
   15.690    1.5695
   15.720    1.9975
   15.750    1.5338
   15.780    1.7657
   15.810    1.6408
   15.840    1.4268
   15.870    1.4981
   15.900    1.4446
   15.930    1.5338
   15.960    1.4446
   15.990    1.3733
   16.020    1.5695
   16.050    1.5160
   16.080    1.4446
   16.110    1.5160
   16.140    1.3198
   16.170    1.5160
   16.200    1.4981
   16.230    1.6230
   16.260    1.6765
   16.290    1.6230
   16.320    1.5873
   16.350    2.0867
   16.380    2.2829
   16.410    1.6586
   16.440    1.4268
   16.470    1.5695
   16.500    1.5160
   16.530    1.7121
   16.560    1.4446
   16.590    1.7121
   16.620    1.5873
   16.650    1.8370
   16.680    1.6408
   16.710    1.6943
   16.740    1.7478
   16.770    1.7835
   16.800    1.6765
   16.830    1.7300
   16.860    1.7121
   16.890    1.6943
   16.920    1.6408
   16.950    1.6408
   16.980    1.5873
   17.010    1.5873
   17.040    1.8013
   17.070    1.3019
   17.100    1.5873
   17.130    1.5338
   17.160    1.4090
   17.190    1.3911
   17.220    1.4981
   17.250    1.3554
   17.280    1.1414
   17.310    1.3019
   17.340    1.5695
   17.370    1.7121
   17.400    1.5338
   17.430    1.6586
   17.460    1.4625
   17.490    1.3733
   17.520    1.4803
   17.550    1.7121
   17.580    1.5873
   17.610    1.9262
   17.640    1.4803
   17.670    1.3554
   17.700    1.3376
   17.730    1.4446
   17.760    1.7657
   17.790    1.5160
   17.820    1.5160
   17.850    1.4446
   17.880    1.4803
   17.910    1.4090
   17.940    1.3733
   17.970    1.4268
   18.000    1.3198
   18.030    1.4446
   18.060    1.2484
   18.090    1.4268
   18.120    1.3911
   18.150    1.4090
   18.180    1.4803
   18.210    1.5160
   18.240    1.6943
   18.270    1.6408
   18.300    1.6051
   18.330    1.3911
   18.360    1.5516
   18.390    1.2306
   18.420    1.4090
   18.450    1.7835
   18.480    1.3733
   18.510    1.3733
   18.540    1.1414
   18.570    1.2841
   18.600    1.4625
   18.630    1.3911
   18.660    1.3019
   18.690    1.1593
   18.720    1.4268
   18.750    1.4803
   18.780    1.4090
   18.810    1.4625
   18.840    1.4803
   18.870    1.4446
   18.900    1.3554
   18.930    1.4981
   18.960    1.2841
   18.990    1.4803
   19.020    1.4090
   19.050    1.3019
   19.080    1.3733
   19.110    1.2663
   19.140    1.4268
   19.170    1.3019
   19.200    1.3376
   19.230    1.4090
   19.260    1.6408
   19.290    1.5695
   19.320    1.3911
   19.350    1.2484
   19.380    1.3733
   19.410    1.6586
   19.440    1.2663
   19.470    1.2841
   19.500    1.4981
   19.530    1.3554
   19.560    1.2663
   19.590    1.4981
   19.620    1.4268
   19.650    1.4803
   19.680    1.2484
   19.710    1.4803
   19.740    1.5160
   19.770    1.5873
   19.800    1.5695
   19.830    2.2115
   19.860    1.4981
   19.890    1.4625
   19.920    1.2663
   19.950    1.3554
   19.980    1.2663
   20.010    1.3733
   20.040    1.3376
   20.070    1.0879
   20.100    1.3733
   20.130    1.1414
   20.160    1.2663
   20.190    1.3198
   20.220    1.3554
   20.250    1.4268
   20.280    1.4268
   20.310    1.3733
   20.340    1.4803
   20.370    1.4981
   20.400    1.2306
   20.430    1.4446
   20.460    1.2663
   20.490    1.3198
   20.520    1.1949
   20.550    1.3733
   20.580    1.1771
   20.610    1.4625
   20.640    1.3198
   20.670    1.3376
   20.700    1.3019
   20.730    1.2663
   20.760    1.2841
   20.790    1.4981
   20.820    1.3911
   20.850    1.3733
   20.880    1.5873
   20.910    1.5873
   20.940    1.2306
   20.970    1.2484
   21.000    1.4803
   21.030    1.2128
   21.060    1.1414
   21.090    1.2663
   21.120    1.2306
   21.150    1.1593
   21.180    1.2841
   21.210    1.5160
   21.240    1.3376
   21.270    1.3554
   21.300    1.1414
   21.330    1.4803
   21.360    1.4803
   21.390    1.3911
   21.420    1.3376
   21.450    1.2128
   21.480    1.3733
   21.510    1.3554
   21.540    1.3554
   21.570    1.3911
   21.600    1.3198
   21.630    1.1058
   21.660    1.2484
   21.690    1.2128
   21.720    1.3554
   21.750    1.1771
   21.780    1.5160
   21.810    1.4090
   21.840    1.6230
   21.870    1.3019
   21.900    1.0879
   21.930    1.2128
   21.960    1.5695
   21.990    1.4446
   22.020    1.2841
   22.050    1.3911
   22.080    1.4090
   22.110    1.6230
   22.140    1.2128
   22.170    1.1414
   22.200    1.4803
   22.230    1.1236
   22.260    1.2663
   22.290    1.4981
   22.320    1.4090
   22.350    1.2306
   22.380    1.0879
   22.410    1.2484
   22.440    1.1236
   22.470    1.5873
   22.500    1.3019
   22.530    1.2306
   22.560    1.3019
   22.590    1.4090
   22.620    1.7121
   22.650    1.4268
   22.680    1.0166
   22.710    1.2484
   22.740    1.4090
   22.770    1.3733
   22.800    1.3733
   22.830    1.2663
   22.860    1.3911
   22.890    1.1593
   22.920    1.1771
   22.950    1.1949
   22.980    1.3733
   23.010    1.1949
   23.040    1.3554
   23.070    1.2306
   23.100    1.2306
   23.130    1.2306
   23.160    1.3554
   23.190    1.2128
   23.220    1.3019
   23.250    1.3376
   23.280    1.2306
   23.310    1.2484
   23.340    1.4268
   23.370    1.3198
   23.400    1.2128
   23.430    1.3733
   23.460    1.1949
   23.490    1.4090
   23.520    1.0879
   23.550    1.0523
   23.580    1.1949
   23.610    1.2306
   23.640    1.1771
   23.670    1.3198
   23.700    1.6230
   23.730    1.3198
   23.760    1.3376
   23.790    1.0523
   23.820    1.3733
   23.850    1.3554
   23.880    1.1771
   23.910    0.8739
   23.940    1.0166
   23.970    1.0523
   24.000    0.9631
   24.030    1.1414
   24.060    1.1593
   24.090    1.1771
   24.120    1.3019
   24.150    1.1593
   24.180    1.3376
   24.210    1.2841
   24.240    1.3733
   24.270    1.0344
   24.300    1.2306
   24.330    1.0701
   24.360    1.3376
   24.390    1.1593
   24.420    1.2306
   24.450    1.1949
   24.480    1.0701
   24.510    1.0166
   24.540    1.2663
   24.570    1.0879
   24.600    1.1593
   24.630    1.0166
   24.660    1.0701
   24.690    0.9096
   24.720    1.1593
   24.750    1.2306
   24.780    1.1771
   24.810    1.2306
   24.840    0.9988
   24.870    0.9452
   24.900    1.3911
   24.930    1.2128
   24.960    1.1414
   24.990    1.1236
   25.020    0.9809
   25.050    1.2663
   25.080    1.1236
   25.110    0.9988
   25.140    1.0701
   25.170    1.3198
   25.200    1.0166
   25.230    1.1414
   25.260    1.3554
   25.290    1.1058
   25.320    1.1949
   25.350    1.1771
   25.380    1.0166
   25.410    1.1414
   25.440    1.1058
   25.470    1.1771
   25.500    1.1058
   25.530    1.2306
   25.560    0.9452
   25.590    1.1593
   25.620    1.0344
   25.650    1.1949
   25.680    1.1058
   25.710    0.9631
   25.740    0.8917
   25.770    1.1414
   25.800    0.9631
   25.830    1.2128
   25.860    1.2128
   25.890    1.0701
   25.920    1.1771
   25.950    1.1058
   25.980    1.0879
   26.010    1.0344
   26.040    1.1236
   26.070    1.2663
   26.100    1.0879
   26.130    0.9988
   26.160    1.2484
   26.190    1.1414
   26.220    1.1771
   26.250    1.6586
   26.280    1.1593
   26.310    1.2306
   26.340    0.9988
   26.370    1.1593
   26.400    1.0344
   26.430    0.9274
   26.460    1.0344
   26.490    0.9631
   26.520    1.0523
   26.550    1.1236
   26.580    1.2306
   26.610    1.3019
   26.640    1.6765
   26.670    1.1949
   26.700    0.9988
   26.730    1.0701
   26.760    1.0701
   26.790    1.1058
   26.820    1.0701
   26.850    1.1236
   26.880    0.9988
   26.910    1.0166
   26.940    0.9988
   26.970    1.1058
   27.000    1.0523
   27.030    1.1414
   27.060    1.0523
   27.090    0.9809
   27.120    0.9631
   27.150    0.9452
   27.180    1.2306
   27.210    0.9452
   27.240    0.9988
   27.270    1.0166
   27.300    1.1593
   27.330    0.8204
   27.360    0.9452
   27.390    0.9274
   27.420    1.2128
   27.450    1.2128
   27.480    0.9096
   27.510    1.0166
   27.540    0.9274
   27.570    0.9809
   27.600    0.8739
   27.630    1.1771
   27.660    0.9452
   27.690    1.0523
   27.720    0.8561
   27.750    0.8561
   27.780    0.9274
   27.810    1.0166
   27.840    0.9096
   27.870    0.9988
   27.900    0.8917
   27.930    0.9452
   27.960    1.0879
   27.990    1.0344
   28.020    0.9988
   28.050    0.9631
   28.080    0.9988
   28.110    0.8739
   28.140    0.7847
   28.170    0.9631
   28.200    0.7847
   28.230    0.7847
   28.260    1.0879
   28.290    0.8917
   28.320    0.8739
   28.350    0.9809
   28.380    0.9452
   28.410    0.9631
   28.440    1.0166
   28.470    1.0166
   28.500    1.0523
   28.530    0.9809
   28.560    1.0166
   28.590    0.9096
   28.620    1.0166
   28.650    0.8204
   28.680    0.9631
   28.710    1.0166
   28.740    0.9809
   28.770    0.9988
   28.800    0.8382
   28.830    1.0344
   28.860    0.9274
   28.890    0.7312
   28.920    0.8026
   28.950    1.0344
   28.980    1.0523
   29.010    0.9809
   29.040    0.7669
   29.070    0.8204
   29.100    1.0523
   29.130    0.8382
   29.160    1.0701
   29.190    0.9274
   29.220    0.8382
   29.250    0.8026
   29.280    0.8917
   29.310    1.0879
   29.340    0.8739
   29.370    0.9809
   29.400    0.9096
   29.430    0.8739
   29.460    0.9274
   29.490    1.0701
   29.520    0.8561
   29.550    1.0523
   29.580    1.0344
   29.610    0.7312
   29.640    0.8561
   29.670    0.9631
   29.700    0.9988
   29.730    0.9809
   29.760    0.8382
   29.790    0.8917
   29.820    0.9631
   29.850    0.7669
   29.880    0.9274
   29.910    0.7669
   29.940    0.8561
   29.970    0.7847
   30.000    0.9096
   30.030    1.2663
   30.060    1.0523
   30.090    0.9452
   30.120    0.8204
   30.150    1.1414
   30.180    0.6956
   30.210    0.9631
   30.240    0.8204
   30.270    0.8382
   30.300    0.7491
   30.330    0.9096
   30.360    0.8382
   30.390    0.7847
   30.420    0.8026
   30.450    0.8382
   30.480    0.8561
   30.510    0.9096
   30.540    0.8739
   30.570    0.5886
   30.600    0.8561
   30.630    0.9988
   30.660    0.7134
   30.690    0.7847
   30.720    0.7491
   30.750    0.8561
   30.780    0.9274
   30.810    0.7134
   30.840    0.8382
   30.870    0.8204
   30.900    0.8561
   30.930    0.8382
   30.960    0.9096
   30.990    0.6064
   31.020    0.9452
   31.050    0.8739
   31.080    0.7491
   31.110    0.9988
   31.140    0.8739
   31.170    0.9631
   31.200    0.8204
   31.230    0.9096
   31.260    0.8382
   31.290    0.7669
   31.320    0.6599
   31.350    0.7847
   31.380    0.6599
   31.410    0.9274
   31.440    0.9274
   31.470    1.1058
   31.500    0.8204
   31.530    0.8204
   31.560    0.7847
   31.590    0.6956
   31.620    0.5350
   31.650    0.8204
   31.680    0.7312
   31.710    0.8026
   31.740    0.8382
   31.770    0.6242
   31.800    0.7847
   31.830    0.9274
   31.860    0.8739
   31.890    0.8026
   31.920    0.6956
   31.950    0.7134
   31.980    0.7847
   32.010    0.7312
   32.040    0.8382
   32.070    0.8739
   32.100    0.7669
   32.130    0.7491
   32.160    0.8026
   32.190    0.8561
   32.220    0.8561
   32.250    0.6421
   32.280    0.6956
   32.310    0.6777
   32.340    0.8382
   32.370    0.9274
   32.400    0.9988
   32.430    0.7491
   32.460    0.8204
   32.490    0.8204
   32.520    0.8739
   32.550    0.8917
   32.580    0.7669
   32.610    0.9274
   32.640    0.7134
   32.670    0.8739
   32.700    0.8917
   32.730    0.6777
   32.760    0.7847
   32.790    0.9274
   32.820    0.6242
   32.850    0.7312
   32.880    0.8204
   32.910    0.6956
   32.940    0.6242
   32.970    0.8917
   33.000    0.5886
   33.030    0.6421
   33.060    0.7491
   33.090    0.8561
   33.120    0.7669
   33.150    0.5172
   33.180    0.7491
   33.210    0.6421
   33.240    0.6956
   33.270    0.8026
   33.300    0.6064
   33.330    0.7847
   33.360    0.6956
   33.390    0.6064
   33.420    0.7134
   33.450    0.8382
   33.480    0.7312
   33.510    0.7847
   33.540    0.7491
   33.570    0.5350
   33.600    0.8917
   33.630    0.7312
   33.660    0.6599
   33.690    0.7312
   33.720    0.7669
   33.750    1.0166
   33.780    0.8204
   33.810    0.8382
   33.840    0.6956
   33.870    0.7669
   33.900    0.8026
   33.930    0.8204
   33.960    0.5886
   33.990    0.7312
   34.020    0.6599
   34.050    0.7669
   34.080    0.7312
   34.110    0.8561
   34.140    0.7312
   34.170    0.5707
   34.200    0.6242
   34.230    0.6956
   34.260    0.5886
   34.290    0.8739
   34.320    0.5886
   34.350    0.6777
   34.380    0.6421
   34.410    0.6421
   34.440    0.4280
   34.470    0.5172
   34.500    0.7491
   34.530    0.5886
   34.560    0.8026
   34.590    0.4815
   34.620    0.6777
   34.650    0.7312
   34.680    0.6599
   34.710    0.6599
   34.740    0.6599
   34.770    0.5350
   34.800    0.6777
   34.830    0.6064
   34.860    0.7312
   34.890    0.6242
   34.920    0.5350
   34.950    0.7312
   34.980    0.4994
   35.010    0.6599
   35.040    0.5707
   35.070    0.7134
   35.100    0.5707
   35.130    0.5886
   35.160    0.5350
   35.190    0.5707
   35.220    0.5350
   35.250    0.4815
   35.280    0.5886
   35.310    0.6064
   35.340    0.4280
   35.370    0.6242
   35.400    0.6421
   35.430    0.6242
   35.460    0.4280
   35.490    0.6064
   35.520    0.6242
   35.550    0.6421
   35.580    0.6064
   35.610    0.6599
   35.640    0.7134
   35.670    0.5707
   35.700    0.6242
   35.730    0.5707
   35.760    0.5707
   35.790    0.5886
   35.820    0.6064
   35.850    0.5707
   35.880    0.6421
   35.910    0.6599
   35.940    0.5886
   35.970    0.5886
   36.000    0.7491
   36.030    0.5529
   36.060    0.5529
   36.090    0.5529
   36.120    0.5707
   36.150    0.5172
   36.180    0.6599
   36.210    0.4280
   36.240    0.6064
   36.270    0.5529
   36.300    0.4459
   36.330    0.5886
   36.360    0.6242
   36.390    0.4102
   36.420    0.6777
   36.450    0.4459
   36.480    0.5707
   36.510    0.6421
   36.540    0.5707
   36.570    0.7491
   36.600    0.5707
   36.630    0.6421
   36.660    0.5886
   36.690    0.4815
   36.720    0.4815
   36.750    0.5886
   36.780    0.6777
   36.810    0.4637
   36.840    0.6599
   36.870    0.4994
   36.900    0.6421
   36.930    0.3567
   36.960    0.6242
   36.990    0.5529
   37.020    0.5350
   37.050    0.5350
   37.080    0.8382
   37.110    0.5172
   37.140    0.7491
   37.170    0.5529
   37.200    0.5350
   37.230    0.5350
   37.260    0.5172
   37.290    0.6064
   37.320    0.6064
   37.350    0.4102
   37.380    0.4815
   37.410    0.8739
   37.440    0.7669
   37.470    0.6421
   37.500    0.5172
   37.530    0.5172
   37.560    0.3389
   37.590    0.3032
   37.620    0.5529
   37.650    0.5886
   37.680    0.6242
   37.710    0.4637
   37.740    0.4280
   37.770    0.4637
   37.800    0.4637
   37.830    0.3924
   37.860    0.5350
   37.890    0.3389
   37.920    0.4459
   37.950    0.4815
   37.980    0.5350
   38.010    0.4815
   38.040    0.4459
   38.070    0.4102
   38.100    0.5172
   38.130    0.6242
   38.160    0.5707
   38.190    0.4815
   38.220    0.4994
   38.250    0.4102
   38.280    0.5172
   38.310    0.4280
   38.340    0.4102
   38.370    0.3924
   38.400    0.4102
   38.430    0.5172
   38.460    0.4102
   38.490    0.4102
   38.520    0.4637
   38.550    0.4459
   38.580    0.3745
   38.610    0.4637
   38.640    0.5707
   38.670    0.3389
   38.700    0.5529
   38.730    0.4637
   38.760    0.4102
   38.790    0.3389
   38.820    0.6421
   38.850    0.5707
   38.880    0.5529
   38.910    0.2675
   38.940    0.5707
   38.970    0.2854
   39.000    0.4637
   39.030    0.4459
   39.060    0.4815
   39.090    0.4994
   39.120    0.5172
   39.150    0.4102
   39.180    0.4994
   39.210    0.4280
   39.240    0.6599
   39.270    0.5707
   39.300    0.4637
   39.330    0.5707
   39.360    0.5529
   39.390    0.4994
   39.420    0.6064
   39.450    0.6421
   39.480    0.6242
   39.510    0.5350
   39.540    0.5350
   39.570    0.4815
   39.600    0.4815
   39.630    0.4815
   39.660    0.4102
   39.690    0.4459
   39.720    0.6242
   39.750    0.3389
   39.780    0.5350
   39.810    0.3924
   39.840    0.5172
   39.870    0.4102
   39.900    0.5707
   39.930    0.4102
   39.960    0.4815
   39.990    0.6599