File: data/MOCOF-1/PXRD/PXRD_KE-122_Cu-Ka1_capillary-1mm_5s-deg.xyd
    1.500   15.3449
    1.530   15.6082
    1.560   14.6919
    1.590   14.4602
    1.620   14.5656
    1.650   14.0811
    1.680   13.3333
    1.710   14.6077
    1.740   14.1548
    1.770   13.6809
    1.800   13.1332
    1.830   13.5440
    1.860   13.1543
    1.890   13.4387
    1.920   12.7857
    1.950   13.2175
    1.980   12.4908
    2.010   12.1748
    2.040   12.4065
    2.070   12.0169
    2.100   11.6588
    2.130   11.7641
    2.160   11.5956
    2.190   11.6693
    2.220   12.0274
    2.250   11.7114
    2.280   11.5008
    2.310   11.0690
    2.340   10.7741
    2.370   10.8478
    2.400   11.5113
    2.430   11.0585
    2.460   10.6688
    2.490   10.6898
    2.520   10.8478
    2.550   10.5108
    2.580   10.4792
    2.610   11.0269
    2.640    9.9842
    2.670   10.5740
    2.700   10.3949
    2.730   10.1527
    2.760   10.1001
    2.790    9.7841
    2.820   10.1211
    2.850    9.7525
    2.880    9.9315
    2.910    9.7946
    2.940    9.4892
    2.970    9.8684
    3.000    9.8262
    3.030    9.6367
    3.060    9.8473
    3.090    9.2154
    3.120    9.2470
    3.150    8.9942
    3.180    8.9100
    3.210    9.4471
    3.240    9.1522
    3.270    9.0679
    3.300    9.2996
    3.330    8.7730
    3.360    9.1206
    3.390    8.8573
    3.420    8.8257
    3.450    8.9626
    3.480    8.3518
    3.510    8.4992
    3.540    8.4360
    3.570    8.7309
    3.600    7.9410
    3.630    8.6467
    3.660    8.5940
    3.690    8.3728
    3.720    8.3518
    3.750    8.4466
    3.780    7.9516
    3.810    8.1306
    3.840    8.2570
    3.870    7.5935
    3.900    7.7620
    3.930    7.7199
    3.960    8.0674
    3.990    7.7725
    4.020    7.6883
    4.050    8.0253
    4.080    7.3512
    4.110    7.8462
    4.140    7.5303
    4.170    7.6040
    4.200    7.3091
    4.230    7.0248
    4.260    7.2775
    4.290    6.9932
    4.320    7.3828
    4.350    6.7930
    4.380    7.0037
    4.410    7.0037
    4.440    7.3934
    4.470    7.3934
    4.500    7.4250
    4.530    6.9510
    4.560    7.3196
    4.590    6.8562
    4.620    7.2249
    4.650    7.0879
    4.680    6.8141
    4.710    6.9510
    4.740    6.8352
    4.770    6.8668
    4.800    6.7404
    4.830    7.0248
    4.860    7.2249
    4.890    6.8036
    4.920    6.7404
    4.950    6.9405
    4.980    6.4034
    5.010    6.9510
    5.040    6.5613
    5.070    6.5192
    5.100    6.6245
    5.130    6.6035
    5.160    6.7088
    5.190    6.6351
    5.220    6.4771
    5.250    6.3086
    5.280    6.4666
    5.310    6.7088
    5.340    6.7193
    5.370    6.7299
    5.400    6.3928
    5.430    6.3402
    5.460    6.3402
    5.490    6.4350
    5.520    6.7404
    5.550    6.5403
    5.580    6.5824
    5.610    6.4139
    5.640    6.4350
    5.670    6.2349
    5.700    6.6877
    5.730    6.7720
    5.760    6.5929
    5.790    6.5719
    5.820    6.1717
    5.850    6.2875
    5.880    6.4666
    5.910    6.3928
    5.940    6.4771
    5.970    6.2033
    6.000    6.5824
    6.030    6.5403
    6.060    6.2454
    6.090    6.6245
    6.120    6.3718
    6.150    6.4244
    6.180    6.4560
    6.210    6.1506
    6.240    6.6035
    6.270    5.7925
    6.300    6.3086
    6.330    6.2033
    6.360    6.7509
    6.390    6.2243
    6.420    6.3718
    6.450    6.5508
    6.480    6.2559
    6.510    6.4034
    6.540    6.6351
    6.570    6.9932
    6.600    6.5192
    6.630    6.3718
    6.660    6.3507
    6.690    6.4350
    6.720    7.1406
    6.750    6.1295
    6.780    6.3718
    6.810    6.7193
    6.840    6.2349
    6.870    6.4771
    6.900    6.2454
    6.930    6.5613
    6.960    6.2454
    6.990    6.4982
    7.020    6.4771
    7.050    6.4876
    7.080    6.2138
    7.110    6.2665
    7.140    6.4560
    7.170    6.3296
    7.200    6.5192
    7.230    6.1506
    7.260    5.9610
    7.290    6.4455
    7.320    6.6456
    7.350    6.4034
    7.380    6.0558
    7.410    6.3823
    7.440    6.2559
    7.470    6.2770
    7.500    6.2349
    7.530    6.6140
    7.560    6.4455
    7.590    6.3296
    7.620    6.8246
    7.650    6.1822
    7.680    6.3296
    7.710    6.5508
    7.740    6.1506
    7.770    6.3718
    7.800    6.4034
    7.830    6.5403
    7.860    6.3402
    7.890    6.4455
    7.920    6.2349
    7.950    6.4034
    7.980    6.5613
    8.010    6.2981
    8.040    6.4982
    8.070    6.2875
    8.100    6.7299
    8.130    6.2138
    8.160    6.5403
    8.190    5.8768
    8.220    6.3402
    8.250    6.5508
    8.280    6.3296
    8.310    6.3823
    8.340    6.3612
    8.370    6.3928
    8.400    6.5087
    8.430    6.6351
    8.460    6.7404
    8.490    6.1927
    8.520    6.8878
    8.550    6.6035
    8.580    6.2981
    8.610    6.3718
    8.640    6.4034
    8.670    6.2454
    8.700    6.6351
    8.730    6.5087
    8.760    6.4350
    8.790    6.7825
    8.820    6.0874
    8.850    6.7193
    8.880    6.4666
    8.910    6.3612
    8.940    6.5508
    8.970    6.4560
    9.000    6.4771
    9.030    6.4666
    9.060    6.4666
    9.090    6.4244
    9.120    6.1506
    9.150    6.8352
    9.180    6.5403
    9.210    6.5087
    9.240    6.5719
    9.270    6.8457
    9.300    6.8668
    9.330    6.6245
    9.360    6.7509
    9.390    6.8668
    9.420    6.5719
    9.450    6.5824
    9.480    6.5613
    9.510    6.4455
    9.540    6.4244
    9.570    6.8352
    9.600    6.5824
    9.630    6.6877
    9.660    6.6456
    9.690    6.6561
    9.720    6.3402
    9.750    6.6035
    9.780    6.5613
    9.810    6.5403
    9.840    6.4876
    9.870    7.0458
    9.900    6.7509
    9.930    6.7193
    9.960    6.5298
    9.990    6.6877
   10.020    6.5087
   10.050    6.5929
   10.080    6.7720
   10.110    6.5613
   10.140    6.6140
   10.170    6.3718
   10.200    6.4666
   10.230    6.6983
   10.260    6.7088
   10.290    6.3086
   10.320    6.5298
   10.350    6.5192
   10.380    6.2033
   10.410    6.4666
   10.440    6.5719
   10.470    6.4350
   10.500    6.6561
   10.530    6.2559
   10.560    6.5087
   10.590    6.2033
   10.620    6.3718
   10.650    6.5087
   10.680    6.2138
   10.710    6.2770
   10.740    6.4982
   10.770    6.1295
   10.800    6.6035
   10.830    6.4560
   10.860    6.4244
   10.890    6.7509
   10.920    6.2033
   10.950    6.0348
   10.980    6.7404
   11.010    6.5508
   11.040    6.2138
   11.070    6.2665
   11.100    6.4455
   11.130    6.2875
   11.160    6.4455
   11.190    6.3296
   11.220    6.2981
   11.250    6.3718
   11.280    6.1611
   11.310    6.1822
   11.340    6.1085
   11.370    6.4771
   11.400    6.3402
   11.430    6.1927
   11.460    6.4034
   11.490    6.2138
   11.520    5.5924
   11.550    6.4139
   11.580    6.0874
   11.610    5.7925
   11.640    6.0874
   11.670    6.1611
   11.700    6.0137
   11.730    6.0032
   11.760    6.3296
   11.790    5.9716
   11.820    6.3191
   11.850    6.2349
   11.880    5.9610
   11.910    6.3191
   11.940    5.7399
   11.970    6.1295
   12.000    5.9610
   12.030    5.7188
   12.060    5.8136
   12.090    5.7609
   12.120    5.9716
   12.150    6.0558
   12.180    6.1822
   12.210    5.6872
   12.240    5.9505
   12.270    5.6345
   12.300    6.0874
   12.330    5.7715
   12.360    6.0979
   12.390    6.1085
   12.420    5.9610
   12.450    5.9189
   12.480    6.2559
   12.510    5.9610
   12.540    5.9505
   12.570    6.1611
   12.600    5.7083
   12.630    5.6556
   12.660    5.9294
   12.690    5.8978
   12.720    5.8452
   12.750    5.8768
   12.780    5.7293
   12.810    5.5924
   12.840    5.8452
   12.870    5.7399
   12.900    5.7399
   12.930    5.9505
   12.960    5.8557
   12.990    5.6135
   13.020    5.6872
   13.050    6.0979
   13.080    5.7925
   13.110    5.8452
   13.140    5.8347
   13.170    5.6767
   13.200    5.9505
   13.230    5.7504
   13.260    5.6661
   13.290    5.8452
   13.320    5.5187
   13.350    5.8768
   13.380    5.4344
   13.410    5.6872
   13.440    5.8873
   13.470    5.7609
   13.500    6.0874
   13.530    5.9189
   13.560    5.8662
   13.590    5.6661
   13.620    5.9400
   13.650    6.1611
   13.680    5.6872
   13.710    5.3081
   13.740    5.8136
   13.770    5.6240
   13.800    5.8031
   13.830    5.7820
   13.860    5.5503
   13.890    5.9821
   13.920    5.4134
   13.950    5.4976
   13.980    5.9400
   14.010    5.6556
   14.040    5.6977
   14.070    6.0348
   14.100    5.7293
   14.130    5.4344
   14.160    5.5082
   14.190    5.6767
   14.220    5.7188
   14.250    5.8347
   14.280    5.7188
   14.310    5.7399
   14.340    6.0137
   14.370    5.4660
   14.400    5.7504
   14.430    5.5714
   14.460    5.8452
   14.490    5.6240
   14.520    5.7293
   14.550    6.0348
   14.580    5.4871
   14.610    5.3923
   14.640    5.8031
   14.670    5.8136
   14.700    5.8241
   14.730    5.4976
   14.760    5.4134
   14.790    5.8031
   14.820    5.8557
   14.850    5.3712
   14.880    5.7399
   14.910    5.5819
   14.940    5.9926
   14.970    5.8557
   15.000    5.5503
   15.030    6.0242
   15.060    5.6135
   15.090    5.9716
   15.120    5.7504
   15.150    5.8241
   15.180    6.1295
   15.210    5.3291
   15.240    5.8873
   15.270    5.7609
   15.300    5.5503
   15.330    5.6029
   15.360    5.9189
   15.390    5.8662
   15.420    5.8662
   15.450    5.9821
   15.480    6.0769
   15.510    5.6345
   15.540    5.7293
   15.570    5.6345
   15.600    5.8031
   15.630    6.0979
   15.660    5.7925
   15.690    5.9084
   15.720    5.5924
   15.750    6.1611
   15.780    5.8873
   15.810    5.6240
   15.840    6.0664
   15.870    5.7925
   15.900    5.6872
   15.930    5.7609
   15.960    5.9610
   15.990    5.6661
   16.020    5.9505
   16.050    5.9505
   16.080    6.0979
   16.110    5.6556
   16.140    5.8136
   16.170    5.6977
   16.200    5.8031
   16.230    5.7399
   16.260    6.1401
   16.290    5.9926
   16.320    5.8452
   16.350    5.8347
   16.380    5.8347
   16.410    6.1295
   16.440    5.9505
   16.470    5.8347
   16.500    5.6135
   16.530    6.0979
   16.560    5.7504
   16.590    5.5924
   16.620    5.5292
   16.650    6.0032
   16.680    6.0558
   16.710    5.5082
   16.740    5.9189
   16.770    6.0137
   16.800    5.8768
   16.830    5.9926
   16.860    5.8452
   16.890    6.0348
   16.920    5.9294
   16.950    5.3397
   16.980    5.7609
   17.010    5.7504
   17.040    6.0769
   17.070    5.9926
   17.100    5.6661
   17.130    5.6767
   17.160    6.0874
   17.190    5.5503
   17.220    5.7399
   17.250    5.8768
   17.280    6.0137
   17.310    5.5608
   17.340    5.5608
   17.370    5.8241
   17.400    5.7925
   17.430    5.8662
   17.460    5.9294
   17.490    6.0032
   17.520    6.0874
   17.550    5.5608
   17.580    6.0453
   17.610    5.8452
   17.640    5.8873
   17.670    5.9821
   17.700    5.9400
   17.730    5.8031
   17.760    5.9716
   17.790    5.9610
   17.820    5.8347
   17.850    5.7609
   17.880    5.8347
   17.910    5.7504
   17.940    5.4766
   17.970    5.8347
   18.000    5.6767
   18.030    5.4660
   18.060    5.7609
   18.090    5.5503
   18.120    6.0137
   18.150    5.8241
   18.180    5.8873
   18.210    6.1295
   18.240    6.2243
   18.270    5.5608
   18.300    5.7715
   18.330    5.5819
   18.360    5.9400
   18.390    6.0137
   18.420    6.2559
   18.450    5.6345
   18.480    5.7293
   18.510    5.8452
   18.540    6.0664
   18.570    6.2454
   18.600    5.4555
   18.630    5.9610
   18.660    6.2033
   18.690    6.0558
   18.720    6.2033
   18.750    5.9294
   18.780    6.2349
   18.810    5.8452
   18.840    5.8978
   18.870    5.6977
   18.900    5.9294
   18.930    6.1506
   18.960    5.9926
   18.990    6.0032
   19.020    6.0769
   19.050    5.7504
   19.080    6.0874
   19.110    5.9821
   19.140    5.8662
   19.170    5.7188
   19.200    6.0137
   19.230    5.6977
   19.260    6.2349
   19.290    5.9189
   19.320    6.2138
   19.350    5.8978
   19.380    6.1295
   19.410    6.0979
   19.440    5.7609
   19.470    5.9400
   19.500    5.8452
   19.530    5.8873
   19.560    5.9505
   19.590    6.2138
   19.620    6.1295
   19.650    5.7188
   19.680    6.1295
   19.710    6.0348
   19.740    5.9821
   19.770    5.6767
   19.800    5.9505
   19.830    6.1611
   19.860    5.7399
   19.890    5.9084
   19.920    6.1401
   19.950    6.2665
   19.980    5.8662
   20.010    5.9084
   20.040    5.9294
   20.070    6.1506
   20.100    5.9926
   20.130    5.8978
   20.160    6.0348
   20.190    5.8662
   20.220    6.3823
   20.250    6.2981
   20.280    5.8136
   20.310    5.9716
   20.340    6.3823
   20.370    5.9189
   20.400    5.9926
   20.430    6.0769
   20.460    5.8347
   20.490    5.9505
   20.520    5.7083
   20.550    6.1717
   20.580    6.0769
   20.610    5.9505
   20.640    6.0348
   20.670    5.8557
   20.700    5.9821
   20.730    6.0769
   20.760    6.0664
   20.790    6.0453
   20.820    6.2033
   20.850    5.8136
   20.880    6.2033
   20.910    5.9821
   20.940    6.3191
   20.970    5.9610
   21.000    6.2454
   21.030    6.0453
   21.060    5.6135
   21.090    6.3296
   21.120    5.4976
   21.150    6.3928
   21.180    6.2770
   21.210    6.1295
   21.240    6.1295
   21.270    6.1085
   21.300    5.9400
   21.330    6.0032
   21.360    5.5608
   21.390    6.1295
   21.420    5.9610
   21.450    6.4034
   21.480    6.0874
   21.510    5.8978
   21.540    6.3718
   21.570    6.1295
   21.600    6.2665
   21.630    6.2138
   21.660    5.7925
   21.690    5.6767
   21.720    6.0769
   21.750    6.2349
   21.780    6.0979
   21.810    6.4455
   21.840    6.1190
   21.870    5.8136
   21.900    6.1085
   21.930    5.9505
   21.960    6.1927
   21.990    5.8557
   22.020    5.9294
   22.050    6.2243
   22.080    6.1717
   22.110    6.1506
   22.140    5.7504
   22.170    6.4771
   22.200    6.0032
   22.230    6.0769
   22.260    5.8873
   22.290    6.0664
   22.320    5.9610
   22.350    5.9821
   22.380    5.7399
   22.410    6.0032
   22.440    5.8662
   22.470    6.2981
   22.500    6.4771
   22.530    6.4034
   22.560    6.1190
   22.590    6.5192
   22.620    6.2033
   22.650    5.8347
   22.680    6.1190
   22.710    6.3296
   22.740    6.1085
   22.770    5.9821
   22.800    5.7820
   22.830    6.1611
   22.860    5.8768
   22.890    6.2349
   22.920    6.0032
   22.950    6.1401
   22.980    5.6029
   23.010    5.9189
   23.040    6.0664
   23.070    6.3612
   23.100    5.9294
   23.130    5.8557
   23.160    6.0137
   23.190    6.2559
   23.220    5.8873
   23.250    6.0137
   23.280    5.8031
   23.310    6.0453
   23.340    6.3928
   23.370    6.5192
   23.400    6.1506
   23.430    5.8662
   23.460    6.3191
   23.490    6.0453
   23.520    6.3086
   23.550    6.1295
   23.580    5.8873
   23.610    6.2559
   23.640    5.8557
   23.670    6.1822
   23.700    6.0453
   23.730    5.8978
   23.760    5.9926
   23.790    6.1295
   23.820    6.0032
   23.850    6.2033
   23.880    5.7715
   23.910    5.7399
   23.940    5.8662
   23.970    5.7820
   24.000    5.7715
   24.030    5.8452
   24.060    5.8347
   24.090    6.1611
   24.120    5.8768
   24.150    5.6451
   24.180    5.8978
   24.210    6.1085
   24.240    5.9084
   24.270    5.7188
   24.300    5.8241
   24.330    5.8241
   24.360    5.9610
   24.390    5.8557
   24.420    5.6767
   24.450    5.9400
   24.480    5.8768
   24.510    6.1085
   24.540    6.0558
   24.570    5.5714
   24.600    5.8136
   24.630    5.8557
   24.660    5.4660
   24.690    5.8136
   24.720    5.9084
   24.750    5.7925
   24.780    5.8347
   24.810    6.1190
   24.840    5.8978
   24.870    5.8241
   24.900    6.0137
   24.930    5.6556
   24.960    5.4555
   24.990    6.0769
   25.020    5.7188
   25.050    5.4766
   25.080    5.9084
   25.110    5.9084
   25.140    5.7715
   25.170    5.5082
   25.200    5.8136
   25.230    5.8768
   25.260    5.6977
   25.290    5.6767
   25.320    5.2027
   25.350    5.4766
   25.380    5.6556
   25.410    5.7609
   25.440    5.8873
   25.470    5.7715
   25.500    5.5187
   25.530    5.4344
   25.560    5.7504
   25.590    5.5608
   25.620    5.2659
   25.650    5.6767
   25.680    5.2870
   25.710    5.8452
   25.740    5.8347
   25.770    5.5608
   25.800    6.1927
   25.830    5.4555
   25.860    5.6029
   25.890    5.4450
   25.920    5.5819
   25.950    5.2554
   25.980    5.4976
   26.010    5.5714
   26.040    6.1085
   26.070    5.8452
   26.100    5.3923
   26.130    5.6345
   26.160    5.5503
   26.190    5.3607
   26.220    5.6872
   26.250    5.5292
   26.280    5.7083
   26.310    5.4766
   26.340    5.8768
   26.370    5.4871
   26.400    5.5398
   26.430    5.4134
   26.460    5.4134
   26.490    5.1606
   26.520    5.2765
   26.550    5.4239
   26.580    5.4871
   26.610    5.2659
   26.640    5.3502
   26.670    5.6029
   26.700    5.8347
   26.730    5.3712
   26.760    5.2554
   26.790    5.5187
   26.820    5.3712
   26.850    5.3923
   26.880    5.2449
   26.910    5.3291
   26.940    5.4134
   26.970    5.2027
   27.000    4.9394
   27.030    5.2449
   27.060    5.6661
   27.090    5.6029
   27.120    5.1606
   27.150    5.4871
   27.180    5.3712
   27.210    5.7188
   27.240    5.2765
   27.270    5.5608
   27.300    5.3923
   27.330    5.1290
   27.360    5.0132
   27.390    5.3607
   27.420    5.4450
   27.450    5.0764
   27.480    4.9394
   27.510    5.3081
   27.540    5.0869
   27.570    5.3397
   27.600    5.2343
   27.630    5.4028
   27.660    5.3712
   27.690    4.9816
   27.720    5.1185
   27.750    5.4028
   27.780    5.1501
   27.810    5.2343
   27.840    5.2343
   27.870    5.2975
   27.900    5.3502
   27.930    5.3712
   27.960    5.7293
   27.990    5.3291
   28.020    5.3502
   28.050    5.5292
   28.080    5.3502
   28.110    5.6029
   28.140    4.8868
   28.170    5.0764
   28.200    5.3186
   28.230    5.2027
   28.260    4.9816
   28.290    5.2238
   28.320    5.3397
   28.350    5.3081
   28.380    5.4028
   28.410    5.4450
   28.440    5.2870
   28.470    5.1606
   28.500    5.0132
   28.530    5.3818
   28.560    5.3081
   28.590    5.1817
   28.620    5.0448
   28.650    5.2659
   28.680    5.5082
   28.710    5.2343
   28.740    5.0974
   28.770    5.2133
   28.800    5.5608
   28.830    5.2765
   28.860    5.3397
   28.890    4.8973
   28.920    5.4028
   28.950    5.3291
   28.980    5.2554
   29.010    5.3186
   29.040    4.8763
   29.070    5.3502
   29.100    5.3186
   29.130    4.9394
   29.160    5.1395
   29.190    4.9078
   29.220    5.1606
   29.250    4.8236
   29.280    5.1711
   29.310    5.1711
   29.340    4.8868
   29.370    5.1922
   29.400    5.6451
   29.430    5.3291
   29.460    4.7815
   29.490    4.8341
   29.520    5.0764
   29.550    5.3291
   29.580    4.9289
   29.610    5.2238
   29.640    5.2343
   29.670    5.2554
   29.700    4.7604
   29.730    5.0342
   29.760    4.8657
   29.790    4.7393
   29.820    5.0448
   29.850    4.9921
   29.880    4.8131
   29.910    5.1817
   29.940    5.1185
   29.970    5.0658
   30.000    5.0869
   30.030    4.9078
   30.060    5.3607
   30.090    4.7288
   30.120    5.2343
   30.150    5.0869
   30.180    4.8025
   30.210    4.6235
   30.240    4.7288
   30.270    4.9184
   30.300    4.7920
   30.330    5.1080
   30.360    4.6972
   30.390    4.9500
   30.420    4.8868
   30.450    5.0132
   30.480    5.0869
   30.510    5.0132
   30.540    4.8973
   30.570    5.1606
   30.600    4.7709
   30.630    4.7499
   30.660    4.9605
   30.690    4.8657
   30.720    4.5076
   30.750    4.6656
   30.780    4.7920
   30.810    4.8973
   30.840    5.0026
   30.870    4.8657
   30.900    4.8131
   30.930    4.8025
   30.960    4.8657
   30.990    4.8236
   31.020    4.6656
   31.050    5.1711
   31.080    4.8236
   31.110    4.9394
   31.140    4.8447
   31.170    4.8025
   31.200    4.4866
   31.230    4.6340
   31.260    4.6972
   31.290    4.7604
   31.320    4.6972
   31.350    4.7288
   31.380    4.8657
   31.410    4.8341
   31.440    4.8131
   31.470    5.1185
   31.500    4.8868
   31.530    4.9816
   31.560    4.8763
   31.590    4.6867
   31.620    4.7604
   31.650    4.7288
   31.680    4.6972
   31.710    4.9500
   31.740    4.6130
   31.770    4.7393
   31.800    4.9605
   31.830    4.8552
   31.860    4.9078
   31.890    5.0869
   31.920    4.9184
   31.950    4.8236
   31.980    4.9816
   32.010    4.9184
   32.040    5.3397
   32.070    5.0869
   32.100    5.2238
   32.130    4.7288
   32.160    4.9500
   32.190    4.8236
   32.220    4.9605
   32.250    4.5076
   32.280    4.3813
   32.310    4.5498
   32.340    4.5182
   32.370    4.6445
   32.400    4.4339
   32.430    4.2233
   32.460    4.7183
   32.490    4.3602
   32.520    4.3707
   32.550    4.5182
   32.580    4.7709
   32.610    4.8025
   32.640    4.4971
   32.670    4.8236
   32.700    4.5814
   32.730    4.9184
   32.760    4.3813
   32.790    4.4128
   32.820    4.3707
   32.850    4.2759
   32.880    4.4760
   32.910    4.6235
   32.940    4.2970
   32.970    4.4128
   33.000    4.3075
   33.030    4.5603
   33.060    4.1496
   33.090    4.4760
   33.120    4.3391
   33.150    4.3181
   33.180    4.5919
   33.210    4.4971
   33.240    4.4550
   33.270    4.2970
   33.300    4.2970
   33.330    4.3181
   33.360    4.3497
   33.390    4.2759
   33.420    4.2970
   33.450    4.5287
   33.480    4.3813
   33.510    4.3497
   33.540    4.5603
   33.570    4.3286
   33.600    4.3707
   33.630    4.1601
   33.660    4.3075
   33.690    4.4760
   33.720    4.5287
   33.750    4.5919
   33.780    4.2233
   33.810    4.6656
   33.840    4.8341
   33.870    4.4760
   33.900    4.2338
   33.930    4.3286
   33.960    4.5076
   33.990    4.1811
   34.020    4.7499
   34.050    4.6130
   34.080    4.3391
   34.110    4.4234
   34.140    4.4866
   34.170    4.1601
   34.200    4.2759
   34.230    4.1496
   34.260    4.6972
   34.290    4.3707
   34.320    4.2865
   34.350    4.2127
   34.380    4.2654
   34.410    4.1496
   34.440    4.4023
   34.470    4.4760
   34.500    4.3813
   34.530    4.1390
   34.560    4.3497
   34.590    4.3602
   34.620    4.1496
   34.650    4.5076
   34.680    4.2654
   34.710    4.5392
   34.740    4.1285
   34.770    4.0864
   34.800    4.3497
   34.830    4.2443
   34.860    4.1390
   34.890    4.4444
   34.920    4.4339
   34.950    4.0653
   34.980    4.2127
   35.010    4.0337
   35.040    4.2970
   35.070    4.0442
   35.100    4.2654
   35.130    3.9810
   35.160    4.2759
   35.190    3.9810
   35.220    4.3181
   35.250    3.9705
   35.280    4.4128
   35.310    4.1917
   35.340    4.1074
   35.370    4.1706
   35.400    4.3391
   35.430    4.2338
   35.460    4.2759
   35.490    3.9284
   35.520    4.0864
   35.550    3.9179
   35.580    4.1496
   35.610    4.1496
   35.640    4.2970
   35.670    4.0126
   35.700    4.0337
   35.730    4.1180
   35.760    4.1811
   35.790    4.0548
   35.820    4.3391
   35.850    4.1180
   35.880    4.0442
   35.910    3.9179
   35.940    3.9494
   35.970    4.2443
   36.000    4.0653
   36.030    4.0232
   36.060    3.9284
   36.090    4.0232
   36.120    4.0442
   36.150    3.8863
   36.180    4.1496
   36.210    4.0653
   36.240    4.0021
   36.270    4.0969
   36.300    3.9600
   36.330    4.0653
   36.360    3.8336
   36.390    4.0337
   36.420    4.3181
   36.450    4.0337
   36.480    4.0232
   36.510    3.8441
   36.540    4.1601
   36.570    4.0864
   36.600    3.8441
   36.630    3.9705
   36.660    3.9916
   36.690    3.9600
   36.720    3.8863
   36.750    3.9494
   36.780    3.9284
   36.810    4.0548
   36.840    3.8547
   36.870    3.8231
   36.900    4.3918
   36.930    3.9179
   36.960    4.0758
   36.990    3.8652
   37.020    4.0653
   37.050    4.1390
   37.080    3.9179
   37.110    4.0021
   37.140    4.1811
   37.170    4.0337
   37.200    4.0864
   37.230    3.9494
   37.260    3.9705
   37.290    3.8547
   37.320    3.7283
   37.350    3.8231
   37.380    3.8547
   37.410    3.8441
   37.440    3.7809
   37.470    3.8863
   37.500    4.0337
   37.530    3.9284
   37.560    3.9494
   37.590    4.1074
   37.620    4.0864
   37.650    3.7283
   37.680    3.6651
   37.710    4.0232
   37.740    3.8020
   37.770    3.7704
   37.800    4.0337
   37.830    4.2865
   37.860    4.0653
   37.890    4.1706
   37.920    3.8336
   37.950    3.8441
   37.980    3.9916
   38.010    4.0758
   38.040    3.6862
   38.070    3.8231
   38.100    3.7072
   38.130    3.6651
   38.160    4.0864
   38.190    3.7072
   38.220    3.8757
   38.250    4.0548
   38.280    3.8336
   38.310    3.8020
   38.340    4.0864
   38.370    3.8231
   38.400    4.1811
   38.430    3.9916
   38.460    4.1601
   38.490    3.9600
   38.520    4.0969
   38.550    3.6019
   38.580    3.9810
   38.610    3.9600
   38.640    3.9916
   38.670    3.9916
   38.700    3.9284
   38.730    4.2127
   38.760    3.9284
   38.790    3.7915
   38.820    3.8652
   38.850    4.0864
   38.880    3.8020
   38.910    4.0021
   38.940    3.7283
   38.970    4.2233
   39.000    3.8863
   39.030    3.9810
   39.060    4.1917
   39.090    3.8968
   39.120    3.8757
   39.150    4.0126
   39.180    3.7915
   39.210    3.7177
   39.240    4.2865
   39.270    3.9810
   39.300    3.8231
   39.330    3.7704
   39.360    3.8336
   39.390    3.9810
   39.420    3.6651
   39.450    4.0337
   39.480    3.7072
   39.510    3.5703
   39.540    3.8757
   39.570    3.7599
   39.600    3.9073
   39.630    3.8863
   39.660    3.9179
   39.690    3.9600
   39.720    3.9179
   39.750    3.5703
   39.780    3.8336
   39.810    3.6862
   39.840    3.7704
   39.870    3.9179
   39.900    3.9179
   39.930    3.7177
   39.960    4.0442
   39.990    3.9810