File: data/MOCOF-1/PXRD/PXRD_KE-245_Co-Ka1_capillary-1mm_5s-deg.xyd
    1.500    2.8357
    1.530    2.8785
    1.560    2.8999
    1.590    3.0498
    1.620    2.7287
    1.650    2.8785
    1.680    2.2793
    1.710    2.4719
    1.740    2.1188
    1.770    2.1830
    1.800    1.8727
    1.830    1.8513
    1.860    1.7335
    1.890    1.7442
    1.920    1.8834
    1.950    1.7442
    1.980    1.4874
    2.010    1.5516
    2.040    1.6051
    2.070    1.4767
    2.100    1.6158
    2.130    1.3911
    2.160    1.2306
    2.190    1.4339
    2.220    1.3483
    2.250    1.2306
    2.280    1.0808
    2.310    1.3804
    2.340    1.3055
    2.370    1.2199
    2.400    1.0380
    2.430    1.2520
    2.460    1.2413
    2.490    1.0594
    2.520    1.1985
    2.550    0.9952
    2.580    1.0487
    2.610    0.9631
    2.640    0.9738
    2.670    1.0166
    2.700    1.1557
    2.730    1.1771
    2.760    1.1450
    2.790    1.0380
    2.820    0.9631
    2.850    0.9738
    2.880    0.9952
    2.910    1.0380
    2.940    1.0701
    2.970    1.1236
    3.000    1.0487
    3.030    1.0487
    3.060    1.2841
    3.090    1.1450
    3.120    1.3911
    3.150    1.1450
    3.180    1.2413
    3.210    1.3376
    3.240    1.3590
    3.270    1.4981
    3.300    1.5088
    3.330    1.6586
    3.360    1.7657
    3.390    1.6693
    3.420    1.8406
    3.450    1.9369
    3.480    2.1509
    3.510    2.1616
    3.540    2.4077
    3.570    2.6324
    3.600    2.7608
    3.630    3.0284
    3.660    3.3815
    3.690    3.4457
    3.720    3.4457
    3.750    3.6597
    3.780    3.3708
    3.810    3.6597
    3.840    3.4564
    3.870    3.5099
    3.900    3.4350
    3.930    3.1354
    3.960    3.1033
    3.990    2.9749
    4.020    2.4077
    4.050    2.8143
    4.080    2.4933
    4.110    2.6110
    4.140    2.4077
    4.170    2.2472
    4.200    2.1616
    4.230    2.2258
    4.260    2.2151
    4.290    2.3863
    4.320    1.9690
    4.350    2.1723
    4.380    1.9690
    4.410    1.8406
    4.440    1.7335
    4.470    1.5623
    4.500    1.6372
    4.530    1.3376
    4.560    1.4553
    4.590    1.4339
    4.620    1.2734
    4.650    1.1450
    4.680    1.2413
    4.710    1.1450
    4.740    1.0915
    4.770    0.8454
    4.800    0.7919
    4.830    0.8775
    4.860    0.7705
    4.890    0.8347
    4.920    0.7063
    4.950    0.7919
    4.980    0.8240
    5.010    0.7705
    5.040    0.6421
    5.070    0.7384
    5.100    0.6100
    5.130    0.6528
    5.160    0.5564
    5.190    0.6100
    5.220    0.6314
    5.250    0.6635
    5.280    0.5564
    5.310    0.5029
    5.340    0.6421
    5.370    0.5564
    5.400    0.4601
    5.430    0.6100
    5.460    0.4922
    5.490    0.4922
    5.520    0.4708
    5.550    0.5457
    5.580    0.5457
    5.610    0.5350
    5.640    0.4387
    5.670    0.5993
    5.700    0.5671
    5.730    0.5457
    5.760    0.4387
    5.790    0.4494
    5.820    0.5457
    5.850    0.4173
    5.880    0.5350
    5.910    0.5136
    5.940    0.4922
    5.970    0.4066
    6.000    0.4922
    6.030    0.4387
    6.060    0.5564
    6.090    0.4708
    6.120    0.4280
    6.150    0.5778
    6.180    0.4708
    6.210    0.4494
    6.240    0.3638
    6.270    0.5243
    6.300    0.3959
    6.330    0.5564
    6.360    0.4066
    6.390    0.3424
    6.420    0.4815
    6.450    0.5029
    6.480    0.3959
    6.510    0.5136
    6.540    0.5243
    6.570    0.4387
    6.600    0.5136
    6.630    0.4922
    6.660    0.3638
    6.690    0.4387
    6.720    0.4815
    6.750    0.5029
    6.780    0.4922
    6.810    0.4387
    6.840    0.3210
    6.870    0.4387
    6.900    0.5886
    6.930    0.4601
    6.960    0.5136
    6.990    0.4173
    7.020    0.4708
    7.050    0.5457
    7.080    0.4815
    7.110    0.4815
    7.140    0.5564
    7.170    0.3745
    7.200    0.5136
    7.230    0.4280
    7.260    0.5029
    7.290    0.5243
    7.320    0.5886
    7.350    0.4922
    7.380    0.5029
    7.410    0.5993
    7.440    0.5886
    7.470    0.4494
    7.500    0.6956
    7.530    0.7063
    7.560    0.8026
    7.590    0.8561
    7.620    0.9096
    7.650    0.6849
    7.680    0.8026
    7.710    0.8026
    7.740    0.7919
    7.770    0.6421
    7.800    0.7491
    7.830    0.7705
    7.860    0.6528
    7.890    0.6207
    7.920    0.6849
    7.950    0.6207
    7.980    0.6635
    8.010    0.6528
    8.040    0.6421
    8.070    0.5993
    8.100    0.6421
    8.130    0.5778
    8.160    0.5886
    8.190    0.6635
    8.220    0.5993
    8.250    0.5457
    8.280    0.6100
    8.310    0.6956
    8.340    0.6528
    8.370    0.5564
    8.400    0.5778
    8.430    0.5778
    8.460    0.5350
    8.490    0.6528
    8.520    0.6849
    8.550    0.5564
    8.580    0.5886
    8.610    0.6100
    8.640    0.6528
    8.670    0.6207
    8.700    0.4708
    8.730    0.6100
    8.760    0.6207
    8.790    0.6314
    8.820    0.6849
    8.850    0.6421
    8.880    0.5243
    8.910    0.5671
    8.940    0.6207
    8.970    0.5564
    9.000    0.5671
    9.030    0.5457
    9.060    0.6528
    9.090    0.4922
    9.120    0.6100
    9.150    0.5671
    9.180    0.6100
    9.210    0.4922
    9.240    0.6849
    9.270    0.5029
    9.300    0.6100
    9.330    0.5350
    9.360    0.5029
    9.390    0.5350
    9.420    0.4601
    9.450    0.5886
    9.480    0.4387
    9.510    0.5778
    9.540    0.4922
    9.570    0.4173
    9.600    0.5671
    9.630    0.4387
    9.660    0.5136
    9.690    0.5671
    9.720    0.4601
    9.750    0.5350
    9.780    0.5778
    9.810    0.4815
    9.840    0.6207
    9.870    0.4494
    9.900    0.6207
    9.930    0.6314
    9.960    0.5886
    9.990    0.5243
   10.020    0.4708
   10.050    0.4066
   10.080    0.5778
   10.110    0.5243
   10.140    0.5564
   10.170    0.4494
   10.200    0.4494
   10.230    0.4280
   10.260    0.4387
   10.290    0.4494
   10.320    0.4280
   10.350    0.4387
   10.380    0.4387
   10.410    0.4173
   10.440    0.4173
   10.470    0.4815
   10.500    0.4601
   10.530    0.4601
   10.560    0.5243
   10.590    0.5029
   10.620    0.3531
   10.650    0.4280
   10.680    0.5671
   10.710    0.4601
   10.740    0.3531
   10.770    0.4387
   10.800    0.3959
   10.830    0.4708
   10.860    0.3852
   10.890    0.4280
   10.920    0.4815
   10.950    0.4280
   10.980    0.3852
   11.010    0.4601
   11.040    0.3959
   11.070    0.4601
   11.100    0.4601
   11.130    0.4815
   11.160    0.4494
   11.190    0.3745
   11.220    0.5350
   11.250    0.4601
   11.280    0.4922
   11.310    0.5243
   11.340    0.4922
   11.370    0.4173
   11.400    0.4494
   11.430    0.4815
   11.460    0.3852
   11.490    0.5029
   11.520    0.4387
   11.550    0.4280
   11.580    0.3959
   11.610    0.5243
   11.640    0.5029
   11.670    0.5350
   11.700    0.4494
   11.730    0.3317
   11.760    0.4494
   11.790    0.3959
   11.820    0.4280
   11.850    0.4815
   11.880    0.4601
   11.910    0.4494
   11.940    0.3638
   11.970    0.4494
   12.000    0.5136
   12.030    0.6100
   12.060    0.4066
   12.090    0.4066
   12.120    0.4601
   12.150    0.5350
   12.180    0.5029
   12.210    0.5136
   12.240    0.4280
   12.270    0.5136
   12.300    0.3852
   12.330    0.4387
   12.360    0.3531
   12.390    0.4387
   12.420    0.5886
   12.450    0.3745
   12.480    0.3317
   12.510    0.4601
   12.540    0.4922
   12.570    0.4815
   12.600    0.4280
   12.630    0.4066
   12.660    0.4387
   12.690    0.4708
   12.720    0.4815
   12.750    0.3959
   12.780    0.3745
   12.810    0.4280
   12.840    0.4708
   12.870    0.4387
   12.900    0.5671
   12.930    0.4815
   12.960    0.5350
   12.990    0.4815
   13.020    0.3745
   13.050    0.3424
   13.080    0.5136
   13.110    0.4066
   13.140    0.3852
   13.170    0.4280
   13.200    0.4066
   13.230    0.4708
   13.260    0.4601
   13.290    0.4387
   13.320    0.3959
   13.350    0.2889
   13.380    0.4601
   13.410    0.3852
   13.440    0.4601
   13.470    0.4601
   13.500    0.4815
   13.530    0.4280
   13.560    0.3317
   13.590    0.4280
   13.620    0.4815
   13.650    0.4066
   13.680    0.3745
   13.710    0.3959
   13.740    0.3103
   13.770    0.4387
   13.800    0.4066
   13.830    0.4173
   13.860    0.4173
   13.890    0.4066
   13.920    0.4815
   13.950    0.3959
   13.980    0.4815
   14.010    0.4601
   14.040    0.3745
   14.070    0.3745
   14.100    0.2889
   14.130    0.5243
   14.160    0.3317
   14.190    0.4815
   14.220    0.3959
   14.250    0.4601
   14.280    0.4173
   14.310    0.3959
   14.340    0.4387
   14.370    0.4494
   14.400    0.5136
   14.430    0.4494
   14.460    0.3959
   14.490    0.4387
   14.520    0.3959
   14.550    0.4708
   14.580    0.3638
   14.610    0.4387
   14.640    0.4066
   14.670    0.3959
   14.700    0.4387
   14.730    0.3638
   14.760    0.3745
   14.790    0.3959
   14.820    0.3745
   14.850    0.4387
   14.880    0.4066
   14.910    0.3531
   14.940    0.3210
   14.970    0.5029
   15.000    0.3424
   15.030    0.5671
   15.060    0.3959
   15.090    0.3424
   15.120    0.3424
   15.150    0.4280
   15.180    0.3317
   15.210    0.4280
   15.240    0.4280
   15.270    0.4066
   15.300    0.3852
   15.330    0.3424
   15.360    0.4173
   15.390    0.4601
   15.420    0.3638
   15.450    0.3638
   15.480    0.3210
   15.510    0.4601
   15.540    0.4280
   15.570    0.3103
   15.600    0.4280
   15.630    0.3103
   15.660    0.4708
   15.690    0.3745
   15.720    0.3638
   15.750    0.3959
   15.780    0.3317
   15.810    0.4173
   15.840    0.3317
   15.870    0.4387
   15.900    0.4601
   15.930    0.4922
   15.960    0.3745
   15.990    0.3852
   16.020    0.3638
   16.050    0.4601
   16.080    0.3745
   16.110    0.3317
   16.140    0.4708
   16.170    0.4387
   16.200    0.3852
   16.230    0.4173
   16.260    0.2996
   16.290    0.4387
   16.320    0.3424
   16.350    0.4922
   16.380    0.4708
   16.410    0.4173
   16.440    0.4387
   16.470    0.3745
   16.500    0.4601
   16.530    0.4708
   16.560    0.4387
   16.590    0.3745
   16.620    0.3959
   16.650    0.3638
   16.680    0.4494
   16.710    0.3745
   16.740    0.3852
   16.770    0.3210
   16.800    0.4601
   16.830    0.4387
   16.860    0.4922
   16.890    0.3424
   16.920    0.3745
   16.950    0.4494
   16.980    0.5350
   17.010    0.2889
   17.040    0.4173
   17.070    0.3959
   17.100    0.4601
   17.130    0.4494
   17.160    0.4066
   17.190    0.3852
   17.220    0.3638
   17.250    0.3959
   17.280    0.4280
   17.310    0.3745
   17.340    0.3103
   17.370    0.5029
   17.400    0.4815
   17.430    0.3959
   17.460    0.4387
   17.490    0.4387
   17.520    0.4922
   17.550    0.3638
   17.580    0.4173
   17.610    0.4708
   17.640    0.3424
   17.670    0.3852
   17.700    0.4173
   17.730    0.4708
   17.760    0.3317
   17.790    0.3852
   17.820    0.3317
   17.850    0.3638
   17.880    0.4173
   17.910    0.4173
   17.940    0.3638
   17.970    0.4387
   18.000    0.3852
   18.030    0.3531
   18.060    0.3638
   18.090    0.3638
   18.120    0.3959
   18.150    0.4708
   18.180    0.4066
   18.210    0.4280
   18.240    0.3210
   18.270    0.5029
   18.300    0.3638
   18.330    0.3638
   18.360    0.3959
   18.390    0.3103
   18.420    0.3210
   18.450    0.3959
   18.480    0.3959
   18.510    0.3959
   18.540    0.4601
   18.570    0.4494
   18.600    0.3424
   18.630    0.4173
   18.660    0.3852
   18.690    0.3959
   18.720    0.5136
   18.750    0.3745
   18.780    0.5564
   18.810    0.4708
   18.840    0.3317
   18.870    0.3959
   18.900    0.3745
   18.930    0.3638
   18.960    0.3638
   18.990    0.4387
   19.020    0.4922
   19.050    0.4708
   19.080    0.3852
   19.110    0.3745
   19.140    0.4601
   19.170    0.4387
   19.200    0.3959
   19.230    0.3959
   19.260    0.4601
   19.290    0.3852
   19.320    0.4601
   19.350    0.4173
   19.380    0.4066
   19.410    0.4280
   19.440    0.4066
   19.470    0.3424
   19.500    0.3852
   19.530    0.4173
   19.560    0.3424
   19.590    0.4601
   19.620    0.3745
   19.650    0.4601
   19.680    0.6100
   19.710    0.3210
   19.740    0.3852
   19.770    0.3852
   19.800    0.3638
   19.830    0.3745
   19.860    0.3317
   19.890    0.2996
   19.920    0.3317
   19.950    0.4922
   19.980    0.4173
   20.010    0.3638
   20.040    0.3424
   20.070    0.3531
   20.100    0.4066
   20.130    0.4601
   20.160    0.3745
   20.190    0.3745
   20.220    0.4494
   20.250    0.2996
   20.280    0.4494
   20.310    0.5243
   20.340    0.4601
   20.370    0.4387
   20.400    0.2782
   20.430    0.3638
   20.460    0.4066
   20.490    0.4922
   20.520    0.4922
   20.550    0.5350
   20.580    0.4173
   20.610    0.4387
   20.640    0.4815
   20.670    0.3103
   20.700    0.4601
   20.730    0.4280
   20.760    0.3959
   20.790    0.3852
   20.820    0.3638
   20.850    0.5564
   20.880    0.3959
   20.910    0.4280
   20.940    0.4494
   20.970    0.3638
   21.000    0.4387
   21.030    0.3959
   21.060    0.5671
   21.090    0.3210
   21.120    0.3531
   21.150    0.3745
   21.180    0.4601
   21.210    0.3317
   21.240    0.4173
   21.270    0.3210
   21.300    0.4066
   21.330    0.3424
   21.360    0.4387
   21.390    0.4494
   21.420    0.3531
   21.450    0.5350
   21.480    0.2889
   21.510    0.3424
   21.540    0.4922
   21.570    0.4387
   21.600    0.3424
   21.630    0.5136
   21.660    0.4387
   21.690    0.2782
   21.720    0.4494
   21.750    0.4494
   21.780    0.4066
   21.810    0.4387
   21.840    0.3852
   21.870    0.4173
   21.900    0.4494
   21.930    0.3959
   21.960    0.3852
   21.990    0.3852
   22.020    0.3531
   22.050    0.4708
   22.080    0.5029
   22.110    0.3424
   22.140    0.4922
   22.170    0.3745
   22.200    0.3852
   22.230    0.4494
   22.260    0.4708
   22.290    0.4280
   22.320    0.4815
   22.350    0.3424
   22.380    0.3959
   22.410    0.4708
   22.440    0.4815
   22.470    0.4708
   22.500    0.4601
   22.530    0.5243
   22.560    0.4066
   22.590    0.4708
   22.620    0.5029
   22.650    0.4280
   22.680    0.4601
   22.710    0.5136
   22.740    0.4601
   22.770    0.4280
   22.800    0.3210
   22.830    0.3852
   22.860    0.5243
   22.890    0.4601
   22.920    0.3424
   22.950    0.4815
   22.980    0.4066
   23.010    0.3959
   23.040    0.5136
   23.070    0.3638
   23.100    0.4494
   23.130    0.3959
   23.160    0.4280
   23.190    0.4815
   23.220    0.4815
   23.250    0.4494
   23.280    0.4708
   23.310    0.5243
   23.340    0.4601
   23.370    0.3745
   23.400    0.4280
   23.430    0.5029
   23.460    0.3745
   23.490    0.4494
   23.520    0.4708
   23.550    0.5993
   23.580    0.4173
   23.610    0.4922
   23.640    0.3959
   23.670    0.4494
   23.700    0.5886
   23.730    0.4922
   23.760    0.4922
   23.790    0.6207
   23.820    0.4066
   23.850    0.4387
   23.880    0.4387
   23.910    0.4494
   23.940    0.5243
   23.970    0.5136
   24.000    0.5029
   24.030    0.4815
   24.060    0.3424
   24.090    0.4601
   24.120    0.4708
   24.150    0.4601
   24.180    0.5886
   24.210    0.4601
   24.240    0.4708
   24.270    0.4494
   24.300    0.4708
   24.330    0.5243
   24.360    0.4815
   24.390    0.4815
   24.420    0.4280
   24.450    0.4387
   24.480    0.4173
   24.510    0.5564
   24.540    0.3745
   24.570    0.4280
   24.600    0.4387
   24.630    0.5457
   24.660    0.4066
   24.690    0.3852
   24.720    0.4173
   24.750    0.4387
   24.780    0.4494
   24.810    0.4815
   24.840    0.4708
   24.870    0.5136
   24.900    0.4387
   24.930    0.4387
   24.960    0.3959
   24.990    0.5778
   25.020    0.3424
   25.050    0.3638
   25.080    0.5029
   25.110    0.4815
   25.140    0.5886
   25.170    0.4815
   25.200    0.4708
   25.230    0.4387
   25.260    0.5671
   25.290    0.5564
   25.320    0.5029
   25.350    0.4280
   25.380    0.3745
   25.410    0.4601
   25.440    0.5136
   25.470    0.4815
   25.500    0.4815
   25.530    0.4280
   25.560    0.3745
   25.590    0.5350
   25.620    0.4708
   25.650    0.4066
   25.680    0.3745
   25.710    0.5457
   25.740    0.4708
   25.770    0.3959
   25.800    0.3638
   25.830    0.4280
   25.860    0.4494
   25.890    0.4815
   25.920    0.4494
   25.950    0.4815
   25.980    0.4708
   26.010    0.4173
   26.040    0.4387
   26.070    0.4173
   26.100    0.4601
   26.130    0.3317
   26.160    0.5029
   26.190    0.5564
   26.220    0.4280
   26.250    0.4066
   26.280    0.3959
   26.310    0.4601
   26.340    0.5136
   26.370    0.3852
   26.400    0.5457
   26.430    0.4494
   26.460    0.3959
   26.490    0.5350
   26.520    0.4387
   26.550    0.4922
   26.580    0.4387
   26.610    0.4173
   26.640    0.4494
   26.670    0.4601
   26.700    0.3317
   26.730    0.5243
   26.760    0.4280
   26.790    0.5350
   26.820    0.3959
   26.850    0.4173
   26.880    0.4922
   26.910    0.3959
   26.940    0.3852
   26.970    0.5564
   27.000    0.4601
   27.030    0.5243
   27.060    0.5350
   27.090    0.3852
   27.120    0.5029
   27.150    0.5350
   27.180    0.3959
   27.210    0.5029
   27.240    0.3852
   27.270    0.5457
   27.300    0.4815
   27.330    0.5350
   27.360    0.4708
   27.390    0.3745
   27.420    0.3959
   27.450    0.4601
   27.480    0.5243
   27.510    0.4387
   27.540    0.4922
   27.570    0.4173
   27.600    0.4494
   27.630    0.4494
   27.660    0.4815
   27.690    0.5136
   27.720    0.3745
   27.750    0.4494
   27.780    0.5350
   27.810    0.4815
   27.840    0.4066
   27.870    0.3638
   27.900    0.4922
   27.930    0.5457
   27.960    0.4708
   27.990    0.4815
   28.020    0.4922
   28.050    0.5029
   28.080    0.4922
   28.110    0.4815
   28.140    0.4387
   28.170    0.5029
   28.200    0.3852
   28.230    0.4708
   28.260    0.5350
   28.290    0.3638
   28.320    0.5029
   28.350    0.4708
   28.380    0.4494
   28.410    0.4066
   28.440    0.4815
   28.470    0.4280
   28.500    0.5029
   28.530    0.4708
   28.560    0.4601
   28.590    0.5029
   28.620    0.4494
   28.650    0.5457
   28.680    0.3959
   28.710    0.4601
   28.740    0.4708
   28.770    0.3638
   28.800    0.4922
   28.830    0.4494
   28.860    0.4173
   28.890    0.4601
   28.920    0.4922
   28.950    0.4708
   28.980    0.3424
   29.010    0.4173
   29.040    0.3424
   29.070    0.4173
   29.100    0.4066
   29.130    0.4815
   29.160    0.4066
   29.190    0.2996
   29.220    0.4173
   29.250    0.3103
   29.280    0.4601
   29.310    0.4066
   29.340    0.3852
   29.370    0.3959
   29.400    0.3745
   29.430    0.4173
   29.460    0.3531
   29.490    0.3959
   29.520    0.4387
   29.550    0.3959
   29.580    0.3852
   29.610    0.3852
   29.640    0.3210
   29.670    0.4066
   29.700    0.4387
   29.730    0.4387
   29.760    0.4922
   29.790    0.3531
   29.820    0.4387
   29.850    0.4708
   29.880    0.4066
   29.910    0.3317
   29.940    0.4066
   29.970    0.4173
   30.000    0.3959
   30.030    0.4280
   30.060    0.3210
   30.090    0.3745
   30.120    0.4280
   30.150    0.3531
   30.180    0.4280
   30.210    0.4601
   30.240    0.3210
   30.270    0.4601
   30.300    0.3852
   30.330    0.4815
   30.360    0.3424
   30.390    0.3424
   30.420    0.3638
   30.450    0.3638
   30.480    0.4601
   30.510    0.3852
   30.540    0.3638
   30.570    0.3210
   30.600    0.3103
   30.630    0.5029
   30.660    0.3424
   30.690    0.4815
   30.720    0.4173
   30.750    0.4173
   30.780    0.4387
   30.810    0.2996
   30.840    0.3103
   30.870    0.4280
   30.900    0.3317
   30.930    0.3638
   30.960    0.3638
   30.990    0.3745
   31.020    0.3317
   31.050    0.4708
   31.080    0.4066
   31.110    0.3210
   31.140    0.3317
   31.170    0.4387
   31.200    0.3959
   31.230    0.3103
   31.260    0.3210
   31.290    0.3103
   31.320    0.3531
   31.350    0.3531
   31.380    0.3210
   31.410    0.3959
   31.440    0.3531
   31.470    0.4066
   31.500    0.4280
   31.530    0.3103
   31.560    0.3638
   31.590    0.4708
   31.620    0.3424
   31.650    0.4173
   31.680    0.3103
   31.710    0.4494
   31.740    0.4173
   31.770    0.2568
   31.800    0.2782
   31.830    0.3638
   31.860    0.3852
   31.890    0.3745
   31.920    0.4280
   31.950    0.3317
   31.980    0.4173
   32.010    0.4494
   32.040    0.3210
   32.070    0.4173
   32.100    0.3531
   32.130    0.3424
   32.160    0.3745
   32.190    0.3852
   32.220    0.3424
   32.250    0.2889
   32.280    0.3959
   32.310    0.2675
   32.340    0.3959
   32.370    0.3852
   32.400    0.2996
   32.430    0.3531
   32.460    0.3852
   32.490    0.2889
   32.520    0.3103
   32.550    0.3531
   32.580    0.4066
   32.610    0.5457
   32.640    0.4173
   32.670    0.4922
   32.700    0.4387
   32.730    0.3210
   32.760    0.4708
   32.790    0.3103
   32.820    0.4066
   32.850    0.3210
   32.880    0.3745
   32.910    0.2782
   32.940    0.4815
   32.970    0.3959
   33.000    0.2889
   33.030    0.3638
   33.060    0.3638
   33.090    0.4280
   33.120    0.3745
   33.150    0.2996
   33.180    0.3852
   33.210    0.3210
   33.240    0.3745
   33.270    0.3424
   33.300    0.4173
   33.330    0.4173
   33.360    0.3424
   33.390    0.2889
   33.420    0.4494
   33.450    0.3210
   33.480    0.3852
   33.510    0.3852
   33.540    0.3852
   33.570    0.2675
   33.600    0.3638
   33.630    0.2996
   33.660    0.3745
   33.690    0.4173
   33.720    0.3852
   33.750    0.4601
   33.780    0.3317
   33.810    0.3745
   33.840    0.3103
   33.870    0.2033
   33.900    0.3638
   33.930    0.2461
   33.960    0.3531
   33.990    0.2461
   34.020    0.3745
   34.050    0.2782
   34.080    0.3210
   34.110    0.4494
   34.140    0.3638
   34.170    0.3531
   34.200    0.3424
   34.230    0.4066
   34.260    0.2247
   34.290    0.3531
   34.320    0.3103
   34.350    0.3317
   34.380    0.2996
   34.410    0.3745
   34.440    0.3424
   34.470    0.2996
   34.500    0.2889
   34.530    0.3959
   34.560    0.4601
   34.590    0.2782
   34.620    0.2889
   34.650    0.3103
   34.680    0.3210
   34.710    0.3424
   34.740    0.2996
   34.770    0.3103
   34.800    0.3638
   34.830    0.3317
   34.860    0.2568
   34.890    0.4815
   34.920    0.3424
   34.950    0.2675
   34.980    0.2568
   35.010    0.3638
   35.040    0.3317
   35.070    0.3638
   35.100    0.2675
   35.130    0.3424
   35.160    0.3638
   35.190    0.2782
   35.220    0.3210
   35.250    0.3317
   35.280    0.3638
   35.310    0.4387
   35.340    0.2247
   35.370    0.3531
   35.400    0.3210
   35.430    0.3531
   35.460    0.2675
   35.490    0.3210
   35.520    0.3745
   35.550    0.2996
   35.580    0.2675
   35.610    0.2354
   35.640    0.2675
   35.670    0.2996
   35.700    0.2675
   35.730    0.2033
   35.760    0.3103
   35.790    0.2675
   35.820    0.3210
   35.850    0.2889
   35.880    0.2568
   35.910    0.2675
   35.940    0.2782
   35.970    0.3745
   36.000    0.2782
   36.030    0.3103
   36.060    0.3103
   36.090    0.3531
   36.120    0.2033
   36.150    0.2889
   36.180    0.3317
   36.210    0.3638
   36.240    0.4066
   36.270    0.2140
   36.300    0.4066
   36.330    0.2889
   36.360    0.2675
   36.390    0.2996
   36.420    0.2889
   36.450    0.2889
   36.480    0.3745
   36.510    0.2996
   36.540    0.2782
   36.570    0.3745
   36.600    0.3531
   36.630    0.2782
   36.660    0.3103
   36.690    0.2461
   36.720    0.2033
   36.750    0.2782
   36.780    0.3424
   36.810    0.3959
   36.840    0.2889
   36.870    0.3210
   36.900    0.2782
   36.930    0.2675
   36.960    0.3852
   36.990    0.2782
   37.020    0.2996
   37.050    0.2354
   37.080    0.4601
   37.110    0.2996
   37.140    0.2782
   37.170    0.3745
   37.200    0.2889
   37.230    0.3103
   37.260    0.3210
   37.290    0.2782
   37.320    0.3210
   37.350    0.3638
   37.380    0.2889
   37.410    0.3531
   37.440    0.3852
   37.470    0.3852
   37.500    0.3638
   37.530    0.3959
   37.560    0.2889
   37.590    0.2889
   37.620    0.2568
   37.650    0.3103
   37.680    0.3210
   37.710    0.2568
   37.740    0.2033
   37.770    0.2996
   37.800    0.2675
   37.830    0.2782
   37.860    0.3745
   37.890    0.2782
   37.920    0.3531
   37.950    0.2140
   37.980    0.2461
   38.010    0.1926
   38.040    0.3424
   38.070    0.2889
   38.100    0.2461
   38.130    0.3745
   38.160    0.2675
   38.190    0.2889
   38.220    0.2996
   38.250    0.3424
   38.280    0.2675
   38.310    0.4066
   38.340    0.2675
   38.370    0.3210
   38.400    0.3103
   38.430    0.2889
   38.460    0.2033
   38.490    0.1498
   38.520    0.2247
   38.550    0.2996
   38.580    0.2461
   38.610    0.2782
   38.640    0.2568
   38.670    0.1926
   38.700    0.2461
   38.730    0.2354
   38.760    0.2675
   38.790    0.2568
   38.820    0.2889
   38.850    0.2461
   38.880    0.2140
   38.910    0.2782
   38.940    0.2461
   38.970    0.1819
   39.000    0.1819
   39.030    0.1712
   39.060    0.2247
   39.090    0.3424
   39.120    0.2568
   39.150    0.1605
   39.180    0.2568
   39.210    0.2354
   39.240    0.3317
   39.270    0.2140
   39.300    0.2675
   39.330    0.3103
   39.360    0.1926
   39.390    0.2568
   39.420    0.2354
   39.450    0.2889
   39.480    0.2461
   39.510    0.2782
   39.540    0.3317
   39.570    0.2033
   39.600    0.2461
   39.630    0.2568
   39.660    0.2461
   39.690    0.2461
   39.720    0.2675
   39.750    0.2889
   39.780    0.2354
   39.810    0.1819
   39.840    0.1498
   39.870    0.3638
   39.900    0.1712
   39.930    0.1284
   39.960    0.2568
   39.990    0.1712