File: data/MOCOF-1/PXRD/PXRD_KE-105_Cu-Ka1_capillary-1mm_5s-deg.xyd
    1.500   13.0806
    1.530   12.7962
    1.560   12.8805
    1.590   12.4487
    1.620   11.9747
    1.650   11.8483
    1.680   11.3849
    1.710   10.4897
    1.740   10.9531
    1.770   10.3528
    1.800   10.7636
    1.830   10.2475
    1.860    9.7104
    1.890    9.3628
    1.920    9.4892
    1.950    9.4365
    1.980    9.4260
    2.010    9.3207
    2.040    9.2470
    2.070    9.0469
    2.100    8.5940
    2.130    8.7204
    2.160    8.8994
    2.190    8.8046
    2.220    8.8784
    2.250    8.7414
    2.280    8.0779
    2.310    8.4150
    2.340    8.1622
    2.370    7.5829
    2.400    7.7725
    2.430    7.9094
    2.460    7.8884
    2.490    7.8568
    2.520    7.8357
    2.550    7.6356
    2.580    8.4360
    2.610    7.9831
    2.640    7.8146
    2.670    8.0147
    2.700    7.9305
    2.730    8.4992
    2.760    8.2991
    2.790    8.5097
    2.820    9.0258
    2.850    8.6888
    2.880    8.6993
    2.910    9.0363
    2.940    8.7520
    2.970    9.4892
    3.000    9.0153
    3.030    9.0574
    3.060   10.3423
    3.090    9.9737
    3.120   10.3949
    3.150   10.5635
    3.180   11.2691
    3.210   11.3533
    3.240   11.5956
    3.270   11.9642
    3.300   12.5645
    3.330   13.3860
    3.360   14.5761
    3.390   15.0500
    3.420   15.5977
    3.450   16.5456
    3.480   17.4934
    3.510   17.9989
    3.540   19.5787
    3.570   21.3270
    3.600   22.9489
    3.630   23.7072
    3.660   26.5192
    3.690   28.7730
    3.720   32.1959
    3.750   35.0500
    3.780   39.7683
    3.810   47.7936
    3.840   62.5382
    3.870   79.2628
    3.900   77.4934
    3.930   44.4550
    3.960   12.0169
    3.990    7.3723
    4.020    6.5403
    4.050    5.9189
    4.080    5.8452
    4.110    6.0348
    4.140    5.9821
    4.170    5.5924
    4.200    5.7399
    4.230    5.6451
    4.260    5.5714
    4.290    6.0979
    4.320    5.3397
    4.350    5.4976
    4.380    5.8662
    4.410    5.2449
    4.440    5.6451
    4.470    5.5819
    4.500    5.1711
    4.530    5.7399
    4.560    5.6451
    4.590    5.8978
    4.620    5.5082
    4.650    5.3291
    4.680    5.4344
    4.710    5.6661
    4.740    5.5819
    4.770    5.8662
    4.800    5.4028
    4.830    5.5082
    4.860    5.8031
    4.890    5.5819
    4.920    5.6661
    4.950    5.6345
    4.980    5.9821
    5.010    6.0137
    5.040    6.5508
    5.070    6.6351
    5.100    6.1927
    5.130    6.3191
    5.160    6.7193
    5.190    6.8773
    5.220    7.2775
    5.250    7.2986
    5.280    8.2570
    5.310    8.2043
    5.340    8.9310
    5.370    9.2996
    5.400    9.8052
    5.430   11.1006
    5.460   12.9015
    5.490   15.8294
    5.520   16.1032
    5.550   12.6804
    5.580    6.6877
    5.610    5.4976
    5.640    5.3397
    5.670    5.3081
    5.700    5.2027
    5.730    5.1606
    5.760    5.3923
    5.790    5.0237
    5.820    5.3397
    5.850    5.4660
    5.880    5.2133
    5.910    5.0869
    5.940    4.8973
    5.970    5.1501
    6.000    5.1185
    6.030    5.3081
    6.060    5.1185
    6.090    4.9289
    6.120    5.0658
    6.150    5.3502
    6.180    5.0448
    6.210    5.3712
    6.240    5.1290
    6.270    5.1395
    6.300    5.3397
    6.330    5.4976
    6.360    4.8341
    6.390    5.1185
    6.420    5.0869
    6.450    5.4028
    6.480    5.3502
    6.510    5.3607
    6.540    5.1080
    6.570    5.4344
    6.600    5.3291
    6.630    5.8136
    6.660    5.5819
    6.690    5.7399
    6.720    5.8241
    6.750    6.1190
    6.780    6.1190
    6.810    5.3186
    6.840    5.2659
    6.870    5.2659
    6.900    4.9921
    6.930    5.3291
    6.960    4.9710
    6.990    5.3502
    7.020    5.2554
    7.050    5.3712
    7.080    5.1080
    7.110    5.3081
    7.140    4.8763
    7.170    5.3712
    7.200    5.0448
    7.230    5.1501
    7.260    5.1290
    7.290    5.3607
    7.320    5.2870
    7.350    5.2765
    7.380    5.2659
    7.410    5.3291
    7.440    5.0974
    7.470    5.5503
    7.500    5.2765
    7.530    5.6240
    7.560    5.6661
    7.590    6.0032
    7.620    5.5187
    7.650    6.1822
    7.680    6.3612
    7.710    6.6456
    7.740    7.3934
    7.770    8.2886
    7.800    8.7941
    7.830    8.5097
    7.860    7.1090
    7.890    5.4239
    7.920    5.4134
    7.950    5.4660
    7.980    5.0553
    8.010    5.1501
    8.040    4.8868
    8.070    5.2133
    8.100    5.0553
    8.130    5.2133
    8.160    5.4239
    8.190    5.2238
    8.220    5.2765
    8.250    5.2554
    8.280    5.3607
    8.310    5.4766
    8.340    4.9816
    8.370    5.3081
    8.400    5.0974
    8.430    5.2554
    8.460    5.1185
    8.490    5.2975
    8.520    5.5082
    8.550    5.3397
    8.580    5.4660
    8.610    5.5503
    8.640    5.5398
    8.670    5.5819
    8.700    6.0032
    8.730    6.1295
    8.760    5.6556
    8.790    5.7083
    8.820    5.2975
    8.850    5.2027
    8.880    5.2238
    8.910    5.3607
    8.940    5.4555
    8.970    5.1185
    9.000    5.4450
    9.030    5.3502
    9.060    5.5924
    9.090    5.5819
    9.120    5.4976
    9.150    5.7293
    9.180    5.6029
    9.210    5.4450
    9.240    5.8662
    9.270    5.9926
    9.300    5.8662
    9.330    5.8031
    9.360    6.1822
    9.390    6.4876
    9.420    6.7615
    9.450    7.4039
    9.480    7.2986
    9.510    8.2886
    9.540    9.5524
    9.570   10.1738
    9.600    9.8894
    9.630    7.2249
    9.660    5.5608
    9.690    5.5398
    9.720    4.9710
    9.750    5.7293
    9.780    5.4134
    9.810    5.4450
    9.840    5.2765
    9.870    5.6029
    9.900    5.5608
    9.930    5.6661
    9.960    5.4660
    9.990    5.5503
   10.020    5.6240
   10.050    5.8241
   10.080    5.2975
   10.110    5.4660
   10.140    5.5924
   10.170    6.0348
   10.200    6.1295
   10.230    5.9400
   10.260    6.3718
   10.290    6.5298
   10.320    6.9089
   10.350    7.5619
   10.380    6.6667
   10.410    6.5824
   10.440    5.8241
   10.470    5.8873
   10.500    5.3818
   10.530    5.6556
   10.560    5.6556
   10.590    5.2659
   10.620    5.4871
   10.650    5.4028
   10.680    5.6240
   10.710    5.8031
   10.740    5.9189
   10.770    5.3186
   10.800    5.7609
   10.830    5.6767
   10.860    5.6661
   10.890    5.6767
   10.920    5.6977
   10.950    6.0242
   10.980    6.3086
   11.010    6.6140
   11.040    7.1827
   11.070    6.9826
   11.100    6.7615
   11.130    6.2559
   11.160    5.4134
   11.190    5.4344
   11.220    5.0764
   11.250    5.6556
   11.280    5.4134
   11.310    5.4766
   11.340    5.2238
   11.370    5.3081
   11.400    5.3923
   11.430    5.1606
   11.460    5.4450
   11.490    5.6029
   11.520    5.6135
   11.550    5.4134
   11.580    5.8347
   11.610    6.0769
   11.640    5.7293
   11.670    6.2033
   11.700    6.7509
   11.730    7.4039
   11.760    7.1195
   11.790    6.0874
   11.820    5.6767
   11.850    5.2554
   11.880    5.0658
   11.910    5.0658
   11.940    4.8447
   11.970    5.1290
   12.000    4.6867
   12.030    4.9710
   12.060    4.9605
   12.090    5.0026
   12.120    5.1817
   12.150    4.8236
   12.180    4.9184
   12.210    4.9921
   12.240    5.1290
   12.270    5.1817
   12.300    5.1922
   12.330    5.2449
   12.360    5.4239
   12.390    5.0974
   12.420    5.3186
   12.450    4.8657
   12.480    4.5392
   12.510    5.0553
   12.540    5.0869
   12.570    4.5182
   12.600    5.0869
   12.630    5.1185
   12.660    4.6551
   12.690    4.8552
   12.720    5.0026
   12.750    4.7604
   12.780    4.9394
   12.810    5.2449
   12.840    5.0974
   12.870    5.1817
   12.900    5.6451
   12.930    6.0453
   12.960    6.1190
   12.990    6.5298
   13.020    5.8557
   13.050    5.3502
   13.080    4.7815
   13.110    5.0132
   13.140    4.7604
   13.170    4.7815
   13.200    5.0342
   13.230    4.6761
   13.260    4.5603
   13.290    4.7077
   13.320    5.0237
   13.350    4.6551
   13.380    4.7393
   13.410    4.8447
   13.440    5.1185
   13.470    4.8763
   13.500    5.0237
   13.530    5.5292
   13.560    5.7399
   13.590    5.3081
   13.620    4.8657
   13.650    4.9921
   13.680    4.6867
   13.710    4.8025
   13.740    4.9289
   13.770    4.4234
   13.800    4.6656
   13.830    4.6761
   13.860    4.7077
   13.890    4.7288
   13.920    4.6024
   13.950    4.8657
   13.980    4.6445
   14.010    4.7815
   14.040    5.0342
   14.070    5.2449
   14.100    5.6345
   14.130    5.7715
   14.160    5.3923
   14.190    5.1080
   14.220    4.8763
   14.250    4.8341
   14.280    4.7393
   14.310    4.3707
   14.340    4.1601
   14.370    4.8447
   14.400    4.8236
   14.430    4.5182
   14.460    4.7077
   14.490    4.6867
   14.520    4.3497
   14.550    4.2654
   14.580    4.8763
   14.610    4.7288
   14.640    4.4971
   14.670    4.3813
   14.700    4.6024
   14.730    4.5498
   14.760    4.5498
   14.790    4.5814
   14.820    4.7499
   14.850    4.4023
   14.880    4.6235
   14.910    4.5076
   14.940    4.4866
   14.970    4.3813
   15.000    4.6761
   15.030    4.7709
   15.060    4.6761
   15.090    4.8341
   15.120    4.8341
   15.150    4.8131
   15.180    5.1606
   15.210    5.1922
   15.240    4.8973
   15.270    4.7393
   15.300    4.5182
   15.330    4.6972
   15.360    4.4971
   15.390    4.8973
   15.420    4.6656
   15.450    4.7499
   15.480    4.8973
   15.510    4.6130
   15.540    4.9816
   15.570    4.8657
   15.600    4.6024
   15.630    4.8447
   15.660    4.6024
   15.690    4.5919
   15.720    4.5603
   15.750    4.6340
   15.780    4.7709
   15.810    4.4444
   15.840    4.7920
   15.870    4.7499
   15.900    4.3286
   15.930    4.3918
   15.960    4.7288
   15.990    5.0342
   16.020    4.7288
   16.050    4.6656
   16.080    4.5708
   16.110    4.5076
   16.140    5.2554
   16.170    4.9184
   16.200    5.0342
   16.230    4.7077
   16.260    4.4023
   16.290    4.5814
   16.320    4.8131
   16.350    4.9078
   16.380    4.5076
   16.410    4.4234
   16.440    4.7709
   16.470    4.7709
   16.500    4.8341
   16.530    4.8131
   16.560    4.8341
   16.590    4.8657
   16.620    4.6972
   16.650    5.1185
   16.680    5.0764
   16.710    5.1185
   16.740    4.6656
   16.770    4.6235
   16.800    4.6867
   16.830    4.6445
   16.860    5.1185
   16.890    4.5919
   16.920    4.7499
   16.950    4.9921
   16.980    4.7920
   17.010    4.6445
   17.040    5.2975
   17.070    5.3291
   17.100    5.5187
   17.130    5.4239
   17.160    4.9710
   17.190    4.9289
   17.220    4.6761
   17.250    4.6445
   17.280    4.8447
   17.310    4.8657
   17.340    4.3918
   17.370    4.7288
   17.400    4.8447
   17.430    4.7288
   17.460    4.8236
   17.490    4.8025
   17.520    4.7183
   17.550    5.0237
   17.580    5.0026
   17.610    4.7709
   17.640    4.8131
   17.670    4.5182
   17.700    4.6551
   17.730    4.8763
   17.760    4.7499
   17.790    4.5919
   17.820    4.4444
   17.850    4.5814
   17.880    4.6761
   17.910    4.8763
   17.940    5.2765
   17.970    4.6130
   18.000    4.9710
   18.030    4.9500
   18.060    4.6445
   18.090    4.7920
   18.120    4.7288
   18.150    4.8973
   18.180    4.4760
   18.210    4.7920
   18.240    4.8236
   18.270    4.9921
   18.300    5.1290
   18.330    4.5814
   18.360    4.9289
   18.390    5.0237
   18.420    5.0448
   18.450    4.9289
   18.480    4.9394
   18.510    4.7920
   18.540    4.5919
   18.570    4.6761
   18.600    4.8131
   18.630    4.7815
   18.660    4.5498
   18.690    4.7709
   18.720    4.8552
   18.750    4.8868
   18.780    4.7393
   18.810    5.2975
   18.840    4.6551
   18.870    5.0237
   18.900    4.7920
   18.930    4.8341
   18.960    4.6551
   18.990    4.8341
   19.020    4.5814
   19.050    4.6340
   19.080    4.8868
   19.110    4.6551
   19.140    4.9500
   19.170    5.0026
   19.200    4.4128
   19.230    4.6445
   19.260    4.7709
   19.290    5.3607
   19.320    4.8868
   19.350    4.5287
   19.380    5.0026
   19.410    4.6656
   19.440    5.1185
   19.470    4.6656
   19.500    4.8341
   19.530    4.6235
   19.560    4.9078
   19.590    5.4028
   19.620    5.3397
   19.650    5.0553
   19.680    5.1290
   19.710    5.2659
   19.740    5.0869
   19.770    4.9605
   19.800    5.2027
   19.830    4.9605
   19.860    4.5603
   19.890    4.4550
   19.920    4.6867
   19.950    4.6972
   19.980    4.7393
   20.010    4.8763
   20.040    4.8552
   20.070    5.1080
   20.100    4.9394
   20.130    5.1185
   20.160    4.9078
   20.190    4.9394
   20.220    4.8447
   20.250    4.5919
   20.280    4.9710
   20.310    5.0342
   20.340    5.3186
   20.370    5.6977
   20.400    5.6240
   20.430    5.8768
   20.460    5.6556
   20.490    5.6872
   20.520    5.5608
   20.550    4.9500
   20.580    4.9184
   20.610    5.0342
   20.640    4.9500
   20.670    5.0974
   20.700    5.1185
   20.730    4.8973
   20.760    5.0237
   20.790    4.9394
   20.820    5.0658
   20.850    5.0342
   20.880    5.5503
   20.910    4.8763
   20.940    5.1185
   20.970    4.6656
   21.000    4.8657
   21.030    5.0764
   21.060    4.6972
   21.090    5.0764
   21.120    5.0869
   21.150    5.2975
   21.180    5.1501
   21.210    5.2343
   21.240    4.8657
   21.270    4.8657
   21.300    5.1185
   21.330    5.1922
   21.360    4.8552
   21.390    5.2554
   21.420    4.8763
   21.450    4.9078
   21.480    5.0553
   21.510    5.0448
   21.540    4.9710
   21.570    4.9394
   21.600    4.7499
   21.630    5.1501
   21.660    4.8868
   21.690    5.1922
   21.720    5.2343
   21.750    5.3607
   21.780    5.5819
   21.810    5.3291
   21.840    5.2659
   21.870    5.3081
   21.900    5.2870
   21.930    5.3607
   21.960    5.2765
   21.990    5.3923
   22.020    5.1290
   22.050    5.2027
   22.080    4.7499
   22.110    4.9816
   22.140    5.1606
   22.170    4.8763
   22.200    5.2659
   22.230    5.1185
   22.260    5.6240
   22.290    5.3712
   22.320    5.0026
   22.350    5.2449
   22.380    4.8973
   22.410    5.3818
   22.440    5.0026
   22.470    5.1501
   22.500    5.5819
   22.530    5.5924
   22.560    5.7399
   22.590    6.0348
   22.620    5.4660
   22.650    6.2770
   22.680    5.5082
   22.710    5.5924
   22.740    5.1185
   22.770    5.0869
   22.800    5.2975
   22.830    5.4871
   22.860    5.4555
   22.890    5.6240
   22.920    5.5608
   22.950    6.3296
   22.980    6.4350
   23.010    5.8978
   23.040    5.7504
   23.070    5.4134
   23.100    5.0869
   23.130    5.1606
   23.160    4.9289
   23.190    5.1922
   23.220    5.4766
   23.250    4.9921
   23.280    5.8136
   23.310    5.6029
   23.340    5.1395
   23.370    4.9289
   23.400    5.2449
   23.430    5.0448
   23.460    5.0974
   23.490    5.2133
   23.520    5.2133
   23.550    5.5292
   23.580    5.4660
   23.610    5.1080
   23.640    5.2975
   23.670    5.1185
   23.700    5.3818
   23.730    5.1711
   23.760    4.7604
   23.790    5.6451
   23.820    5.0974
   23.850    5.1501
   23.880    5.2133
   23.910    5.1711
   23.940    5.1711
   23.970    5.3923
   24.000    5.2870
   24.030    5.3818
   24.060    5.1711
   24.090    5.2343
   24.120    4.8131
   24.150    4.9605
   24.180    4.6445
   24.210    5.0237
   24.240    5.2975
   24.270    4.9394
   24.300    5.0026
   24.330    4.9605
   24.360    5.0764
   24.390    5.0553
   24.420    4.8236
   24.450    4.8868
   24.480    5.0132
   24.510    5.2659
   24.540    5.0764
   24.570    5.1185
   24.600    5.4134
   24.630    5.5503
   24.660    5.0342
   24.690    5.1185
   24.720    5.0132
   24.750    5.1817
   24.780    5.0026
   24.810    4.8131
   24.840    4.8763
   24.870    5.6345
   24.900    4.9921
   24.930    5.1290
   24.960    4.6551
   24.990    4.9078
   25.020    4.6024
   25.050    4.7183
   25.080    4.8131
   25.110    4.7815
   25.140    4.8763
   25.170    5.0658
   25.200    4.9078
   25.230    4.8552
   25.260    5.0237
   25.290    5.0448
   25.320    5.1501
   25.350    4.6867
   25.380    5.1185
   25.410    5.0553
   25.440    4.9394
   25.470    4.4444
   25.500    4.9605
   25.530    5.2343
   25.560    5.0974
   25.590    4.5498
   25.620    4.9710
   25.650    4.6656
   25.680    4.7920
   25.710    4.7077
   25.740    4.9184
   25.770    5.0553
   25.800    5.6135
   25.830    5.4660
   25.860    5.4028
   25.890    5.3818
   25.920    5.2765
   25.950    5.3923
   25.980    5.0448
   26.010    4.9921
   26.040    4.6235
   26.070    4.8763
   26.100    5.0132
   26.130    4.6551
   26.160    4.9710
   26.190    4.9078
   26.220    4.8025
   26.250    4.6656
   26.280    4.5392
   26.310    4.6656
   26.340    4.8236
   26.370    4.8973
   26.400    5.2027
   26.430    4.4234
   26.460    4.6551
   26.490    4.9184
   26.520    4.8868
   26.550    5.0026
   26.580    4.9605
   26.610    4.7815
   26.640    4.4655
   26.670    4.7604
   26.700    4.3602
   26.730    5.0026
   26.760    4.8657
   26.790    4.4234
   26.820    4.5919
   26.850    4.8973
   26.880    4.7815
   26.910    4.7920
   26.940    4.4023
   26.970    4.7709
   27.000    4.7920
   27.030    4.6445
   27.060    4.7709
   27.090    5.1080
   27.120    4.6445
   27.150    5.0448
   27.180    4.6656
   27.210    4.6761
   27.240    4.6972
   27.270    4.7604
   27.300    4.7499
   27.330    4.5076
   27.360    4.4971
   27.390    4.7499
   27.420    4.5814
   27.450    4.5287
   27.480    4.3707
   27.510    4.5498
   27.540    4.8973
   27.570    4.6235
   27.600    4.7393
   27.630    4.9078
   27.660    4.4444
   27.690    4.7815
   27.720    4.7077
   27.750    4.6445
   27.780    4.6761
   27.810    5.0342
   27.840    4.6761
   27.870    4.9184
   27.900    4.8236
   27.930    4.9816
   27.960    4.6340
   27.990    4.2549
   28.020    4.4655
   28.050    4.6024
   28.080    4.5708
   28.110    4.6024
   28.140    4.5708
   28.170    4.6551
   28.200    4.5076
   28.230    4.7393
   28.260    4.7920
   28.290    4.6024
   28.320    4.8447
   28.350    4.5814
   28.380    4.4866
   28.410    4.5076
   28.440    4.6867
   28.470    4.6867
   28.500    4.4550
   28.530    4.7499
   28.560    4.5919
   28.590    4.8763
   28.620    4.7077
   28.650    4.5603
   28.680    4.3602
   28.710    4.2759
   28.740    4.5708
   28.770    4.3286
   28.800    4.2865
   28.830    4.2654
   28.860    4.3391
   28.890    4.8025
   28.920    4.3602
   28.950    4.5498
   28.980    4.5919
   29.010    4.4550
   29.040    4.3918
   29.070    4.5603
   29.100    4.4128
   29.130    4.4339
   29.160    4.3918
   29.190    4.6235
   29.220    4.5287
   29.250    4.4971
   29.280    4.1074
   29.310    4.8025
   29.340    4.4339
   29.370    4.4444
   29.400    4.4023
   29.430    4.5919
   29.460    4.3181
   29.490    4.4655
   29.520    4.2970
   29.550    4.5708
   29.580    4.4971
   29.610    4.2759
   29.640    4.0337
   29.670    4.3813
   29.700    4.2233
   29.730    4.3286
   29.760    4.3707
   29.790    4.6024
   29.820    4.0758
   29.850    4.3813
   29.880    4.5392
   29.910    4.3707
   29.940    4.3181
   29.970    4.4866
   30.000    4.3286
   30.030    4.2865
   30.060    4.1496
   30.090    4.5287
   30.120    4.5076
   30.150    4.1811
   30.180    4.2127
   30.210    4.1601
   30.240    4.0548
   30.270    4.2022
   30.300    4.2022
   30.330    4.2865
   30.360    4.2127
   30.390    4.3813
   30.420    4.1706
   30.450    4.0232
   30.480    4.3918
   30.510    4.3707
   30.540    4.1074
   30.570    3.9284
   30.600    4.2970
   30.630    4.0548
   30.660    4.5076
   30.690    4.2022
   30.720    4.0548
   30.750    4.0969
   30.780    4.3181
   30.810    4.2759
   30.840    4.2654
   30.870    4.1285
   30.900    4.3075
   30.930    3.9705
   30.960    4.0864
   30.990    4.1285
   31.020    4.1496
   31.050    3.9494
   31.080    4.1285
   31.110    3.9389
   31.140    4.2233
   31.170    4.4128
   31.200    4.1180
   31.230    3.7915
   31.260    4.0548
   31.290    4.1180
   31.320    4.0653
   31.350    4.2865
   31.380    4.2443
   31.410    4.1180
   31.440    4.4023
   31.470    4.4866
   31.500    4.1074
   31.530    4.1601
   31.560    3.7599
   31.590    4.2022
   31.620    4.1180
   31.650    4.2549
   31.680    4.0864
   31.710    4.1390
   31.740    4.1706
   31.770    3.8863
   31.800    3.9600
   31.830    4.1180
   31.860    3.9389
   31.890    4.0337
   31.920    3.7388
   31.950    3.5387
   31.980    4.2127
   32.010    3.8020
   32.040    4.1601
   32.070    4.1285
   32.100    4.1074
   32.130    4.0864
   32.160    4.0653
   32.190    3.7809
   32.220    4.0548
   32.250    4.0337
   32.280    4.0126
   32.310    4.0021
   32.340    3.6967
   32.370    4.0126
   32.400    3.9073
   32.430    4.1601
   32.460    3.8020
   32.490    4.1180
   32.520    3.7072
   32.550    3.7283
   32.580    4.0337
   32.610    3.9073
   32.640    4.3391
   32.670    3.6967
   32.700    3.8757
   32.730    4.0442
   32.760    4.1496
   32.790    3.9705
   32.820    3.4860
   32.850    3.6440
   32.880    3.5387
   32.910    4.0126
   32.940    3.6756
   32.970    4.0021
   33.000    3.8652
   33.030    3.8757
   33.060    4.0548
   33.090    3.6230
   33.120    3.9179
   33.150    3.8020
   33.180    3.7493
   33.210    3.9073
   33.240    3.6124
   33.270    3.8231
   33.300    3.7072
   33.330    3.6230
   33.360    3.7809
   33.390    3.8020
   33.420    3.7915
   33.450    3.8125
   33.480    3.7072
   33.510    3.7915
   33.540    3.7809
   33.570    3.9389
   33.600    3.5176
   33.630    3.7493
   33.660    3.7177
   33.690    3.6440
   33.720    3.7388
   33.750    4.0126
   33.780    3.6335
   33.810    4.1390
   33.840    3.8125
   33.870    3.6967
   33.900    3.8336
   33.930    3.8020
   33.960    3.7599
   33.990    3.6230
   34.020    3.9389
   34.050    3.8231
   34.080    4.0126
   34.110    3.5387
   34.140    3.6335
   34.170    3.7704
   34.200    3.9073
   34.230    3.6440
   34.260    3.6967
   34.290    3.6440
   34.320    3.7599
   34.350    3.6967
   34.380    3.7177
   34.410    3.4439
   34.440    3.6651
   34.470    3.5703
   34.500    3.8757
   34.530    3.5282
   34.560    3.7388
   34.590    3.3913
   34.620    3.7599
   34.650    3.3913
   34.680    3.5808
   34.710    3.5492
   34.740    3.6862
   34.770    3.6230
   34.800    3.3491
   34.830    3.6230
   34.860    3.7915
   34.890    3.5914
   34.920    3.6862
   34.950    3.4123
   34.980    3.7283
   35.010    3.5808
   35.040    3.6651
   35.070    3.6230
   35.100    3.4439
   35.130    3.6546
   35.160    3.4229
   35.190    3.4650
   35.220    3.6546
   35.250    3.4755
   35.280    3.3491
   35.310    3.6335
   35.340    3.4123
   35.370    3.5387
   35.400    3.8125
   35.430    3.6124
   35.460    3.5282
   35.490    3.4755
   35.520    3.6862
   35.550    3.6230
   35.580    3.5598
   35.610    3.6756
   35.640    3.7599
   35.670    3.4018
   35.700    3.7177
   35.730    3.2965
   35.760    3.5071
   35.790    3.4334
   35.820    3.4544
   35.850    3.3281
   35.880    3.3597
   35.910    3.1806
   35.940    3.3491
   35.970    3.0964
   36.000    3.3597
   36.030    3.2965
   36.060    3.5071
   36.090    3.3913
   36.120    3.3386
   36.150    3.5282
   36.180    3.5703
   36.210    3.5387
   36.240    3.1912
   36.270    3.3807
   36.300    3.6230
   36.330    3.6335
   36.360    3.4755
   36.390    3.4650
   36.420    3.4860
   36.450    3.3070
   36.480    3.6440
   36.510    3.1806
   36.540    3.2649
   36.570    3.2859
   36.600    3.6124
   36.630    3.4966
   36.660    3.6019
   36.690    3.4229
   36.720    3.4650
   36.750    3.4123
   36.780    3.3913
   36.810    3.1596
   36.840    3.2965
   36.870    3.4018
   36.900    3.3175
   36.930    3.3913
   36.960    3.1490
   36.990    3.4966
   37.020    3.5387
   37.050    3.3070
   37.080    3.1280
   37.110    3.2754
   37.140    3.3807
   37.170    3.4860
   37.200    3.6230
   37.230    3.2438
   37.260    3.7915
   37.290    3.0332
   37.320    3.4860
   37.350    3.4966
   37.380    3.1912
   37.410    3.1912
   37.440    3.2122
   37.470    3.2122
   37.500    3.2859
   37.530    3.3281
   37.560    3.5492
   37.590    3.2122
   37.620    3.4229
   37.650    3.6230
   37.680    3.3491
   37.710    3.3807
   37.740    3.2438
   37.770    3.0964
   37.800    3.3175
   37.830    3.4018
   37.860    3.2543
   37.890    3.2965
   37.920    3.3597
   37.950    3.1806
   37.980    3.5176
   38.010    3.4755
   38.040    3.1912
   38.070    3.3281
   38.100    3.3491
   38.130    3.4123
   38.160    3.4018
   38.190    3.0964
   38.220    3.3807
   38.250    3.2754
   38.280    3.2227
   38.310    3.1596
   38.340    3.2017
   38.370    3.1806
   38.400    3.2649
   38.430    3.0753
   38.460    3.5703
   38.490    3.4544
   38.520    3.3913
   38.550    3.2227
   38.580    3.1806
   38.610    3.3281
   38.640    3.2333
   38.670    3.2017
   38.700    3.2227
   38.730    3.2333
   38.760    3.1806
   38.790    3.0648
   38.820    3.2333
   38.850    3.4966
   38.880    3.2859
   38.910    3.1596
   38.940    3.2438
   38.970    3.3913
   39.000    3.0226
   39.030    3.1385
   39.060    3.4755
   39.090    3.0016
   39.120    3.1174
   39.150    3.1385
   39.180    3.1806
   39.210    3.3702
   39.240    3.5071
   39.270    3.3070
   39.300    3.1490
   39.330    3.1596
   39.360    3.1912
   39.390    3.4123
   39.420    3.1596
   39.450    3.0648
   39.480    3.1069
   39.510    2.8963
   39.540    3.3386
   39.570    3.1385
   39.600    3.0226
   39.630    3.1912
   39.660    3.3175
   39.690    3.0226
   39.720    3.1806
   39.750    3.0437
   39.780    3.1912
   39.810    3.0648
   39.840    3.1806
   39.870    3.1701
   39.900    2.7909
   39.930    3.2438
   39.960    3.4229
   39.990    3.5071