File: data/MOCOF-1/PXRD/PXRD_KE-119_Cu-Ka1_capillary-1mm_5s-deg.xyd
    1.500   21.6219
    1.530   21.2638
    1.560   20.8636
    1.590   20.1369
    1.620   19.4207
    1.650   19.4839
    1.680   18.9363
    1.710   18.6835
    1.740   18.3149
    1.770   17.8936
    1.800   17.3881
    1.830   17.5461
    1.860   16.4929
    1.890   16.9036
    1.920   15.9242
    1.950   15.9031
    1.980   15.5134
    2.010   15.1764
    2.040   15.3344
    2.070   15.1027
    2.100   14.6919
    2.130   14.9763
    2.160   14.5024
    2.190   14.1548
    2.220   13.9126
    2.250   14.6709
    2.280   14.6077
    2.310   14.6498
    2.340   13.5545
    2.370   13.6072
    2.400   13.6704
    2.430   13.6282
    2.460   13.4387
    2.490   13.4492
    2.520   13.3333
    2.550   13.3755
    2.580   13.1227
    2.610   13.6704
    2.640   12.9015
    2.670   12.8173
    2.700   13.0595
    2.730   13.5966
    2.760   13.3860
    2.790   13.3123
    2.820   13.7019
    2.850   13.3649
    2.880   13.2070
    2.910   13.1754
    2.940   13.9021
    2.970   13.8389
    3.000   13.9442
    3.030   14.1443
    3.060   14.3971
    3.090   13.7441
    3.120   14.7551
    3.150   14.8078
    3.180   15.3976
    3.210   15.7451
    3.240   16.5666
    3.270   16.1032
    3.300   17.0511
    3.330   17.0932
    3.360   17.9358
    3.390   18.9047
    3.420   19.1364
    3.450   19.2628
    3.480   21.4218
    3.510   22.4645
    3.540   23.4966
    3.570   23.9916
    3.600   26.8878
    3.630   28.8994
    3.660   30.9321
    3.690   33.4071
    3.720   36.4402
    3.750   41.7483
    3.780   46.3928
    3.810   54.2391
    3.840   65.3186
    3.870   72.1116
    3.900   64.3075
    3.930   41.1901
    3.960   23.3491
    3.990   16.6087
    4.020   13.5650
    4.050   12.1432
    4.080   11.6798
    4.110   10.7214
    4.140   10.1106
    4.170    9.9421
    4.200    9.2680
    4.230    8.8889
    4.260    8.8678
    4.290    9.4997
    4.320    9.3523
    4.350    9.7841
    4.380    9.0047
    4.410    8.8468
    4.440    8.7309
    4.470    9.1627
    4.500    9.1101
    4.530    8.9100
    4.560    8.6256
    4.590    8.6888
    4.620    8.7625
    4.650    8.9205
    4.680    9.1732
    4.710    8.5413
    4.740    9.1311
    4.770    8.6677
    4.800    9.0785
    4.830    9.5103
    4.860    9.5313
    4.890    9.5419
    4.920    9.6893
    4.950    9.4681
    4.980    9.9526
    5.010    9.8262
    5.040    9.6472
    5.070   10.5319
    5.100   10.7530
    5.130   10.9847
    5.160   11.6904
    5.190   11.8378
    5.220   12.1959
    5.250   13.5229
    5.280   13.9126
    5.310   14.6603
    5.340   15.9242
    5.370   17.4302
    5.400   19.7367
    5.430   21.8009
    5.460   25.9084
    5.490   27.3723
    5.520   25.0974
    5.550   18.8415
    5.580   12.4803
    5.610   10.7741
    5.640    9.1838
    5.670    9.0469
    5.700    8.8362
    5.730    8.2991
    5.760    8.2254
    5.790    8.2991
    5.820    7.8673
    5.850    8.2043
    5.880    7.8884
    5.910    8.1095
    5.940    7.7936
    5.970    8.3518
    6.000    7.9305
    6.030    7.5619
    6.060    7.7725
    6.090    7.6672
    6.120    7.8989
    6.150    8.3834
    6.180    7.5829
    6.210    8.1517
    6.240    8.4781
    6.270    8.0990
    6.300    7.9831
    6.330    8.1411
    6.360    8.1938
    6.390    8.1833
    6.420    8.2570
    6.450    7.9516
    6.480    8.7414
    6.510    8.8468
    6.540    9.3312
    6.570    9.6156
    6.600    9.7420
    6.630   10.2475
    6.660   11.0795
    6.690   11.5850
    6.720   12.7436
    6.750   13.3228
    6.780   11.6798
    6.810    9.7736
    6.840    8.5729
    6.870    8.3096
    6.900    7.6672
    6.930    7.6672
    6.960    7.9305
    6.990    7.6777
    7.020    8.1201
    7.050    8.2359
    7.080    8.0674
    7.110    7.8462
    7.140    7.6777
    7.170    8.0358
    7.200    7.7514
    7.230    7.5724
    7.260    7.6988
    7.290    8.0253
    7.320    7.6672
    7.350    8.0569
    7.380    7.8462
    7.410    8.0885
    7.440    7.9726
    7.470    8.1833
    7.500    8.2254
    7.530    8.3412
    7.560    8.2991
    7.590    8.6256
    7.620    9.1522
    7.650    9.1417
    7.680   10.0685
    7.710   10.4160
    7.740   10.6477
    7.770   11.4060
    7.800   11.3428
    7.830   10.8268
    7.860    9.6367
    7.890    8.2254
    7.920    8.1727
    7.950    8.4360
    7.980    8.2359
    8.010    8.3834
    8.040    7.8146
    8.070    7.9937
    8.100    7.5513
    8.130    7.6567
    8.160    8.1938
    8.190    8.2149
    8.220    7.9937
    8.250    8.3307
    8.280    7.9621
    8.310    7.6883
    8.340    7.9305
    8.370    8.5413
    8.400    7.4355
    8.430    8.2149
    8.460    8.2675
    8.490    8.0253
    8.520    8.3412
    8.550    7.9516
    8.580    8.2675
    8.610    8.5940
    8.640    8.2464
    8.670    8.4150
    8.700    8.3834
    8.730    8.6677
    8.760    8.2991
    8.790    8.2570
    8.820    7.6356
    8.850    8.0990
    8.880    8.1833
    8.910    8.3518
    8.940    8.2149
    8.970    8.4044
    9.000    8.4150
    9.030    8.2254
    9.060    8.2043
    9.090    8.3096
    9.120    8.6361
    9.150    8.3202
    9.180    8.7204
    9.210    8.6151
    9.240    8.7098
    9.270    8.7520
    9.300    9.0679
    9.330    9.6156
    9.360   10.1316
    9.390    9.9210
    9.420   10.8478
    9.450   11.3217
    9.480   13.0174
    9.510   13.9652
    9.540   15.1132
    9.570   15.1027
    9.600   13.1964
    9.630   11.1111
    9.660    9.6893
    9.690    8.8046
    9.720    8.6993
    9.750    8.4360
    9.780    8.2675
    9.810    8.0042
    9.840    8.0885
    9.870    8.2043
    9.900    8.6045
    9.930    7.9726
    9.960    8.1517
    9.990    7.9831
   10.020    8.3728
   10.050    8.4571
   10.080    8.3307
   10.110    8.3412
   10.140    8.8046
   10.170    8.7309
   10.200    9.2680
   10.230    9.2048
   10.260    9.6788
   10.290   10.8373
   10.320   10.7425
   10.350    9.7736
   10.380    9.6577
   10.410    9.3312
   10.440    8.5519
   10.470    8.0463
   10.500    8.3518
   10.530    8.2570
   10.560    8.2359
   10.590    8.1938
   10.620    8.0885
   10.650    7.9726
   10.680    7.8252
   10.710    7.8884
   10.740    8.3623
   10.770    8.5097
   10.800    8.5203
   10.830    8.0674
   10.860    8.5097
   10.890    8.6572
   10.920    9.2048
   10.950    8.9942
   10.980    9.5840
   11.010    9.7841
   11.040   10.6056
   11.070   10.2475
   11.100    9.3102
   11.130    8.2570
   11.160    8.4360
   11.190    8.1622
   11.220    7.7199
   11.250    7.6988
   11.280    7.4882
   11.310    7.9516
   11.340    7.5619
   11.370    8.0147
   11.400    7.1827
   11.430    7.7830
   11.460    7.5408
   11.490    7.8673
   11.520    7.8252
   11.550    8.2043
   11.580    8.4571
   11.610    9.2680
   11.640    8.9310
   11.670    8.9521
   11.700   10.6266
   11.730    9.3839
   11.760    9.1627
   11.790    8.1095
   11.820    7.9726
   11.850    7.9726
   11.880    7.5935
   11.910    7.6040
   11.940    7.0353
   11.970    7.4882
   12.000    7.4987
   12.030    7.1090
   12.060    7.5408
   12.090    6.9826
   12.120    7.2459
   12.150    7.7936
   12.180    7.2775
   12.210    7.0774
   12.240    7.1933
   12.270    7.1406
   12.300    7.3302
   12.330    7.6356
   12.360    7.5935
   12.390    7.3512
   12.420    7.3828
   12.450    6.7088
   12.480    7.3091
   12.510    7.3091
   12.540    6.8562
   12.570    7.2986
   12.600    7.2670
   12.630    7.5724
   12.660    7.0458
   12.690    7.2880
   12.720    7.2143
   12.750    7.5092
   12.780    7.2354
   12.810    7.4882
   12.840    7.4776
   12.870    7.9200
   12.900    8.6256
   12.930    8.6045
   12.960    8.9100
   12.990    8.1201
   13.020    7.9831
   13.050    7.5197
   13.080    7.2038
   13.110    7.2670
   13.140    7.1301
   13.170    7.1933
   13.200    7.1195
   13.230    6.7193
   13.260    7.1617
   13.290    7.1511
   13.320    6.6877
   13.350    7.0563
   13.380    7.2143
   13.410    6.8141
   13.440    7.6461
   13.470    7.6251
   13.500    7.2143
   13.530    7.5303
   13.560    7.6251
   13.590    7.6567
   13.620    7.4039
   13.650    7.0774
   13.680    7.2249
   13.710    7.1617
   13.740    6.9826
   13.770    6.9089
   13.800    6.6983
   13.830    7.2565
   13.860    7.0774
   13.890    7.0774
   13.920    7.2038
   13.950    7.4460
   13.980    7.5619
   14.010    7.9726
   14.040    7.5513
   14.070    8.0569
   14.100    7.8146
   14.130    8.3307
   14.160    7.6145
   14.190    7.5829
   14.220    7.3196
   14.250    7.4355
   14.280    7.0458
   14.310    6.8352
   14.340    6.7404
   14.370    6.8141
   14.400    6.6140
   14.430    6.8984
   14.460    7.2670
   14.490    6.9721
   14.520    6.8773
   14.550    7.1722
   14.580    6.8352
   14.610    6.8562
   14.640    6.7404
   14.670    7.0353
   14.700    7.1617
   14.730    7.0458
   14.760    7.0037
   14.790    6.6983
   14.820    6.6983
   14.850    6.7720
   14.880    7.1511
   14.910    6.6772
   14.940    6.9510
   14.970    6.8457
   15.000    6.6561
   15.030    6.8878
   15.060    6.9194
   15.090    7.2354
   15.120    7.2038
   15.150    7.2670
   15.180    7.1090
   15.210    7.1617
   15.240    7.3302
   15.270    6.8246
   15.300    6.5508
   15.330    6.7299
   15.360    7.3828
   15.390    6.9194
   15.420    6.8878
   15.450    6.9721
   15.480    6.9932
   15.510    6.9616
   15.540    6.4244
   15.570    7.1617
   15.600    6.7404
   15.630    7.2354
   15.660    7.1301
   15.690    6.8246
   15.720    7.4144
   15.750    6.9089
   15.780    6.8141
   15.810    7.2143
   15.840    6.9616
   15.870    6.9300
   15.900    6.9405
   15.930    6.5824
   15.960    7.1301
   15.990    6.8246
   16.020    6.8562
   16.050    7.1195
   16.080    6.9089
   16.110    6.9932
   16.140    7.5724
   16.170    7.5513
   16.200    7.5619
   16.230    7.0353
   16.260    7.2880
   16.290    7.3302
   16.320    6.8141
   16.350    6.9510
   16.380    6.7404
   16.410    7.2986
   16.440    6.9721
   16.470    6.9194
   16.500    6.9826
   16.530    7.4355
   16.560    7.1722
   16.590    7.2670
   16.620    7.0142
   16.650    7.6883
   16.680    6.8878
   16.710    7.2565
   16.740    6.8773
   16.770    7.1617
   16.800    7.6251
   16.830    6.8984
   16.860    7.2249
   16.890    7.4144
   16.920    7.3196
   16.950    7.5619
   16.980    7.3934
   17.010    7.5619
   17.040    7.8778
   17.070    7.7830
   17.100    7.9094
   17.130    7.6251
   17.160    7.4671
   17.190    7.3302
   17.220    7.3934
   17.250    7.0142
   17.280    7.0774
   17.310    6.7299
   17.340    7.0774
   17.370    6.8246
   17.400    7.2775
   17.430    7.1301
   17.460    6.8668
   17.490    7.3618
   17.520    7.0563
   17.550    7.3091
   17.580    7.1827
   17.610    6.9300
   17.640    6.9826
   17.670    7.3091
   17.700    6.9721
   17.730    7.1933
   17.760    7.3091
   17.790    7.0142
   17.820    7.0879
   17.850    7.2249
   17.880    6.8668
   17.910    7.1933
   17.940    6.9616
   17.970    7.3302
   18.000    7.0774
   18.030    7.1511
   18.060    6.8878
   18.090    7.3934
   18.120    7.0458
   18.150    6.9721
   18.180    6.9089
   18.210    6.7720
   18.240    7.1511
   18.270    6.9932
   18.300    7.0774
   18.330    6.5719
   18.360    7.5303
   18.390    7.1827
   18.420    7.7830
   18.450    7.4039
   18.480    7.2038
   18.510    7.0142
   18.540    7.0142
   18.570    6.9616
   18.600    6.8562
   18.630    7.1301
   18.660    6.9932
   18.690    7.0142
   18.720    7.4776
   18.750    6.9510
   18.780    6.9932
   18.810    6.9826
   18.840    7.2038
   18.870    7.4039
   18.900    6.7509
   18.930    7.4039
   18.960    7.4776
   18.990    7.3618
   19.020    7.5408
   19.050    7.2775
   19.080    6.9721
   19.110    6.7404
   19.140    7.0248
   19.170    7.0248
   19.200    6.8562
   19.230    7.0774
   19.260    7.0985
   19.290    6.9616
   19.320    6.8141
   19.350    7.1722
   19.380    6.8668
   19.410    7.2986
   19.440    7.2038
   19.470    7.0774
   19.500    7.4460
   19.530    7.2459
   19.560    7.3091
   19.590    7.1722
   19.620    7.4250
   19.650    7.2565
   19.680    7.6040
   19.710    6.9932
   19.740    7.0353
   19.770    7.0458
   19.800    7.0458
   19.830    7.0563
   19.860    7.3828
   19.890    7.2143
   19.920    6.9300
   19.950    7.2354
   19.980    7.1301
   20.010    7.1195
   20.040    7.2670
   20.070    6.8668
   20.100    6.9721
   20.130    7.0458
   20.160    6.9826
   20.190    7.3302
   20.220    7.4671
   20.250    7.2354
   20.280    7.2459
   20.310    7.4460
   20.340    7.9621
   20.370    7.6145
   20.400    8.0147
   20.430    7.5197
   20.460    7.4882
   20.490    7.5513
   20.520    7.4776
   20.550    7.2249
   20.580    7.3407
   20.610    7.2880
   20.640    6.9932
   20.670    6.8246
   20.700    6.6983
   20.730    7.1827
   20.760    7.2880
   20.790    7.1406
   20.820    7.1511
   20.850    7.1933
   20.880    7.0458
   20.910    7.2459
   20.940    6.9616
   20.970    6.7299
   21.000    6.8878
   21.030    6.6456
   21.060    7.2249
   21.090    6.9932
   21.120    6.9616
   21.150    6.9089
   21.180    6.8878
   21.210    6.9089
   21.240    6.9826
   21.270    7.1301
   21.300    7.0669
   21.330    7.1090
   21.360    7.6356
   21.390    7.2038
   21.420    7.9410
   21.450    6.8984
   21.480    7.2459
   21.510    6.9510
   21.540    7.3512
   21.570    7.1301
   21.600    7.2143
   21.630    6.9721
   21.660    7.0142
   21.690    7.2459
   21.720    7.0985
   21.750    7.2459
   21.780    6.9405
   21.810    7.3407
   21.840    7.4566
   21.870    7.5408
   21.900    7.7936
   21.930    7.1617
   21.960    7.1301
   21.990    7.3934
   22.020    7.3407
   22.050    7.1933
   22.080    7.1511
   22.110    7.7514
   22.140    7.1722
   22.170    7.4460
   22.200    7.3091
   22.230    7.4671
   22.260    7.1195
   22.290    7.2670
   22.320    7.3723
   22.350    7.4987
   22.380    7.7199
   22.410    7.2038
   22.440    7.0142
   22.470    7.5935
   22.500    7.6567
   22.530    8.1517
   22.560    8.0990
   22.590    8.3518
   22.620    7.9410
   22.650    7.8462
   22.680    8.1517
   22.710    7.5829
   22.740    7.5197
   22.770    7.8146
   22.800    7.5303
   22.830    7.6883
   22.860    7.8252
   22.890    7.4355
   22.920    8.0674
   22.950    7.9094
   22.980    7.9726
   23.010    8.0779
   23.040    7.7304
   23.070    7.2670
   23.100    7.5092
   23.130    7.5303
   23.160    7.4144
   23.190    7.8252
   23.220    7.0879
   23.250    7.4355
   23.280    7.3828
   23.310    7.3407
   23.340    7.0563
   23.370    7.7620
   23.400    7.2354
   23.430    7.4671
   23.460    7.5619
   23.490    7.0458
   23.520    7.3196
   23.550    7.0669
   23.580    7.2249
   23.610    7.5619
   23.640    6.8668
   23.670    7.1406
   23.700    7.2565
   23.730    7.3196
   23.760    7.1195
   23.790    6.9194
   23.820    6.8352
   23.850    7.2038
   23.880    7.3091
   23.910    7.7936
   23.940    7.3618
   23.970    7.7725
   24.000    6.8141
   24.030    7.3302
   24.060    7.6040
   24.090    7.4671
   24.120    7.6988
   24.150    7.0669
   24.180    7.1722
   24.210    7.4987
   24.240    6.8036
   24.270    6.9405
   24.300    7.3512
   24.330    7.1827
   24.360    7.2775
   24.390    6.8457
   24.420    7.1722
   24.450    6.8773
   24.480    6.4666
   24.510    7.1301
   24.540    7.0879
   24.570    6.9721
   24.600    7.1195
   24.630    6.8246
   24.660    7.0458
   24.690    7.0879
   24.720    7.0037
   24.750    6.8036
   24.780    7.0669
   24.810    7.3407
   24.840    6.9089
   24.870    6.9089
   24.900    7.0563
   24.930    7.0669
   24.960    7.1617
   24.990    7.0353
   25.020    6.8141
   25.050    7.1090
   25.080    6.5298
   25.110    7.0669
   25.140    7.0458
   25.170    7.4355
   25.200    7.1195
   25.230    6.9510
   25.260    6.9405
   25.290    7.2354
   25.320    7.2986
   25.350    6.6877
   25.380    7.1722
   25.410    6.7825
   25.440    7.3723
   25.470    6.6667
   25.500    6.9616
   25.530    6.8878
   25.560    7.3091
   25.590    7.2354
   25.620    7.1090
   25.650    7.1933
   25.680    7.1301
   25.710    6.9721
   25.740    6.9510
   25.770    6.8141
   25.800    7.3828
   25.830    7.1827
   25.860    7.3828
   25.890    7.0248
   25.920    7.8568
   25.950    7.2986
   25.980    6.6351
   26.010    6.6456
   26.040    7.0669
   26.070    6.7088
   26.100    7.0669
   26.130    6.7088
   26.160    7.1827
   26.190    6.5824
   26.220    6.6456
   26.250    6.7825
   26.280    6.7088
   26.310    7.0563
   26.340    6.5824
   26.370    6.9194
   26.400    7.2038
   26.430    6.5403
   26.460    6.5824
   26.490    6.8984
   26.520    6.7509
   26.550    6.5929
   26.580    6.9405
   26.610    7.0879
   26.640    7.0563
   26.670    6.5929
   26.700    6.7615
   26.730    6.5824
   26.760    6.8984
   26.790    7.0248
   26.820    6.3402
   26.850    6.6245
   26.880    6.6561
   26.910    6.9826
   26.940    6.7193
   26.970    7.0353
   27.000    7.0353
   27.030    6.8141
   27.060    6.8562
   27.090    6.6983
   27.120    7.1933
   27.150    7.0774
   27.180    6.7825
   27.210    6.6983
   27.240    6.7720
   27.270    6.2559
   27.300    6.6035
   27.330    6.3612
   27.360    6.6351
   27.390    6.6667
   27.420    6.1295
   27.450    6.3612
   27.480    6.6035
   27.510    6.4771
   27.540    6.4666
   27.570    6.7615
   27.600    6.9616
   27.630    6.6245
   27.660    6.1927
   27.690    6.8773
   27.720    6.6245
   27.750    6.7404
   27.780    6.7404
   27.810    6.6983
   27.840    6.6351
   27.870    6.4139
   27.900    6.5613
   27.930    6.5719
   27.960    6.9616
   27.990    6.9405
   28.020    7.2038
   28.050    7.1195
   28.080    6.6456
   28.110    6.7509
   28.140    6.7088
   28.170    7.0669
   28.200    6.7615
   28.230    6.7193
   28.260    6.5087
   28.290    6.9826
   28.320    6.7088
   28.350    6.6561
   28.380    6.3718
   28.410    6.8141
   28.440    6.4560
   28.470    6.6456
   28.500    6.9721
   28.530    6.7088
   28.560    6.5087
   28.590    6.4666
   28.620    6.5719
   28.650    6.0769
   28.680    6.2454
   28.710    6.1295
   28.740    6.8457
   28.770    6.1611
   28.800    6.1611
   28.830    6.0979
   28.860    6.5508
   28.890    6.5508
   28.920    6.5087
   28.950    6.2770
   28.980    6.3507
   29.010    6.4666
   29.040    6.2454
   29.070    6.7193
   29.100    6.5403
   29.130    6.2665
   29.160    6.6035
   29.190    6.3402
   29.220    6.9510
   29.250    6.2454
   29.280    6.6983
   29.310    6.9194
   29.340    6.3191
   29.370    6.1190
   29.400    6.2770
   29.430    6.4771
   29.460    6.1927
   29.490    6.2349
   29.520    6.1190
   29.550    6.1717
   29.580    6.5403
   29.610    6.4876
   29.640    6.4771
   29.670    6.6035
   29.700    6.4876
   29.730    6.1190
   29.760    6.2559
   29.790    6.2349
   29.820    6.3823
   29.850    6.2243
   29.880    6.2770
   29.910    6.1611
   29.940    6.4350
   29.970    6.2138
   30.000    6.3612
   30.030    5.8452
   30.060    5.9821
   30.090    6.1611
   30.120    5.8873
   30.150    5.9400
   30.180    6.1611
   30.210    5.7925
   30.240    6.3191
   30.270    5.8136
   30.300    6.4244
   30.330    6.0874
   30.360    6.1822
   30.390    6.2981
   30.420    6.1190
   30.450    5.9610
   30.480    6.4982
   30.510    6.0664
   30.540    6.4455
   30.570    6.2665
   30.600    5.7083
   30.630    6.1927
   30.660    6.5087
   30.690    6.2875
   30.720    6.3718
   30.750    6.3086
   30.780    6.1611
   30.810    5.9926
   30.840    5.8031
   30.870    6.1927
   30.900    5.7504
   30.930    6.1506
   30.960    6.1506
   30.990    5.9926
   31.020    5.8136
   31.050    6.3086
   31.080    6.3086
   31.110    6.0453
   31.140    6.0137
   31.170    6.0348
   31.200    5.9926
   31.230    6.0453
   31.260    6.1295
   31.290    5.9716
   31.320    6.2243
   31.350    5.9926
   31.380    6.3507
   31.410    6.0769
   31.440    5.9716
   31.470    5.8347
   31.500    5.9084
   31.530    5.8136
   31.560    6.0558
   31.590    6.2033
   31.620    6.0242
   31.650    6.0242
   31.680    6.4560
   31.710    6.1717
   31.740    5.9926
   31.770    5.7504
   31.800    6.1506
   31.830    6.5403
   31.860    6.4244
   31.890    6.4771
   31.920    5.9821
   31.950    6.4034
   31.980    5.9189
   32.010    6.4982
   32.040    6.2981
   32.070    6.6245
   32.100    6.4139
   32.130    7.0669
   32.160    6.3507
   32.190    6.5298
   32.220    6.2033
   32.250    6.2665
   32.280    5.8241
   32.310    6.2981
   32.340    5.8136
   32.370    5.6661
   32.400    5.9505
   32.430    5.9189
   32.460    5.5187
   32.490    5.9926
   32.520    5.7188
   32.550    6.1611
   32.580    6.1506
   32.610    5.8873
   32.640    5.4766
   32.670    5.9400
   32.700    5.8136
   32.730    5.7925
   32.760    6.1190
   32.790    6.0032
   32.820    5.6977
   32.850    5.8136
   32.880    5.7925
   32.910    6.2033
   32.940    6.0032
   32.970    5.9294
   33.000    5.6872
   33.030    6.0242
   33.060    5.8662
   33.090    5.8557
   33.120    6.1611
   33.150    5.5924
   33.180    5.6345
   33.210    5.8136
   33.240    5.7609
   33.270    5.8557
   33.300    5.8241
   33.330    6.0137
   33.360    5.7504
   33.390    6.0242
   33.420    5.9716
   33.450    5.4871
   33.480    5.9189
   33.510    5.7188
   33.540    6.0664
   33.570    5.9294
   33.600    5.9400
   33.630    5.6240
   33.660    5.6872
   33.690    5.9505
   33.720    5.9294
   33.750    5.8347
   33.780    6.3402
   33.810    6.2665
   33.840    5.8347
   33.870    6.0348
   33.900    5.9821
   33.930    5.8557
   33.960    5.7083
   33.990    5.5082
   34.020    5.4344
   34.050    5.9821
   34.080    5.6872
   34.110    5.3502
   34.140    5.6029
   34.170    5.6556
   34.200    5.5714
   34.230    5.5924
   34.260    5.8452
   34.290    5.5608
   34.320    5.6029
   34.350    5.5714
   34.380    5.5819
   34.410    5.6451
   34.440    5.1395
   34.470    5.5187
   34.500    5.5819
   34.530    5.6345
   34.560    5.5819
   34.590    5.1501
   34.620    5.3397
   34.650    5.6767
   34.680    5.4344
   34.710    5.5187
   34.740    5.1817
   34.770    5.5292
   34.800    5.6661
   34.830    5.3502
   34.860    5.6767
   34.890    5.2343
   34.920    5.1395
   34.950    5.3923
   34.980    5.5292
   35.010    5.6556
   35.040    5.6451
   35.070    5.5187
   35.100    5.5398
   35.130    5.8452
   35.160    5.2449
   35.190    5.6029
   35.220    5.2975
   35.250    5.7609
   35.280    5.4028
   35.310    5.1922
   35.340    5.4555
   35.370    5.1185
   35.400    5.7293
   35.430    5.5819
   35.460    5.5187
   35.490    5.5924
   35.520    5.3186
   35.550    5.4660
   35.580    5.4450
   35.610    5.8031
   35.640    5.4976
   35.670    5.4766
   35.700    5.1185
   35.730    5.7715
   35.760    5.7609
   35.790    5.7715
   35.820    5.1922
   35.850    5.4871
   35.880    5.2343
   35.910    5.6661
   35.940    5.5608
   35.970    5.4134
   36.000    5.3607
   36.030    5.5608
   36.060    5.1395
   36.090    5.6345
   36.120    5.3607
   36.150    5.2870
   36.180    5.2343
   36.210    5.4766
   36.240    5.8452
   36.270    5.4134
   36.300    5.3607
   36.330    5.1711
   36.360    5.4239
   36.390    5.4134
   36.420    5.3397
   36.450    5.3502
   36.480    5.3818
   36.510    5.2975
   36.540    5.4028
   36.570    5.2027
   36.600    5.3397
   36.630    5.6556
   36.660    5.2870
   36.690    5.1922
   36.720    5.5608
   36.750    5.5714
   36.780    5.4134
   36.810    5.0764
   36.840    5.5292
   36.870    5.4976
   36.900    5.3186
   36.930    5.3397
   36.960    5.3818
   36.990    5.3186
   37.020    5.0974
   37.050    5.6345
   37.080    5.3081
   37.110    5.1080
   37.140    5.5714
   37.170    5.4344
   37.200    5.6345
   37.230    5.1185
   37.260    5.5714
   37.290    5.7293
   37.320    5.4660
   37.350    5.2870
   37.380    5.4239
   37.410    5.5398
   37.440    5.4028
   37.470    5.1501
   37.500    5.3712
   37.530    5.3186
   37.560    5.3397
   37.590    5.0658
   37.620    5.7609
   37.650    5.2343
   37.680    5.2870
   37.710    5.4871
   37.740    5.4766
   37.770    5.3291
   37.800    5.1290
   37.830    5.2238
   37.860    5.1711
   37.890    5.6661
   37.920    5.1501
   37.950    5.1395
   37.980    5.4555
   38.010    5.2343
   38.040    5.2870
   38.070    5.1817
   38.100    5.0553
   38.130    5.3607
   38.160    5.2133
   38.190    5.1185
   38.220    5.1922
   38.250    5.1922
   38.280    5.2870
   38.310    5.4134
   38.340    4.9710
   38.370    4.9500
   38.400    5.5608
   38.430    5.0553
   38.460    5.3923
   38.490    5.0764
   38.520    5.4344
   38.550    5.3712
   38.580    5.6451
   38.610    5.4660
   38.640    5.0448
   38.670    5.1290
   38.700    5.4766
   38.730    5.3502
   38.760    5.0553
   38.790    5.3712
   38.820    5.0658
   38.850    5.2554
   38.880    5.0974
   38.910    5.2238
   38.940    5.1606
   38.970    5.0237
   39.000    5.4028
   39.030    5.0132
   39.060    5.2027
   39.090    5.5292
   39.120    5.2975
   39.150    5.8241
   39.180    5.2238
   39.210    5.4660
   39.240    5.3081
   39.270    4.9921
   39.300    5.3081
   39.330    5.2343
   39.360    5.6872
   39.390    5.5082
   39.420    5.1395
   39.450    5.1922
   39.480    5.2343
   39.510    5.2133
   39.540    5.2343
   39.570    5.1606
   39.600    5.4028
   39.630    5.2975
   39.660    5.1501
   39.690    5.4134
   39.720    5.5819
   39.750    5.2449
   39.780    5.4239
   39.810    5.4660
   39.840    5.3186
   39.870    5.3712
   39.900    5.1080
   39.930    5.1080
   39.960    4.9394
   39.990    5.0869