File: data/MOCOF-1/PXRD/PXRD_KE-286_Co-Ka1_film-3mm_5s-deg.xyd
    1.500    6.8807
    1.530    6.7844
    1.560    6.6774
    1.590    6.2921
    1.620    6.0674
    1.650    5.7357
    1.680    5.6822
    1.710    5.5431
    1.740    5.5645
    1.770    5.6822
    1.800    5.0936
    1.830    5.1150
    1.860    4.8903
    1.890    4.4195
    1.920    4.5907
    1.950    4.4302
    1.980    4.5051
    2.010    4.3339
    2.040    4.0342
    2.070    3.8630
    2.100    3.9914
    2.130    3.6811
    2.160    3.4564
    2.190    3.4136
    2.220    3.5741
    2.250    3.6490
    2.280    3.2959
    2.310    3.4029
    2.340    3.1782
    2.370    2.9320
    2.400    3.4778
    2.430    3.1996
    2.460    3.0498
    2.490    2.9535
    2.520    2.9963
    2.550    3.0926
    2.580    2.9963
    2.610    2.6324
    2.640    2.7287
    2.670    2.9106
    2.700    2.7073
    2.730    2.9535
    2.760    2.6324
    2.790    2.6217
    2.820    2.5040
    2.850    2.7715
    2.880    2.9535
    2.910    2.6752
    2.940    2.8143
    2.970    2.8036
    3.000    2.4077
    3.030    2.7822
    3.060    2.6217
    3.090    2.6966
    3.120    2.7073
    3.150    2.6859
    3.180    2.7394
    3.210    2.5147
    3.240    2.7073
    3.270    2.9213
    3.300    3.0605
    3.330    3.2210
    3.360    3.0819
    3.390    3.4778
    3.420    3.7346
    3.450    3.4778
    3.480    3.8951
    3.510    3.8202
    3.540    4.4944
    3.570    4.4088
    3.600    5.2113
    3.630    5.4789
    3.660    6.1637
    3.690    6.9770
    3.720    7.2124
    3.750    7.9615
    3.780    9.3740
    3.810   10.1552
    3.840   11.5463
    3.870   13.7186
    3.900   15.0027
    3.930   17.1750
    3.960   19.0369
    3.990   21.9048
    4.020   23.6169
    4.050   24.5907
    4.080   23.1996
    4.110   19.3151
    4.140   15.8587
    4.170   13.7400
    4.200   11.5249
    4.230   10.3799
    4.260    9.6736
    4.290    9.4810
    4.320    8.9567
    4.350    9.1279
    4.380    8.8497
    4.410    8.7640
    4.440    9.4168
    4.470    9.1279
    4.500    9.8662
    4.530   10.0268
    4.560   10.1873
    4.590    9.8555
    4.620    9.8234
    4.650   10.3050
    4.680    9.4168
    4.710    8.7854
    4.740    8.4644
    4.770    8.3788
    4.800    7.8545
    4.830    7.4478
    4.860    6.3991
    4.890    6.0353
    4.920    5.8213
    4.950    5.2006
    4.980    4.6549
    5.010    4.6335
    5.040    4.1841
    5.070    3.7881
    5.100    3.6276
    5.130    3.2852
    5.160    3.0819
    5.190    3.0284
    5.220    3.0070
    5.250    2.8785
    5.280    2.8571
    5.310    2.4612
    5.340    2.5254
    5.370    2.2900
    5.400    2.2686
    5.430    2.3007
    5.460    2.2472
    5.490    2.4505
    5.520    2.1723
    5.550    2.1509
    5.580    2.0011
    5.610    2.0760
    5.640    1.9690
    5.670    2.1509
    5.700    2.0439
    5.730    1.9048
    5.760    2.0974
    5.790    1.8192
    5.820    2.0653
    5.850    1.7657
    5.880    2.0225
    5.910    1.8085
    5.940    1.8406
    5.970    2.0011
    6.000    2.0118
    6.030    2.0439
    6.060    2.3221
    6.090    1.9369
    6.120    2.1188
    6.150    1.9048
    6.180    1.8192
    6.210    2.0546
    6.240    2.1295
    6.270    2.0653
    6.300    2.1188
    6.330    2.0118
    6.360    2.0011
    6.390    2.1723
    6.420    2.1616
    6.450    2.0118
    6.480    1.8834
    6.510    2.1402
    6.540    1.9048
    6.570    1.9904
    6.600    1.9369
    6.630    1.8834
    6.660    1.8834
    6.690    1.9904
    6.720    1.9583
    6.750    1.7764
    6.780    1.8192
    6.810    1.5837
    6.840    1.8299
    6.870    1.5409
    6.900    1.5516
    6.930    1.7228
    6.960    1.5516
    6.990    1.5516
    7.020    1.4767
    7.050    1.4981
    7.080    1.7335
    7.110    1.4767
    7.140    1.4553
    7.170    1.4018
    7.200    1.4339
    7.230    1.2841
    7.260    1.4767
    7.290    1.6158
    7.320    1.6158
    7.350    1.3804
    7.380    1.4446
    7.410    1.4553
    7.440    1.4767
    7.470    1.4660
    7.500    1.5409
    7.530    1.4553
    7.560    1.3697
    7.590    1.3697
    7.620    1.3697
    7.650    1.4981
    7.680    1.3590
    7.710    1.4232
    7.740    1.4232
    7.770    1.7228
    7.800    1.3804
    7.830    1.6586
    7.860    1.5623
    7.890    1.9904
    7.920    1.7014
    7.950    1.8941
    7.980    2.1830
    8.010    2.1937
    8.040    2.6431
    8.070    2.8571
    8.100    3.1675
    8.130    2.9642
    8.160    3.2103
    8.190    2.8678
    8.220    2.4398
    8.250    2.2258
    8.280    2.2258
    8.310    1.7764
    8.340    1.4767
    8.370    1.7871
    8.400    1.5944
    8.430    1.4553
    8.460    1.5623
    8.490    1.4232
    8.520    1.4339
    8.550    1.1771
    8.580    1.2092
    8.610    1.3804
    8.640    1.3483
    8.670    1.2841
    8.700    1.2734
    8.730    1.3269
    8.760    1.2520
    8.790    1.4232
    8.820    1.4446
    8.850    1.3269
    8.880    1.3911
    8.910    1.2413
    8.940    1.4125
    8.970    1.3162
    9.000    1.4339
    9.030    1.3376
    9.060    1.4339
    9.090    1.4018
    9.120    1.4660
    9.150    1.3269
    9.180    1.5088
    9.210    1.3804
    9.240    1.4339
    9.270    1.5302
    9.300    1.5944
    9.330    1.2841
    9.360    1.5944
    9.390    1.4553
    9.420    1.4125
    9.450    1.8834
    9.480    1.3911
    9.510    1.5409
    9.540    1.5195
    9.570    1.4125
    9.600    1.4232
    9.630    1.3697
    9.660    1.3911
    9.690    1.4767
    9.720    1.1771
    9.750    1.2948
    9.780    1.2520
    9.810    1.3804
    9.840    1.1771
    9.870    1.3697
    9.900    1.4660
    9.930    1.1022
    9.960    1.0380
    9.990    1.0059
   10.020    1.2413
   10.050    1.1236
   10.080    1.1664
   10.110    1.0273
   10.140    1.1129
   10.170    1.0166
   10.200    1.0059
   10.230    1.1450
   10.260    1.0059
   10.290    1.0808
   10.320    0.9310
   10.350    1.0273
   10.380    1.0915
   10.410    0.9310
   10.440    0.9524
   10.470    0.9096
   10.500    1.0273
   10.530    1.0594
   10.560    0.9631
   10.590    0.8454
   10.620    0.8561
   10.650    0.8561
   10.680    0.8454
   10.710    0.9203
   10.740    1.0059
   10.770    0.7812
   10.800    0.9952
   10.830    1.0273
   10.860    0.8240
   10.890    0.8561
   10.920    0.7705
   10.950    0.8347
   10.980    0.7170
   11.010    0.9524
   11.040    0.7170
   11.070    0.8240
   11.100    0.8668
   11.130    1.0059
   11.160    0.7812
   11.190    0.8561
   11.220    0.9203
   11.250    0.9096
   11.280    0.7277
   11.310    0.8668
   11.340    0.7705
   11.370    0.7063
   11.400    0.8668
   11.430    0.8561
   11.460    0.7277
   11.490    0.7919
   11.520    0.8240
   11.550    0.8668
   11.580    0.8133
   11.610    0.7491
   11.640    0.9096
   11.670    0.7705
   11.700    0.8026
   11.730    0.7170
   11.760    0.8347
   11.790    0.7491
   11.820    0.9417
   11.850    0.8882
   11.880    0.8347
   11.910    0.6849
   11.940    0.8989
   11.970    0.9310
   12.000    0.8133
   12.030    0.9096
   12.060    0.7598
   12.090    0.8668
   12.120    1.0166
   12.150    1.0166
   12.180    1.1450
   12.210    0.8989
   12.240    0.9845
   12.270    0.9096
   12.300    1.1664
   12.330    1.1129
   12.360    0.9417
   12.390    0.9096
   12.420    0.9631
   12.450    1.1022
   12.480    0.8775
   12.510    0.8026
   12.540    0.8561
   12.570    0.8454
   12.600    0.9096
   12.630    1.0059
   12.660    0.9096
   12.690    0.9096
   12.720    1.0059
   12.750    0.8882
   12.780    0.7384
   12.810    0.9631
   12.840    1.0594
   12.870    0.9203
   12.900    0.7277
   12.930    0.8882
   12.960    0.8668
   12.990    0.8561
   13.020    0.7491
   13.050    0.8668
   13.080    0.9631
   13.110    0.9417
   13.140    0.9845
   13.170    0.8026
   13.200    0.8989
   13.230    1.0701
   13.260    0.9096
   13.290    0.9631
   13.320    1.0273
   13.350    0.8668
   13.380    0.8347
   13.410    0.9096
   13.440    0.7384
   13.470    0.8454
   13.500    0.8775
   13.530    0.9952
   13.560    0.7705
   13.590    0.9203
   13.620    0.9738
   13.650    0.8454
   13.680    1.0594
   13.710    0.9417
   13.740    0.6742
   13.770    0.9952
   13.800    0.8561
   13.830    0.9738
   13.860    0.9845
   13.890    0.9096
   13.920    0.7384
   13.950    0.8775
   13.980    0.9417
   14.010    0.8454
   14.040    0.8347
   14.070    0.9417
   14.100    0.8561
   14.130    0.9524
   14.160    0.8668
   14.190    0.9738
   14.220    0.8454
   14.250    1.0166
   14.280    0.8775
   14.310    0.8775
   14.340    0.9310
   14.370    0.9096
   14.400    0.8347
   14.430    1.0059
   14.460    0.9524
   14.490    0.9631
   14.520    0.7919
   14.550    0.9203
   14.580    0.8668
   14.610    0.8347
   14.640    0.9524
   14.670    0.8882
   14.700    0.8133
   14.730    0.9203
   14.760    0.8454
   14.790    0.9096
   14.820    0.8454
   14.850    0.8561
   14.880    0.9845
   14.910    0.7812
   14.940    0.8454
   14.970    0.9952
   15.000    0.9096
   15.030    0.8454
   15.060    0.9952
   15.090    0.8668
   15.120    0.8668
   15.150    0.8347
   15.180    1.0059
   15.210    0.9096
   15.240    0.8133
   15.270    0.8133
   15.300    0.9631
   15.330    1.1450
   15.360    0.8026
   15.390    0.8561
   15.420    1.0166
   15.450    0.7598
   15.480    0.8989
   15.510    0.8668
   15.540    0.8026
   15.570    0.9738
   15.600    0.7919
   15.630    1.0059
   15.660    0.8240
   15.690    0.8775
   15.720    0.8133
   15.750    0.8454
   15.780    0.8561
   15.810    0.8775
   15.840    0.8240
   15.870    0.9631
   15.900    0.8347
   15.930    0.8989
   15.960    0.9631
   15.990    0.7705
   16.020    0.7919
   16.050    0.8454
   16.080    0.8989
   16.110    1.0059
   16.140    1.0380
   16.170    0.9203
   16.200    0.9096
   16.230    0.9096
   16.260    0.9524
   16.290    1.0059
   16.320    0.9417
   16.350    0.9738
   16.380    0.8775
   16.410    0.8026
   16.440    0.7705
   16.470    0.8882
   16.500    1.0059
   16.530    0.8775
   16.560    0.9631
   16.590    1.0059
   16.620    1.0594
   16.650    0.9310
   16.680    0.8775
   16.710    0.9845
   16.740    0.9417
   16.770    0.9524
   16.800    0.9310
   16.830    1.1557
   16.860    0.9952
   16.890    0.8989
   16.920    1.0487
   16.950    0.9738
   16.980    0.8454
   17.010    0.8882
   17.040    0.6956
   17.070    0.7812
   17.100    0.8775
   17.130    1.0380
   17.160    0.7812
   17.190    0.9524
   17.220    0.9310
   17.250    0.9631
   17.280    0.9417
   17.310    0.7919
   17.340    0.7812
   17.370    0.9310
   17.400    0.8668
   17.430    0.8775
   17.460    0.7384
   17.490    0.8561
   17.520    0.8347
   17.550    0.7812
   17.580    0.8561
   17.610    0.6528
   17.640    0.7170
   17.670    0.9203
   17.700    0.9310
   17.730    0.9417
   17.760    0.7170
   17.790    0.8561
   17.820    0.9524
   17.850    0.8561
   17.880    0.7170
   17.910    0.8561
   17.940    0.8775
   17.970    0.8989
   18.000    0.7598
   18.030    0.8989
   18.060    0.9310
   18.090    0.8026
   18.120    0.8668
   18.150    0.8347
   18.180    0.8133
   18.210    0.8668
   18.240    0.8133
   18.270    0.7170
   18.300    0.7812
   18.330    0.8454
   18.360    0.7812
   18.390    0.7384
   18.420    0.7384
   18.450    1.0166
   18.480    0.8133
   18.510    0.8668
   18.540    0.8561
   18.570    0.7919
   18.600    0.8668
   18.630    0.8133
   18.660    0.8454
   18.690    0.7812
   18.720    0.7919
   18.750    0.6742
   18.780    0.8133
   18.810    0.8133
   18.840    0.7491
   18.870    0.7384
   18.900    0.7705
   18.930    0.8240
   18.960    0.7491
   18.990    0.8347
   19.020    0.8347
   19.050    0.7812
   19.080    0.9524
   19.110    0.7812
   19.140    0.7812
   19.170    0.8668
   19.200    0.7491
   19.230    0.6314
   19.260    0.8347
   19.290    0.7812
   19.320    0.7277
   19.350    0.7812
   19.380    0.8882
   19.410    0.7384
   19.440    0.8240
   19.470    0.7491
   19.500    0.8240
   19.530    0.8133
   19.560    0.6849
   19.590    0.7384
   19.620    0.8240
   19.650    0.7812
   19.680    0.7491
   19.710    0.7598
   19.740    0.7491
   19.770    0.8989
   19.800    0.8989
   19.830    0.7384
   19.860    0.7063
   19.890    0.8668
   19.920    0.8240
   19.950    0.7919
   19.980    0.7919
   20.010    0.7598
   20.040    0.6207
   20.070    0.8561
   20.100    0.8026
   20.130    0.7919
   20.160    0.7384
   20.190    0.7919
   20.220    0.8026
   20.250    0.7598
   20.280    0.8240
   20.310    0.7277
   20.340    0.6635
   20.370    0.8240
   20.400    0.8454
   20.430    0.5778
   20.460    0.7705
   20.490    0.7277
   20.520    0.8561
   20.550    0.7170
   20.580    0.8026
   20.610    0.7170
   20.640    0.7812
   20.670    0.7170
   20.700    0.7598
   20.730    0.7384
   20.760    0.8133
   20.790    0.7598
   20.820    0.7598
   20.850    0.7812
   20.880    0.8240
   20.910    0.7705
   20.940    0.8347
   20.970    0.8240
   21.000    0.7491
   21.030    0.8240
   21.060    0.8454
   21.090    0.7705
   21.120    0.8561
   21.150    0.6956
   21.180    0.7705
   21.210    0.7491
   21.240    0.7170
   21.270    0.8775
   21.300    0.7063
   21.330    0.8347
   21.360    0.6849
   21.390    0.7705
   21.420    0.6956
   21.450    0.7919
   21.480    0.7812
   21.510    0.8133
   21.540    0.6956
   21.570    0.7491
   21.600    0.8347
   21.630    0.7491
   21.660    0.8347
   21.690    0.8240
   21.720    0.7491
   21.750    0.6207
   21.780    0.9096
   21.810    0.7063
   21.840    0.8347
   21.870    0.7598
   21.900    0.7705
   21.930    0.6956
   21.960    0.8454
   21.990    0.7919
   22.020    0.6635
   22.050    0.8026
   22.080    0.7919
   22.110    0.8775
   22.140    0.7919
   22.170    0.7919
   22.200    0.8240
   22.230    0.9203
   22.260    0.8026
   22.290    0.6956
   22.320    0.8668
   22.350    0.8133
   22.380    0.8026
   22.410    0.8668
   22.440    0.7598
   22.470    0.7384
   22.500    0.7705
   22.530    0.6849
   22.560    0.8561
   22.590    0.8668
   22.620    0.7491
   22.650    0.8454
   22.680    0.8133
   22.710    0.9203
   22.740    0.8668
   22.770    0.8989
   22.800    0.7812
   22.830    0.8561
   22.860    0.7705
   22.890    0.7919
   22.920    0.7170
   22.950    0.6849
   22.980    0.7063
   23.010    0.9310
   23.040    0.8882
   23.070    0.6314
   23.100    0.8240
   23.130    0.8347
   23.160    0.7170
   23.190    0.8347
   23.220    0.7277
   23.250    0.8133
   23.280    0.8668
   23.310    0.8561
   23.340    0.8347
   23.370    0.7277
   23.400    0.7705
   23.430    0.7812
   23.460    0.6528
   23.490    0.8026
   23.520    0.7598
   23.550    0.8240
   23.580    0.7277
   23.610    0.7812
   23.640    0.7277
   23.670    0.8668
   23.700    0.7598
   23.730    0.8668
   23.760    0.8347
   23.790    0.9203
   23.820    0.8668
   23.850    0.7812
   23.880    0.7063
   23.910    0.8454
   23.940    0.6528
   23.970    0.8240
   24.000    0.7598
   24.030    0.7705
   24.060    0.8026
   24.090    0.8989
   24.120    0.9096
   24.150    0.7919
   24.180    0.8133
   24.210    0.6528
   24.240    0.7384
   24.270    0.8240
   24.300    0.7063
   24.330    0.8454
   24.360    0.8775
   24.390    0.7812
   24.420    0.8668
   24.450    0.7277
   24.480    0.8668
   24.510    0.8989
   24.540    0.7384
   24.570    0.7919
   24.600    0.7384
   24.630    0.7063
   24.660    0.6956
   24.690    0.7705
   24.720    0.9310
   24.750    0.8347
   24.780    0.7919
   24.810    0.8668
   24.840    0.7598
   24.870    0.8989
   24.900    0.8240
   24.930    0.8775
   24.960    0.7384
   24.990    0.7598
   25.020    0.8240
   25.050    0.7598
   25.080    0.7491
   25.110    0.6849
   25.140    0.7170
   25.170    0.6849
   25.200    0.8561
   25.230    0.7170
   25.260    0.8882
   25.290    0.6635
   25.320    0.8026
   25.350    0.8347
   25.380    0.7491
   25.410    0.7063
   25.440    0.8133
   25.470    0.8026
   25.500    0.6635
   25.530    0.6956
   25.560    0.7598
   25.590    0.7598
   25.620    0.7491
   25.650    0.8775
   25.680    0.7491
   25.710    0.9096
   25.740    0.7812
   25.770    0.7919
   25.800    0.8240
   25.830    0.6207
   25.860    0.7705
   25.890    0.7705
   25.920    0.6956
   25.950    0.6635
   25.980    0.7705
   26.010    0.7277
   26.040    0.6849
   26.070    0.8133
   26.100    0.6528
   26.130    0.6100
   26.160    0.7063
   26.190    0.9096
   26.220    0.6421
   26.250    0.7277
   26.280    0.7705
   26.310    0.8133
   26.340    0.6849
   26.370    0.6528
   26.400    0.7384
   26.430    0.6956
   26.460    0.6742
   26.490    0.7812
   26.520    0.7919
   26.550    0.6849
   26.580    0.6100
   26.610    0.7491
   26.640    0.6421
   26.670    0.5886
   26.700    0.8133
   26.730    0.5778
   26.760    0.7063
   26.790    0.6849
   26.820    0.7919
   26.850    0.6742
   26.880    0.7598
   26.910    0.6421
   26.940    0.6742
   26.970    0.5886
   27.000    0.6314
   27.030    0.6421
   27.060    0.7063
   27.090    0.5029
   27.120    0.6100
   27.150    0.7063
   27.180    0.6528
   27.210    0.5136
   27.240    0.7491
   27.270    0.5671
   27.300    0.8133
   27.330    0.7812
   27.360    0.5886
   27.390    0.7170
   27.420    0.7063
   27.450    0.5993
   27.480    0.7063
   27.510    0.8026
   27.540    0.6849
   27.570    0.7170
   27.600    0.7063
   27.630    0.7170
   27.660    0.6635
   27.690    0.5350
   27.720    0.7705
   27.750    0.8240
   27.780    0.5671
   27.810    0.7063
   27.840    0.6849
   27.870    0.7277
   27.900    0.6635
   27.930    0.5350
   27.960    0.5457
   27.990    0.5457
   28.020    0.5886
   28.050    0.6635
   28.080    0.6421
   28.110    0.5350
   28.140    0.5993
   28.170    0.5564
   28.200    0.5671
   28.230    0.5778
   28.260    0.6421
   28.290    0.5778
   28.320    0.5993
   28.350    0.6314
   28.380    0.6207
   28.410    0.5671
   28.440    0.5243
   28.470    0.6635
   28.500    0.5671
   28.530    0.7491
   28.560    0.5350
   28.590    0.5029
   28.620    0.5778
   28.650    0.5564
   28.680    0.5243
   28.710    0.5993
   28.740    0.5778
   28.770    0.5564
   28.800    0.5350
   28.830    0.6742
   28.860    0.7170
   28.890    0.5457
   28.920    0.5136
   28.950    0.5993
   28.980    0.5564
   29.010    0.4494
   29.040    0.6207
   29.070    0.4815
   29.100    0.5778
   29.130    0.6528
   29.160    0.6314
   29.190    0.5564
   29.220    0.5993
   29.250    0.5243
   29.280    0.7384
   29.310    0.5564
   29.340    0.6314
   29.370    0.5993
   29.400    0.5886
   29.430    0.5993
   29.460    0.5671
   29.490    0.6849
   29.520    0.5136
   29.550    0.6849
   29.580    0.6635
   29.610    0.5029
   29.640    0.6528
   29.670    0.5457
   29.700    0.4922
   29.730    0.5350
   29.760    0.5778
   29.790    0.5243
   29.820    0.5029
   29.850    0.5778
   29.880    0.5564
   29.910    0.5886
   29.940    0.5457
   29.970    0.6528
   30.000    0.5457
   30.030    0.5564
   30.060    0.5564
   30.090    0.5993
   30.120    0.5671
   30.150    0.4494
   30.180    0.5993
   30.210    0.3852
   30.240    0.5350
   30.270    0.5457
   30.300    0.4387
   30.330    0.6207
   30.360    0.6314
   30.390    0.5350
   30.420    0.4494
   30.450    0.5029
   30.480    0.5886
   30.510    0.5243
   30.540    0.4815
   30.570    0.5029
   30.600    0.4173
   30.630    0.5564
   30.660    0.4601
   30.690    0.4708
   30.720    0.4494
   30.750    0.4922
   30.780    0.5457
   30.810    0.5243
   30.840    0.4173
   30.870    0.5564
   30.900    0.5243
   30.930    0.4815
   30.960    0.4708
   30.990    0.5243
   31.020    0.5029
   31.050    0.5778
   31.080    0.4815
   31.110    0.4601
   31.140    0.4708
   31.170    0.4708
   31.200    0.4601
   31.230    0.4387
   31.260    0.4601
   31.290    0.4601
   31.320    0.4387
   31.350    0.4815
   31.380    0.6100
   31.410    0.4815
   31.440    0.5243
   31.470    0.4922
   31.500    0.4387
   31.530    0.4601
   31.560    0.4708
   31.590    0.3959
   31.620    0.5350
   31.650    0.4387
   31.680    0.4494
   31.710    0.4922
   31.740    0.4922
   31.770    0.5671
   31.800    0.5886
   31.830    0.4173
   31.860    0.5671
   31.890    0.5029
   31.920    0.5029
   31.950    0.5243
   31.980    0.4708
   32.010    0.4922
   32.040    0.4066
   32.070    0.3103
   32.100    0.5029
   32.130    0.5350
   32.160    0.3745
   32.190    0.4387
   32.220    0.4280
   32.250    0.4601
   32.280    0.5136
   32.310    0.4815
   32.340    0.4173
   32.370    0.5136
   32.400    0.3959
   32.430    0.3638
   32.460    0.4387
   32.490    0.4601
   32.520    0.3317
   32.550    0.3852
   32.580    0.5350
   32.610    0.4815
   32.640    0.5136
   32.670    0.5778
   32.700    0.4173
   32.730    0.4066
   32.760    0.3852
   32.790    0.4066
   32.820    0.4601
   32.850    0.4815
   32.880    0.4173
   32.910    0.5029
   32.940    0.4815
   32.970    0.4708
   33.000    0.5243
   33.030    0.5136
   33.060    0.4387
   33.090    0.4708
   33.120    0.4601
   33.150    0.5564
   33.180    0.4815
   33.210    0.4387
   33.240    0.4066
   33.270    0.4066
   33.300    0.3638
   33.330    0.5029
   33.360    0.4708
   33.390    0.4280
   33.420    0.4922
   33.450    0.4173
   33.480    0.5136
   33.510    0.4173
   33.540    0.5029
   33.570    0.3852
   33.600    0.4494
   33.630    0.5457
   33.660    0.4815
   33.690    0.4601
   33.720    0.4601
   33.750    0.4173
   33.780    0.6207
   33.810    0.5029
   33.840    0.5457
   33.870    0.5457
   33.900    0.4601
   33.930    0.5886
   33.960    0.4280
   33.990    0.4815
   34.020    0.5350
   34.050    0.4387
   34.080    0.4280
   34.110    0.3959
   34.140    0.4601
   34.170    0.3959
   34.200    0.3745
   34.230    0.4387
   34.260    0.3745
   34.290    0.4066
   34.320    0.4601
   34.350    0.4494
   34.380    0.4815
   34.410    0.5136
   34.440    0.3959
   34.470    0.4280
   34.500    0.4066
   34.530    0.4387
   34.560    0.4066
   34.590    0.3424
   34.620    0.3424
   34.650    0.3531
   34.680    0.2996
   34.710    0.3959
   34.740    0.3852
   34.770    0.3424
   34.800    0.4708
   34.830    0.3210
   34.860    0.3531
   34.890    0.3638
   34.920    0.3103
   34.950    0.2354
   34.980    0.4173
   35.010    0.4387
   35.040    0.4280
   35.070    0.4815
   35.100    0.3317
   35.130    0.3745
   35.160    0.4066
   35.190    0.3210
   35.220    0.4387
   35.250    0.3638
   35.280    0.3424
   35.310    0.4066
   35.340    0.3745
   35.370    0.2996
   35.400    0.2675
   35.430    0.2996
   35.460    0.3852
   35.490    0.2996
   35.520    0.3959
   35.550    0.3531
   35.580    0.3531
   35.610    0.3638
   35.640    0.3852
   35.670    0.2889
   35.700    0.3317
   35.730    0.3531
   35.760    0.4280
   35.790    0.4280
   35.820    0.4387
   35.850    0.2782
   35.880    0.3317
   35.910    0.3531
   35.940    0.3424
   35.970    0.3531
   36.000    0.3959
   36.030    0.2461
   36.060    0.3424
   36.090    0.3317
   36.120    0.3424
   36.150    0.3210
   36.180    0.4066
   36.210    0.2996
   36.240    0.2675
   36.270    0.3745
   36.300    0.3424
   36.330    0.3210
   36.360    0.3103
   36.390    0.3959
   36.420    0.4173
   36.450    0.3852
   36.480    0.2996
   36.510    0.3424
   36.540    0.3852
   36.570    0.3638
   36.600    0.4066
   36.630    0.2996
   36.660    0.3210
   36.690    0.2996
   36.720    0.3531
   36.750    0.4173
   36.780    0.4601
   36.810    0.3745
   36.840    0.3531
   36.870    0.3103
   36.900    0.2675
   36.930    0.3210
   36.960    0.3103
   36.990    0.4173
   37.020    0.3210
   37.050    0.2889
   37.080    0.2675
   37.110    0.2247
   37.140    0.3317
   37.170    0.3424
   37.200    0.2996
   37.230    0.3424
   37.260    0.3210
   37.290    0.2889
   37.320    0.3745
   37.350    0.2675
   37.380    0.2782
   37.410    0.3210
   37.440    0.3638
   37.470    0.5457
   37.500    0.5350
   37.530    0.4815
   37.560    0.3531
   37.590    0.3317
   37.620    0.2568
   37.650    0.2461
   37.680    0.3531
   37.710    0.3638
   37.740    0.2996
   37.770    0.3210
   37.800    0.3959
   37.830    0.2996
   37.860    0.3317
   37.890    0.3638
   37.920    0.2675
   37.950    0.2782
   37.980    0.2675
   38.010    0.2782
   38.040    0.2996
   38.070    0.3638
   38.100    0.4173
   38.130    0.2568
   38.160    0.3103
   38.190    0.2461
   38.220    0.3103
   38.250    0.3424
   38.280    0.2996
   38.310    0.3317
   38.340    0.2889
   38.370    0.3531
   38.400    0.2782
   38.430    0.3959
   38.460    0.2782
   38.490    0.3424
   38.520    0.3531
   38.550    0.2782
   38.580    0.2675
   38.610    0.3424
   38.640    0.2889
   38.670    0.3210
   38.700    0.2996
   38.730    0.2247
   38.760    0.2568
   38.790    0.2461
   38.820    0.2889
   38.850    0.3210
   38.880    0.2568
   38.910    0.2247
   38.940    0.2354
   38.970    0.2568
   39.000    0.2889
   39.030    0.2889
   39.060    0.2782
   39.090    0.3103
   39.120    0.3638
   39.150    0.3317
   39.180    0.2461
   39.210    0.2996
   39.240    0.2461
   39.270    0.3424
   39.300    0.2461
   39.330    0.2247
   39.360    0.4066
   39.390    0.2354
   39.420    0.2675
   39.450    0.3317
   39.480    0.2782
   39.510    0.2889
   39.540    0.3852
   39.570    0.2782
   39.600    0.2782
   39.630    0.2782
   39.660    0.2996
   39.690    0.3531
   39.720    0.3210
   39.750    0.3210
   39.780    0.2675
   39.810    0.2782
   39.840    0.1926
   39.870    0.2782
   39.900    0.1926
   39.930    0.2140
   39.960    0.3103
   39.990    0.2675