File: data/MOCOF-1/PXRD/PXRD_KE-214_Co-Ka1_film-3mm_5s-deg.xyd
    1.500    4.6121
    1.530    4.6335
    1.560    4.0021
    1.590    4.0984
    1.620    4.4088
    1.650    3.8737
    1.680    3.8202
    1.710    3.8523
    1.740    3.5955
    1.770    3.8309
    1.800    3.6490
    1.830    3.7774
    1.860    3.5741
    1.890    3.3708
    1.920    3.5848
    1.950    3.3280
    1.980    3.0819
    2.010    3.2531
    2.040    3.0177
    2.070    2.9856
    2.100    3.1782
    2.130    2.8250
    2.160    2.8999
    2.190    2.6859
    2.220    3.0391
    2.250    2.8464
    2.280    2.7929
    2.310    2.9642
    2.340    2.5682
    2.370    2.6538
    2.400    2.7715
    2.430    2.6859
    2.460    2.4291
    2.490    2.3756
    2.520    2.3435
    2.550    2.2793
    2.580    2.3542
    2.610    2.4505
    2.640    2.4398
    2.670    2.4077
    2.700    2.1723
    2.730    2.2472
    2.760    2.1616
    2.790    2.4398
    2.820    2.3863
    2.850    2.2472
    2.880    2.2686
    2.910    1.9690
    2.940    2.3007
    2.970    2.2686
    3.000    2.3756
    3.030    2.0760
    3.060    2.0225
    3.090    2.2900
    3.120    2.0011
    3.150    2.1616
    3.180    2.0332
    3.210    2.2793
    3.240    2.2151
    3.270    2.2044
    3.300    2.1081
    3.330    2.3328
    3.360    2.0974
    3.390    2.3221
    3.420    2.0867
    3.450    2.0760
    3.480    2.2151
    3.510    2.3863
    3.540    2.6003
    3.570    2.6859
    3.600    2.6324
    3.630    2.7501
    3.660    2.8250
    3.690    2.8892
    3.720    3.3387
    3.750    3.5741
    3.780    3.8630
    3.810    4.0877
    3.840    4.0021
    3.870    4.7298
    3.900    5.0508
    3.930    5.6929
    3.960    6.0888
    3.990    6.8058
    4.020    7.1589
    4.050    7.1589
    4.080    6.7202
    4.110    6.0460
    4.140    5.5752
    4.170    4.6228
    4.200    4.1520
    4.230    3.7988
    4.260    3.6811
    4.290    3.5099
    4.320    3.4564
    4.350    3.3601
    4.380    3.4564
    4.410    3.4885
    4.440    3.2210
    4.470    3.1996
    4.500    3.4778
    4.530    3.5634
    4.560    3.2103
    4.590    3.4564
    4.620    3.4243
    4.650    3.5634
    4.680    3.5634
    4.710    3.5527
    4.740    3.5741
    4.770    3.5848
    4.800    3.2638
    4.830    3.1568
    4.860    3.1568
    4.890    3.2638
    4.920    3.2103
    4.950    2.9320
    4.980    2.8892
    5.010    2.7929
    5.040    2.6538
    5.070    2.3756
    5.100    2.1616
    5.130    2.2151
    5.160    2.3649
    5.190    1.8941
    5.220    1.9583
    5.250    2.1188
    5.280    2.0760
    5.310    2.2365
    5.340    1.9369
    5.370    1.9476
    5.400    1.8941
    5.430    1.7228
    5.460    1.8620
    5.490    1.8620
    5.520    1.6051
    5.550    1.7335
    5.580    1.7871
    5.610    1.9155
    5.640    1.9476
    5.670    1.7442
    5.700    1.8085
    5.730    1.7442
    5.760    1.8192
    5.790    1.8727
    5.820    1.8192
    5.850    1.8299
    5.880    1.9476
    5.910    1.8299
    5.940    1.8299
    5.970    1.9904
    6.000    1.8620
    6.030    1.8727
    6.060    1.8620
    6.090    1.9583
    6.120    1.9155
    6.150    1.8192
    6.180    2.0546
    6.210    1.9690
    6.240    1.9690
    6.270    2.1081
    6.300    2.1723
    6.330    2.2151
    6.360    2.0546
    6.390    2.2793
    6.420    2.0332
    6.450    2.2472
    6.480    2.1616
    6.510    2.4291
    6.540    2.1723
    6.570    2.0118
    6.600    2.1509
    6.630    2.1616
    6.660    2.0332
    6.690    1.5944
    6.720    2.1188
    6.750    1.8620
    6.780    2.1723
    6.810    1.7121
    6.840    1.7549
    6.870    1.9476
    6.900    1.8192
    6.930    1.8941
    6.960    1.6265
    6.990    1.8620
    7.020    1.6586
    7.050    1.6051
    7.080    1.5730
    7.110    1.4553
    7.140    1.7121
    7.170    1.5944
    7.200    1.5516
    7.230    1.5195
    7.260    1.5302
    7.290    1.4767
    7.320    1.4339
    7.350    1.5088
    7.380    1.7764
    7.410    1.5730
    7.440    1.4125
    7.470    1.4874
    7.500    1.4446
    7.530    1.3590
    7.560    1.5409
    7.590    1.4767
    7.620    1.4553
    7.650    1.2841
    7.680    1.4232
    7.710    1.5409
    7.740    1.5302
    7.770    1.3911
    7.800    1.2627
    7.830    1.2092
    7.860    1.6800
    7.890    1.8406
    7.920    1.4339
    7.950    1.5088
    7.980    1.5730
    8.010    1.6907
    8.040    1.5837
    8.070    1.9048
    8.100    1.4767
    8.130    1.7121
    8.160    1.7871
    8.190    1.6479
    8.220    1.4981
    8.250    1.6265
    8.280    1.5516
    8.310    1.6693
    8.340    1.4339
    8.370    1.2841
    8.400    1.1343
    8.430    1.2413
    8.460    1.4660
    8.490    1.3376
    8.520    1.3269
    8.550    1.2520
    8.580    1.3911
    8.610    1.2627
    8.640    1.0808
    8.670    1.4874
    8.700    1.3483
    8.730    1.2734
    8.760    1.3376
    8.790    1.0059
    8.820    1.2199
    8.850    1.2627
    8.880    1.2306
    8.910    1.2199
    8.940    1.1771
    8.970    1.2734
    9.000    1.1664
    9.030    1.0059
    9.060    1.2306
    9.090    1.1022
    9.120    1.0915
    9.150    1.1129
    9.180    1.2306
    9.210    1.2413
    9.240    1.1985
    9.270    1.0380
    9.300    1.1557
    9.330    1.0915
    9.360    1.0701
    9.390    1.1129
    9.420    1.1985
    9.450    1.3697
    9.480    1.0808
    9.510    1.2306
    9.540    1.2948
    9.570    1.0808
    9.600    1.1129
    9.630    1.0701
    9.660    1.1236
    9.690    1.1450
    9.720    1.0594
    9.750    1.0701
    9.780    1.0059
    9.810    1.0808
    9.840    0.9738
    9.870    1.1771
    9.900    1.0273
    9.930    1.1343
    9.960    1.1450
    9.990    1.0487
   10.020    1.0166
   10.050    0.9845
   10.080    1.0701
   10.110    1.0487
   10.140    1.0059
   10.170    1.0166
   10.200    1.0701
   10.230    1.0594
   10.260    1.1343
   10.290    1.0487
   10.320    0.9203
   10.350    0.9631
   10.380    0.9738
   10.410    0.9417
   10.440    1.0166
   10.470    0.9203
   10.500    0.8882
   10.530    0.9310
   10.560    1.1771
   10.590    1.0166
   10.620    1.0059
   10.650    0.9631
   10.680    0.8026
   10.710    1.0059
   10.740    0.9845
   10.770    1.0059
   10.800    1.0273
   10.830    0.9417
   10.860    0.9096
   10.890    0.8561
   10.920    0.8775
   10.950    1.0166
   10.980    0.9417
   11.010    0.9524
   11.040    0.9310
   11.070    0.9845
   11.100    0.8133
   11.130    0.8882
   11.160    0.8454
   11.190    1.0059
   11.220    0.9310
   11.250    0.8668
   11.280    0.8775
   11.310    0.8133
   11.340    1.0166
   11.370    0.9738
   11.400    0.9310
   11.430    1.1664
   11.460    1.0701
   11.490    0.8240
   11.520    0.8133
   11.550    0.8882
   11.580    0.9417
   11.610    0.9631
   11.640    0.9845
   11.670    1.0701
   11.700    0.8668
   11.730    0.8882
   11.760    0.8133
   11.790    1.0594
   11.820    0.9631
   11.850    0.9631
   11.880    0.8240
   11.910    0.8668
   11.940    0.8454
   11.970    0.8133
   12.000    0.8882
   12.030    1.0166
   12.060    0.7919
   12.090    0.9310
   12.120    0.8240
   12.150    0.7705
   12.180    0.9845
   12.210    0.9417
   12.240    1.0808
   12.270    0.9952
   12.300    0.9310
   12.330    0.7277
   12.360    0.9631
   12.390    1.0808
   12.420    0.9417
   12.450    0.8989
   12.480    0.9310
   12.510    0.9524
   12.540    0.8882
   12.570    1.0059
   12.600    0.8989
   12.630    0.9845
   12.660    1.1022
   12.690    0.9096
   12.720    0.9738
   12.750    1.0594
   12.780    0.9203
   12.810    0.9524
   12.840    0.9310
   12.870    1.0487
   12.900    0.9524
   12.930    0.9845
   12.960    1.0701
   12.990    0.9417
   13.020    0.7812
   13.050    0.8454
   13.080    0.8775
   13.110    0.9524
   13.140    1.0059
   13.170    0.9845
   13.200    0.9417
   13.230    0.9203
   13.260    1.0487
   13.290    0.8026
   13.320    1.1343
   13.350    0.8561
   13.380    0.8561
   13.410    0.9738
   13.440    1.0273
   13.470    0.8347
   13.500    1.0701
   13.530    0.8668
   13.560    0.9631
   13.590    0.8668
   13.620    0.9310
   13.650    0.9310
   13.680    0.9096
   13.710    0.8561
   13.740    0.7598
   13.770    0.8668
   13.800    0.9952
   13.830    1.0380
   13.860    0.9203
   13.890    0.7812
   13.920    0.9738
   13.950    0.8989
   13.980    0.9096
   14.010    0.9845
   14.040    1.0059
   14.070    0.9417
   14.100    0.9845
   14.130    0.9203
   14.160    0.9738
   14.190    0.9203
   14.220    0.8561
   14.250    0.8026
   14.280    0.8454
   14.310    0.8240
   14.340    0.9738
   14.370    0.8668
   14.400    1.0273
   14.430    0.9096
   14.460    0.9631
   14.490    0.8989
   14.520    0.8347
   14.550    0.9096
   14.580    0.9203
   14.610    0.9096
   14.640    0.8561
   14.670    0.8454
   14.700    0.8882
   14.730    0.9203
   14.760    0.8882
   14.790    1.0594
   14.820    0.7812
   14.850    0.7277
   14.880    0.7705
   14.910    0.8989
   14.940    1.0273
   14.970    0.7598
   15.000    0.8775
   15.030    0.8454
   15.060    0.9952
   15.090    1.0166
   15.120    0.9631
   15.150    0.9417
   15.180    0.8775
   15.210    0.9310
   15.240    0.8882
   15.270    0.6956
   15.300    0.6421
   15.330    0.9845
   15.360    0.7705
   15.390    0.8026
   15.420    0.8989
   15.450    0.8561
   15.480    0.9096
   15.510    0.8561
   15.540    0.8026
   15.570    0.9096
   15.600    0.9096
   15.630    0.8454
   15.660    0.9203
   15.690    0.7812
   15.720    0.9631
   15.750    0.7598
   15.780    0.8347
   15.810    0.8775
   15.840    0.9417
   15.870    0.7705
   15.900    0.9203
   15.930    1.0166
   15.960    0.8240
   15.990    0.8561
   16.020    1.0273
   16.050    0.8561
   16.080    0.9203
   16.110    0.9310
   16.140    0.8775
   16.170    0.8026
   16.200    0.9096
   16.230    0.9096
   16.260    0.8882
   16.290    1.0273
   16.320    0.9524
   16.350    1.1664
   16.380    0.9738
   16.410    0.8133
   16.440    0.9738
   16.470    0.8026
   16.500    0.7277
   16.530    0.8775
   16.560    0.9096
   16.590    1.0273
   16.620    0.8561
   16.650    0.9203
   16.680    1.0273
   16.710    1.1236
   16.740    0.8561
   16.770    1.0808
   16.800    1.0059
   16.830    0.9845
   16.860    0.8989
   16.890    1.1129
   16.920    0.9310
   16.950    1.0487
   16.980    0.9417
   17.010    1.1343
   17.040    0.9096
   17.070    0.8133
   17.100    1.0166
   17.130    0.9203
   17.160    0.8347
   17.190    0.9952
   17.220    0.8775
   17.250    0.8561
   17.280    0.8026
   17.310    1.0166
   17.340    0.8026
   17.370    0.9096
   17.400    0.8026
   17.430    0.7705
   17.460    0.8775
   17.490    0.8454
   17.520    0.8775
   17.550    0.8240
   17.580    0.8240
   17.610    0.8561
   17.640    0.8989
   17.670    0.8561
   17.700    0.7705
   17.730    0.8989
   17.760    0.9310
   17.790    0.9738
   17.820    0.8026
   17.850    0.7919
   17.880    1.0059
   17.910    0.8026
   17.940    0.8989
   17.970    0.9845
   18.000    0.9310
   18.030    0.8454
   18.060    0.8668
   18.090    0.7598
   18.120    0.8668
   18.150    0.8561
   18.180    0.9631
   18.210    0.8882
   18.240    0.8026
   18.270    0.8026
   18.300    0.7919
   18.330    0.8561
   18.360    0.7919
   18.390    0.8775
   18.420    0.7384
   18.450    0.8882
   18.480    0.9845
   18.510    0.8133
   18.540    0.8882
   18.570    0.8454
   18.600    0.8668
   18.630    0.8668
   18.660    0.8775
   18.690    0.8668
   18.720    0.8347
   18.750    0.9524
   18.780    0.8240
   18.810    0.8775
   18.840    0.9310
   18.870    0.7705
   18.900    0.8668
   18.930    0.7598
   18.960    0.8240
   18.990    0.8882
   19.020    0.8454
   19.050    0.9096
   19.080    0.7812
   19.110    0.7384
   19.140    0.9524
   19.170    0.9096
   19.200    0.6849
   19.230    0.8882
   19.260    0.8347
   19.290    0.8882
   19.320    0.9631
   19.350    0.8347
   19.380    1.0380
   19.410    0.8240
   19.440    0.8775
   19.470    0.8989
   19.500    0.9631
   19.530    0.7919
   19.560    0.8026
   19.590    0.7705
   19.620    0.8989
   19.650    0.8989
   19.680    0.6849
   19.710    0.8133
   19.740    0.9738
   19.770    0.8133
   19.800    0.9096
   19.830    0.7063
   19.860    0.9203
   19.890    0.8775
   19.920    0.8775
   19.950    0.7491
   19.980    0.9096
   20.010    0.7919
   20.040    0.8882
   20.070    0.9096
   20.100    0.9738
   20.130    0.8775
   20.160    0.8989
   20.190    0.8989
   20.220    0.8133
   20.250    0.9310
   20.280    0.7919
   20.310    0.8775
   20.340    0.7598
   20.370    0.8454
   20.400    0.8133
   20.430    0.8240
   20.460    1.0166
   20.490    0.7705
   20.520    0.8454
   20.550    0.7277
   20.580    0.7598
   20.610    0.6849
   20.640    0.9203
   20.670    0.8561
   20.700    0.7705
   20.730    0.9310
   20.760    0.9524
   20.790    0.9417
   20.820    0.8882
   20.850    1.0059
   20.880    0.8347
   20.910    0.7919
   20.940    0.9203
   20.970    1.0380
   21.000    0.8668
   21.030    0.8882
   21.060    0.9524
   21.090    0.8347
   21.120    0.7598
   21.150    0.8133
   21.180    0.8240
   21.210    0.7705
   21.240    0.6742
   21.270    0.7598
   21.300    0.7598
   21.330    0.7063
   21.360    0.8240
   21.390    0.7919
   21.420    0.7491
   21.450    0.8668
   21.480    0.7919
   21.510    0.8561
   21.540    0.7919
   21.570    0.7919
   21.600    0.9203
   21.630    0.8347
   21.660    0.8454
   21.690    0.9310
   21.720    0.7705
   21.750    0.8026
   21.780    0.8775
   21.810    0.6956
   21.840    0.8133
   21.870    0.8133
   21.900    0.8026
   21.930    0.7598
   21.960    0.8561
   21.990    0.8026
   22.020    0.9096
   22.050    0.7705
   22.080    0.8882
   22.110    0.8240
   22.140    0.8561
   22.170    0.8347
   22.200    0.8668
   22.230    0.7277
   22.260    0.7384
   22.290    0.7705
   22.320    0.7598
   22.350    0.8668
   22.380    0.8775
   22.410    0.7705
   22.440    0.6742
   22.470    0.9310
   22.500    0.7812
   22.530    0.9096
   22.560    0.8989
   22.590    0.7277
   22.620    0.7598
   22.650    0.7705
   22.680    0.8668
   22.710    0.8989
   22.740    0.8133
   22.770    0.7491
   22.800    0.8775
   22.830    0.8347
   22.860    0.6421
   22.890    0.7277
   22.920    0.8561
   22.950    0.8561
   22.980    0.8561
   23.010    0.7384
   23.040    0.6956
   23.070    0.8775
   23.100    0.7063
   23.130    0.8240
   23.160    0.6956
   23.190    0.9203
   23.220    0.7384
   23.250    0.8561
   23.280    0.6528
   23.310    0.7919
   23.340    0.8026
   23.370    0.7598
   23.400    0.6528
   23.430    0.8668
   23.460    0.6421
   23.490    0.6528
   23.520    0.8454
   23.550    0.8026
   23.580    0.7384
   23.610    0.8668
   23.640    0.8026
   23.670    0.8026
   23.700    0.6742
   23.730    0.7063
   23.760    0.8133
   23.790    0.6849
   23.820    0.7170
   23.850    0.7063
   23.880    0.8133
   23.910    0.6849
   23.940    0.8026
   23.970    0.8133
   24.000    0.7063
   24.030    0.8347
   24.060    0.8882
   24.090    0.8133
   24.120    0.6849
   24.150    0.8133
   24.180    0.7598
   24.210    0.6742
   24.240    0.7491
   24.270    0.8454
   24.300    0.8775
   24.330    0.7491
   24.360    0.7491
   24.390    0.7277
   24.420    0.8133
   24.450    0.7598
   24.480    0.7598
   24.510    0.7384
   24.540    0.7277
   24.570    0.7063
   24.600    0.6635
   24.630    0.6956
   24.660    0.8133
   24.690    0.7705
   24.720    0.7384
   24.750    0.8240
   24.780    0.7598
   24.810    0.8133
   24.840    0.6849
   24.870    0.8347
   24.900    0.7812
   24.930    0.8561
   24.960    0.8133
   24.990    0.6528
   25.020    0.7598
   25.050    0.8347
   25.080    0.7812
   25.110    0.7277
   25.140    0.7598
   25.170    0.6528
   25.200    0.8240
   25.230    0.7063
   25.260    0.6742
   25.290    0.8026
   25.320    0.7598
   25.350    0.7063
   25.380    0.6421
   25.410    0.6849
   25.440    0.6314
   25.470    0.8989
   25.500    0.6956
   25.530    0.7277
   25.560    0.7063
   25.590    0.6528
   25.620    0.7598
   25.650    0.8133
   25.680    0.6742
   25.710    0.6956
   25.740    0.6849
   25.770    0.6956
   25.800    0.7491
   25.830    0.6635
   25.860    0.6849
   25.890    0.7919
   25.920    0.6742
   25.950    0.7705
   25.980    0.6421
   26.010    0.6314
   26.040    0.7491
   26.070    0.7384
   26.100    0.6100
   26.130    0.7384
   26.160    0.6849
   26.190    0.6100
   26.220    0.6421
   26.250    0.7384
   26.280    0.6528
   26.310    0.6207
   26.340    0.5564
   26.370    0.7063
   26.400    0.6100
   26.430    0.5671
   26.460    0.6421
   26.490    0.6314
   26.520    0.7063
   26.550    0.7384
   26.580    0.5029
   26.610    0.6314
   26.640    0.6742
   26.670    0.7705
   26.700    0.7919
   26.730    0.6528
   26.760    0.7491
   26.790    0.6100
   26.820    0.5778
   26.850    0.6956
   26.880    0.6100
   26.910    0.7812
   26.940    0.6742
   26.970    0.6421
   27.000    0.6207
   27.030    0.5886
   27.060    0.6528
   27.090    0.5886
   27.120    0.6207
   27.150    0.5671
   27.180    0.6956
   27.210    0.7277
   27.240    0.5457
   27.270    0.5029
   27.300    0.6207
   27.330    0.5457
   27.360    0.5350
   27.390    0.6421
   27.420    0.5886
   27.450    0.6100
   27.480    0.7598
   27.510    0.6635
   27.540    0.6849
   27.570    0.7063
   27.600    0.5136
   27.630    0.7384
   27.660    0.6100
   27.690    0.6956
   27.720    0.5564
   27.750    0.5564
   27.780    0.7063
   27.810    0.5778
   27.840    0.6528
   27.870    0.6314
   27.900    0.5778
   27.930    0.6314
   27.960    0.7063
   27.990    0.5993
   28.020    0.6421
   28.050    0.5029
   28.080    0.5029
   28.110    0.6314
   28.140    0.6100
   28.170    0.4708
   28.200    0.5886
   28.230    0.7170
   28.260    0.5886
   28.290    0.5993
   28.320    0.5886
   28.350    0.5136
   28.380    0.4708
   28.410    0.6207
   28.440    0.6635
   28.470    0.7063
   28.500    0.6207
   28.530    0.6635
   28.560    0.6635
   28.590    0.5350
   28.620    0.6314
   28.650    0.5457
   28.680    0.6635
   28.710    0.5564
   28.740    0.5886
   28.770    0.5457
   28.800    0.6956
   28.830    0.5778
   28.860    0.6956
   28.890    0.6421
   28.920    0.5350
   28.950    0.5029
   28.980    0.5671
   29.010    0.6421
   29.040    0.6314
   29.070    0.5350
   29.100    0.5993
   29.130    0.5564
   29.160    0.5886
   29.190    0.5671
   29.220    0.6207
   29.250    0.5993
   29.280    0.6528
   29.310    0.4708
   29.340    0.5886
   29.370    0.6100
   29.400    0.6635
   29.430    0.5778
   29.460    0.6207
   29.490    0.6207
   29.520    0.6635
   29.550    0.5350
   29.580    0.5136
   29.610    0.6314
   29.640    0.5457
   29.670    0.6742
   29.700    0.6207
   29.730    0.4815
   29.760    0.5778
   29.790    0.6635
   29.820    0.5457
   29.850    0.4922
   29.880    0.5350
   29.910    0.5886
   29.940    0.4922
   29.970    0.5350
   30.000    0.5671
   30.030    0.5778
   30.060    0.6742
   30.090    0.6421
   30.120    0.5886
   30.150    0.4280
   30.180    0.5886
   30.210    0.5886
   30.240    0.5457
   30.270    0.5350
   30.300    0.4922
   30.330    0.6100
   30.360    0.5564
   30.390    0.4708
   30.420    0.5029
   30.450    0.5029
   30.480    0.3852
   30.510    0.5886
   30.540    0.4280
   30.570    0.5778
   30.600    0.4066
   30.630    0.4494
   30.660    0.5564
   30.690    0.4922
   30.720    0.5350
   30.750    0.4922
   30.780    0.5993
   30.810    0.4601
   30.840    0.5564
   30.870    0.5029
   30.900    0.4922
   30.930    0.5029
   30.960    0.4708
   30.990    0.4494
   31.020    0.5350
   31.050    0.5136
   31.080    0.5886
   31.110    0.6314
   31.140    0.4922
   31.170    0.5136
   31.200    0.5136
   31.230    0.6742
   31.260    0.4708
   31.290    0.4708
   31.320    0.5350
   31.350    0.6421
   31.380    0.4601
   31.410    0.5136
   31.440    0.5778
   31.470    0.5243
   31.500    0.5671
   31.530    0.3852
   31.560    0.4173
   31.590    0.6207
   31.620    0.5243
   31.650    0.4815
   31.680    0.3959
   31.710    0.5243
   31.740    0.4815
   31.770    0.3852
   31.800    0.5457
   31.830    0.5350
   31.860    0.4815
   31.890    0.5457
   31.920    0.4173
   31.950    0.4922
   31.980    0.4708
   32.010    0.4815
   32.040    0.4494
   32.070    0.4601
   32.100    0.4066
   32.130    0.4815
   32.160    0.4601
   32.190    0.4708
   32.220    0.4601
   32.250    0.4815
   32.280    0.5671
   32.310    0.4708
   32.340    0.5564
   32.370    0.4494
   32.400    0.4922
   32.430    0.3959
   32.460    0.6100
   32.490    0.4815
   32.520    0.4815
   32.550    0.4922
   32.580    0.4280
   32.610    0.5029
   32.640    0.5136
   32.670    0.5671
   32.700    0.4280
   32.730    0.5136
   32.760    0.5564
   32.790    0.5564
   32.820    0.5671
   32.850    0.4066
   32.880    0.5993
   32.910    0.4066
   32.940    0.5029
   32.970    0.4173
   33.000    0.4922
   33.030    0.3852
   33.060    0.3317
   33.090    0.3531
   33.120    0.4922
   33.150    0.5136
   33.180    0.4280
   33.210    0.4601
   33.240    0.5671
   33.270    0.4494
   33.300    0.4280
   33.330    0.4387
   33.360    0.5136
   33.390    0.5136
   33.420    0.5350
   33.450    0.5243
   33.480    0.4601
   33.510    0.5243
   33.540    0.4387
   33.570    0.4173
   33.600    0.5350
   33.630    0.3317
   33.660    0.4601
   33.690    0.3852
   33.720    0.3638
   33.750    0.5029
   33.780    0.5886
   33.810    0.3638
   33.840    0.5350
   33.870    0.5350
   33.900    0.3638
   33.930    0.4815
   33.960    0.4815
   33.990    0.4708
   34.020    0.4494
   34.050    0.3959
   34.080    0.4815
   34.110    0.5778
   34.140    0.4173
   34.170    0.3638
   34.200    0.4066
   34.230    0.5136
   34.260    0.3745
   34.290    0.3638
   34.320    0.3852
   34.350    0.4280
   34.380    0.3210
   34.410    0.3424
   34.440    0.2782
   34.470    0.3317
   34.500    0.3959
   34.530    0.4173
   34.560    0.3531
   34.590    0.3959
   34.620    0.4280
   34.650    0.2889
   34.680    0.4173
   34.710    0.2782
   34.740    0.4280
   34.770    0.3959
   34.800    0.3531
   34.830    0.4173
   34.860    0.4280
   34.890    0.4387
   34.920    0.3959
   34.950    0.5886
   34.980    0.3959
   35.010    0.3638
   35.040    0.3424
   35.070    0.4494
   35.100    0.2996
   35.130    0.5671
   35.160    0.3317
   35.190    0.3531
   35.220    0.2675
   35.250    0.3531
   35.280    0.3317
   35.310    0.3852
   35.340    0.3317
   35.370    0.2996
   35.400    0.2782
   35.430    0.4173
   35.460    0.2889
   35.490    0.4280
   35.520    0.2675
   35.550    0.2675
   35.580    0.3103
   35.610    0.3210
   35.640    0.3317
   35.670    0.3638
   35.700    0.3424
   35.730    0.4066
   35.760    0.3424
   35.790    0.3317
   35.820    0.2782
   35.850    0.4708
   35.880    0.2675
   35.910    0.3852
   35.940    0.4173
   35.970    0.3531
   36.000    0.3424
   36.030    0.4922
   36.060    0.4494
   36.090    0.3531
   36.120    0.3852
   36.150    0.3638
   36.180    0.4066
   36.210    0.2889
   36.240    0.3531
   36.270    0.2889
   36.300    0.3852
   36.330    0.2996
   36.360    0.3103
   36.390    0.2996
   36.420    0.3210
   36.450    0.2996
   36.480    0.3103
   36.510    0.3210
   36.540    0.3638
   36.570    0.2996
   36.600    0.3638
   36.630    0.2996
   36.660    0.3531
   36.690    0.2996
   36.720    0.3531
   36.750    0.3638
   36.780    0.3103
   36.810    0.3317
   36.840    0.3745
   36.870    0.3852
   36.900    0.3852
   36.930    0.3317
   36.960    0.3959
   36.990    0.2996
   37.020    0.3210
   37.050    0.3852
   37.080    0.3317
   37.110    0.3317
   37.140    0.2996
   37.170    0.2461
   37.200    0.4066
   37.230    0.3959
   37.260    0.2996
   37.290    0.2996
   37.320    0.3531
   37.350    0.3638
   37.380    0.2461
   37.410    0.4815
   37.440    0.2889
   37.470    0.2782
   37.500    0.2033
   37.530    0.2675
   37.560    0.4066
   37.590    0.3745
   37.620    0.3852
   37.650    0.2354
   37.680    0.3210
   37.710    0.3638
   37.740    0.2568
   37.770    0.3531
   37.800    0.3210
   37.830    0.3531
   37.860    0.3317
   37.890    0.2675
   37.920    0.3317
   37.950    0.2675
   37.980    0.2568
   38.010    0.3103
   38.040    0.2996
   38.070    0.3103
   38.100    0.2889
   38.130    0.2568
   38.160    0.3210
   38.190    0.2568
   38.220    0.3852
   38.250    0.3317
   38.280    0.2568
   38.310    0.2782
   38.340    0.3424
   38.370    0.2354
   38.400    0.2782
   38.430    0.2033
   38.460    0.2354
   38.490    0.2675
   38.520    0.3745
   38.550    0.3103
   38.580    0.2247
   38.610    0.2568
   38.640    0.3103
   38.670    0.3317
   38.700    0.2568
   38.730    0.2354
   38.760    0.3210
   38.790    0.3317
   38.820    0.2461
   38.850    0.3317
   38.880    0.3424
   38.910    0.2889
   38.940    0.3424
   38.970    0.2782
   39.000    0.3103
   39.030    0.3210
   39.060    0.2996
   39.090    0.2461
   39.120    0.2461
   39.150    0.2889
   39.180    0.3317
   39.210    0.2140
   39.240    0.2675
   39.270    0.2889
   39.300    0.2354
   39.330    0.2140
   39.360    0.3103
   39.390    0.3745
   39.420    0.2996
   39.450    0.2889
   39.480    0.2461
   39.510    0.2782
   39.540    0.2247
   39.570    0.2247
   39.600    0.3210
   39.630    0.3317
   39.660    0.2675
   39.690    0.2247
   39.720    0.2996
   39.750    0.2354
   39.780    0.2354
   39.810    0.2568
   39.840    0.2782
   39.870    0.3317
   39.900    0.2461
   39.930    0.2996
   39.960    0.2140
   39.990    0.2782