File: data/MOCOF-1/PXRD/PXRD_KE-321C_Cu-Ka1_capillary-1mm_3s-deg.xyd
    1.500   28.4887
    1.545   26.5929
    1.590   26.6280
    1.635   24.3461
    1.680   22.9068
    1.725   21.9238
    1.770   20.8706
    1.815   19.4839
    1.860   19.2382
    1.905   18.5010
    1.950   17.5882
    1.995   16.1137
    2.040   16.0786
    2.085   15.1483
    2.130   14.4813
    2.175   15.1132
    2.220   13.4632
    2.265   13.9021
    2.310   12.4803
    2.355   12.7084
    2.400   12.1116
    2.445   12.6909
    2.490   12.0941
    2.535   11.6728
    2.580   11.8834
    2.625   11.1111
    2.670   11.1989
    2.715   11.3744
    2.760   10.8829
    2.805   11.6377
    2.850   11.1813
    2.895   11.0058
    2.940   12.1994
    2.985   12.0590
    3.030   12.4100
    3.075   12.4451
    3.120   12.1994
    3.165   12.9893
    3.210   13.4281
    3.255   13.8845
    3.300   15.2185
    3.345   16.4648
    3.390   17.3776
    3.435   18.3254
    3.480   19.8526
    3.525   21.2041
    3.570   24.2584
    3.615   26.9791
    3.660   32.1924
    3.705   37.0721
    3.750   46.5333
    3.795   62.5592
    3.840   82.1661
    3.885   52.0625
    3.930   19.2909
    3.975   10.4792
    4.020    7.6883
    4.065    7.5654
    4.110    7.0915
    4.155    6.4595
    4.200    6.4420
    4.245    6.5473
    4.290    5.9856
    4.335    5.9681
    4.380    6.6702
    4.425    6.5122
    4.470    5.9329
    4.515    5.8978
    4.560    6.1611
    4.605    6.1085
    4.650    5.8803
    4.695    5.9505
    4.740    6.3542
    4.785    6.6877
    4.830    6.1962
    4.875    6.3718
    4.920    6.4244
    4.965    6.9686
    5.010    6.8282
    5.055    7.6707
    5.100    8.2324
    5.145    8.8468
    5.190    9.2154
    5.235   10.8127
    5.280   12.1994
    5.325   14.0074
    5.370   15.6749
    5.415   21.4148
    5.460   27.2424
    5.505   19.4839
    5.550    9.2680
    5.595    6.0558
    5.640    6.0734
    5.685    5.6521
    5.730    5.0377
    5.775    5.4590
    5.820    4.9149
    5.865    4.7744
    5.910    5.0904
    5.955    5.4415
    6.000    5.7399
    6.045    5.3888
    6.090    5.3361
    6.135    5.0202
    6.180    5.4590
    6.225    5.4064
    6.270    5.6170
    6.315    5.7399
    6.360    5.8276
    6.405    5.8276
    6.450    6.3016
    6.495    7.3899
    6.540    7.5478
    6.585    8.4079
    6.630    9.4962
    6.675   12.6031
    6.720   13.0595
    6.765    8.6361
    6.810    5.8276
    6.855    5.4064
    6.900    4.7920
    6.945    5.1080
    6.990    4.6165
    7.035    4.7744
    7.080    5.1431
    7.125    5.0202
    7.170    4.8798
    7.215    5.1782
    7.260    4.8447
    7.305    4.6691
    7.350    5.4415
    7.395    5.1606
    7.440    5.0202
    7.485    4.6516
    7.530    5.0728
    7.575    5.3010
    7.620    6.1962
    7.665    6.6351
    7.710    6.9686
    7.755    8.1095
    7.800    7.1617
    7.845    4.9675
    7.890    4.7042
    7.935    5.4766
    7.980    4.4760
    8.025    4.5638
    8.070    4.9149
    8.115    5.1255
    8.160    4.9324
    8.205    4.6691
    8.250    4.9149
    8.295    5.0026
    8.340    5.0553
    8.385    4.7218
    8.430    4.6165
    8.475    4.8973
    8.520    5.0728
    8.565    4.8973
    8.610    5.3010
    8.655    5.0377
    8.700    5.5819
    8.745    5.1431
    8.790    5.0026
    8.835    4.6691
    8.880    4.4409
    8.925    4.7569
    8.970    5.0728
    9.015    4.9851
    9.060    4.5989
    9.105    4.9149
    9.150    5.5117
    9.195    5.3361
    9.240    5.8803
    9.285    5.7925
    9.330    6.3367
    9.375    6.9159
    9.420    7.4425
    9.465    9.3382
    9.510   11.6904
    9.555   10.1457
    9.600    6.3542
    9.645    5.4064
    9.690    5.2835
    9.735    4.8271
    9.780    5.4941
    9.825    4.5463
    9.870    4.8798
    9.915    4.8447
    9.960    4.8622
   10.005    4.9500
   10.050    5.3537
   10.095    5.3186
   10.140    5.4415
   10.185    5.9856
   10.230    6.3718
   10.275    7.5478
   10.320    7.3547
   10.365    6.2665
   10.410    5.4415
   10.455    5.0377
   10.500    4.9675
   10.545    4.6516
   10.590    4.8095
   10.635    5.1782
   10.680    4.8447
   10.725    4.4409
   10.770    5.1255
   10.815    4.7218
   10.860    5.0728
   10.905    5.8452
   10.950    6.3016
   10.995    6.7755
   11.040    6.4595
   11.085    5.3010
   11.130    4.8271
   11.175    5.0026
   11.220    4.8973
   11.265    5.1255
   11.310    4.8973
   11.355    4.6516
   11.400    4.9851
   11.445    4.9675
   11.490    5.2133
   11.535    5.5643
   11.580    5.7399
   11.625    6.1787
   11.670    7.5303
   11.715    7.0915
   11.760    5.3537
   11.805    4.7393
   11.850    4.6165
   11.895    4.7218
   11.940    4.7042
   11.985    4.4234
   12.030    4.8095
   12.075    4.4409
   12.120    4.3181
   12.165    4.2127
   12.210    5.3186
   12.255    4.2654
   12.300    4.7393
   12.345    4.6340
   12.390    4.6516
   12.435    4.5638
   12.480    4.3707
   12.525    4.1776
   12.570    4.7218
   12.615    4.2303
   12.660    4.4585
   12.705    4.2830
   12.750    4.4936
   12.795    4.8095
   12.840    4.9851
   12.885    5.5643
   12.930    6.1436
   12.975    6.0207
   13.020    4.7569
   13.065    4.3883
   13.110    4.4409
   13.155    4.2654
   13.200    4.0548
   13.245    3.9670
   13.290    3.6862
   13.335    4.1952
   13.380    4.6691
   13.425    4.7744
   13.470    4.6165
   13.515    4.6691
   13.560    4.5638
   13.605    4.5814
   13.650    4.1952
   13.695    4.1776
   13.740    4.4760
   13.785    4.5287
   13.830    4.2654
   13.875    4.6165
   13.920    4.3356
   13.965    4.7920
   14.010    5.1080
   14.055    5.7925
   14.100    5.7048
   14.145    4.8973
   14.190    4.3181
   14.235    4.0899
   14.280    4.3532
   14.325    4.2127
   14.370    4.0548
   14.415    3.8792
   14.460    4.4058
   14.505    4.3181
   14.550    3.9494
   14.595    4.3883
   14.640    3.8617
   14.685    3.7388
   14.730    4.3707
   14.775    4.1425
   14.820    4.1601
   14.865    4.2127
   14.910    4.1776
   14.955    4.3005
   15.000    4.2830
   15.045    3.9319
   15.090    4.4058
   15.135    4.4585
   15.180    4.7744
   15.225    4.5463
   15.270    4.2127
   15.315    4.1601
   15.360    4.1601
   15.405    3.9670
   15.450    4.3532
   15.495    4.2830
   15.540    4.0021
   15.585    4.0197
   15.630    4.1425
   15.675    4.2830
   15.720    4.5111
   15.765    4.0899
   15.810    4.6165
   15.855    4.1425
   15.900    4.0197
   15.945    4.1250
   15.990    4.1952
   16.035    4.5989
   16.080    4.4936
   16.125    4.4936
   16.170    4.5638
   16.215    4.1776
   16.260    4.3181
   16.305    4.2654
   16.350    4.2303
   16.395    4.0197
   16.440    4.4760
   16.485    4.2654
   16.530    4.4936
   16.575    4.1425
   16.620    4.5111
   16.665    4.5111
   16.710    4.3181
   16.755    4.1250
   16.800    4.1425
   16.845    4.1776
   16.890    4.3707
   16.935    4.3005
   16.980    5.0026
   17.025    5.2133
   17.070    5.3010
   17.115    4.8271
   17.160    4.5287
   17.205    4.5287
   17.250    4.3181
   17.295    4.1250
   17.340    4.1250
   17.385    4.4058
   17.430    4.1952
   17.475    4.7042
   17.520    4.6340
   17.565    4.0548
   17.610    4.3005
   17.655    4.3356
   17.700    3.8792
   17.745    4.1776
   17.790    4.2127
   17.835    4.2830
   17.880    4.1074
   17.925    4.6867
   17.970    4.7393
   18.015    4.4058
   18.060    4.0372
   18.105    4.1425
   18.150    4.0197
   18.195    4.0197
   18.240    4.3707
   18.285    4.4585
   18.330    3.7564
   18.375    4.2127
   18.420    4.4760
   18.465    4.5463
   18.510    4.1952
   18.555    4.1074
   18.600    4.2830
   18.645    4.2654
   18.690    3.8617
   18.735    4.0021
   18.780    4.0197
   18.825    3.9846
   18.870    4.4058
   18.915    4.0372
   18.960    4.4058
   19.005    4.4936
   19.050    3.8441
   19.095    3.7564
   19.140    4.5111
   19.185    4.0548
   19.230    4.0548
   19.275    3.8441
   19.320    3.8090
   19.365    4.4760
   19.410    4.3356
   19.455    4.2478
   19.500    4.0021
   19.545    4.4585
   19.590    4.1074
   19.635    4.5287
   19.680    3.7739
   19.725    4.1601
   19.770    4.3005
   19.815    4.3883
   19.860    4.3005
   19.905    4.3181
   19.950    4.2478
   19.995    4.6867
   20.040    4.3356
   20.085    4.1952
   20.130    4.5111
   20.175    4.1952
   20.220    4.1601
   20.265    3.9319
   20.310    4.7744
   20.355    4.9675
   20.400    4.8095
   20.445    4.4234
   20.490    4.1074
   20.535    4.2830
   20.580    4.5989
   20.625    4.4760
   20.670    4.0197
   20.715    4.1952
   20.760    4.2127
   20.805    4.4760
   20.850    4.1601
   20.895    3.9846
   20.940    4.4058
   20.985    4.2303
   21.030    4.8798
   21.075    3.8617
   21.120    4.5814
   21.165    4.4409
   21.210    4.3181
   21.255    4.1776
   21.300    4.7393
   21.345    4.2654
   21.390    3.9143
   21.435    4.6691
   21.480    4.4058
   21.525    4.2830
   21.570    4.1250
   21.615    4.4409
   21.660    4.5814
   21.705    4.6867
   21.750    4.6340
   21.795    4.8622
   21.840    4.3356
   21.885    4.5814
   21.930    4.3707
   21.975    4.4234
   22.020    4.1425
   22.065    3.9846
   22.110    4.4058
   22.155    4.4234
   22.200    4.5638
   22.245    4.6165
   22.290    4.6165
   22.335    4.3883
   22.380    4.4234
   22.425    4.7393
   22.470    4.5287
   22.515    5.1957
   22.560    4.7920
   22.605    4.9324
   22.650    4.7569
   22.695    4.4585
   22.740    4.7393
   22.785    4.9675
   22.830    4.8798
   22.875    5.1080
   22.920    5.0202
   22.965    4.3883
   23.010    4.6340
   23.055    4.3532
   23.100    3.9670
   23.145    4.2478
   23.190    4.1776
   23.235    4.2830
   23.280    4.2654
   23.325    4.6516
   23.370    4.3005
   23.415    4.5814
   23.460    4.4936
   23.505    4.3532
   23.550    4.1776
   23.595    4.2654
   23.640    4.3883
   23.685    4.4760
   23.730    4.3356
   23.775    4.0548
   23.820    3.7037
   23.865    4.7920
   23.910    4.6340
   23.955    4.3532
   24.000    4.6340
   24.045    4.2830
   24.090    3.8266
   24.135    4.3883
   24.180    4.4058
   24.225    4.3356
   24.270    4.4234
   24.315    4.1425
   24.360    3.9494
   24.405    4.3883
   24.450    4.3532
   24.495    4.1601
   24.540    4.2654
   24.585    4.1425
   24.630    4.2478
   24.675    4.0548
   24.720    4.2478
   24.765    4.1601
   24.810    3.6686
   24.855    4.3707
   24.900    4.3005
   24.945    4.0899
   24.990    4.2478
   25.035    4.0021
   25.080    4.4585
   25.125    3.9143
   25.170    4.5814
   25.215    4.4234
   25.260    4.4585
   25.305    3.9670
   25.350    4.0372
   25.395    3.9494
   25.440    3.9846
   25.485    4.2127
   25.530    4.3883
   25.575    4.5989
   25.620    4.2654
   25.665    3.8090
   25.710    4.7218
   25.755    4.8271
   25.800    4.6691
   25.845    4.6340
   25.890    4.2127
   25.935    4.2303
   25.980    4.2830
   26.025    4.3181
   26.070    4.3356
   26.115    3.7564
   26.160    4.0021
   26.205    3.9319
   26.250    4.2654
   26.295    4.0021
   26.340    3.8266
   26.385    4.0372
   26.430    4.1601
   26.475    4.4760
   26.520    3.8090
   26.565    4.0021
   26.610    4.1601
   26.655    4.2478
   26.700    3.9143
   26.745    3.7915
   26.790    4.2478
   26.835    3.9494
   26.880    3.5633
   26.925    4.3707
   26.970    4.2830
   27.015    4.0723
   27.060    3.8617
   27.105    3.9143
   27.150    4.3707
   27.195    4.2478
   27.240    3.7915
   27.285    3.5106
   27.330    4.1776
   27.375    4.0197
   27.420    4.0899
   27.465    4.0899
   27.510    4.1952
   27.555    4.0723
   27.600    4.1952
   27.645    4.1250
   27.690    4.3356
   27.735    3.8266
   27.780    3.9143
   27.825    4.2478
   27.870    3.8090
   27.915    4.1250
   27.960    3.6159
   28.005    4.4585
   28.050    3.4229
   28.095    4.0723
   28.140    4.3181
   28.185    4.0021
   28.230    3.6686
   28.275    4.0723
   28.320    4.4409
   28.365    4.0197
   28.410    4.3532
   28.455    3.4755
   28.500    4.3356
   28.545    3.9494
   28.590    4.1776
   28.635    3.8266
   28.680    3.7037
   28.725    3.9846
   28.770    3.7564
   28.815    4.0899
   28.860    3.7037
   28.905    3.8266
   28.950    3.7388
   28.995    3.9846
   29.040    3.6686
   29.085    4.0548
   29.130    4.5111
   29.175    4.1952
   29.220    3.9670
   29.265    4.0723
   29.310    3.8441
   29.355    4.0197
   29.400    3.4229
   29.445    3.8266
   29.490    3.9846
   29.535    3.4580
   29.580    3.6862
   29.625    3.8617
   29.670    3.7037
   29.715    3.9143
   29.760    4.0197
   29.805    3.7037
   29.850    3.2473
   29.895    3.9494
   29.940    4.1074
   29.985    3.5106
   30.030    3.8792
   30.075    3.6159
   30.120    3.6862
   30.165    3.7213
   30.210    3.5984
   30.255    3.6862
   30.300    3.8792
   30.345    3.9494
   30.390    3.9319
   30.435    3.9494
   30.480    3.7037
   30.525    3.9319
   30.570    3.6686
   30.615    4.1074
   30.660    4.0723
   30.705    3.4755
   30.750    3.7388
   30.795    3.5808
   30.840    3.6335
   30.885    3.7915
   30.930    3.4229
   30.975    3.4229
   31.020    3.3526
   31.065    3.4755
   31.110    3.7213
   31.155    3.7213
   31.200    3.5282
   31.245    3.6510
   31.290    3.6510
   31.335    3.5984
   31.380    3.4229
   31.425    3.8090
   31.470    3.4053
   31.515    3.6159
   31.560    3.6335
   31.605    3.5457
   31.650    3.5808
   31.695    3.9143
   31.740    3.6862
   31.785    3.6510
   31.830    3.8266
   31.875    3.9846
   31.920    3.3351
   31.965    3.5106
   32.010    3.6510
   32.055    3.3877
   32.100    3.7213
   32.145    3.3175
   32.190    3.9494
   32.235    3.2122
   32.280    3.7564
   32.325    3.5633
   32.370    3.3702
   32.415    3.5984
   32.460    3.5106
   32.505    3.2649
   32.550    3.5282
   32.595    3.1245
   32.640    3.4053
   32.685    3.4755
   32.730    3.5106
   32.775    3.3702
   32.820    3.6686
   32.865    3.2122
   32.910    3.5633
   32.955    3.3702
   33.000    3.4404
   33.045    3.6862
   33.090    3.3526
   33.135    3.3000
   33.180    3.4404
   33.225    3.1596
   33.270    3.5633
   33.315    3.3877
   33.360    3.3702
   33.405    3.3526
   33.450    3.0893
   33.495    2.9138
   33.540    3.3351
   33.585    3.2122
   33.630    3.4404
   33.675    3.3526
   33.720    3.4404
   33.765    3.2122
   33.810    3.5808
   33.855    3.6862
   33.900    3.3702
   33.945    3.3526
   33.990    3.0893
   34.035    3.2122
   34.080    3.1947
   34.125    3.2122
   34.170    3.3000
   34.215    3.1069
   34.260    3.1420
   34.305    3.4229
   34.350    3.2824
   34.395    3.0016
   34.440    3.3000
   34.485    3.3351
   34.530    2.9489
   34.575    3.1596
   34.620    3.5106
   34.665    3.2473
   34.710    3.1069
   34.755    3.2298
   34.800    2.8787
   34.845    2.8963
   34.890    3.4404
   34.935    3.1596
   34.980    3.1596
   35.025    3.3351
   35.070    3.1245
   35.115    3.4404
   35.160    3.2298
   35.205    3.4755
   35.250    3.1947
   35.295    3.1947
   35.340    3.3000
   35.385    3.3000
   35.430    3.1771
   35.475    3.0893
   35.520    3.0191
   35.565    3.1420
   35.610    3.2473
   35.655    2.9138
   35.700    3.3877
   35.745    3.1069
   35.790    3.2122
   35.835    3.2824
   35.880    3.3000
   35.925    3.4229
   35.970    3.0718
   36.015    2.9314
   36.060    3.3175
   36.105    3.3351
   36.150    3.2649
   36.195    3.4755
   36.240    3.0718
   36.285    3.3702
   36.330    3.0191
   36.375    2.9138
   36.420    2.9665
   36.465    3.0016
   36.510    3.1420
   36.555    3.6862
   36.600    3.3351
   36.645    3.1069
   36.690    3.0718
   36.735    3.3702
   36.780    2.6681
   36.825    3.0016
   36.870    3.4053
   36.915    3.5808
   36.960    3.0718
   37.005    3.0542
   37.050    3.1245
   37.095    3.0016
   37.140    3.4931
   37.185    2.9665
   37.230    3.5282
   37.275    3.0191
   37.320    3.1245
   37.365    3.2824
   37.410    3.0718
   37.455    2.9840
   37.500    2.9138
   37.545    2.4925
   37.590    3.0893
   37.635    3.1245
   37.680    3.1420
   37.725    3.1596
   37.770    2.9314
   37.815    3.1245
   37.860    2.9314
   37.905    2.8085
   37.950    3.4580
   37.995    2.9138
   38.040    2.7032
   38.085    3.1420
   38.130    3.2298
   38.175    3.1771
   38.220    2.7734
   38.265    3.2298
   38.310    3.0893
   38.355    3.2122
   38.400    2.8085
   38.445    3.0542
   38.490    2.8085
   38.535    3.0718
   38.580    3.0016
   38.625    3.2122
   38.670    2.7383
   38.715    3.1245
   38.760    2.9314
   38.805    3.1245
   38.850    3.1596
   38.895    3.1420
   38.940    3.4404
   38.985    3.0367
   39.030    2.7734
   39.075    2.9138
   39.120    3.2649
   39.165    2.5628
   39.210    2.8260
   39.255    3.1069
   39.300    3.0542
   39.345    3.2122
   39.390    3.0542
   39.435    2.9314
   39.480    2.8963
   39.525    2.8612
   39.570    3.0191
   39.615    2.8436
   39.660    3.1596
   39.705    3.2473
   39.750    2.7909
   39.795    2.8787
   39.840    3.2122
   39.885    2.9489
   39.930    3.1596
   39.975    3.0718
   40.020    2.8085
   40.065    3.2824
   40.110    2.7383
   40.155    2.9138
   40.200    2.8963
   40.245    3.0367
   40.290    3.1245
   40.335    2.7909
   40.380    3.1420
   40.425    3.2473
   40.470    3.2122
   40.515    2.9314
   40.560    3.1420
   40.605    2.9840
   40.650    3.0718
   40.695    2.8436
   40.740    3.0718
   40.785    2.7558
   40.830    3.1947
   40.875    2.9840
   40.920    2.9314
   40.965    2.9665
   41.010    2.9138
   41.055    2.9665
   41.100    2.9138
   41.145    3.1069
   41.190    3.1420
   41.235    2.6856
   41.280    2.6681
   41.325    3.2824
   41.370    2.8963
   41.415    3.0191
   41.460    2.8612
   41.505    3.1420
   41.550    2.9665
   41.595    3.4580
   41.640    3.0542
   41.685    2.7207
   41.730    2.9489
   41.775    2.8787
   41.820    2.8787
   41.865    3.1245
   41.910    2.6856
   41.955    3.0893
   42.000    2.9314
   42.045    2.9138
   42.090    3.2298
   42.135    2.8963
   42.180    3.0893
   42.225    2.9665
   42.270    3.0191
   42.315    2.7383
   42.360    3.1069
   42.405    3.1596
   42.450    3.0367
   42.495    2.9840
   42.540    3.2473
   42.585    2.8436
   42.630    2.8612
   42.675    3.0893
   42.720    3.3351
   42.765    3.3175
   42.810    2.7207
   42.855    2.6856
   42.900    3.2298
   42.945    3.2649
   42.990    2.8612
   43.035    3.0893
   43.080    2.9138
   43.125    2.9314
   43.170    2.7909
   43.215    2.9489
   43.260    2.9665
   43.305    3.3526
   43.350    2.5101
   43.395    2.8612
   43.440    2.8787
   43.485    3.3877
   43.530    2.8612
   43.575    2.7383
   43.620    2.9489
   43.665    3.1771
   43.710    2.9314
   43.755    3.2649
   43.800    3.3877
   43.845    3.0367
   43.890    3.1069
   43.935    2.8085
   43.980    2.5979
   44.025    2.7032
   44.070    2.7734
   44.115    2.6856
   44.160    3.2824
   44.205    3.3702
   44.250    2.9665
   44.295    2.8260
   44.340    3.2649
   44.385    2.8436
   44.430    2.9314
   44.475    2.7032
   44.520    2.6154
   44.565    3.1771
   44.610    3.0367
   44.655    3.5106
   44.700    3.1771
   44.745    2.8436
   44.790    2.9840
   44.835    2.8436
   44.880    3.0718
   44.925    2.7207
   44.970    2.8436
   45.015    3.2298
   45.060    2.8436
   45.105    2.9314
   45.150    2.7032
   45.195    3.3702
   45.240    3.1069
   45.285    3.0542
   45.330    3.0367
   45.375    2.9665
   45.420    2.8260
   45.465    2.7734
   45.510    3.1420
   45.555    3.0016
   45.600    2.9314
   45.645    2.8787
   45.690    3.1596
   45.735    2.6856
   45.780    2.4750
   45.825    2.8612
   45.870    2.9138
   45.915    2.7383
   45.960    2.9314
   46.005    2.7383
   46.050    2.7383
   46.095    3.1947
   46.140    2.8787
   46.185    2.8963
   46.230    2.6856
   46.275    2.4925
   46.320    2.5803
   46.365    2.8787
   46.410    3.0718
   46.455    2.8612
   46.500    2.7383
   46.545    3.2824
   46.590    2.7383
   46.635    2.8260
   46.680    3.0542
   46.725    3.0718
   46.770    2.9138
   46.815    2.8787
   46.860    3.0542
   46.905    2.8963
   46.950    2.6505
   46.995    3.1069
   47.040    2.9138
   47.085    2.8436
   47.130    2.8260
   47.175    2.8260
   47.220    2.6154
   47.265    2.8787
   47.310    2.7734
   47.355    2.7558
   47.400    2.8787
   47.445    3.1069
   47.490    2.6505
   47.535    2.8612
   47.580    2.6154
   47.625    3.0718
   47.670    2.8085
   47.715    2.7558
   47.760    2.7032
   47.805    2.7734
   47.850    2.8085
   47.895    3.0191
   47.940    2.9138
   47.985    2.4223
   48.030    2.6154
   48.075    2.6330
   48.120    2.5101
   48.165    2.4223
   48.210    2.7734
   48.255    2.8436
   48.300    2.7032
   48.345    2.8260
   48.390    2.7383
   48.435    3.0016
   48.480    2.7558
   48.525    2.7734
   48.570    2.6856
   48.615    2.6505
   48.660    2.7909
   48.705    3.2473
   48.750    2.4399
   48.795    2.7734
   48.840    2.7032
   48.885    3.0893
   48.930    2.3170
   48.975    2.8260
   49.020    3.1069
   49.065    2.6856
   49.110    2.6154
   49.155    2.8260
   49.200    2.8085
   49.245    2.7909
   49.290    2.5628
   49.335    2.9840
   49.380    2.5452
   49.425    2.7032
   49.470    2.8436
   49.515    2.6681
   49.560    2.8787
   49.605    2.5101
   49.650    2.5979
   49.695    2.8085
   49.740    2.9489
   49.785    2.8612
   49.830    2.9665
   49.875    2.8612
   49.920    2.5452
   49.965    2.6330
   49.980    2.3521