File: data/MOCOF-1/PXRD/PXRD_KE-168_Cu-Ka1_capillary-1mm_5s-deg.xyd
    1.500   37.2617
    1.530   37.7567
    1.560   34.6393
    1.590   34.9342
    1.620   32.5540
    1.650   32.5434
    1.680   31.1111
    1.710   29.8789
    1.740   29.4471
    1.770   28.2780
    1.800   29.1838
    1.830   27.2038
    1.860   26.6772
    1.890   26.1401
    1.920   26.2033
    1.950   25.9084
    1.980   25.1922
    2.010   24.6130
    2.040   24.2865
    2.070   24.1390
    2.100   23.5808
    2.130   23.5176
    2.160   23.0332
    2.190   22.1906
    2.220   22.8752
    2.250   22.2749
    2.280   21.8852
    2.310   21.4639
    2.340   20.7583
    2.370   21.8220
    2.400   21.7167
    2.430   21.7483
    2.460   21.2217
    2.490   21.7272
    2.520   21.0953
    2.550   20.8004
    2.580   21.5903
    2.610   21.6746
    2.640   22.8120
    2.670   22.2644
    2.700   21.5692
    2.730   23.5387
    2.760   23.5282
    2.790   22.9595
    2.820   23.7177
    2.850   23.9810
    2.880   24.5392
    2.910   25.5292
    2.940   25.8452
    2.970   26.5613
    3.000   28.2675
    3.030   28.5940
    3.060   29.8368
    3.090   30.8057
    3.120   32.5540
    3.150   35.1132
    3.180   37.0827
    3.210   39.1048
    3.240   42.4750
    3.270   44.4760
    3.300   48.4571
    3.330   52.6382
    3.360   57.3565
    3.390   63.9600
    3.420   69.6577
    3.450   74.7762
    3.480   76.2296
    3.510   69.6683
    3.540   60.7794
    3.570   48.9100
    3.600   40.1159
    3.630   34.3549
    3.660   33.1227
    3.690   30.5108
    3.720   29.9210
    3.750   29.2154
    3.780   29.8052
    3.810   30.8373
    3.840   30.7109
    3.870   32.4908
    3.900   31.7220
    3.930   33.1859
    3.960   34.7446
    3.990   34.4813
    4.020   34.8289
    4.050   34.1548
    4.080   35.6187
    4.110   33.9758
    4.140   33.6177
    4.170   32.0484
    4.200   30.0579
    4.230   27.9832
    4.260   25.7715
    4.290   22.4961
    4.320   21.0743
    4.350   19.0521
    4.380   17.4092
    4.410   16.5456
    4.440   15.0500
    4.470   14.5234
    4.500   12.9858
    4.530   12.1222
    4.560   12.1327
    4.590   11.3217
    4.620   11.0479
    4.650   10.5951
    4.680   10.2054
    4.710   10.5424
    4.740    9.7314
    4.770    9.8052
    4.800   10.0474
    4.830    9.1732
    4.860    9.8262
    4.890    9.4260
    4.920    9.1627
    4.950    8.5308
    4.980    9.2575
    5.010    9.1206
    5.040    9.2048
    5.070    8.5835
    5.100    8.7414
    5.130    8.5624
    5.160    8.9837
    5.190    8.9310
    5.220    8.4044
    5.250    8.9626
    5.280    8.9415
    5.310    8.4571
    5.340    8.5097
    5.370    8.6783
    5.400    8.7520
    5.430    8.4150
    5.460    8.0990
    5.490    8.5624
    5.520    7.9621
    5.550    8.9731
    5.580    8.1201
    5.610    8.3728
    5.640    8.3096
    5.670    8.1727
    5.700    8.0358
    5.730    8.0253
    5.760    7.9305
    5.790    8.4887
    5.820    8.3307
    5.850    8.1833
    5.880    8.2043
    5.910    8.4571
    5.940    7.8252
    5.970    8.3518
    6.000    7.7199
    6.030    8.4044
    6.060    8.0990
    6.090    8.5729
    6.120    8.4044
    6.150    8.2359
    6.180    8.0463
    6.210    8.2570
    6.240    8.1833
    6.270    8.3939
    6.300    8.3307
    6.330    8.6045
    6.360    8.8573
    6.390    8.2464
    6.420    8.6993
    6.450    8.3096
    6.480    8.9942
    6.510    8.0463
    6.540    9.0469
    6.570    8.5940
    6.600    8.6467
    6.630    9.2259
    6.660    9.5629
    6.690    9.2575
    6.720    9.6998
    6.750   10.0053
    6.780   10.0263
    6.810   11.5534
    6.840   11.2796
    6.870   12.6698
    6.900   12.9226
    6.930   13.8178
    6.960   14.0600
    6.990   13.6809
    7.020   13.2491
    7.050   12.3960
    7.080   11.1532
    7.110   10.0895
    7.140   10.3739
    7.170    9.2575
    7.200    9.6051
    7.230    8.9415
    7.260    8.9310
    7.290    8.6993
    7.320    8.8573
    7.350    8.3834
    7.380    8.6783
    7.410    8.5940
    7.440    8.7730
    7.470    8.7414
    7.500    8.8152
    7.530    8.8784
    7.560    8.6677
    7.590    9.0258
    7.620    8.3096
    7.650    8.8046
    7.680    9.5313
    7.710    9.0679
    7.740    9.4576
    7.770    9.0890
    7.800    9.4260
    7.830    9.3523
    7.860    9.5945
    7.890    9.5524
    7.920    9.2364
    7.950    9.2154
    7.980    9.6577
    8.010    9.6472
    8.040    9.8684
    8.070    9.7841
    8.100    9.9105
    8.130    9.7736
    8.160    9.6472
    8.190    9.6998
    8.220    9.6998
    8.250    9.9947
    8.280    9.9737
    8.310    9.5629
    8.340    9.9315
    8.370    9.8578
    8.400   10.2264
    8.430   10.2896
    8.460    9.8157
    8.490    9.3628
    8.520    9.9105
    8.550    9.5103
    8.580    9.2259
    8.610    9.7314
    8.640    9.3312
    8.670    9.2891
    8.700    8.9626
    8.730    9.1311
    8.760    8.8573
    8.790    8.5624
    8.820    8.2886
    8.850    8.5624
    8.880    8.6888
    8.910    8.4992
    8.940    8.0253
    8.970    8.2886
    9.000    8.3728
    9.030    8.4676
    9.060    8.5519
    9.090    8.4887
    9.120    8.7098
    9.150    8.0990
    9.180    8.0885
    9.210    8.1938
    9.240    8.0779
    9.270    7.9200
    9.300    8.2991
    9.330    8.5729
    9.360    8.1938
    9.390    7.8357
    9.420    7.7620
    9.450    8.2675
    9.480    7.8989
    9.510    7.8989
    9.540    8.3307
    9.570    7.6145
    9.600    8.2043
    9.630    7.8673
    9.660    8.3202
    9.690    8.3728
    9.720    8.0885
    9.750    8.2464
    9.780    7.8357
    9.810    7.8568
    9.840    8.0990
    9.870    8.1095
    9.900    8.2570
    9.930    8.0042
    9.960    7.8884
    9.990    8.4044
   10.020    8.1727
   10.050    8.5624
   10.080    8.4466
   10.110    9.3523
   10.140    9.8052
   10.170    9.2786
   10.200    9.4260
   10.230    9.0153
   10.260    8.6361
   10.290    8.0990
   10.320    8.4992
   10.350    7.6988
   10.380    8.6256
   10.410    8.2675
   10.440    8.1727
   10.470    8.6783
   10.500    8.2886
   10.530    8.0358
   10.560    7.9621
   10.590    8.2359
   10.620    7.8989
   10.650    7.7304
   10.680    8.1727
   10.710    7.7620
   10.740    7.5513
   10.770    7.6567
   10.800    7.9726
   10.830    7.6883
   10.860    8.0885
   10.890    7.8778
   10.920    7.8778
   10.950    7.6356
   10.980    7.6567
   11.010    8.0569
   11.040    7.9094
   11.070    7.4566
   11.100    7.6988
   11.130    7.3934
   11.160    7.4776
   11.190    7.8884
   11.220    7.8041
   11.250    7.8568
   11.280    7.9410
   11.310    7.4987
   11.340    7.6777
   11.370    7.7409
   11.400    7.4039
   11.430    7.3196
   11.460    7.8568
   11.490    7.9726
   11.520    7.8146
   11.550    7.8252
   11.580    7.8884
   11.610    8.1411
   11.640    7.7304
   11.670    8.1201
   11.700    7.8568
   11.730    7.4882
   11.760    7.9094
   11.790    8.0885
   11.820    8.0674
   11.850    8.3202
   11.880    7.8989
   11.910    8.4360
   11.940    8.5940
   11.970    8.2359
   12.000    8.1727
   12.030    8.3202
   12.060    7.9937
   12.090    8.1095
   12.120    7.9516
   12.150    7.9726
   12.180    7.6040
   12.210    7.5829
   12.240    8.3096
   12.270    7.7409
   12.300    7.7725
   12.330    7.9410
   12.360    7.9726
   12.390    7.8673
   12.420    8.0463
   12.450    7.4987
   12.480    7.9305
   12.510    7.8041
   12.540    7.8462
   12.570    7.7409
   12.600    7.8252
   12.630    7.7199
   12.660    7.6145
   12.690    8.1517
   12.720    7.8252
   12.750    7.4460
   12.780    7.8357
   12.810    7.6988
   12.840    7.7936
   12.870    7.6040
   12.900    7.9937
   12.930    8.0358
   12.960    7.6356
   12.990    7.5092
   13.020    7.6988
   13.050    7.7304
   13.080    7.6251
   13.110    7.5829
   13.140    7.8041
   13.170    7.8673
   13.200    7.6777
   13.230    7.3512
   13.260    7.8778
   13.290    7.5513
   13.320    7.4671
   13.350    7.6251
   13.380    7.3407
   13.410    7.5619
   13.440    7.5303
   13.470    7.5829
   13.500    7.6356
   13.530    7.4776
   13.560    7.6567
   13.590    7.4882
   13.620    7.5197
   13.650    7.4460
   13.680    7.2670
   13.710    7.7514
   13.740    7.1827
   13.770    7.7199
   13.800    7.5619
   13.830    7.3512
   13.860    7.4039
   13.890    7.9410
   13.920    7.4250
   13.950    6.9616
   13.980    7.8778
   14.010    7.6988
   14.040    7.3196
   14.070    7.2775
   14.100    7.5513
   14.130    7.6777
   14.160    7.3302
   14.190    7.4144
   14.220    7.3302
   14.250    7.5724
   14.280    7.3828
   14.310    7.3618
   14.340    7.5197
   14.370    7.3618
   14.400    7.8252
   14.430    7.2880
   14.460    7.5724
   14.490    7.5303
   14.520    7.3196
   14.550    7.5092
   14.580    7.5092
   14.610    8.1411
   14.640    7.2354
   14.670    7.6040
   14.700    7.1195
   14.730    7.5829
   14.760    7.5513
   14.790    7.4671
   14.820    6.8668
   14.850    7.2459
   14.880    7.3407
   14.910    7.0669
   14.940    7.4671
   14.970    7.6883
   15.000    7.2038
   15.030    7.5092
   15.060    7.2775
   15.090    7.7199
   15.120    7.5935
   15.150    6.9826
   15.180    7.3618
   15.210    7.3828
   15.240    7.1933
   15.270    7.6040
   15.300    7.1617
   15.330    7.4776
   15.360    7.3091
   15.390    7.5619
   15.420    7.7620
   15.450    7.5724
   15.480    7.6672
   15.510    7.6777
   15.540    7.7304
   15.570    7.4250
   15.600    7.8041
   15.630    7.4987
   15.660    7.4987
   15.690    7.3407
   15.720    7.7304
   15.750    7.4987
   15.780    7.5303
   15.810    7.7093
   15.840    7.8252
   15.870    7.9726
   15.900    7.4776
   15.930    7.4987
   15.960    7.5935
   15.990    7.1617
   16.020    7.6672
   16.050    7.4460
   16.080    7.4039
   16.110    7.6145
   16.140    7.4039
   16.170    7.4144
   16.200    7.3302
   16.230    7.4039
   16.260    7.4987
   16.290    7.1406
   16.320    7.1195
   16.350    7.3091
   16.380    7.2775
   16.410    7.1301
   16.440    7.5303
   16.470    7.0774
   16.500    7.7304
   16.530    7.1090
   16.560    7.6356
   16.590    7.6356
   16.620    7.5092
   16.650    7.5513
   16.680    7.3934
   16.710    7.5197
   16.740    7.1301
   16.770    7.0774
   16.800    7.4250
   16.830    7.3828
   16.860    7.6883
   16.890    7.1722
   16.920    7.3512
   16.950    6.9932
   16.980    7.1827
   17.010    7.6461
   17.040    7.4250
   17.070    7.1722
   17.100    7.2038
   17.130    7.7093
   17.160    7.0458
   17.190    7.6145
   17.220    7.3302
   17.250    6.7193
   17.280    7.4776
   17.310    7.2986
   17.340    7.2775
   17.370    7.4250
   17.400    7.3196
   17.430    7.2565
   17.460    7.1933
   17.490    7.3302
   17.520    7.5408
   17.550    7.7620
   17.580    7.8989
   17.610    7.2670
   17.640    7.3196
   17.670    7.7093
   17.700    7.2354
   17.730    7.6251
   17.760    7.6988
   17.790    7.3618
   17.820    7.4355
   17.850    7.8146
   17.880    7.7620
   17.910    7.4460
   17.940    7.6988
   17.970    7.5092
   18.000    7.7199
   18.030    7.4355
   18.060    7.2670
   18.090    7.8146
   18.120    7.4566
   18.150    7.7830
   18.180    7.6040
   18.210    7.4144
   18.240    7.5619
   18.270    7.4671
   18.300    7.7725
   18.330    7.6988
   18.360    7.5303
   18.390    7.6040
   18.420    7.2986
   18.450    7.5303
   18.480    8.0569
   18.510    7.8462
   18.540    7.4987
   18.570    7.9937
   18.600    7.0774
   18.630    7.2880
   18.660    8.0463
   18.690    7.5829
   18.720    7.6145
   18.750    7.4987
   18.780    7.2986
   18.810    7.4987
   18.840    7.4355
   18.870    7.3196
   18.900    7.7304
   18.930    7.4250
   18.960    7.4460
   18.990    7.6883
   19.020    7.2038
   19.050    7.6672
   19.080    7.2459
   19.110    7.4460
   19.140    7.6356
   19.170    7.2459
   19.200    7.6040
   19.230    7.6567
   19.260    7.3828
   19.290    7.9200
   19.320    7.7409
   19.350    8.1201
   19.380    7.8041
   19.410    7.6988
   19.440    7.3618
   19.470    7.9305
   19.500    7.9200
   19.530    7.9621
   19.560    7.5197
   19.590    7.8778
   19.620    8.0042
   19.650    7.8146
   19.680    7.6777
   19.710    7.4250
   19.740    7.7199
   19.770    8.0990
   19.800    7.6883
   19.830    7.8146
   19.860    7.8778
   19.890    7.7830
   19.920    8.1622
   19.950    8.2254
   19.980    7.6461
   20.010    8.1622
   20.040    7.7514
   20.070    8.1306
   20.100    8.1411
   20.130    7.8989
   20.160    7.6461
   20.190    7.8989
   20.220    7.9305
   20.250    7.8778
   20.280    7.8357
   20.310    8.2254
   20.340    8.1938
   20.370    7.8778
   20.400    8.3307
   20.430    8.0885
   20.460    7.7409
   20.490    7.8673
   20.520    8.3096
   20.550    8.2780
   20.580    8.0674
   20.610    8.2149
   20.640    8.0674
   20.670    7.9305
   20.700    8.0779
   20.730    7.9094
   20.760    8.0463
   20.790    7.9516
   20.820    7.9621
   20.850    8.1833
   20.880    7.6988
   20.910    8.0779
   20.940    8.2991
   20.970    7.6145
   21.000    8.1622
   21.030    7.8673
   21.060    8.2043
   21.090    8.0253
   21.120    8.2464
   21.150    8.4992
   21.180    7.8673
   21.210    7.7093
   21.240    8.0990
   21.270    7.5513
   21.300    8.0990
   21.330    7.7304
   21.360    8.1517
   21.390    7.5197
   21.420    8.0885
   21.450    8.0674
   21.480    7.6672
   21.510    7.5829
   21.540    8.0042
   21.570    8.0674
   21.600    7.9200
   21.630    8.5519
   21.660    7.9937
   21.690    7.7514
   21.720    7.9200
   21.750    8.0569
   21.780    7.9516
   21.810    7.9410
   21.840    7.8357
   21.870    7.9410
   21.900    7.8673
   21.930    8.0990
   21.960    8.0147
   21.990    8.1095
   22.020    8.2464
   22.050    8.0253
   22.080    8.1095
   22.110    8.0779
   22.140    7.5829
   22.170    7.8146
   22.200    8.1622
   22.230    8.2043
   22.260    7.8568
   22.290    8.0990
   22.320    7.9305
   22.350    7.8778
   22.380    8.2780
   22.410    8.0779
   22.440    8.0042
   22.470    8.0042
   22.500    8.0463
   22.530    8.2675
   22.560    8.1201
   22.590    7.9937
   22.620    7.9410
   22.650    8.0253
   22.680    8.1938
   22.710    8.2464
   22.740    8.3834
   22.770    8.0779
   22.800    8.0358
   22.830    7.6356
   22.860    8.1201
   22.890    7.6777
   22.920    8.1201
   22.950    8.4044
   22.980    7.8673
   23.010    7.5513
   23.040    7.7093
   23.070    8.2043
   23.100    7.6356
   23.130    7.6883
   23.160    7.8041
   23.190    7.6040
   23.220    8.0674
   23.250    8.1833
   23.280    7.9200
   23.310    8.0674
   23.340    7.5829
   23.370    7.7199
   23.400    7.9516
   23.430    7.3407
   23.460    8.3307
   23.490    8.4150
   23.520    7.9831
   23.550    7.7830
   23.580    7.4355
   23.610    7.9094
   23.640    7.6145
   23.670    7.6567
   23.700    8.0042
   23.730    7.8357
   23.760    7.8357
   23.790    8.0463
   23.820    8.0674
   23.850    7.4460
   23.880    7.9621
   23.910    7.6988
   23.940    7.9937
   23.970    8.2675
   24.000    7.8673
   24.030    8.0042
   24.060    7.5513
   24.090    7.8884
   24.120    8.2043
   24.150    7.7199
   24.180    7.9410
   24.210    7.6461
   24.240    8.0147
   24.270    7.7409
   24.300    7.6145
   24.330    7.7093
   24.360    8.0674
   24.390    7.8568
   24.420    7.7199
   24.450    7.9200
   24.480    7.6040
   24.510    7.8252
   24.540    7.8778
   24.570    8.0779
   24.600    7.9831
   24.630    7.4882
   24.660    7.9831
   24.690    7.6040
   24.720    7.6672
   24.750    7.9621
   24.780    7.9410
   24.810    7.8778
   24.840    7.7093
   24.870    7.6567
   24.900    7.5619
   24.930    7.6461
   24.960    7.7409
   24.990    7.1722
   25.020    7.7620
   25.050    7.8568
   25.080    7.3196
   25.110    7.6251
   25.140    7.4039
   25.170    7.7093
   25.200    7.5829
   25.230    7.3828
   25.260    7.1090
   25.290    7.3723
   25.320    7.9410
   25.350    7.4250
   25.380    7.6777
   25.410    7.2670
   25.440    7.5829
   25.470    7.7936
   25.500    7.3302
   25.530    7.4144
   25.560    7.3723
   25.590    7.6251
   25.620    7.7409
   25.650    7.4987
   25.680    7.1195
   25.710    7.2565
   25.740    7.4144
   25.770    7.1406
   25.800    7.4987
   25.830    7.3723
   25.860    7.4776
   25.890    7.0985
   25.920    7.3934
   25.950    7.4039
   25.980    7.3512
   26.010    7.6145
   26.040    7.2775
   26.070    7.6883
   26.100    7.3407
   26.130    7.3196
   26.160    7.4671
   26.190    7.0353
   26.220    7.3091
   26.250    7.0879
   26.280    6.6035
   26.310    7.2565
   26.340    7.2354
   26.370    7.2565
   26.400    7.8146
   26.430    7.2670
   26.460    7.6777
   26.490    7.5197
   26.520    7.3512
   26.550    7.2143
   26.580    7.4460
   26.610    7.2038
   26.640    7.3512
   26.670    7.6461
   26.700    7.2143
   26.730    7.1406
   26.760    6.7615
   26.790    7.2670
   26.820    7.3723
   26.850    7.3407
   26.880    6.9721
   26.910    7.5408
   26.940    7.2143
   26.970    7.2354
   27.000    7.0774
   27.030    7.4250
   27.060    7.1722
   27.090    6.8878
   27.120    6.9826
   27.150    6.8036
   27.180    7.3723
   27.210    6.6877
   27.240    6.9510
   27.270    7.2038
   27.300    7.2775
   27.330    6.8352
   27.360    6.8984
   27.390    7.0669
   27.420    7.0353
   27.450    7.1406
   27.480    7.3512
   27.510    7.3934
   27.540    6.9194
   27.570    6.9405
   27.600    7.2354
   27.630    6.6456
   27.660    7.0563
   27.690    6.9721
   27.720    7.1827
   27.750    7.0985
   27.780    6.9826
   27.810    6.9721
   27.840    6.8036
   27.870    7.2249
   27.900    7.3407
   27.930    6.7930
   27.960    7.1406
   27.990    6.9616
   28.020    7.2143
   28.050    6.7193
   28.080    7.0458
   28.110    6.8036
   28.140    7.2880
   28.170    6.8878
   28.200    7.1722
   28.230    7.4355
   28.260    6.9194
   28.290    7.5829
   28.320    7.0037
   28.350    7.2880
   28.380    6.9405
   28.410    7.2565
   28.440    7.0563
   28.470    6.9721
   28.500    7.0669
   28.530    6.9405
   28.560    7.0774
   28.590    7.2565
   28.620    6.9826
   28.650    7.5092
   28.680    6.7404
   28.710    7.3302
   28.740    6.9194
   28.770    6.6140
   28.800    6.7509
   28.830    6.9089
   28.860    6.3718
   28.890    7.1827
   28.920    6.9405
   28.950    7.1301
   28.980    6.6983
   29.010    6.8141
   29.040    6.7930
   29.070    6.4771
   29.100    6.7509
   29.130    6.8878
   29.160    7.0248
   29.190    6.7930
   29.220    7.2143
   29.250    7.0037
   29.280    7.0669
   29.310    7.0248
   29.340    7.0563
   29.370    7.0248
   29.400    6.3191
   29.430    6.7404
   29.460    6.6983
   29.490    6.6351
   29.520    6.5508
   29.550    6.6561
   29.580    6.8773
   29.610    7.0142
   29.640    6.7930
   29.670    6.3086
   29.700    6.6245
   29.730    6.8457
   29.760    6.6245
   29.790    6.4244
   29.820    6.8141
   29.850    6.6351
   29.880    6.7720
   29.910    6.8036
   29.940    6.5929
   29.970    6.8773
   30.000    6.4982
   30.030    6.9510
   30.060    6.8141
   30.090    7.0037
   30.120    6.5403
   30.150    6.7825
   30.180    6.7299
   30.210    7.0248
   30.240    6.5719
   30.270    6.5824
   30.300    6.7615
   30.330    6.3718
   30.360    6.8457
   30.390    6.6983
   30.420    6.6877
   30.450    6.5508
   30.480    6.5403
   30.510    6.6456
   30.540    6.6667
   30.570    6.8352
   30.600    6.4982
   30.630    6.4350
   30.660    6.5087
   30.690    6.4350
   30.720    6.5613
   30.750    7.0563
   30.780    6.6035
   30.810    6.4666
   30.840    6.4034
   30.870    6.9721
   30.900    6.4876
   30.930    6.8668
   30.960    6.4455
   30.990    6.8246
   31.020    7.1722
   31.050    6.8562
   31.080    6.4139
   31.110    6.5719
   31.140    6.0769
   31.170    6.7088
   31.200    6.1190
   31.230    6.6456
   31.260    6.2349
   31.290    6.5824
   31.320    6.3928
   31.350    6.5508
   31.380    6.5087
   31.410    6.6456
   31.440    6.6983
   31.470    6.2138
   31.500    6.5929
   31.530    6.8457
   31.560    6.4244
   31.590    6.5613
   31.620    6.2981
   31.650    6.4982
   31.680    6.3612
   31.710    6.8352
   31.740    6.9510
   31.770    6.8141
   31.800    6.7193
   31.830    6.7299
   31.860    6.6561
   31.890    6.4139
   31.920    6.4666
   31.950    6.7509
   31.980    6.7720
   32.010    6.2033
   32.040    6.5508
   32.070    6.4139
   32.100    6.4350
   32.130    6.2454
   32.160    6.8773
   32.190    6.8141
   32.220    6.3191
   32.250    6.6035
   32.280    6.2454
   32.310    5.9400
   32.340    6.2454
   32.370    6.5087
   32.400    6.4139
   32.430    6.3823
   32.460    6.4560
   32.490    6.3718
   32.520    6.3507
   32.550    6.4666
   32.580    6.3191
   32.610    6.2981
   32.640    6.3718
   32.670    5.8347
   32.700    6.6140
   32.730    6.5613
   32.760    6.6877
   32.790    6.5403
   32.820    6.4244
   32.850    6.3928
   32.880    6.5929
   32.910    6.6140
   32.940    6.1822
   32.970    6.7088
   33.000    6.2349
   33.030    6.0348
   33.060    6.2454
   33.090    6.2559
   33.120    6.5719
   33.150    6.6456
   33.180    6.0558
   33.210    6.0453
   33.240    6.3191
   33.270    6.4982
   33.300    6.6035
   33.330    6.3191
   33.360    6.5403
   33.390    6.6035
   33.420    6.2454
   33.450    6.4455
   33.480    6.4455
   33.510    6.1295
   33.540    6.4771
   33.570    5.9821
   33.600    6.0769
   33.630    6.2454
   33.660    6.3086
   33.690    6.4666
   33.720    6.3612
   33.750    6.1611
   33.780    6.1611
   33.810    6.4139
   33.840    6.4560
   33.870    6.4034
   33.900    6.1717
   33.930    6.3296
   33.960    6.4455
   33.990    6.1927
   34.020    6.9932
   34.050    6.7509
   34.080    6.7088
   34.110    6.0453
   34.140    6.7088
   34.170    5.9189
   34.200    6.3402
   34.230    6.5192
   34.260    6.2770
   34.290    6.4139
   34.320    6.2138
   34.350    6.4455
   34.380    6.0558
   34.410    6.1401
   34.440    6.4666
   34.470    6.2981
   34.500    6.3086
   34.530    6.0558
   34.560    6.3191
   34.590    6.3823
   34.620    5.8662
   34.650    6.3402
   34.680    6.4350
   34.710    6.7930
   34.740    6.1506
   34.770    5.8768
   34.800    6.3612
   34.830    5.7820
   34.860    6.2349
   34.890    6.5298
   34.920    6.3507
   34.950    6.7404
   34.980    6.1927
   35.010    6.6456
   35.040    6.1927
   35.070    5.9610
   35.100    6.1611
   35.130    6.4876
   35.160    6.1611
   35.190    6.3612
   35.220    6.6351
   35.250    6.2981
   35.280    6.1611
   35.310    6.2349
   35.340    6.3086
   35.370    6.6035
   35.400    6.1190
   35.430    6.4139
   35.460    6.0558
   35.490    6.5192
   35.520    6.2138
   35.550    5.8347
   35.580    6.3507
   35.610    6.2665
   35.640    6.1190
   35.670    6.2349
   35.700    6.2138
   35.730    6.0664
   35.760    6.0032
   35.790    6.2981
   35.820    6.4560
   35.850    6.3402
   35.880    5.9189
   35.910    6.1085
   35.940    6.2138
   35.970    6.2243
   36.000    6.3507
   36.030    6.1717
   36.060    6.4350
   36.090    6.2349
   36.120    5.8452
   36.150    5.8136
   36.180    6.2981
   36.210    5.8662
   36.240    6.2454
   36.270    6.2665
   36.300    5.8241
   36.330    6.3296
   36.360    6.2559
   36.390    5.9294
   36.420    6.0242
   36.450    6.3296
   36.480    6.1822
   36.510    6.4034
   36.540    6.2349
   36.570    6.1611
   36.600    6.0348
   36.630    6.0137
   36.660    6.2349
   36.690    6.0348
   36.720    6.0664
   36.750    6.0453
   36.780    5.9400
   36.810    5.9505
   36.840    6.1506
   36.870    6.0242
   36.900    6.3612
   36.930    5.5503
   36.960    6.1927
   36.990    5.6872
   37.020    5.8031
   37.050    5.6029
   37.080    6.2875
   37.110    6.0769
   37.140    6.4034
   37.170    6.2981
   37.200    6.0242
   37.230    6.2665
   37.260    6.0664
   37.290    6.0453
   37.320    6.0769
   37.350    6.2138
   37.380    6.3823
   37.410    6.4666
   37.440    6.0769
   37.470    5.9189
   37.500    5.9294
   37.530    5.9926
   37.560    6.2665
   37.590    5.9716
   37.620    6.0664
   37.650    5.9189
   37.680    5.9189
   37.710    5.8978
   37.740    5.8557
   37.770    6.2138
   37.800    6.1085
   37.830    6.0874
   37.860    6.1822
   37.890    6.1611
   37.920    6.1506
   37.950    6.3612
   37.980    5.6977
   38.010    5.8452
   38.040    5.9189
   38.070    5.8557
   38.100    5.9400
   38.130    6.0032
   38.160    5.9294
   38.190    6.5719
   38.220    5.7820
   38.250    5.9821
   38.280    6.2243
   38.310    6.0664
   38.340    5.8662
   38.370    5.9716
   38.400    6.0979
   38.430    6.3191
   38.460    5.9926
   38.490    6.4560
   38.520    6.1822
   38.550    5.7399
   38.580    5.9926
   38.610    5.9610
   38.640    6.5613
   38.670    6.1190
   38.700    6.2349
   38.730    5.9926
   38.760    6.2559
   38.790    5.8978
   38.820    5.9400
   38.850    6.0348
   38.880    6.2138
   38.910    6.0874
   38.940    6.0242
   38.970    5.7504
   39.000    5.7293
   39.030    6.4139
   39.060    6.2138
   39.090    5.9189
   39.120    6.1506
   39.150    5.6451
   39.180    6.3823
   39.210    6.0979
   39.240    5.7504
   39.270    6.5192
   39.300    6.1295
   39.330    5.8031
   39.360    6.2349
   39.390    6.0664
   39.420    5.6872
   39.450    6.0979
   39.480    6.1822
   39.510    5.6977
   39.540    5.8978
   39.570    6.1085
   39.600    6.0348
   39.630    6.4244
   39.660    6.0137
   39.690    5.9926
   39.720    6.6245
   39.750    6.3402
   39.780    6.0769
   39.810    5.9294
   39.840    6.5719
   39.870    6.1085
   39.900    5.9926
   39.930    5.8978
   39.960    6.0453
   39.990    5.7188