File: data/MOCOF-1/PXRD/PXRD_KE-132-2_Cu-Ka1_film-3mm_5s-deg.xyd
    1.500   15.3133
    1.530   15.2923
    1.560   14.9026
    1.590   14.5445
    1.620   14.5340
    1.650   13.1543
    1.680   13.3544
    1.710   12.7225
    1.740   12.1538
    1.770   11.7641
    1.800   11.9431
    1.830   11.6798
    1.860   10.8268
    1.890   11.2270
    1.920    9.9842
    1.950   10.1632
    1.980   10.0263
    2.010   10.3318
    2.040   10.3318
    2.070    9.7736
    2.100    9.7420
    2.130    9.2680
    2.160    8.7836
    2.190    9.4787
    2.220    8.6888
    2.250    9.0890
    2.280    8.8152
    2.310    9.0469
    2.340    8.5519
    2.370    8.6993
    2.400    8.4150
    2.430    8.0147
    2.460    8.6151
    2.490    8.1833
    2.520    8.1411
    2.550    8.2570
    2.580    8.3939
    2.610    8.4044
    2.640    8.4992
    2.670    8.4571
    2.700    8.5519
    2.730    8.2675
    2.760    8.8784
    2.790    8.2675
    2.820    8.9100
    2.850    9.2364
    2.880    9.3102
    2.910    9.9105
    2.940    9.6261
    2.970    9.3734
    3.000   10.2580
    3.030   10.6793
    3.060   11.4376
    3.090   12.2591
    3.120   13.0806
    3.150   14.0179
    3.180   14.7341
    3.210   16.5245
    3.240   17.4829
    3.270   19.1785
    3.300   21.2006
    3.330   23.8652
    3.360   27.2249
    3.390   30.0895
    3.420   33.6072
    3.450   35.9663
    3.480   34.3549
    3.510   29.1627
    3.540   23.7177
    3.570   18.6519
    3.600   15.2185
    3.630   13.8915
    3.660   13.4071
    3.690   13.0174
    3.720   13.1227
    3.750   12.4065
    3.780   13.7230
    3.810   13.2175
    3.840   14.0811
    3.870   14.5761
    3.900   14.4602
    3.930   14.9658
    3.960   15.1975
    3.990   15.7557
    4.020   16.6403
    4.050   16.3033
    4.080   16.4718
    4.110   15.9242
    4.140   15.3555
    4.170   15.3449
    4.200   14.9658
    4.230   13.5124
    4.260   12.4381
    4.290   11.7746
    4.320   10.8478
    4.350   10.2791
    4.380    9.1101
    4.410    9.0153
    4.440    8.5097
    4.470    8.0990
    4.500    7.6883
    4.530    7.2038
    4.560    6.6140
    4.590    7.1933
    4.620    6.5613
    4.650    7.0985
    4.680    6.3612
    4.710    6.4244
    4.740    6.6245
    4.770    6.4876
    4.800    6.5719
    4.830    6.5403
    4.860    6.3928
    4.890    6.0979
    4.920    6.2559
    4.950    6.3928
    4.980    6.5192
    5.010    6.5824
    5.040    6.3612
    5.070    6.3823
    5.100    6.6877
    5.130    6.6035
    5.160    6.4560
    5.190    6.8246
    5.220    6.5929
    5.250    7.2038
    5.280    7.0248
    5.310    7.3407
    5.340    7.0248
    5.370    6.9405
    5.400    6.9510
    5.430    7.1933
    5.460    7.5197
    5.490    7.0879
    5.520    7.5303
    5.550    7.2775
    5.580    7.8673
    5.610    7.3512
    5.640    7.2459
    5.670    7.2775
    5.700    7.3091
    5.730    6.7088
    5.760    6.7193
    5.790    6.5192
    5.820    6.6140
    5.850    6.2665
    5.880    6.6983
    5.910    6.3191
    5.940    5.9716
    5.970    5.9505
    6.000    5.9505
    6.030    5.9716
    6.060    5.8452
    6.090    5.6556
    6.120    5.7188
    6.150    5.5503
    6.180    5.4871
    6.210    5.4134
    6.240    5.2870
    6.270    5.2975
    6.300    5.4134
    6.330    5.6345
    6.360    5.4239
    6.390    5.4660
    6.420    5.3081
    6.450    5.1711
    6.480    5.3186
    6.510    5.0974
    6.540    5.4239
    6.570    5.3818
    6.600    5.3607
    6.630    5.1817
    6.660    5.4450
    6.690    5.5398
    6.720    5.6661
    6.750    5.3923
    6.780    5.9189
    6.810    5.6240
    6.840    6.2243
    6.870    6.2559
    6.900    7.3091
    6.930    7.6777
    6.960    7.4671
    6.990    7.3196
    7.020    7.0669
    7.050    5.8241
    7.080    5.7083
    7.110    5.5819
    7.140    4.8763
    7.170    5.1080
    7.200    4.6972
    7.230    4.8552
    7.260    4.5919
    7.290    4.4339
    7.320    4.5603
    7.350    4.5498
    7.380    4.5287
    7.410    4.4760
    7.440    4.6235
    7.470    4.5814
    7.500    4.4444
    7.530    4.2970
    7.560    4.2549
    7.590    4.2233
    7.620    4.4023
    7.650    4.4655
    7.680    4.3707
    7.710    4.0758
    7.740    4.2233
    7.770    4.0864
    7.800    4.1285
    7.830    4.2338
    7.860    4.2127
    7.890    4.1285
    7.920    4.3181
    7.950    4.4444
    7.980    4.5814
    8.010    4.4444
    8.040    4.4234
    8.070    4.3497
    8.100    4.5708
    8.130    4.4760
    8.160    4.5392
    8.190    4.3918
    8.220    4.3181
    8.250    4.6340
    8.280    4.2233
    8.310    4.4234
    8.340    4.2865
    8.370    4.1811
    8.400    4.3602
    8.430    4.5708
    8.460    4.3391
    8.490    4.1917
    8.520    4.3286
    8.550    4.4023
    8.580    4.3286
    8.610    4.1285
    8.640    4.1180
    8.670    4.1917
    8.700    3.8968
    8.730    3.8652
    8.760    3.7493
    8.790    3.6124
    8.820    3.5914
    8.850    3.8968
    8.880    3.9389
    8.910    3.8652
    8.940    3.5387
    8.970    3.3807
    9.000    3.3491
    9.030    3.8336
    9.060    3.5282
    9.090    3.6335
    9.120    3.5598
    9.150    3.6967
    9.180    3.3491
    9.210    3.4755
    9.240    3.4966
    9.270    3.2965
    9.300    3.1280
    9.330    3.6230
    9.360    3.4123
    9.390    3.4650
    9.420    3.4755
    9.450    3.3491
    9.480    3.8968
    9.510    3.4334
    9.540    3.3281
    9.570    3.5492
    9.600    3.2227
    9.630    3.0121
    9.660    3.1490
    9.690    3.3070
    9.720    3.2859
    9.750    3.3597
    9.780    3.4544
    9.810    3.3913
    9.840    3.2754
    9.870    3.4755
    9.900    3.3807
    9.930    3.6124
    9.960    3.5492
    9.990    3.3491
   10.020    3.5598
   10.050    3.4018
   10.080    3.1912
   10.110    3.5703
   10.140    3.5703
   10.170    3.5598
   10.200    3.3491
   10.230    3.2438
   10.260    3.7177
   10.290    3.4334
   10.320    3.2543
   10.350    3.6124
   10.380    3.8020
   10.410    3.3070
   10.440    3.6651
   10.470    3.6651
   10.500    3.4544
   10.530    3.3807
   10.560    3.6124
   10.590    3.3386
   10.620    3.4966
   10.650    3.5387
   10.680    3.4650
   10.710    3.7177
   10.740    3.5598
   10.770    4.0232
   10.800    3.4229
   10.830    3.7283
   10.860    3.5282
   10.890    3.5703
   10.920    3.5808
   10.950    3.4650
   10.980    3.5282
   11.010    3.4755
   11.040    3.3281
   11.070    3.5808
   11.100    3.5703
   11.130    3.7493
   11.160    3.6967
   11.190    3.5387
   11.220    3.5703
   11.250    3.2754
   11.280    3.5387
   11.310    3.6124
   11.340    3.5387
   11.370    3.5387
   11.400    3.2965
   11.430    3.5598
   11.460    3.6335
   11.490    3.4018
   11.520    3.4966
   11.550    3.4334
   11.580    3.5176
   11.610    3.8652
   11.640    3.7388
   11.670    3.3702
   11.700    3.2754
   11.730    3.4439
   11.760    3.5387
   11.790    3.6862
   11.820    3.4755
   11.850    3.5703
   11.880    3.5071
   11.910    3.4439
   11.940    3.2965
   11.970    3.6862
   12.000    3.7493
   12.030    3.3386
   12.060    3.5282
   12.090    3.3175
   12.120    3.7283
   12.150    3.3597
   12.180    3.5176
   12.210    3.2965
   12.240    3.5387
   12.270    3.6124
   12.300    3.5914
   12.330    3.6124
   12.360    3.6124
   12.390    3.3913
   12.420    4.0126
   12.450    3.2333
   12.480    3.7915
   12.510    3.6440
   12.540    3.4966
   12.570    3.2965
   12.600    3.8020
   12.630    3.5492
   12.660    3.4650
   12.690    3.6756
   12.720    3.8968
   12.750    3.7809
   12.780    3.4966
   12.810    3.6335
   12.840    3.7493
   12.870    3.6967
   12.900    3.3702
   12.930    3.2017
   12.960    3.6019
   12.990    3.6546
   13.020    3.6124
   13.050    3.7388
   13.080    3.3913
   13.110    3.5176
   13.140    3.6440
   13.170    3.4544
   13.200    3.5387
   13.230    3.3702
   13.260    3.6019
   13.290    3.5703
   13.320    3.3702
   13.350    3.2859
   13.380    3.1912
   13.410    3.4229
   13.440    3.5808
   13.470    3.5071
   13.500    3.3807
   13.530    3.3491
   13.560    3.3807
   13.590    3.3175
   13.620    3.3702
   13.650    3.5598
   13.680    3.3702
   13.710    3.4229
   13.740    3.3070
   13.770    3.1490
   13.800    3.5914
   13.830    3.5282
   13.860    3.7177
   13.890    3.7072
   13.920    3.5282
   13.950    3.5914
   13.980    3.3807
   14.010    3.6019
   14.040    3.7493
   14.070    3.6440
   14.100    3.4229
   14.130    3.8336
   14.160    3.4229
   14.190    3.6230
   14.220    3.7072
   14.250    3.8020
   14.280    3.6019
   14.310    4.0232
   14.340    3.7599
   14.370    3.7915
   14.400    3.7283
   14.430    3.5914
   14.460    3.5176
   14.490    3.7283
   14.520    3.4439
   14.550    3.6546
   14.580    3.6651
   14.610    3.5914
   14.640    3.8757
   14.670    3.5703
   14.700    3.6967
   14.730    3.5071
   14.760    3.4755
   14.790    3.3386
   14.820    3.5598
   14.850    3.6440
   14.880    3.3702
   14.910    3.4334
   14.940    3.1701
   14.970    3.2017
   15.000    3.1280
   15.030    3.4966
   15.060    3.1069
   15.090    3.2543
   15.120    3.3491
   15.150    3.6019
   15.180    3.3281
   15.210    3.3070
   15.240    3.3175
   15.270    3.3807
   15.300    3.3913
   15.330    3.3597
   15.360    3.3070
   15.390    3.4334
   15.420    3.3702
   15.450    3.3597
   15.480    3.4755
   15.510    3.4123
   15.540    3.2859
   15.570    3.3386
   15.600    3.4755
   15.630    3.2017
   15.660    3.4966
   15.690    3.2965
   15.720    3.2227
   15.750    3.3491
   15.780    3.5282
   15.810    3.6230
   15.840    3.6335
   15.870    3.1806
   15.900    3.3281
   15.930    3.3175
   15.960    3.3386
   15.990    3.4439
   16.020    3.2543
   16.050    3.5808
   16.080    3.0121
   16.110    3.2543
   16.140    3.1385
   16.170    3.5071
   16.200    3.1280
   16.230    3.3913
   16.260    3.4544
   16.290    3.4860
   16.320    3.2859
   16.350    3.1596
   16.380    3.5808
   16.410    3.3913
   16.440    3.1490
   16.470    3.3175
   16.500    3.1806
   16.530    3.2649
   16.560    3.3702
   16.590    3.3807
   16.620    3.0858
   16.650    3.0964
   16.680    3.3597
   16.710    3.1701
   16.740    3.2965
   16.770    3.2859
   16.800    3.4966
   16.830    3.2859
   16.860    3.1490
   16.890    3.2438
   16.920    3.1701
   16.950    3.0753
   16.980    3.2859
   17.010    2.9805
   17.040    3.0226
   17.070    3.0753
   17.100    3.2649
   17.130    3.2859
   17.160    3.3491
   17.190    3.2859
   17.220    2.9384
   17.250    3.1490
   17.280    3.2438
   17.310    2.9279
   17.340    3.0542
   17.370    3.2543
   17.400    2.9173
   17.430    2.8752
   17.460    3.2543
   17.490    3.3702
   17.520    3.0332
   17.550    3.2017
   17.580    3.3386
   17.610    3.1596
   17.640    3.3386
   17.670    3.3386
   17.700    3.1174
   17.730    2.9173
   17.760    3.0437
   17.790    3.2754
   17.820    3.2438
   17.850    3.4123
   17.880    3.1490
   17.910    3.1069
   17.940    3.1280
   17.970    3.2017
   18.000    3.1912
   18.030    3.2122
   18.060    3.4334
   18.090    3.1490
   18.120    3.1596
   18.150    3.0964
   18.180    3.0542
   18.210    3.0648
   18.240    3.4544
   18.270    3.3491
   18.300    3.2543
   18.330    3.1490
   18.360    3.2965
   18.390    3.3386
   18.420    3.3807
   18.450    3.3807
   18.480    3.1806
   18.510    3.2333
   18.540    3.6335
   18.570    3.1701
   18.600    2.9595
   18.630    3.1596
   18.660    3.4439
   18.690    3.2017
   18.720    3.1806
   18.750    3.3281
   18.780    3.1280
   18.810    3.3070
   18.840    3.0964
   18.870    2.9279
   18.900    3.0648
   18.930    3.5282
   18.960    3.3491
   18.990    3.5282
   19.020    3.3070
   19.050    3.0542
   19.080    3.3597
   19.110    3.0648
   19.140    3.3807
   19.170    3.1596
   19.200    3.2438
   19.230    3.3913
   19.260    2.8857
   19.290    3.1280
   19.320    3.2333
   19.350    3.2017
   19.380    3.2227
   19.410    3.3386
   19.440    3.3386
   19.470    3.0226
   19.500    3.1069
   19.530    3.0121
   19.560    3.1806
   19.590    3.1385
   19.620    2.7804
   19.650    3.2543
   19.680    3.0542
   19.710    3.0437
   19.740    3.0437
   19.770    3.2543
   19.800    3.1174
   19.830    3.0542
   19.860    3.0648
   19.890    3.1701
   19.920    2.8225
   19.950    3.2122
   19.980    3.4860
   20.010    3.3702
   20.040    2.9700
   20.070    2.8752
   20.100    3.0121
   20.130    2.9805
   20.160    2.8331
   20.190    3.0332
   20.220    3.3807
   20.250    3.2543
   20.280    3.1069
   20.310    3.2438
   20.340    3.0121
   20.370    3.0858
   20.400    2.8015
   20.430    2.6435
   20.460    3.1069
   20.490    2.9910
   20.520    2.9279
   20.550    3.0332
   20.580    3.1174
   20.610    2.9279
   20.640    3.2017
   20.670    3.1490
   20.700    2.9489
   20.730    3.2965
   20.760    2.9805
   20.790    2.8331
   20.820    2.9489
   20.850    3.1280
   20.880    3.0121
   20.910    3.1806
   20.940    2.9910
   20.970    2.9595
   21.000    3.1806
   21.030    2.9595
   21.060    2.8647
   21.090    3.3175
   21.120    3.1806
   21.150    3.0858
   21.180    2.7593
   21.210    3.1385
   21.240    2.8541
   21.270    3.0542
   21.300    2.9489
   21.330    2.8647
   21.360    2.7909
   21.390    3.1490
   21.420    2.9173
   21.450    2.8541
   21.480    2.9279
   21.510    3.0226
   21.540    2.9700
   21.570    3.1490
   21.600    3.0753
   21.630    2.9805
   21.660    3.0753
   21.690    3.0437
   21.720    2.7593
   21.750    2.6119
   21.780    2.6646
   21.810    2.7383
   21.840    3.0016
   21.870    3.2333
   21.900    3.1174
   21.930    2.8436
   21.960    2.9595
   21.990    2.7488
   22.020    2.9173
   22.050    2.8541
   22.080    2.8225
   22.110    3.0332
   22.140    2.7172
   22.170    2.8225
   22.200    2.8015
   22.230    2.9068
   22.260    2.6224
   22.290    2.6224
   22.320    2.7172
   22.350    2.5487
   22.380    2.9068
   22.410    2.7593
   22.440    2.8963
   22.470    2.8331
   22.500    2.6014
   22.530    2.5171
   22.560    2.8120
   22.590    2.5487
   22.620    2.7172
   22.650    3.0437
   22.680    2.5487
   22.710    2.7383
   22.740    2.9173
   22.770    2.6856
   22.800    2.5382
   22.830    2.7278
   22.860    2.9279
   22.890    2.6540
   22.920    2.9384
   22.950    2.7909
   22.980    2.9068
   23.010    2.8963
   23.040    2.8963
   23.070    2.7067
   23.100    2.6540
   23.130    2.9384
   23.160    2.4118
   23.190    2.5382
   23.220    2.5698
   23.250    2.8436
   23.280    2.2433
   23.310    2.8225
   23.340    2.5171
   23.370    2.5276
   23.400    2.8015
   23.430    2.6962
   23.460    2.6435
   23.490    2.6224
   23.520    2.5487
   23.550    2.4855
   23.580    2.6540
   23.610    2.6962
   23.640    2.5382
   23.670    2.6014
   23.700    2.6119
   23.730    2.5276
   23.760    2.6119
   23.790    2.6119
   23.820    2.7383
   23.850    2.4855
   23.880    2.3907
   23.910    2.6435
   23.940    2.4329
   23.970    2.6435
   24.000    2.4645
   24.030    2.6962
   24.060    2.1801
   24.090    2.6962
   24.120    2.3907
   24.150    2.4329
   24.180    2.4329
   24.210    2.5276
   24.240    2.1590
   24.270    2.6751
   24.300    2.5171
   24.330    2.4329
   24.360    2.4013
   24.390    2.6119
   24.420    2.5803
   24.450    2.7383
   24.480    2.2749
   24.510    2.5171
   24.540    2.6224
   24.570    2.3381
   24.600    2.7278
   24.630    2.7804
   24.660    2.4539
   24.690    2.3591
   24.720    2.2854
   24.750    2.4645
   24.780    2.7067
   24.810    2.4961
   24.840    2.4223
   24.870    2.6751
   24.900    2.3275
   24.930    2.3907
   24.960    2.4750
   24.990    2.5276
   25.020    2.5487
   25.050    2.3802
   25.080    2.5171
   25.110    2.4013
   25.140    2.6646
   25.170    2.3381
   25.200    2.2433
   25.230    2.2328
   25.260    2.2854
   25.290    2.5908
   25.320    2.2433
   25.350    2.1485
   25.380    2.4961
   25.410    2.4223
   25.440    2.3907
   25.470    2.4434
   25.500    2.3591
   25.530    2.3381
   25.560    2.2959
   25.590    2.2643
   25.620    2.2433
   25.650    2.3170
   25.680    2.4645
   25.710    2.3591
   25.740    2.4961
   25.770    2.2643
   25.800    2.3275
   25.830    2.2433
   25.860    2.0748
   25.890    2.4329
   25.920    2.4329
   25.950    2.1590
   25.980    2.2538
   26.010    2.1274
   26.040    2.1906
   26.070    2.2433
   26.100    2.1590
   26.130    2.3381
   26.160    2.1906
   26.190    2.4118
   26.220    2.3802
   26.250    2.2749
   26.280    2.2222
   26.310    2.3275
   26.340    2.3907
   26.370    2.2854
   26.400    2.4539
   26.430    1.9800
   26.460    2.0537
   26.490    2.3170
   26.520    2.3591
   26.550    2.3170
   26.580    2.5276
   26.610    2.1906
   26.640    2.1801
   26.670    2.1169
   26.700    2.1696
   26.730    2.1590
   26.760    2.0642
   26.790    2.2328
   26.820    2.2643
   26.850    2.3591
   26.880    2.3381
   26.910    2.1906
   26.940    2.2328
   26.970    2.0326
   27.000    2.1064
   27.030    2.0958
   27.060    2.0221
   27.090    2.0537
   27.120    1.8852
   27.150    2.1590
   27.180    2.2749
   27.210    1.9695
   27.240    2.0432
   27.270    2.1274
   27.300    2.2538
   27.330    2.0537
   27.360    2.2117
   27.390    1.9484
   27.420    1.9168
   27.450    1.8957
   27.480    2.0537
   27.510    2.0537
   27.540    1.9379
   27.570    2.3170
   27.600    2.2749
   27.630    2.1169
   27.660    2.0116
   27.690    1.9484
   27.720    2.1064
   27.750    2.1274
   27.780    2.1169
   27.810    2.0326
   27.840    2.1801
   27.870    2.1064
   27.900    1.9695
   27.930    2.1380
   27.960    2.0011
   27.990    2.1064
   28.020    2.0432
   28.050    2.2643
   28.080    2.0116
   28.110    1.9168
   28.140    1.9589
   28.170    2.0011
   28.200    2.0642
   28.230    2.0958
   28.260    2.1696
   28.290    1.8852
   28.320    2.0432
   28.350    2.1274
   28.380    1.9695
   28.410    1.9484
   28.440    2.1380
   28.470    2.0432
   28.500    2.2117
   28.530    2.1696
   28.560    2.0011
   28.590    1.8536
   28.620    2.0958
   28.650    2.0432
   28.680    2.0958
   28.710    2.0748
   28.740    2.1696
   28.770    2.2959
   28.800    1.7799
   28.830    2.1380
   28.860    1.8009
   28.890    2.0432
   28.920    2.0537
   28.950    1.9800
   28.980    2.1380
   29.010    1.8220
   29.040    2.1274
   29.070    2.1064
   29.100    1.9379
   29.130    2.0432
   29.160    2.1274
   29.190    1.9800
   29.220    2.0326
   29.250    2.0432
   29.280    1.8536
   29.310    1.8852
   29.340    2.0537
   29.370    1.8747
   29.400    1.8641
   29.430    1.7062
   29.460    1.7588
   29.490    1.8957
   29.520    2.0116
   29.550    1.6851
   29.580    1.9695
   29.610    1.9800
   29.640    1.7694
   29.670    1.8747
   29.700    1.6746
   29.730    1.8852
   29.760    1.7694
   29.790    1.7799
   29.820    1.9168
   29.850    1.8325
   29.880    1.7799
   29.910    1.9484
   29.940    1.8747
   29.970    1.7904
   30.000    1.8747
   30.030    1.6535
   30.060    1.7378
   30.090    1.8325
   30.120    1.7904
   30.150    1.9484
   30.180    1.7272
   30.210    1.7483
   30.240    1.8115
   30.270    1.6851
   30.300    1.7272
   30.330    1.6008
   30.360    1.7588
   30.390    1.8220
   30.420    1.7694
   30.450    1.7904
   30.480    1.7904
   30.510    2.0011
   30.540    1.7588
   30.570    1.7062
   30.600    1.7483
   30.630    1.6851
   30.660    1.6430
   30.690    1.6008
   30.720    1.8115
   30.750    1.6851
   30.780    1.7483
   30.810    1.7062
   30.840    1.5798
   30.870    1.7272
   30.900    1.7272
   30.930    1.5166
   30.960    1.8536
   30.990    1.7588
   31.020    1.5377
   31.050    1.6114
   31.080    1.6746
   31.110    1.7167
   31.140    1.7904
   31.170    1.4850
   31.200    1.8431
   31.230    1.5692
   31.260    1.6114
   31.290    1.8115
   31.320    1.7483
   31.350    1.7799
   31.380    1.6430
   31.410    1.6324
   31.440    1.6114
   31.470    1.6851
   31.500    1.5482
   31.530    1.7062
   31.560    1.6535
   31.590    1.8009
   31.620    1.5166
   31.650    1.4113
   31.680    1.4429
   31.710    1.6535
   31.740    1.7694
   31.770    1.5061
   31.800    1.6114
   31.830    1.7062
   31.860    1.6430
   31.890    1.6640
   31.920    1.5377
   31.950    1.8115
   31.980    1.7272
   32.010    1.6430
   32.040    1.7167
   32.070    1.4007
   32.100    1.4007
   32.130    1.7904
   32.160    1.4639
   32.190    1.6640
   32.220    1.3375
   32.250    1.5903
   32.280    1.6219
   32.310    1.3797
   32.340    1.5061
   32.370    1.5482
   32.400    1.4323
   32.430    1.5903
   32.460    1.5798
   32.490    1.5061
   32.520    1.6008
   32.550    1.5798
   32.580    1.5482
   32.610    1.5061
   32.640    1.6114
   32.670    1.6535
   32.700    1.6324
   32.730    1.6746
   32.760    1.5061
   32.790    1.5587
   32.820    1.4323
   32.850    1.6324
   32.880    1.4218
   32.910    1.4323
   32.940    1.5798
   32.970    1.4429
   33.000    1.5166
   33.030    1.4429
   33.060    1.4113
   33.090    1.5377
   33.120    1.4955
   33.150    1.3691
   33.180    1.1690
   33.210    1.4113
   33.240    1.5692
   33.270    1.4639
   33.300    1.5798
   33.330    1.5061
   33.360    1.4534
   33.390    1.4323
   33.420    1.5271
   33.450    1.4007
   33.480    1.4534
   33.510    1.3481
   33.540    1.5482
   33.570    1.4639
   33.600    1.5903
   33.630    1.6008
   33.660    1.7694
   33.690    1.6008
   33.720    1.4007
   33.750    1.6114
   33.780    1.4955
   33.810    1.4323
   33.840    1.4323
   33.870    1.2849
   33.900    1.5903
   33.930    1.3691
   33.960    1.7062
   33.990    1.4007
   34.020    1.4429
   34.050    1.6535
   34.080    1.4113
   34.110    1.2533
   34.140    1.5482
   34.170    1.6114
   34.200    1.4745
   34.230    1.5271
   34.260    1.5482
   34.290    1.4323
   34.320    1.4113
   34.350    1.4218
   34.380    1.5482
   34.410    1.5271
   34.440    1.4113
   34.470    1.4323
   34.500    1.4534
   34.530    1.3060
   34.560    1.2006
   34.590    1.5692
   34.620    1.4955
   34.650    1.4218
   34.680    1.2112
   34.710    1.4955
   34.740    1.4113
   34.770    1.3797
   34.800    1.2954
   34.830    1.4745
   34.860    1.3375
   34.890    1.6430
   34.920    1.4534
   34.950    1.4850
   34.980    1.4007
   35.010    1.2112
   35.040    1.3797
   35.070    1.4534
   35.100    1.4639
   35.130    1.3586
   35.160    1.3691
   35.190    1.4323
   35.220    1.5271
   35.250    1.6430
   35.280    1.4955
   35.310    1.3270
   35.340    1.4639
   35.370    1.3902
   35.400    1.3375
   35.430    1.4534
   35.460    1.4745
   35.490    1.5482
   35.520    1.4323
   35.550    1.4745
   35.580    1.4639
   35.610    1.4745
   35.640    1.2112
   35.670    1.4955
   35.700    1.4007
   35.730    1.4218
   35.760    1.3691
   35.790    1.3902
   35.820    1.3902
   35.850    1.4218
   35.880    1.3691
   35.910    1.4218
   35.940    1.3270
   35.970    1.5377
   36.000    1.3481
   36.030    1.3165
   36.060    1.3375
   36.090    1.3586
   36.120    1.3797
   36.150    1.4007
   36.180    1.3902
   36.210    1.3797
   36.240    1.4745
   36.270    1.4534
   36.300    1.3270
   36.330    1.4113
   36.360    1.3165
   36.390    1.3691
   36.420    1.4007
   36.450    1.2112
   36.480    1.3902
   36.510    1.3797
   36.540    1.5271
   36.570    1.4007
   36.600    1.4429
   36.630    1.5482
   36.660    1.4218
   36.690    1.5166
   36.720    1.4745
   36.750    1.2006
   36.780    1.2428
   36.810    1.1796
   36.840    1.3797
   36.870    1.2744
   36.900    1.1901
   36.930    1.4007
   36.960    1.3060
   36.990    1.3375
   37.020    1.2954
   37.050    1.2217
   37.080    1.4955
   37.110    1.2112
   37.140    1.4218
   37.170    1.4639
   37.200    1.2533
   37.230    1.2217
   37.260    1.4323
   37.290    1.3481
   37.320    1.6114
   37.350    1.3375
   37.380    1.3797
   37.410    1.2849
   37.440    1.4218
   37.470    1.4429
   37.500    1.3060
   37.530    1.2533
   37.560    1.2638
   37.590    1.2533
   37.620    1.4323
   37.650    1.3691
   37.680    1.2954
   37.710    1.4639
   37.740    1.3375
   37.770    1.4113
   37.800    1.4218
   37.830    1.2428
   37.860    1.4534
   37.890    1.2849
   37.920    1.2849
   37.950    1.4429
   37.980    1.3375
   38.010    1.3586
   38.040    1.2112
   38.070    1.2744
   38.100    1.2849
   38.130    1.5166
   38.160    1.2112
   38.190    1.1690
   38.220    1.1585
   38.250    1.4429
   38.280    1.4850
   38.310    1.1796
   38.340    1.4850
   38.370    1.3691
   38.400    1.3165
   38.430    1.1796
   38.460    1.4639
   38.490    1.2744
   38.520    1.0742
   38.550    1.4323
   38.580    1.3691
   38.610    1.2428
   38.640    1.3586
   38.670    1.3691
   38.700    1.3165
   38.730    1.3481
   38.760    1.4639
   38.790    1.3586
   38.820    1.2428
   38.850    1.3797
   38.880    1.3902
   38.910    1.4007
   38.940    1.2006
   38.970    1.4113
   39.000    1.3165
   39.030    1.4218
   39.060    1.2849
   39.090    1.2744
   39.120    1.1480
   39.150    1.2322
   39.180    1.3375
   39.210    1.2533
   39.240    1.2638
   39.270    1.2744
   39.300    1.2006
   39.330    1.4113
   39.360    1.2533
   39.390    1.3060
   39.420    1.1690
   39.450    1.3691
   39.480    1.3060
   39.510    1.3481
   39.540    1.3270
   39.570    1.3165
   39.600    1.0532
   39.630    1.3165
   39.660    1.3375
   39.690    1.2954
   39.720    1.2006
   39.750    1.3902
   39.780    1.3375
   39.810    1.3165
   39.840    1.4639
   39.870    1.2112
   39.900    1.3060
   39.930    1.3165
   39.960    1.2638
   39.990    1.2322