File: data/MOCOF-1/PXRD/PXRD_KE-242-3_Cu-Ka1_capillary-1mm_720s-deg.xyd
    1.500   50.7071
    1.530   49.9952
    1.560   47.5563
    1.590   45.1556
    1.620   42.7199
    1.650   40.8869
    1.680   38.8852
    1.710   37.1656
    1.740   35.4646
    1.770   33.8817
    1.800   32.4323
    1.830   31.2106
    1.860   29.8958
    1.890   28.6835
    1.920   27.6068
    1.950   26.6182
    1.980   25.6487
    2.010   24.7896
    2.040   23.9016
    2.070   23.1400
    2.100   22.3569
    2.130   21.6417
    2.160   20.9696
    2.190   20.3294
    2.220   19.7894
    2.250   19.2322
    2.280   18.7221
    2.310   18.2013
    2.340   17.7667
    2.370   17.3745
    2.400   16.8982
    2.430   16.4769
    2.460   16.1518
    2.490   15.7538
    2.520   15.4486
    2.550   15.1689
    2.580   14.8373
    2.610   14.5408
    2.640   14.3516
    2.670   14.1349
    2.700   13.8749
    2.730   13.6909
    2.760   13.5523
    2.790   13.4011
    2.820   13.2452
    2.850   13.1362
    2.880   13.0688
    2.910   13.0668
    2.940   13.0169
    2.970   13.0876
    3.000   13.1670
    3.030   13.3485
    3.060   13.5628
    3.090   13.8151
    3.120   14.1338
    3.150   14.6308
    3.180   15.1020
    3.210   15.7154
    3.240   16.4780
    3.270   17.3052
    3.300   18.3926
    3.330   19.5709
    3.360   20.9956
    3.390   22.6123
    3.420   24.5477
    3.450   26.7544
    3.480   29.3353
    3.510   32.4433
    3.540   36.0269
    3.570   40.3585
    3.600   45.4364
    3.630   51.7077
    3.660   59.4751
    3.690   69.3624
    3.720   82.0096
    3.750   99.5479
    3.780  125.3353
    3.810  168.3253
    3.840  214.6882
    3.870  194.9626
    3.900  114.4341
    3.930   41.3530
    3.960   20.1405
    3.990   14.8883
    4.020   12.6398
    4.050   11.4538
    4.080   10.7207
    4.110   10.1418
    4.140    9.7069
    4.170    9.4229
    4.200    9.1306
    4.230    8.8424
    4.260    8.6914
    4.290    8.4916
    4.320    8.3260
    4.350    8.2276
    4.380    8.0934
    4.410    8.0262
    4.440    7.8808
    4.470    7.8775
    4.500    7.7264
    4.530    7.7147
    4.560    7.6148
    4.590    7.5712
    4.620    7.5300
    4.650    7.4858
    4.680    7.4768
    4.710    7.4201
    4.740    7.4269
    4.770    7.4035
    4.800    7.4204
    4.830    7.3881
    4.860    7.4375
    4.890    7.4887
    4.920    7.5346
    4.950    7.5796
    4.980    7.7430
    5.010    7.8945
    5.040    8.0724
    5.070    8.3478
    5.100    8.6498
    5.130    9.0456
    5.160    9.4801
    5.190   10.0985
    5.220   10.8894
    5.250   11.8155
    5.280   13.0286
    5.310   14.6289
    5.340   16.8011
    5.370   19.7081
    5.400   24.1828
    5.430   31.5170
    5.460   40.3184
    5.490   39.4022
    5.520   27.0909
    5.550   13.8923
    5.580    8.9908
    5.610    7.8832
    5.640    7.3925
    5.670    7.1704
    5.700    7.0106
    5.730    6.9295
    5.760    6.8540
    5.790    6.8015
    5.820    6.7545
    5.850    6.7052
    5.880    6.6632
    5.910    6.6106
    5.940    6.5996
    5.970    6.5977
    6.000    6.5679
    6.030    6.5826
    6.060    6.5401
    6.090    6.5217
    6.120    6.5009
    6.150    6.4834
    6.180    6.4891
    6.210    6.4547
    6.240    6.4504
    6.270    6.4316
    6.300    6.4601
    6.330    6.4512
    6.360    6.5039
    6.390    6.5032
    6.420    6.5490
    6.450    6.5946
    6.480    6.6424
    6.510    6.7263
    6.540    6.8197
    6.570    7.0008
    6.600    7.2268
    6.630    7.4941
    6.660    7.9978
    6.690    8.8509
    6.720    9.4237
    6.750    8.9513
    6.780    7.7451
    6.810    6.8343
    6.840    6.5959
    6.870    6.5131
    6.900    6.5154
    6.930    6.4470
    6.960    6.4553
    6.990    6.4435
    7.020    6.4429
    7.050    6.4142
    7.080    6.4215
    7.110    6.4274
    7.140    6.4314
    7.170    6.4330
    7.200    6.4486
    7.230    6.4374
    7.260    6.4764
    7.290    6.4674
    7.320    6.4753
    7.350    6.5265
    7.380    6.5961
    7.410    6.5898
    7.440    6.7164
    7.470    6.8276
    7.500    6.9888
    7.530    7.2357
    7.560    7.5391
    7.590    7.9872
    7.620    8.5517
    7.650    9.4060
    7.680   10.6453
    7.710   12.7511
    7.740   16.0009
    7.770   18.5089
    7.800   16.7283
    7.830   11.9079
    7.860    8.2132
    7.890    7.0685
    7.920    6.7792
    7.950    6.6714
    7.980    6.5755
    8.010    6.5163
    8.040    6.5141
    8.070    6.4711
    8.100    6.4987
    8.130    6.4884
    8.160    6.4553
    8.190    6.4560
    8.220    6.4563
    8.250    6.4446
    8.280    6.4873
    8.310    6.4481
    8.340    6.4529
    8.370    6.5050
    8.400    6.4914
    8.430    6.5404
    8.460    6.5692
    8.490    6.6210
    8.520    6.7057
    8.550    6.8440
    8.580    7.0321
    8.610    7.2766
    8.640    7.7605
    8.670    8.5119
    8.700    8.9342
    8.730    8.5409
    8.760    7.5906
    8.790    6.8176
    8.820    6.6060
    8.850    6.5553
    8.880    6.5324
    8.910    6.5281
    8.940    6.5184
    8.970    6.5454
    9.000    6.5340
    9.030    6.5100
    9.060    6.5350
    9.090    6.5514
    9.120    6.5444
    9.150    6.5813
    9.180    6.6138
    9.210    6.6629
    9.240    6.7057
    9.270    6.8911
    9.300    7.0837
    9.330    7.3768
    9.360    7.7691
    9.390    8.4049
    9.420    9.3065
    9.450   10.7298
    9.480   13.2002
    9.510   16.8775
    9.540   19.2011
    9.570   17.0529
    9.600   12.1149
    9.630    8.4033
    9.660    7.2739
    9.690    6.9395
    9.720    6.8005
    9.750    6.7206
    9.780    6.7214
    9.810    6.6556
    9.840    6.6439
    9.870    6.6410
    9.900    6.6056
    9.930    6.6031
    9.960    6.6180
    9.990    6.6240
   10.020    6.6228
   10.050    6.6944
   10.080    6.7199
   10.110    6.8244
   10.140    6.9820
   10.170    7.2238
   10.200    7.6191
   10.230    8.2672
   10.260    9.3291
   10.290   10.6824
   10.320   11.1520
   10.350    9.9420
   10.380    8.1250
   10.410    7.0060
   10.440    6.6818
   10.470    6.5624
   10.500    6.5553
   10.530    6.4804
   10.560    6.4458
   10.590    6.4134
   10.620    6.3457
   10.650    6.3646
   10.680    6.3159
   10.710    6.4102
   10.740    6.4066
   10.770    6.4204
   10.800    6.4526
   10.830    6.5823
   10.860    6.7462
   10.890    7.0240
   10.920    7.4588
   10.950    8.1757
   10.980    9.3454
   11.010   10.8876
   11.040   11.3035
   11.070    9.9345
   11.100    8.0081
   11.130    6.7827
   11.160    6.4075
   11.190    6.2564
   11.220    6.2175
   11.250    6.1696
   11.280    6.1331
   11.310    6.1399
   11.340    6.1109
   11.370    6.1209
   11.400    6.1161
   11.430    6.1725
   11.460    6.1712
   11.490    6.2243
   11.520    6.3485
   11.550    6.5864
   11.580    6.9297
   11.610    7.5200
   11.640    8.5277
   11.670   10.0798
   11.700   11.3255
   11.730   10.8544
   11.760    9.0053
   11.790    7.2129
   11.820    6.3457
   11.850    6.0922
   11.880    5.9986
   11.910    5.9536
   11.940    5.8929
   11.970    5.9091
   12.000    5.8765
   12.030    5.8541
   12.060    5.8384
   12.090    5.8548
   12.120    5.8519
   12.150    5.8724
   12.180    5.8913
   12.210    5.9073
   12.240    6.0283
   12.270    6.1792
   12.300    6.4647
   12.330    6.7517
   12.360    6.7645
   12.390    6.4671
   12.420    6.0745
   12.450    5.8469
   12.480    5.7519
   12.510    5.7327
   12.540    5.7445
   12.570    5.7145
   12.600    5.7266
   12.630    5.7236
   12.660    5.7146
   12.690    5.7049
   12.720    5.7261
   12.750    5.7628
   12.780    5.8936
   12.810    6.0609
   12.840    6.3134
   12.870    6.7715
   12.900    7.5138
   12.930    8.5419
   12.960    8.9742
   12.990    8.2733
   13.020    7.0701
   13.050    6.1698
   13.080    5.8420
   13.110    5.7116
   13.140    5.6677
   13.170    5.6383
   13.200    5.6353
   13.230    5.6474
   13.260    5.6080
   13.290    5.6609
   13.320    5.6404
   13.350    5.6473
   13.380    5.7399
   13.410    5.8782
   13.440    6.0336
   13.470    6.3274
   13.500    6.8021
   13.530    7.1987
   13.560    7.0497
   13.590    6.5126
   13.620    6.0208
   13.650    5.7346
   13.680    5.6608
   13.710    5.6178
   13.740    5.6242
   13.770    5.6072
   13.800    5.6136
   13.830    5.6626
   13.860    5.6538
   13.890    5.6892
   13.920    5.7671
   13.950    5.9068
   13.980    6.0685
   14.010    6.4691
   14.040    7.1895
   14.070    8.0112
   14.100    8.3752
   14.130    7.8069
   14.160    6.8151
   14.190    6.0593
   14.220    5.7489
   14.250    5.6258
   14.280    5.6144
   14.310    5.5935
   14.340    5.5796
   14.370    5.5480
   14.400    5.5353
   14.430    5.5439
   14.460    5.5509
   14.490    5.5322
   14.520    5.5658
   14.550    5.5500
   14.580    5.5610
   14.610    5.5542
   14.640    5.5251
   14.670    5.5376
   14.700    5.5520
   14.730    5.5577
   14.760    5.5606
   14.790    5.5507
   14.820    5.5319
   14.850    5.5765
   14.880    5.5761
   14.910    5.5635
   14.940    5.5847
   14.970    5.6051
   15.000    5.6977
   15.030    5.7690
   15.060    5.9163
   15.090    6.1934
   15.120    6.5771
   15.150    6.8138
   15.180    6.6283
   15.210    6.2634
   15.240    5.8756
   15.270    5.6697
   15.300    5.5838
   15.330    5.5976
   15.360    5.5612
   15.390    5.5753
   15.420    5.5690
   15.450    5.5436
   15.480    5.5625
   15.510    5.5670
   15.540    5.5609
   15.570    5.5437
   15.600    5.5672
   15.630    5.5485
   15.660    5.5806
   15.690    5.5760
   15.720    5.5452
   15.750    5.5774
   15.780    5.5747
   15.810    5.5713
   15.840    5.5961
   15.870    5.5839
   15.900    5.5938
   15.930    5.5868
   15.960    5.6072
   15.990    5.6588
   16.020    5.7065
   16.050    5.8408
   16.080    6.0719
   16.110    6.3492
   16.140    6.5257
   16.170    6.3871
   16.200    6.1163
   16.230    5.8305
   16.260    5.6852
   16.290    5.6415
   16.320    5.6498
   16.350    5.6127
   16.380    5.5919
   16.410    5.6514
   16.440    5.6672
   16.470    5.7484
   16.500    5.8295
   16.530    6.0337
   16.560    6.3719
   16.590    6.7402
   16.620    6.8773
   16.650    6.6394
   16.680    6.2333
   16.710    5.9191
   16.740    5.7494
   16.770    5.7171
   16.800    5.7185
   16.830    5.6895
   16.860    5.7432
   16.890    5.7187
   16.920    5.8343
   16.950    5.9550
   16.980    6.2526
   17.010    6.8009
   17.040    7.4745
   17.070    7.9048
   17.100    7.7202
   17.130    7.0813
   17.160    6.3552
   17.190    5.9713
   17.220    5.7870
   17.250    5.7296
   17.280    5.6683
   17.310    5.6647
   17.340    5.6841
   17.370    5.6940
   17.400    5.7315
   17.430    5.7900
   17.460    5.8739
   17.490    5.9986
   17.520    6.1019
   17.550    6.0759
   17.580    5.9421
   17.610    5.7960
   17.640    5.7072
   17.670    5.7000
   17.700    5.6966
   17.730    5.6774
   17.760    5.7012
   17.790    5.7248
   17.820    5.7202
   17.850    5.7913
   17.880    5.8630
   17.910    6.0298
   17.940    6.1613
   17.970    6.2418
   18.000    6.1469
   18.030    5.9739
   18.060    5.7996
   18.090    5.7604
   18.120    5.7040
   18.150    5.7132
   18.180    5.6759
   18.210    5.7294
   18.240    5.7319
   18.270    5.8101
   18.300    5.9130
   18.330    6.0699
   18.360    6.2598
   18.390    6.3524
   18.420    6.2927
   18.450    6.0783
   18.480    5.8945
   18.510    5.7658
   18.540    5.7473
   18.570    5.7315
   18.600    5.7364
   18.630    5.7343
   18.660    5.7387
   18.690    5.7671
   18.720    5.8379
   18.750    5.9422
   18.780    6.0616
   18.810    6.1241
   18.840    6.1057
   18.870    5.9659
   18.900    5.8215
   18.930    5.7583
   18.960    5.6910
   18.990    5.7148
   19.020    5.7045
   19.050    5.6609
   19.080    5.7148
   19.110    5.6931
   19.140    5.7208
   19.170    5.7639
   19.200    5.7932
   19.230    5.8430
   19.260    5.7900
   19.290    5.7457
   19.320    5.7169
   19.350    5.7255
   19.380    5.7361
   19.410    5.7515
   19.440    5.7633
   19.470    5.7620
   19.500    5.9304
   19.530    6.0722
   19.560    6.3558
   19.590    6.6604
   19.620    6.8438
   19.650    6.7035
   19.680    6.4021
   19.710    6.1023
   19.740    5.8820
   19.770    5.7698
   19.800    5.7459
   19.830    5.7394
   19.860    5.7656
   19.890    5.7535
   19.920    5.8240
   19.950    5.8366
   19.980    5.9078
   20.010    5.8674
   20.040    5.8728
   20.070    5.8509
   20.100    5.8047
   20.130    5.7833
   20.160    5.8214
   20.190    5.8257
   20.220    5.8573
   20.250    5.8967
   20.280    6.0984
   20.310    6.4053
   20.340    6.9247
   20.370    7.4967
   20.400    7.7950
   20.430    7.5815
   20.460    7.0201
   20.490    6.4521
   20.520    6.0473
   20.550    5.8998
   20.580    5.8466
   20.610    5.8170
   20.640    5.8271
   20.670    5.7892
   20.700    5.7954
   20.730    5.7922
   20.760    5.8204
   20.790    5.7938
   20.820    5.8297
   20.850    5.7771
   20.880    5.8208
   20.910    5.7875
   20.940    5.8257
   20.970    5.7666
   21.000    5.7920
   21.030    5.7587
   21.060    5.7710
   21.090    5.7774
   21.120    5.8159
   21.150    5.8093
   21.180    5.7810
   21.210    5.7831
   21.240    5.8039
   21.270    5.7670
   21.300    5.7970
   21.330    5.7897
   21.360    5.8148
   21.390    5.7990
   21.420    5.8220
   21.450    5.7740
   21.480    5.7878
   21.510    5.7807
   21.540    5.8016
   21.570    5.8012
   21.600    5.8031
   21.630    5.8148
   21.660    5.8643
   21.690    5.8513
   21.720    5.8823
   21.750    5.9458
   21.780    6.0381
   21.810    6.1996
   21.840    6.4547
   21.870    6.7061
   21.900    6.6818
   21.930    6.4678
   21.960    6.2226
   21.990    6.0274
   22.020    5.9561
   22.050    5.9027
   22.080    5.9091
   22.110    5.9365
   22.140    5.9782
   22.170    6.0704
   22.200    6.1771
   22.230    6.2387
   22.260    6.2365
   22.290    6.1780
   22.320    6.0620
   22.350    5.9870
   22.380    5.9395
   22.410    5.9836
   22.440    6.0572
   22.470    6.2055
   22.500    6.6005
   22.530    7.1248
   22.560    7.5861
   22.590    7.8399
   22.620    7.6691
   22.650    7.1772
   22.680    6.6402
   22.710    6.2762
   22.740    6.1571
   22.770    6.1312
   22.800    6.2343
   22.830    6.5341
   22.860    7.1322
   22.890    7.8385
   22.920    8.3573
   22.950    8.3855
   22.980    7.9490
   23.010    7.2379
   23.040    6.6032
   23.070    6.2161
   23.100    6.0391
   23.130    6.0235
   23.160    6.0094
   23.190    6.1251
   23.220    6.3267
   23.250    6.4756
   23.280    6.5368
   23.310    6.4584
   23.340    6.2764
   23.370    6.0683
   23.400    5.9299
   23.430    5.8997
   23.460    5.8920
   23.490    5.9098
   23.520    5.9185
   23.550    5.9348
   23.580    5.9693
   23.610    5.9986
   23.640    5.9972
   23.670    5.9254
   23.700    5.8702
   23.730    5.8343
   23.760    5.7899
   23.790    5.8076
   23.820    5.8643
   23.850    6.0027
   23.880    6.1480
   23.910    6.2902
   23.940    6.4230
   23.970    6.3753
   24.000    6.2247
   24.030    6.0372
   24.060    5.8777
   24.090    5.7783
   24.120    5.7308
   24.150    5.7225
   24.180    5.6912
   24.210    5.7465
   24.240    5.7720
   24.270    5.7657
   24.300    5.7792
   24.330    5.7449
   24.360    5.6936
   24.390    5.7123
   24.420    5.6782
   24.450    5.6595
   24.480    5.7143
   24.510    5.7246
   24.540    5.7957
   24.570    5.8179
   24.600    5.8427
   24.630    5.8310
   24.660    5.7788
   24.690    5.7032
   24.720    5.6719
   24.750    5.6367
   24.780    5.6601
   24.810    5.6489
   24.840    5.6881
   24.870    5.7359
   24.900    5.7506
   24.930    5.7404
   24.960    5.7072
   24.990    5.6550
   25.020    5.6328
   25.050    5.6172
   25.080    5.6114
   25.110    5.6389
   25.140    5.6635
   25.170    5.7611
   25.200    5.8245
   25.230    5.8509
   25.260    5.7979
   25.290    5.7341
   25.320    5.6882
   25.350    5.6106
   25.380    5.5910
   25.410    5.6514
   25.440    5.7006
   25.470    5.7737
   25.500    5.8368
   25.530    5.8657
   25.560    5.8288
   25.590    5.7931
   25.620    5.6917
   25.650    5.6397
   25.680    5.6473
   25.710    5.7421
   25.740    5.8272
   25.770    6.1517
   25.800    6.4827
   25.830    6.7692
   25.860    6.8461
   25.890    6.6707
   25.920    6.3391
   25.950    5.9734
   25.980    5.7474
   26.010    5.6069
   26.040    5.6069
   26.070    5.5735
   26.100    5.6494
   26.130    5.6370
   26.160    5.6676
   26.190    5.6341
   26.220    5.5667
   26.250    5.5379
   26.280    5.5301
   26.310    5.5189
   26.340    5.5823
   26.370    5.6525
   26.400    5.7804
   26.430    5.8924
   26.460    5.9555
   26.490    5.8947
   26.520    5.7818
   26.550    5.6599
   26.580    5.5243
   26.610    5.5035
   26.640    5.4744
   26.670    5.4238
   26.700    5.3995
   26.730    5.4263
   26.760    5.3884
   26.790    5.3838
   26.820    5.4150
   26.850    5.4169
   26.880    5.4549
   26.910    5.4808
   26.940    5.6019
   26.970    5.7271
   27.000    5.9107
   27.030    6.0393
   27.060    6.0559
   27.090    5.9740
   27.120    5.8278
   27.150    5.6468
   27.180    5.4862
   27.210    5.4148
   27.240    5.3664
   27.270    5.3786
   27.300    5.3671
   27.330    5.3452
   27.360    5.3604
   27.390    5.3555
   27.420    5.3542
   27.450    5.3380
   27.480    5.3813
   27.510    5.3848
   27.540    5.4777
   27.570    5.5290
   27.600    5.6407
   27.630    5.6528
   27.660    5.6756
   27.690    5.5676
   27.720    5.5166
   27.750    5.3878
   27.780    5.3427
   27.810    5.3934
   27.840    5.4279
   27.870    5.4841
   27.900    5.4681
   27.930    5.5398
   27.960    5.5122
   27.990    5.4312
   28.020    5.4079
   28.050    5.3543
   28.080    5.4393
   28.110    5.5240
   28.140    5.6343
   28.170    5.7888
   28.200    5.8551
   28.230    5.8666
   28.260    5.7803
   28.290    5.6030
   28.320    5.4273
   28.350    5.3996
   28.380    5.4250
   28.410    5.5258
   28.440    5.6335
   28.470    5.6835
   28.500    5.7076
   28.530    5.6621
   28.560    5.5519
   28.590    5.4192
   28.620    5.3016
   28.650    5.2858
   28.680    5.2498
   28.710    5.2409
   28.740    5.2187
   28.770    5.2169
   28.800    5.2433
   28.830    5.2429
   28.860    5.2032
   28.890    5.2043
   28.920    5.2592
   28.950    5.2255
   28.980    5.2995
   29.010    5.3401
   29.040    5.3583
   29.070    5.3728
   29.100    5.2939
   29.130    5.2626
   29.160    5.2510
   29.190    5.2841
   29.220    5.3120
   29.250    5.3964
   29.280    5.5381
   29.310    5.5660
   29.340    5.5819
   29.370    5.5379
   29.400    5.4235
   29.430    5.2760
   29.460    5.1911
   29.490    5.1469
   29.520    5.1211
   29.550    5.1014
   29.580    5.1071
   29.610    5.1246
   29.640    5.1200
   29.670    5.1101
   29.700    5.1099
   29.730    5.1202
   29.760    5.1803
   29.790    5.2474
   29.820    5.2729
   29.850    5.2917
   29.880    5.3059
   29.910    5.2754
   29.940    5.2101
   29.970    5.1502
   30.000    5.1175
   30.030    5.1266
   30.060    5.1344
   30.090    5.1567
   30.120    5.1382
   30.150    5.1447
   30.180    5.1412
   30.210    5.1033
   30.240    5.0600
   30.270    5.0864
   30.300    5.0660
   30.330    5.0968
   30.360    5.0905
   30.390    5.1186
   30.420    5.1254
   30.450    5.0668
   30.480    5.0567
   30.510    5.0513
   30.540    5.0665
   30.570    5.0771
   30.600    5.1339
   30.630    5.1532
   30.660    5.1962
   30.690    5.1776
   30.720    5.1232
   30.750    5.0798
   30.780    5.0223
   30.810    5.0202
   30.840    4.9939
   30.870    5.0007
   30.900    5.0128
   30.930    4.9879
   30.960    4.9915
   30.990    4.9777
   31.020    4.9269
   31.050    4.9299
   31.080    4.9051
   31.110    4.9246
   31.140    4.9404
   31.170    4.9303
   31.200    4.9242
   31.230    4.9050
   31.260    4.9095
   31.290    4.9442
   31.320    4.9684
   31.350    5.0097
   31.380    5.0578
   31.410    5.0753
   31.440    5.1352
   31.470    5.0826
   31.500    5.0472
   31.530    5.0169
   31.560    4.9552
   31.590    4.9647
   31.620    4.9692
   31.650    4.9610
   31.680    4.9693
   31.710    4.9994
   31.740    5.0788
   31.770    5.0430
   31.800    5.0269
   31.830    5.0135
   31.860    4.9980
   31.890    4.9750
   31.920    5.0131
   31.950    4.9778
   31.980    4.9771
   32.010    4.9505
   32.040    4.9295
   32.070    4.8959
   32.100    4.8915
   32.130    4.9048
   32.160    4.9181
   32.190    4.8884
   32.220    4.9006
   32.250    4.8498
   32.280    4.8553
   32.310    4.8375
   32.340    4.8255
   32.370    4.7941
   32.400    4.8517
   32.430    4.8518
   32.460    4.8242
   32.490    4.8439
   32.520    4.8075
   32.550    4.8064
   32.580    4.7783
   32.610    4.8214
   32.640    4.8367
   32.670    4.8221
   32.700    4.8095
   32.730    4.7995
   32.760    4.8007
   32.790    4.7788
   32.820    4.8172
   32.850    4.8349
   32.880    4.8933
   32.910    4.9465
   32.940    4.9347
   32.970    4.9401
   33.000    4.8953
   33.030    4.8394
   33.060    4.7923
   33.090    4.7882
   33.120    4.7633
   33.150    4.7344
   33.180    4.7368
   33.210    4.7396
   33.240    4.7196
   33.270    4.7459
   33.300    4.7276
   33.330    4.7330
   33.360    4.7401
   33.390    4.7338
   33.420    4.7113
   33.450    4.7513
   33.480    4.7093
   33.510    4.7051
   33.540    4.7233
   33.570    4.7155
   33.600    4.7715
   33.630    4.7637
   33.660    4.7774
   33.690    4.7842
   33.720    4.7839
   33.750    4.7539
   33.780    4.8045
   33.810    4.8195
   33.840    4.9123
   33.870    4.9237
   33.900    4.9469
   33.930    4.9898
   33.960    4.9468
   33.990    4.9271
   34.020    4.8741
   34.050    4.7789
   34.080    4.7777
   34.110    4.7638
   34.140    4.7652
   34.170    4.7599
   34.200    4.7537
   34.230    4.7374
   34.260    4.7224
   34.290    4.6668
   34.320    4.7079
   34.350    4.6953
   34.380    4.7253
   34.410    4.6985
   34.440    4.6737
   34.470    4.7050
   34.500    4.6648
   34.530    4.6443
   34.560    4.6644
   34.590    4.6473
   34.620    4.6293
   34.650    4.6645
   34.680    4.6154
   34.710    4.6711
   34.740    4.7035
   34.770    4.6919
   34.800    4.7483
   34.830    4.7909
   34.860    4.8127
   34.890    4.8149
   34.920    4.7671
   34.950    4.7334
   34.980    4.6870
   35.010    4.6290
   35.040    4.6168
   35.070    4.6204
   35.100    4.5935
   35.130    4.5988
   35.160    4.5839
   35.190    4.6203
   35.220    4.5962
   35.250    4.5937
   35.280    4.6301
   35.310    4.6367
   35.340    4.6735
   35.370    4.6196
   35.400    4.5999
   35.430    4.6370
   35.460    4.5868
   35.490    4.5688
   35.520    4.5812
   35.550    4.5776
   35.580    4.5852
   35.610    4.5839
   35.640    4.5836
   35.670    4.6434
   35.700    4.6233
   35.730    4.6575
   35.760    4.6599
   35.790    4.6482
   35.820    4.6470
   35.850    4.6666
   35.880    4.6530
   35.910    4.6480
   35.940    4.6507
   35.970    4.6509
   36.000    4.6429
   36.030    4.6553
   36.060    4.6461
   36.090    4.6558
   36.120    4.6220
   36.150    4.6217
   36.180    4.6398
   36.210    4.6250
   36.240    4.6439
   36.270    4.6316
   36.300    4.6254
   36.330    4.5868
   36.360    4.5866
   36.390    4.5700
   36.420    4.5732
   36.450    4.5463
   36.480    4.5918
   36.510    4.5489
   36.540    4.5799
   36.570    4.5901
   36.600    4.6034
   36.630    4.6148
   36.660    4.6128
   36.690    4.6592
   36.720    4.6356
   36.750    4.6266
   36.780    4.6005
   36.810    4.5748
   36.840    4.5444
   36.870    4.5128
   36.900    4.5289
   36.930    4.5128
   36.960    4.5012
   36.990    4.5375
   37.020    4.5751
   37.050    4.6062
   37.080    4.6654
   37.110    4.7161
   37.140    4.7270
   37.170    4.6920
   37.200    4.6879
   37.230    4.6315
   37.260    4.6275
   37.290    4.5658
   37.320    4.5552
   37.350    4.5288
   37.380    4.5263
   37.410    4.5261
   37.440    4.5104
   37.470    4.5095
   37.500    4.4973
   37.530    4.5484
   37.560    4.5393
   37.590    4.5544
   37.620    4.5731
   37.650    4.5545
   37.680    4.5406
   37.710    4.5643
   37.740    4.5460
   37.770    4.5413
   37.800    4.5659
   37.830    4.5543
   37.860    4.5795
   37.890    4.5533
   37.920    4.5023
   37.950    4.5071
   37.980    4.5493
   38.010    4.5733
   38.040    4.5579
   38.070    4.5557
   38.100    4.5204
   38.130    4.5316
   38.160    4.5057
   38.190    4.4775
   38.220    4.4896
   38.250    4.4885
   38.280    4.4821
   38.310    4.4934
   38.340    4.4976
   38.370    4.5068
   38.400    4.5052
   38.430    4.5089
   38.460    4.5368
   38.490    4.5403
   38.520    4.5075
   38.550    4.5253
   38.580    4.4681
   38.610    4.4553
   38.640    4.4735
   38.670    4.4547
   38.700    4.4365
   38.730    4.4364
   38.760    4.4510
   38.790    4.4703
   38.820    4.4782
   38.850    4.4449
   38.880    4.4663
   38.910    4.4858
   38.940    4.4863
   38.970    4.4836
   39.000    4.4441
   39.030    4.4529
   39.060    4.4589
   39.090    4.4579
   39.120    4.4310
   39.150    4.4836
   39.180    4.5115
   39.210    4.4918
   39.240    4.4878
   39.270    4.5248
   39.300    4.5490
   39.330    4.5383
   39.360    4.5230
   39.390    4.5201
   39.420    4.5055
   39.450    4.4723
   39.480    4.4845
   39.510    4.4807
   39.540    4.4540
   39.570    4.4769
   39.600    4.4634
   39.630    4.4858
   39.660    4.4856
   39.690    4.5292
   39.720    4.4744
   39.750    4.5093
   39.780    4.5016
   39.810    4.5011
   39.840    4.4597
   39.870    4.4914
   39.900    4.4981
   39.930    4.4853
   39.960    4.4670
   39.990    4.4440