File: data/MOCOF-1/PXRD/PXRD_KE-076_Cu-Ka1_capillary-1mm_60s-deg.xyd
    1.500   14.2426
    1.530   14.2672
    1.560   14.2145
    1.590   14.0311
    1.620   14.1294
    1.650   14.1390
    1.680   13.9837
    1.710   14.0671
    1.740   14.1057
    1.770   14.1934
    1.800   14.2970
    1.830   14.2979
    1.860   14.4927
    1.890   14.6551
    1.920   14.7762
    1.950   14.8877
    1.980   15.1141
    2.010   15.2194
    2.040   15.3835
    2.070   15.5801
    2.100   15.9531
    2.130   16.2533
    2.160   16.6570
    2.190   16.7834
    2.220   17.1941
    2.250   17.5619
    2.280   18.0042
    2.310   18.1789
    2.340   18.7923
    2.370   19.2812
    2.400   19.7253
    2.430   20.4915
    2.460   20.9654
    2.490   21.7764
    2.520   22.4293
    2.550   23.2464
    2.580   23.9582
    2.610   24.9096
    2.640   25.9909
    2.670   27.0572
    2.700   27.9331
    2.730   29.2338
    2.760   30.8425
    2.790   31.8878
    2.820   33.5089
    2.850   35.1334
    2.880   37.2345
    2.910   39.1803
    2.940   41.4955
    2.970   43.9872
    3.000   46.5578
    3.030   49.4286
    3.060   52.7918
    3.090   56.2779
    3.120   60.3116
    3.150   65.2299
    3.180   70.6837
    3.210   76.7579
    3.240   83.8432
    3.270   91.9028
    3.300  101.6816
    3.330  113.7432
    3.360  127.9612
    3.390  143.8424
    3.420  157.5303
    3.450  159.4365
    3.480  144.3681
    3.510  116.8527
    3.540   91.8650
    3.570   76.1892
    3.600   68.9161
    3.630   67.0757
    3.660   68.2149
    3.690   71.3586
    3.720   76.4551
    3.750   82.9603
    3.780   89.8973
    3.810   95.4300
    3.840   99.7490
    3.870   98.6115
    3.900   91.2831
    3.930   78.6388
    3.960   64.4023
    3.990   51.0541
    4.020   39.2531
    4.050   30.8654
    4.080   24.7156
    4.110   20.4195
    4.140   17.2503
    4.170   15.0105
    4.200   13.3746
    4.230   12.1371
    4.260   11.0532
    4.290   10.1299
    4.320    9.5384
    4.350    9.1548
    4.380    8.7037
    4.410    8.3175
    4.440    8.1446
    4.470    7.7093
    4.500    7.5943
    4.530    7.3881
    4.560    7.1827
    4.590    7.0888
    4.620    6.9747
    4.650    6.8317
    4.680    6.6877
    4.710    6.6131
    4.740    6.5903
    4.770    6.4437
    4.800    6.4639
    4.830    6.3946
    4.860    6.3700
    4.890    6.4236
    4.920    6.4183
    4.950    6.3305
    4.980    6.4288
    5.010    6.2761
    5.040    6.4964
    5.070    6.4867
    5.100    6.4200
    5.130    6.5166
    5.160    6.4973
    5.190    6.5543
    5.220    6.5324
    5.250    6.4095
    5.280    6.4613
    5.310    6.3533
    5.340    6.2261
    5.370    6.2217
    5.400    5.9909
    5.430    6.0585
    5.460    5.8882
    5.490    5.9417
    5.520    5.7943
    5.550    5.7811
    5.580    5.8004
    5.610    5.7293
    5.640    5.7688
    5.670    5.6135
    5.700    5.6179
    5.730    5.7223
    5.760    5.5854
    5.790    5.4783
    5.820    5.6837
    5.850    5.6512
    5.880    5.7355
    5.910    5.5915
    5.940    5.6732
    5.970    5.5994
    6.000    5.7364
    6.030    5.7671
    6.060    5.8636
    6.090    5.7741
    6.120    5.8970
    6.150    5.9681
    6.180    6.0927
    6.210    6.0848
    6.240    6.1032
    6.270    6.2471
    6.300    6.3472
    6.330    6.6974
    6.360    6.9115
    6.390    6.9265
    6.420    7.2766
    6.450    7.4355
    6.480    7.7181
    6.510    8.2377
    6.540    8.6115
    6.570    8.9415
    6.600    9.4708
    6.630   10.4081
    6.660   10.9136
    6.690   11.9826
    6.720   12.8910
    6.750   14.4014
    6.780   16.0541
    6.810   18.0762
    6.840   20.2414
    6.870   23.3017
    6.900   25.7214
    6.930   27.2152
    6.960   26.2015
    6.990   22.7883
    7.020   17.9366
    7.050   13.9521
    7.080   11.1445
    7.110    9.7244
    7.140    8.7529
    7.170    8.2780
    7.200    7.8980
    7.230    7.8559
    7.260    7.8050
    7.290    8.0095
    7.320    8.0174
    7.350    8.3553
    7.380    8.4588
    7.410    9.0153
    7.440    9.3119
    7.470    9.8701
    7.500   10.7065
    7.530   11.4025
    7.560   12.2371
    7.590   13.4360
    7.620   14.5673
    7.650   16.0576
    7.680   17.4074
    7.710   18.8985
    7.740   19.9816
    7.770   20.9198
    7.800   20.9663
    7.830   20.3625
    7.860   18.9082
    7.890   17.3591
    7.920   15.5705
    7.950   13.5826
    7.980   12.1266
    8.010   10.7600
    8.040    9.6261
    8.070    8.7915
    8.100    7.9910
    8.130    7.5092
    8.160    7.1230
    8.190    6.9449
    8.220    6.4929
    8.250    6.3375
    8.280    6.1980
    8.310    5.9593
    8.340    5.9751
    8.370    5.9338
    8.400    5.8276
    8.430    5.7232
    8.460    5.6117
    8.490    5.5073
    8.520    5.4169
    8.550    5.3555
    8.580    5.3800
    8.610    5.3107
    8.640    5.2598
    8.670    5.2572
    8.700    5.1431
    8.730    5.1501
    8.760    5.1352
    8.790    5.0412
    8.820    5.1027
    8.850    5.1641
    8.880    5.0079
    8.910    5.0553
    8.940    4.9421
    8.970    5.0395
    9.000    4.9842
    9.030    5.0386
    9.060    4.9754
    9.090    4.8526
    9.120    5.0035
    9.150    4.8403
    9.180    4.9561
    9.210    4.9017
    9.240    4.9596
    9.270    4.8666
    9.300    4.8403
    9.330    4.9087
    9.360    4.9324
    9.390    5.0088
    9.420    4.9289
    9.450    4.8596
    9.480    4.7815
    9.510    4.8815
    9.540    4.8227
    9.570    4.7981
    9.600    4.9386
    9.630    4.8938
    9.660    4.8771
    9.690    4.9087
    9.720    4.8060
    9.750    4.8236
    9.780    4.7920
    9.810    4.8306
    9.840    4.8780
    9.870    4.8438
    9.900    4.8771
    9.930    4.8315
    9.960    4.8605
    9.990    4.8297
   10.020    4.9509
   10.050    4.8640
   10.080    4.8885
   10.110    5.0097
   10.140    4.9184
   10.170    4.9210
   10.200    4.9482
   10.230    5.0255
   10.260    5.0105
   10.290    5.2001
   10.320    5.2124
   10.350    5.2264
   10.380    5.3879
   10.410    5.4353
   10.440    5.4836
   10.470    5.4687
   10.500    5.2765
   10.530    5.0641
   10.560    5.1018
   10.590    5.0097
   10.620    5.0386
   10.650    4.8745
   10.680    4.9763
   10.710    4.9368
   10.740    4.7507
   10.770    4.8850
   10.800    5.0342
   10.830    4.8912
   10.860    4.9017
   10.890    5.0070
   10.920    4.9061
   10.950    4.9860
   10.980    5.0342
   11.010    5.0334
   11.040    4.9008
   11.070    4.9877
   11.100    5.0518
   11.130    5.0799
   11.160    5.0676
   11.190    5.1843
   11.220    5.1483
   11.250    5.1799
   11.280    5.2361
   11.310    5.3168
   11.340    5.3546
   11.370    5.4125
   11.400    5.5082
   11.430    5.5608
   11.460    5.5819
   11.490    5.7934
   11.520    5.8074
   11.550    5.9180
   11.580    6.1339
   11.610    6.2823
   11.640    6.4394
   11.670    6.5561
   11.700    6.6052
   11.730    6.6474
   11.760    6.5815
   11.790    6.5192
   11.820    6.4244
   11.850    6.3963
   11.880    6.1778
   11.910    6.0409
   11.940    5.9294
   11.970    5.7443
   12.000    5.5591
   12.030    5.6249
   12.060    5.4125
   12.090    5.4766
   12.120    5.3765
   12.150    5.2282
   12.180    5.3116
   12.210    5.3309
   12.240    5.3019
   12.270    5.1975
   12.300    5.2765
   12.330    5.1343
   12.360    5.1290
   12.390    5.1597
   12.420    5.1983
   12.450    5.1466
   12.480    5.2598
   12.510    5.1352
   12.540    5.1843
   12.570    5.0992
   12.600    5.2422
   12.630    5.0676
   12.660    5.1764
   12.690    5.2835
   12.720    5.2080
   12.750    5.2229
   12.780    5.2299
   12.810    5.2589
   12.840    5.3045
   12.870    5.2326
   12.900    5.3695
   12.930    5.3344
   12.960    5.3449
   12.990    5.3423
   13.020    5.3835
   13.050    5.3467
   13.080    5.3002
   13.110    5.4344
   13.140    5.3563
   13.170    5.4520
   13.200    5.4695
   13.230    5.3414
   13.260    5.3730
   13.290    5.4581
   13.320    5.3361
   13.350    5.2791
   13.380    5.3344
   13.410    5.2361
   13.440    5.2808
   13.470    5.1290
   13.500    5.0307
   13.530    5.1676
   13.560    5.1720
   13.590    5.1334
   13.620    5.1080
   13.650    5.0369
   13.680    5.1237
   13.710    5.0799
   13.740    4.9509
   13.770    5.0061
   13.800    5.0105
   13.830    5.0026
   13.860    4.8763
   13.890    4.9833
   13.920    4.9438
   13.950    4.9412
   13.980    4.9315
   14.010    4.9702
   14.040    4.8929
   14.070    4.9930
   14.100    4.9438
   14.130    4.9465
   14.160    4.8569
   14.190    4.9588
   14.220    4.8929
   14.250    4.9105
   14.280    4.8306
   14.310    4.9210
   14.340    4.9096
   14.370    4.8043
   14.400    5.0079
   14.430    4.8956
   14.460    4.8780
   14.490    4.9017
   14.520    4.9280
   14.550    4.9675
   14.580    4.8789
   14.610    4.8929
   14.640    4.9974
   14.670    4.9921
   14.700    4.9965
   14.730    4.9816
   14.760    5.0061
   14.790    4.9596
   14.820    5.0202
   14.850    4.9789
   14.880    4.9728
   14.910    5.0360
   14.940    4.9824
   14.970    5.1246
   15.000    5.0790
   15.030    5.1562
   15.060    5.1352
   15.090    5.2580
   15.120    5.1395
   15.150    5.1431
   15.180    5.2817
   15.210    5.3326
   15.240    5.2651
   15.270    5.2466
   15.300    5.2019
   15.330    5.2519
   15.360    5.2370
   15.390    5.2791
   15.420    5.2124
   15.450    5.4020
   15.480    5.3730
   15.510    5.4081
   15.540    5.3423
   15.570    5.3967
   15.600    5.3660
   15.630    5.3993
   15.660    5.3528
   15.690    5.3765
   15.720    5.3519
   15.750    5.3633
   15.780    5.3318
   15.810    5.1457
   15.840    5.2624
   15.870    5.1861
   15.900    5.1887
   15.930    5.1896
   15.960    5.0895
   15.990    5.0281
   16.020    4.9465
   16.050    5.0149
   16.080    4.9807
   16.110    4.9570
   16.140    5.0474
   16.170    4.9140
   16.200    4.8956
   16.230    4.8806
   16.260    4.8368
   16.290    4.9096
   16.320    4.8806
   16.350    4.8640
   16.380    4.8201
   16.410    4.8271
   16.440    4.7665
   16.470    4.7885
   16.500    4.7885
   16.530    4.7806
   16.560    4.8894
   16.590    4.7569
   16.620    4.8078
   16.650    4.8508
   16.680    4.7534
   16.710    4.8262
   16.740    4.8148
   16.770    4.7841
   16.800    4.7955
   16.830    4.7859
   16.860    4.8999
   16.890    4.8745
   16.920    4.9517
   16.950    4.8841
   16.980    4.7604
   17.010    4.7973
   17.040    4.8964
   17.070    4.9447
   17.100    4.9842
   17.130    4.8166
   17.160    4.9789
   17.190    4.9087
   17.220    4.9096
   17.250    4.9368
   17.280    4.9939
   17.310    5.0334
   17.340    5.0500
   17.370    5.1264
   17.400    5.2045
   17.430    5.1659
   17.460    5.2993
   17.490    5.3291
   17.520    5.2931
   17.550    5.2045
   17.580    5.2589
   17.610    5.2923
   17.640    5.1694
   17.670    5.2291
   17.700    5.2080
   17.730    5.2062
   17.760    5.1992
   17.790    5.1782
   17.820    5.2457
   17.850    5.2256
   17.880    5.3256
   17.910    5.2598
   17.940    5.1580
   17.970    5.1264
   18.000    5.2001
   18.030    5.1299
   18.060    5.2730
   18.090    5.3019
   18.120    5.1992
   18.150    5.1036
   18.180    5.2168
   18.210    5.1992
   18.240    5.1290
   18.270    5.1053
   18.300    5.0904
   18.330    5.1808
   18.360    5.0544
   18.390    5.0957
   18.420    5.0878
   18.450    5.0948
   18.480    5.1246
   18.510    5.0000
   18.540    5.0518
   18.570    4.9631
   18.600    5.0140
   18.630    4.9816
   18.660    5.1527
   18.690    5.1176
   18.720    4.9974
   18.750    5.0448
   18.780    4.9763
   18.810    5.0685
   18.840    5.0448
   18.870    4.9860
   18.900    5.0465
   18.930    5.0527
   18.960    5.0588
   18.990    5.0755
   19.020    5.1036
   19.050    5.1018
   19.080    5.1281
   19.110    4.9868
   19.140    5.1957
   19.170    5.2001
   19.200    5.1527
   19.230    5.2124
   19.260    5.1255
   19.290    5.0992
   19.320    5.1869
   19.350    5.2256
   19.380    5.2826
   19.410    5.2738
   19.440    5.2124
   19.470    5.4222
   19.500    5.2536
   19.530    5.3888
   19.560    5.4204
   19.590    5.4248
   19.620    5.4608
   19.650    5.5222
   19.680    5.5020
   19.710    5.5292
   19.740    5.5082
   19.770    5.6302
   19.800    5.6468
   19.830    5.6003
   19.860    5.7469
   19.890    5.7688
   19.920    5.7302
   19.950    5.7091
   19.980    5.7328
   20.010    5.7785
   20.040    5.7302
   20.070    5.7925
   20.100    5.9031
   20.130    5.7074
   20.160    5.8153
   20.190    5.9716
   20.220    5.9426
   20.250    5.8478
   20.280    5.9014
   20.310    5.9839
   20.340    5.8548
   20.370    5.9145
   20.400    5.7846
   20.430    5.7460
   20.460    5.8724
   20.490    5.8522
   20.520    5.8399
   20.550    5.8285
   20.580    5.7916
   20.610    5.7644
   20.640    5.9022
   20.670    5.8513
   20.700    5.8013
   20.730    5.8224
   20.760    5.8513
   20.790    5.9935
   20.820    5.8478
   20.850    5.9768
   20.880    5.9487
   20.910    6.1603
   20.940    6.2050
   20.970    6.2726
   21.000    6.2498
   21.030    6.2217
   21.060    6.3095
   21.090    6.1497
   21.120    6.1910
   21.150    6.0497
   21.180    6.0277
   21.210    6.0277
   21.240    6.0225
   21.270    6.0181
   21.300    5.9180
   21.330    5.9768
   21.360    5.9365
   21.390    5.8917
   21.420    5.9303
   21.450    5.8987
   21.480    5.8645
   21.510    5.9005
   21.540    5.8048
   21.570    5.7056
   21.600    5.7969
   21.630    5.8110
   21.660    5.7522
   21.690    5.6354
   21.720    5.8285
   21.750    5.7548
   21.780    5.7539
   21.810    5.7952
   21.840    5.8215
   21.870    5.7934
   21.900    5.7644
   21.930    5.8346
   21.960    5.9672
   21.990    5.7952
   22.020    5.9514
   22.050    5.9242
   22.080    5.7811
   22.110    5.9426
   22.140    6.0944
   22.170    6.0567
   22.200    6.0435
   22.230    6.0312
   22.260    6.0751
   22.290    6.0681
   22.320    6.1383
   22.350    6.1673
   22.380    6.1094
   22.410    6.2006
   22.440    6.1348
   22.470    6.2085
   22.500    6.3086
   22.530    6.1962
   22.560    6.3121
   22.590    6.2691
   22.620    6.3217
   22.650    6.3077
   22.680    6.2919
   22.710    6.3217
   22.740    6.4034
   22.770    6.2507
   22.800    6.1769
   22.830    6.2375
   22.860    6.3209
   22.890    6.1462
   22.920    6.0646
   22.950    6.0699
   22.980    6.1690
   23.010    5.9277
   23.040    5.9233
   23.070    5.9145
   23.100    5.8522
   23.130    5.8153
   23.160    5.7627
   23.190    5.8066
   23.220    5.6767
   23.250    5.6354
   23.280    5.6319
   23.310    5.5477
   23.340    5.5670
   23.370    5.5301
   23.400    5.5608
   23.430    5.4968
   23.460    5.4599
   23.490    5.4818
   23.520    5.5231
   23.550    5.4836
   23.580    5.4274
   23.610    5.4862
   23.640    5.3739
   23.670    5.3607
   23.700    5.5371
   23.730    5.4669
   23.760    5.4107
   23.790    5.4537
   23.820    5.3906
   23.850    5.5696
   23.880    5.4915
   23.910    5.5082
   23.940    5.4283
   23.970    5.5248
   24.000    5.4801
   24.030    5.3923
   24.060    5.4283
   24.090    5.5213
   24.120    5.4634
   24.150    5.4432
   24.180    5.4151
   24.210    5.4134
   24.240    5.4099
   24.270    5.5187
   24.300    5.6890
   24.330    5.4353
   24.360    5.5828
   24.390    5.6468
   24.420    5.5898
   24.450    5.5556
   24.480    5.6512
   24.510    5.6679
   24.540    5.7486
   24.570    5.7864
   24.600    5.6828
   24.630    5.6828
   24.660    5.7504
   24.690    5.6881
   24.720    5.5696
   24.750    5.5213
   24.780    5.4213
   24.810    5.5433
   24.840    5.4766
   24.870    5.3923
   24.900    5.4520
   24.930    5.3440
   24.960    5.3809
   24.990    5.3397
   25.020    5.3976
   25.050    5.3151
   25.080    5.3124
   25.110    5.2975
   25.140    5.2449
   25.170    5.3239
   25.200    5.1536
   25.230    5.1422
   25.260    5.0395
   25.290    5.2071
   25.320    5.0930
   25.350    5.0869
   25.380    5.1220
   25.410    5.0360
   25.440    5.0562
   25.470    5.0140
   25.500    4.9956
   25.530    4.9491
   25.560    5.0807
   25.590    4.9991
   25.620    5.0097
   25.650    5.0579
   25.680    4.9623
   25.710    5.0377
   25.740    4.9482
   25.770    4.9438
   25.800    4.9710
   25.830    4.9447
   25.860    4.8973
   25.890    4.9386
   25.920    4.9236
   25.950    4.9289
   25.980    4.9517
   26.010    4.9061
   26.040    4.9833
   26.070    4.8991
   26.100    4.9342
   26.130    5.0088
   26.160    4.9315
   26.190    5.0290
   26.220    4.9447
   26.250    4.9754
   26.280    5.0281
   26.310    4.9631
   26.340    5.0228
   26.370    4.9860
   26.400    4.9982
   26.430    4.9719
   26.460    4.9324
   26.490    5.0325
   26.520    4.9491
   26.550    4.8929
   26.580    4.9272
   26.610    4.9307
   26.640    4.8885
   26.670    4.9623
   26.700    4.9886
   26.730    4.8964
   26.760    4.9131
   26.790    4.9588
   26.820    4.8455
   26.850    4.9122
   26.880    4.8640
   26.910    4.8798
   26.940    4.8271
   26.970    4.8245
   27.000    4.9175
   27.030    4.8850
   27.060    4.8210
   27.090    4.7859
   27.120    4.7595
   27.150    4.7999
   27.180    4.8754
   27.210    4.8473
   27.240    4.8771
   27.270    4.8710
   27.300    4.9035
   27.330    4.9114
   27.360    4.8455
   27.390    4.8192
   27.420    4.9184
   27.450    4.8622
   27.480    4.9149
   27.510    4.8543
   27.540    4.8517
   27.570    4.8894
   27.600    4.7622
   27.630    4.8350
   27.660    4.8201
   27.690    4.7859
   27.720    4.8218
   27.750    4.7534
   27.780    4.7437
   27.810    4.6507
   27.840    4.7753
   27.870    4.6489
   27.900    4.6919
   27.930    4.7525
   27.960    4.7516
   27.990    4.8017
   28.020    4.8464
   28.050    4.7990
   28.080    4.8350
   28.110    4.9745
   28.140    4.8815
   28.170    4.9280
   28.200    4.8973
   28.230    4.7806
   28.260    4.7648
   28.290    4.8754
   28.320    4.7411
   28.350    4.7218
   28.380    4.7077
   28.410    4.6305
   28.440    4.6551
   28.470    4.6270
   28.500    4.5910
   28.530    4.6481
   28.560    4.6524
   28.590    4.6612
   28.620    4.6911
   28.650    4.5489
   28.680    4.6086
   28.710    4.5857
   28.740    4.6147
   28.770    4.5296
   28.800    4.5620
   28.830    4.6103
   28.860    4.4910
   28.890    4.6498
   28.920    4.5348
   28.950    4.6323
   28.980    4.5910
   29.010    4.5647
   29.040    4.5910
   29.070    4.6226
   29.100    4.6691
   29.130    4.5682
   29.160    4.5989
   29.190    4.5542
   29.220    4.5032
   29.250    4.5840
   29.280    4.5884
   29.310    4.7323
   29.340    4.6639
   29.370    4.5182
   29.400    4.6138
   29.430    4.5234
   29.460    4.4918
   29.490    4.5261
   29.520    4.5980
   29.550    4.5243
   29.580    4.5331
   29.610    4.5568
   29.640    4.4778
   29.670    4.4480
   29.700    4.5524
   29.730    4.3865
   29.760    4.4857
   29.790    4.4190
   29.820    4.4997
   29.850    4.4796
   29.880    4.4690
   29.910    4.4585
   29.940    4.3900
   29.970    4.4831
   30.000    4.4488
   30.030    4.3181
   30.060    4.4243
   30.090    4.5375
   30.120    4.4392
   30.150    4.3909
   30.180    4.4058
   30.210    4.4734
   30.240    4.3576
   30.270    4.4681
   30.300    4.4190
   30.330    4.3716
   30.360    4.4269
   30.390    4.4093
   30.420    4.3979
   30.450    4.3777
   30.480    4.3663
   30.510    4.5103
   30.540    4.5182
   30.570    4.3839
   30.600    4.3426
   30.630    4.3382
   30.660    4.3865
   30.690    4.3435
   30.720    4.3330
   30.750    4.3558
   30.780    4.3593
   30.810    4.4734
   30.840    4.3540
   30.870    4.3356
   30.900    4.3312
   30.930    4.2593
   30.960    4.3312
   30.990    4.3049
   31.020    4.2742
   31.050    4.3935
   31.080    4.3260
   31.110    4.3321
   31.140    4.3997
   31.170    4.2680
   31.200    4.3646
   31.230    4.2645
   31.260    4.2830
   31.290    4.3470
   31.320    4.3189
   31.350    4.2830
   31.380    4.2557
   31.410    4.2873
   31.440    4.3225
   31.470    4.3874
   31.500    4.3716
   31.530    4.3277
   31.560    4.3576
   31.590    4.3295
   31.620    4.4067
   31.650    4.4330
   31.680    4.3225
   31.710    4.4260
   31.740    4.3795
   31.770    4.4278
   31.800    4.3672
   31.830    4.3830
   31.860    4.3251
   31.890    4.3128
   31.920    4.2803
   31.950    4.2909
   31.980    4.3330
   32.010    4.2865
   32.040    4.3365
   32.070    4.3049
   32.100    4.4049
   32.130    4.2075
   32.160    4.3514
   32.190    4.2830
   32.220    4.2259
   32.250    4.2786
   32.280    4.2566
   32.310    4.2742
   32.340    4.2952
   32.370    4.2189
   32.400    4.3198
   32.430    4.2154
   32.460    4.2215
   32.490    4.1715
   32.520    4.2426
   32.550    4.1680
   32.580    4.1636
   32.610    4.1504
   32.640    4.1364
   32.670    4.1496
   32.700    4.0644
   32.730    4.0811
   32.760    4.0600
   32.790    4.1689
   32.820    4.0644
   32.850    4.0574
   32.880    4.0697
   32.910    3.9898
   32.940    4.0337
   32.970    4.0513
   33.000    4.0600
   33.030    4.0416
   33.060    4.0872
   33.090    4.0082
   33.120    3.9573
   33.150    4.0609
   33.180    3.9231
   33.210    3.9688
   33.240    4.0039
   33.270    4.1206
   33.300    3.9767
   33.330    3.9784
   33.360    3.9995
   33.390    3.8705
   33.420    4.0223
   33.450    3.9714
   33.480    3.9652
   33.510    3.8933
   33.540    3.8836
   33.570    3.8669
   33.600    4.0407
   33.630    3.9451
   33.660    3.8687
   33.690    3.8731
   33.720    3.8950
   33.750    3.9179
   33.780    3.8547
   33.810    3.9064
   33.840    3.8239
   33.870    3.7792
   33.900    3.8283
   33.930    3.8389
   33.960    3.7388
   33.990    3.8977
   34.020    3.7880
   34.050    3.7897
   34.080    3.8090
   34.110    3.7371
   34.140    3.8582
   34.170    3.8775
   34.200    3.7818
   34.230    3.8617
   34.260    3.8038
   34.290    3.8669
   34.320    3.8310
   34.350    3.7590
   34.380    3.7660
   34.410    3.7722
   34.440    3.8081
   34.470    3.7695
   34.500    3.7651
   34.530    3.7555
   34.560    3.7186
   34.590    3.7318
   34.620    3.7213
   34.650    3.7230
   34.680    3.7283
   34.710    3.7063
   34.740    3.7353
   34.770    3.8020
   34.800    3.7265
   34.830    3.7581
   34.860    3.7055
   34.890    3.6774
   34.920    3.6493
   34.950    3.7634
   34.980    3.6756
   35.010    3.6870
   35.040    3.6151
   35.070    3.6677
   35.100    3.7634
   35.130    3.7204
   35.160    3.7151
   35.190    3.6352
   35.220    3.7511
   35.250    3.6949
   35.280    3.6309
   35.310    3.5571
   35.340    3.6493
   35.370    3.6976
   35.400    3.6458
   35.430    3.6431
   35.460    3.6546
   35.490    3.6405
   35.520    3.7204
   35.550    3.6221
   35.580    3.6493
   35.610    3.6045
   35.640    3.5905
   35.670    3.6572
   35.700    3.6072
   35.730    3.6546
   35.760    3.6677
   35.790    3.6344
   35.820    3.6168
   35.850    3.6686
   35.880    3.5633
   35.910    3.6326
   35.940    3.6616
   35.970    3.6159
   36.000    3.6212
   36.030    3.5782
   36.060    3.6177
   36.090    3.5896
   36.120    3.6080
   36.150    3.5677
   36.180    3.5422
   36.210    3.6151
   36.240    3.5545
   36.270    3.6019
   36.300    3.6115
   36.330    3.5352
   36.360    3.4825
   36.390    3.5413
   36.420    3.4799
   36.450    3.4606
   36.480    3.5668
   36.510    3.4711
   36.540    3.6730
   36.570    3.5317
   36.600    3.4869
   36.630    3.5571
   36.660    3.5466
   36.690    3.4667
   36.720    3.4404
   36.750    3.5343
   36.780    3.4720
   36.810    3.5650
   36.840    3.4518
   36.870    3.5212
   36.900    3.4799
   36.930    3.4983
   36.960    3.5124
   36.990    3.4904
   37.020    3.4685
   37.050    3.4281
   37.080    3.4501
   37.110    3.4202
   37.140    3.4351
   37.170    3.4035
   37.200    3.4220
   37.230    3.3948
   37.260    3.4738
   37.290    3.4176
   37.320    3.4694
   37.350    3.4685
   37.380    3.5571
   37.410    3.4413
   37.440    3.4852
   37.470    3.4457
   37.500    3.4843
   37.530    3.3614
   37.560    3.4290
   37.590    3.4334
   37.620    3.3676
   37.650    3.4290
   37.680    3.4044
   37.710    3.4281
   37.740    3.3965
   37.770    3.3430
   37.800    3.3842
   37.830    3.4492
   37.860    3.4387
   37.890    3.4027
   37.920    3.3333
   37.950    3.3702
   37.980    3.3439
   38.010    3.4088
   38.040    3.3877
   38.070    3.4167
   38.100    3.3772
   38.130    3.3386
   38.160    3.4544
   38.190    3.3272
   38.220    3.3123
   38.250    3.3368
   38.280    3.3992
   38.310    3.4378
   38.340    3.2938
   38.370    3.2982
   38.400    3.3886
   38.430    3.3351
   38.460    3.3632
   38.490    3.2693
   38.520    3.3649
   38.550    3.2973
   38.580    3.3676
   38.610    3.3140
   38.640    3.4422
   38.670    3.3518
   38.700    3.3895
   38.730    3.4185
   38.760    3.3921
   38.790    3.2877
   38.820    3.3746
   38.850    3.3869
   38.880    3.3456
   38.910    3.3684
   38.940    3.4053
   38.970    3.3570
   39.000    3.3816
   39.030    3.3123
   39.060    3.3500
   39.090    3.4272
   39.120    3.3474
   39.150    3.3526
   39.180    3.3790
   39.210    3.4000
   39.240    3.3421
   39.270    3.3851
   39.300    3.2930
   39.330    3.3447
   39.360    3.3588
   39.390    3.3131
   39.420    3.4167
   39.450    3.3175
   39.480    3.3447
   39.510    3.3430
   39.540    3.3632
   39.570    3.3825
   39.600    3.3114
   39.630    3.3342
   39.660    3.3614
   39.690    3.3351
   39.720    3.2903
   39.750    3.3123
   39.780    3.3052
   39.810    3.3219
   39.840    3.3193
   39.870    3.4580
   39.900    3.3044
   39.930    3.2579
   39.960    3.3140
   39.990    3.3246