File: data/MOCOF-1/PXRD/PXRD_KE-184_Cu-Ka1_capillary-1mm_5s-deg.xyd
    1.500    7.9410
    1.530    7.9305
    1.560    7.8778
    1.590    7.5408
    1.620    7.5619
    1.650    6.9089
    1.680    7.2880
    1.710    7.2459
    1.740    7.0458
    1.770    6.5613
    1.800    6.8141
    1.830    6.4455
    1.860    6.6877
    1.890    6.3296
    1.920    5.8978
    1.950    6.2349
    1.980    5.8136
    2.010    5.8241
    2.040    5.7188
    2.070    5.9294
    2.100    5.8768
    2.130    5.7609
    2.160    5.6661
    2.190    5.4976
    2.220    5.8136
    2.250    5.2659
    2.280    5.6872
    2.310    5.8768
    2.340    5.5714
    2.370    5.5292
    2.400    5.5924
    2.430    5.4871
    2.460    5.5503
    2.490    5.7188
    2.520    5.7925
    2.550    5.8031
    2.580    6.0664
    2.610    5.7925
    2.640    6.1822
    2.670    6.5403
    2.700    6.9826
    2.730    7.2038
    2.760    7.9937
    2.790    8.0885
    2.820    8.4992
    2.850    8.9415
    2.880    9.5840
    2.910   10.5529
    2.940   11.1111
    2.970   12.1538
    3.000   13.4597
    3.030   14.1969
    3.060   15.5556
    3.090   17.3038
    3.120   18.7256
    3.150   21.2006
    3.180   23.7388
    3.210   27.1511
    3.240   30.5529
    3.270   34.1338
    3.300   39.3786
    3.330   47.0669
    3.360   54.3760
    3.390   63.9705
    3.420   74.9658
    3.450   81.8641
    3.480   78.7783
    3.510   64.1180
    3.540   44.7709
    3.570   30.8794
    3.600   22.1906
    3.630   19.4629
    3.660   17.9568
    3.690   16.7035
    3.720   16.9984
    3.750   18.0305
    3.780   18.4097
    3.810   19.4418
    3.840   21.0848
    3.870   22.9489
    3.900   25.1080
    3.930   27.4460
    3.960   28.8994
    3.990   30.2264
    4.020   32.5329
    4.050   32.3749
    4.080   32.8383
    4.110   33.7020
    4.140   32.1538
    4.170   29.8368
    4.200   28.5413
    4.230   25.1080
    4.260   22.1801
    4.290   18.9258
    4.320   16.2717
    4.350   13.7230
    4.380   11.6798
    4.410   10.3949
    4.440    7.5935
    4.470    7.0985
    4.500    6.5508
    4.530    6.1190
    4.560    5.6872
    4.590    4.9816
    4.620    4.7920
    4.650    4.2443
    4.680    4.1811
    4.710    4.2127
    4.740    3.9389
    4.770    3.9179
    4.800    4.1601
    4.830    3.7493
    4.860    3.9705
    4.890    3.5703
    4.920    3.4860
    4.950    3.5492
    4.980    3.4755
    5.010    3.5071
    5.040    3.5808
    5.070    3.4018
    5.100    3.6124
    5.130    3.5071
    5.160    3.4966
    5.190    3.3807
    5.220    3.1069
    5.250    3.3386
    5.280    3.3386
    5.310    3.3281
    5.340    3.2754
    5.370    3.5387
    5.400    3.2965
    5.430    3.3175
    5.460    3.5176
    5.490    3.1490
    5.520    3.0858
    5.550    2.9489
    5.580    2.9279
    5.610    3.0437
    5.640    3.0332
    5.670    3.0542
    5.700    3.0542
    5.730    2.9805
    5.760    2.8541
    5.790    3.0753
    5.820    2.8120
    5.850    2.8225
    5.880    3.0121
    5.910    2.8541
    5.940    3.0964
    5.970    2.9279
    6.000    2.8752
    6.030    2.5276
    6.060    3.0542
    6.090    2.9068
    6.120    2.9173
    6.150    2.9279
    6.180    2.8752
    6.210    2.7278
    6.240    2.9173
    6.270    2.7909
    6.300    2.8436
    6.330    2.9279
    6.360    2.8436
    6.390    2.9173
    6.420    2.7172
    6.450    2.7699
    6.480    2.6224
    6.510    3.1596
    6.540    3.1280
    6.570    3.3070
    6.600    3.1596
    6.630    3.4334
    6.660    3.4018
    6.690    3.8863
    6.720    4.2022
    6.750    4.4760
    6.780    4.9289
    6.810    5.5292
    6.840    6.5298
    6.870    7.3512
    6.900    8.9100
    6.930    9.8157
    6.960   11.2586
    6.990    9.8262
    7.020    8.0358
    7.050    6.3612
    7.080    4.9921
    7.110    4.3497
    7.140    3.8020
    7.170    3.6651
    7.200    3.3175
    7.230    3.4439
    7.260    3.0437
    7.290    3.1069
    7.320    3.1806
    7.350    2.9068
    7.380    3.1385
    7.410    3.2017
    7.440    2.9384
    7.470    2.9700
    7.500    2.8225
    7.530    3.0964
    7.560    3.2754
    7.590    3.0226
    7.620    3.3175
    7.650    3.1806
    7.680    3.0858
    7.710    3.3913
    7.740    3.3491
    7.770    3.0332
    7.800    3.8547
    7.830    3.5282
    7.860    3.4966
    7.890    3.8652
    7.920    3.9705
    7.950    3.9705
    7.980    4.4444
    8.010    4.4128
    8.040    4.7815
    8.070    4.3918
    8.100    4.5603
    8.130    4.5182
    8.160    4.9184
    8.190    4.9500
    8.220    5.0237
    8.250    5.0974
    8.280    5.1080
    8.310    4.8763
    8.340    5.2027
    8.370    4.8657
    8.400    5.0974
    8.430    4.9500
    8.460    4.5708
    8.490    4.7815
    8.520    4.3918
    8.550    4.2759
    8.580    4.2759
    8.610    4.0442
    8.640    3.9916
    8.670    3.6651
    8.700    3.8336
    8.730    3.4966
    8.760    3.4018
    8.790    3.4650
    8.820    3.1912
    8.850    2.9700
    8.880    2.8541
    8.910    3.0121
    8.940    2.9910
    8.970    2.8857
    9.000    2.9805
    9.030    2.9173
    9.060    2.7383
    9.090    2.7593
    9.120    2.5803
    9.150    2.6856
    9.180    2.5592
    9.210    2.6330
    9.240    2.8752
    9.270    2.5487
    9.300    2.7172
    9.330    2.8647
    9.360    2.4645
    9.390    2.7699
    9.420    2.6646
    9.450    2.5698
    9.480    2.7909
    9.510    2.8963
    9.540    2.5276
    9.570    3.0121
    9.600    2.6856
    9.630    2.4329
    9.660    2.4223
    9.690    2.4434
    9.720    2.6540
    9.750    2.6646
    9.780    2.5698
    9.810    2.7909
    9.840    2.2012
    9.870    2.5908
    9.900    2.6119
    9.930    2.7488
    9.960    2.4539
    9.990    2.5487
   10.020    2.4013
   10.050    2.4223
   10.080    2.5382
   10.110    2.4645
   10.140    2.4645
   10.170    2.5592
   10.200    2.6856
   10.230    2.6856
   10.260    2.6435
   10.290    2.6962
   10.320    2.6224
   10.350    2.9805
   10.380    2.9700
   10.410    2.9700
   10.440    3.4018
   10.470    2.8752
   10.500    3.1490
   10.530    2.7172
   10.560    3.0437
   10.590    2.9173
   10.620    2.8647
   10.650    2.5698
   10.680    2.8120
   10.710    2.8436
   10.740    2.6119
   10.770    2.6646
   10.800    2.6646
   10.830    2.6224
   10.860    2.5908
   10.890    2.5382
   10.920    2.7593
   10.950    2.3591
   10.980    2.5592
   11.010    2.4013
   11.040    2.4434
   11.070    2.2854
   11.100    2.6435
   11.130    2.6330
   11.160    2.6962
   11.190    2.4118
   11.220    2.4750
   11.250    2.6014
   11.280    2.6856
   11.310    2.5171
   11.340    2.7067
   11.370    2.6646
   11.400    2.7172
   11.430    2.6224
   11.460    2.5066
   11.490    2.6646
   11.520    2.6856
   11.550    2.7699
   11.580    2.6119
   11.610    2.7804
   11.640    2.7383
   11.670    2.5487
   11.700    2.6119
   11.730    2.8015
   11.760    2.7909
   11.790    2.7909
   11.820    2.6856
   11.850    2.6856
   11.880    2.4013
   11.910    2.4118
   11.940    2.6856
   11.970    2.6751
   12.000    2.8752
   12.030    2.8752
   12.060    2.6014
   12.090    2.8541
   12.120    2.9489
   12.150    2.7699
   12.180    3.0016
   12.210    2.9068
   12.240    3.1596
   12.270    2.8647
   12.300    3.0753
   12.330    2.8541
   12.360    3.1174
   12.390    2.9910
   12.420    2.6856
   12.450    2.7699
   12.480    2.9279
   12.510    2.8752
   12.540    3.0753
   12.570    3.0437
   12.600    2.8857
   12.630    2.9068
   12.660    2.8752
   12.690    2.6435
   12.720    2.8647
   12.750    3.2227
   12.780    2.7804
   12.810    3.1385
   12.840    2.8752
   12.870    3.0858
   12.900    2.8436
   12.930    2.9805
   12.960    2.8541
   12.990    2.8857
   13.020    2.8647
   13.050    2.7067
   13.080    2.9173
   13.110    2.6856
   13.140    2.7699
   13.170    2.8541
   13.200    2.9384
   13.230    2.5803
   13.260    2.4434
   13.290    2.4329
   13.320    2.9068
   13.350    2.7067
   13.380    2.6119
   13.410    2.9279
   13.440    2.8331
   13.470    2.6224
   13.500    2.8120
   13.530    3.0016
   13.560    2.8647
   13.590    2.9489
   13.620    2.7067
   13.650    2.7909
   13.680    2.6540
   13.710    2.9068
   13.740    2.7383
   13.770    2.4961
   13.800    2.6646
   13.830    2.5171
   13.860    2.7383
   13.890    2.9173
   13.920    3.0121
   13.950    3.0437
   13.980    2.5066
   14.010    2.7383
   14.040    2.8015
   14.070    2.5592
   14.100    2.6330
   14.130    2.5066
   14.160    2.6856
   14.190    2.7909
   14.220    2.4645
   14.250    2.3275
   14.280    2.4434
   14.310    2.6962
   14.340    2.8331
   14.370    2.4118
   14.400    2.4118
   14.430    2.4961
   14.460    2.4329
   14.490    2.2643
   14.520    2.4118
   14.550    2.6119
   14.580    2.4223
   14.610    2.6646
   14.640    2.4855
   14.670    2.4645
   14.700    2.2854
   14.730    2.3065
   14.760    2.5171
   14.790    2.4961
   14.820    2.4855
   14.850    2.4961
   14.880    2.6014
   14.910    2.6224
   14.940    2.3170
   14.970    2.4013
   15.000    2.5171
   15.030    2.6119
   15.060    2.4750
   15.090    2.7067
   15.120    2.3802
   15.150    2.6646
   15.180    2.4223
   15.210    2.6435
   15.240    2.6330
   15.270    2.5698
   15.300    2.7804
   15.330    2.5803
   15.360    2.5698
   15.390    2.6540
   15.420    2.5382
   15.450    2.2749
   15.480    2.6330
   15.510    2.8120
   15.540    2.8015
   15.570    2.5908
   15.600    2.5592
   15.630    2.7278
   15.660    2.8331
   15.690    2.4539
   15.720    2.8225
   15.750    2.5171
   15.780    2.6119
   15.810    2.7593
   15.840    2.6646
   15.870    2.6962
   15.900    2.5592
   15.930    2.8541
   15.960    2.8963
   15.990    2.8752
   16.020    2.7172
   16.050    2.6646
   16.080    2.9068
   16.110    2.7172
   16.140    2.7383
   16.170    2.7278
   16.200    2.8120
   16.230    2.6224
   16.260    2.6856
   16.290    2.7383
   16.320    2.6646
   16.350    2.8541
   16.380    2.6014
   16.410    2.4329
   16.440    2.4434
   16.470    2.4750
   16.500    2.5487
   16.530    2.5908
   16.560    2.5908
   16.590    2.4750
   16.620    2.7067
   16.650    2.3170
   16.680    2.6962
   16.710    2.4855
   16.740    2.6435
   16.770    2.5698
   16.800    2.4855
   16.830    2.4961
   16.860    2.4645
   16.890    2.5382
   16.920    2.4118
   16.950    2.5487
   16.980    2.5698
   17.010    2.3275
   17.040    2.5698
   17.070    2.3381
   17.100    2.3170
   17.130    2.7067
   17.160    2.4750
   17.190    2.4434
   17.220    2.5382
   17.250    2.4750
   17.280    2.5171
   17.310    2.3907
   17.340    2.4961
   17.370    2.5171
   17.400    2.4645
   17.430    2.5382
   17.460    2.6435
   17.490    2.5803
   17.520    2.5487
   17.550    2.7488
   17.580    2.4961
   17.610    2.7278
   17.640    2.7172
   17.670    2.4855
   17.700    2.7488
   17.730    2.7804
   17.760    2.5698
   17.790    2.5276
   17.820    2.4118
   17.850    2.8015
   17.880    2.4645
   17.910    2.7172
   17.940    2.5066
   17.970    2.7699
   18.000    2.4329
   18.030    2.4118
   18.060    2.7278
   18.090    2.8015
   18.120    2.7383
   18.150    2.5803
   18.180    2.6014
   18.210    2.6435
   18.240    2.6962
   18.270    2.4961
   18.300    2.9595
   18.330    2.6435
   18.360    2.7909
   18.390    2.4645
   18.420    2.6330
   18.450    2.5382
   18.480    2.6540
   18.510    2.6856
   18.540    2.5698
   18.570    2.4855
   18.600    2.6962
   18.630    2.6119
   18.660    2.6962
   18.690    2.3275
   18.720    2.4329
   18.750    2.3381
   18.780    2.6751
   18.810    2.8857
   18.840    2.5698
   18.870    2.8225
   18.900    2.8120
   18.930    2.3907
   18.960    2.7699
   18.990    2.2854
   19.020    2.6540
   19.050    2.5487
   19.080    2.5382
   19.110    2.6119
   19.140    2.4013
   19.170    2.7383
   19.200    2.5698
   19.230    2.4855
   19.260    2.5171
   19.290    2.7383
   19.320    2.5592
   19.350    2.5698
   19.380    2.6751
   19.410    2.5487
   19.440    2.8752
   19.470    3.1490
   19.500    2.8225
   19.530    2.8963
   19.560    3.1280
   19.590    2.6330
   19.620    3.0226
   19.650    2.8120
   19.680    2.6646
   19.710    2.6435
   19.740    2.8225
   19.770    3.1596
   19.800    3.0332
   19.830    2.6856
   19.860    2.8436
   19.890    2.8647
   19.920    2.9489
   19.950    3.1490
   19.980    2.8436
   20.010    2.8331
   20.040    2.7593
   20.070    3.0648
   20.100    3.0964
   20.130    3.0332
   20.160    2.9489
   20.190    2.9384
   20.220    2.8752
   20.250    2.9173
   20.280    2.7383
   20.310    2.9595
   20.340    2.7593
   20.370    2.7593
   20.400    3.1174
   20.430    2.9489
   20.460    2.9910
   20.490    2.9068
   20.520    2.8541
   20.550    2.9279
   20.580    2.9279
   20.610    2.8015
   20.640    2.8436
   20.670    2.9068
   20.700    2.6540
   20.730    3.0016
   20.760    2.7909
   20.790    2.9173
   20.820    3.0542
   20.850    2.8541
   20.880    2.7593
   20.910    2.9068
   20.940    2.8120
   20.970    2.9805
   21.000    2.9068
   21.030    3.0437
   21.060    3.1912
   21.090    2.9595
   21.120    3.0121
   21.150    2.9595
   21.180    3.0121
   21.210    2.8647
   21.240    3.0648
   21.270    3.0437
   21.300    2.8752
   21.330    2.6014
   21.360    3.1912
   21.390    3.0858
   21.420    2.7804
   21.450    3.1596
   21.480    3.0753
   21.510    2.7804
   21.540    2.8647
   21.570    2.7804
   21.600    2.8225
   21.630    2.9384
   21.660    2.7172
   21.690    3.1069
   21.720    3.0121
   21.750    2.9700
   21.780    2.9805
   21.810    2.7383
   21.840    2.7593
   21.870    2.8225
   21.900    3.0016
   21.930    2.8857
   21.960    2.9068
   21.990    2.8647
   22.020    2.8752
   22.050    2.8541
   22.080    2.8436
   22.110    2.9068
   22.140    3.0437
   22.170    2.9595
   22.200    2.6540
   22.230    2.6224
   22.260    2.7593
   22.290    3.0121
   22.320    2.8963
   22.350    2.8963
   22.380    2.6330
   22.410    2.8331
   22.440    2.7172
   22.470    2.8120
   22.500    2.9068
   22.530    2.8752
   22.560    2.6540
   22.590    2.8436
   22.620    2.8541
   22.650    2.8225
   22.680    2.5698
   22.710    2.5908
   22.740    2.8857
   22.770    2.9595
   22.800    2.8015
   22.830    2.7488
   22.860    2.8541
   22.890    2.7067
   22.920    2.8963
   22.950    2.7278
   22.980    2.8015
   23.010    2.9173
   23.040    2.8857
   23.070    2.9489
   23.100    2.7593
   23.130    2.8963
   23.160    3.0542
   23.190    2.4961
   23.220    3.0332
   23.250    2.8857
   23.280    2.6435
   23.310    2.5592
   23.340    2.6014
   23.370    2.6435
   23.400    2.7593
   23.430    2.7067
   23.460    2.7909
   23.490    2.4961
   23.520    2.7383
   23.550    2.8436
   23.580    2.7699
   23.610    2.6224
   23.640    2.7067
   23.670    2.7699
   23.700    2.7593
   23.730    2.6330
   23.760    2.7804
   23.790    2.9489
   23.820    2.9279
   23.850    2.7593
   23.880    2.7909
   23.910    2.7067
   23.940    2.6435
   23.970    2.9805
   24.000    2.4961
   24.030    2.6856
   24.060    2.6014
   24.090    2.7804
   24.120    2.8436
   24.150    2.6751
   24.180    2.7909
   24.210    2.4750
   24.240    2.6435
   24.270    2.5698
   24.300    2.8015
   24.330    2.5276
   24.360    2.4434
   24.390    2.5487
   24.420    2.7067
   24.450    2.5276
   24.480    2.6962
   24.510    2.6435
   24.540    2.7909
   24.570    2.8436
   24.600    2.8436
   24.630    2.8331
   24.660    2.7488
   24.690    2.7909
   24.720    2.7383
   24.750    2.6962
   24.780    2.6014
   24.810    2.6224
   24.840    2.5698
   24.870    2.6751
   24.900    2.6014
   24.930    2.4118
   24.960    2.6435
   24.990    2.5698
   25.020    2.5382
   25.050    2.6119
   25.080    2.3170
   25.110    2.3486
   25.140    2.5171
   25.170    2.8647
   25.200    2.8857
   25.230    2.8331
   25.260    2.6119
   25.290    2.6540
   25.320    2.4645
   25.350    2.6540
   25.380    2.7278
   25.410    2.6014
   25.440    2.6224
   25.470    2.8015
   25.500    2.5803
   25.530    2.3381
   25.560    2.5066
   25.590    2.3802
   25.620    2.3591
   25.650    2.7804
   25.680    2.6962
   25.710    2.5382
   25.740    2.5382
   25.770    2.4013
   25.800    2.7383
   25.830    2.3591
   25.860    2.3697
   25.890    2.6540
   25.920    2.4118
   25.950    2.5382
   25.980    2.6856
   26.010    2.6856
   26.040    2.5803
   26.070    2.3591
   26.100    2.3802
   26.130    2.4434
   26.160    2.3486
   26.190    2.6014
   26.220    2.5803
   26.250    2.6330
   26.280    2.5487
   26.310    2.6540
   26.340    2.5171
   26.370    2.4118
   26.400    2.4961
   26.430    2.3802
   26.460    2.2643
   26.490    2.4118
   26.520    2.6014
   26.550    2.5066
   26.580    2.4750
   26.610    2.3381
   26.640    2.5487
   26.670    2.1906
   26.700    2.2854
   26.730    2.4329
   26.760    2.6330
   26.790    2.3591
   26.820    2.5066
   26.850    2.1485
   26.880    2.4645
   26.910    2.4539
   26.940    2.4645
   26.970    2.3381
   27.000    2.4750
   27.030    2.4855
   27.060    2.3065
   27.090    2.5066
   27.120    2.4223
   27.150    2.2959
   27.180    2.3381
   27.210    2.2643
   27.240    2.3907
   27.270    2.2854
   27.300    2.4223
   27.330    2.1274
   27.360    2.5487
   27.390    2.2012
   27.420    2.2959
   27.450    2.4645
   27.480    2.2959
   27.510    2.5698
   27.540    2.4855
   27.570    2.4645
   27.600    2.5276
   27.630    2.3802
   27.660    2.4961
   27.690    2.4750
   27.720    2.4855
   27.750    2.3275
   27.780    2.4855
   27.810    2.3275
   27.840    2.4539
   27.870    2.3170
   27.900    2.4961
   27.930    2.3802
   27.960    2.5171
   27.990    2.5592
   28.020    2.3381
   28.050    2.3591
   28.080    2.4223
   28.110    2.3907
   28.140    2.7699
   28.170    2.7699
   28.200    2.5803
   28.230    2.3170
   28.260    2.4329
   28.290    2.5592
   28.320    2.4223
   28.350    2.3275
   28.380    2.4223
   28.410    2.4434
   28.440    2.4118
   28.470    2.3486
   28.500    2.6646
   28.530    2.5487
   28.560    2.3697
   28.590    2.3697
   28.620    2.4329
   28.650    2.4539
   28.680    2.1169
   28.710    2.2854
   28.740    2.5908
   28.770    2.5382
   28.800    2.2117
   28.830    2.2433
   28.860    2.4118
   28.890    2.4118
   28.920    2.2222
   28.950    2.4539
   28.980    2.5276
   29.010    2.1906
   29.040    2.2959
   29.070    2.2328
   29.100    2.3065
   29.130    2.3591
   29.160    2.0853
   29.190    2.2643
   29.220    2.2538
   29.250    2.1485
   29.280    2.3381
   29.310    2.3170
   29.340    2.3381
   29.370    2.2117
   29.400    2.3170
   29.430    2.2959
   29.460    2.3486
   29.490    2.2538
   29.520    2.3275
   29.550    2.1906
   29.580    2.1801
   29.610    2.2959
   29.640    2.1380
   29.670    2.2538
   29.700    2.2749
   29.730    2.1274
   29.760    2.4434
   29.790    2.2222
   29.820    2.2117
   29.850    2.4434
   29.880    2.2117
   29.910    2.0748
   29.940    2.2643
   29.970    2.3170
   30.000    2.2012
   30.030    2.2117
   30.060    2.3697
   30.090    2.3697
   30.120    2.2538
   30.150    2.2222
   30.180    2.3697
   30.210    2.2012
   30.240    2.4329
   30.270    2.0853
   30.300    2.2959
   30.330    2.1801
   30.360    2.2433
   30.390    2.1590
   30.420    2.3381
   30.450    2.1169
   30.480    2.2117
   30.510    2.2117
   30.540    2.3065
   30.570    2.2433
   30.600    2.3907
   30.630    2.3065
   30.660    2.0326
   30.690    2.2749
   30.720    2.0432
   30.750    2.2328
   30.780    2.3486
   30.810    2.4645
   30.840    2.1274
   30.870    2.2854
   30.900    2.1485
   30.930    2.0537
   30.960    2.1169
   30.990    2.5066
   31.020    2.0537
   31.050    2.2433
   31.080    2.1064
   31.110    2.2959
   31.140    2.0853
   31.170    2.1274
   31.200    2.1064
   31.230    2.1590
   31.260    2.1064
   31.290    1.9379
   31.320    2.1274
   31.350    2.4645
   31.380    2.3486
   31.410    2.1696
   31.440    2.2117
   31.470    2.2854
   31.500    2.0221
   31.530    2.1906
   31.560    2.1380
   31.590    2.0642
   31.620    2.2854
   31.650    2.4539
   31.680    2.2117
   31.710    2.2117
   31.740    2.2433
   31.770    2.1590
   31.800    2.4539
   31.830    2.3802
   31.860    2.3381
   31.890    2.3275
   31.920    2.0853
   31.950    2.3381
   31.980    2.4013
   32.010    2.1906
   32.040    2.2117
   32.070    2.1485
   32.100    2.1380
   32.130    2.3170
   32.160    1.9168
   32.190    2.1801
   32.220    2.1169
   32.250    2.2117
   32.280    2.3275
   32.310    2.0748
   32.340    2.2643
   32.370    2.0748
   32.400    2.3065
   32.430    1.9273
   32.460    2.2328
   32.490    2.2222
   32.520    1.9273
   32.550    2.2117
   32.580    1.9168
   32.610    2.1380
   32.640    2.0432
   32.670    2.2538
   32.700    2.2117
   32.730    2.1590
   32.760    2.0853
   32.790    2.1064
   32.820    1.9589
   32.850    1.9484
   32.880    2.3170
   32.910    2.1485
   32.940    2.3065
   32.970    1.9695
   33.000    1.9905
   33.030    1.6956
   33.060    2.1590
   33.090    2.2433
   33.120    2.0432
   33.150    2.1064
   33.180    2.0221
   33.210    2.2749
   33.240    1.7799
   33.270    2.0116
   33.300    2.0748
   33.330    2.2012
   33.360    1.9800
   33.390    2.0853
   33.420    2.0432
   33.450    1.9589
   33.480    2.1590
   33.510    2.0432
   33.540    2.1380
   33.570    1.9800
   33.600    2.2117
   33.630    1.9168
   33.660    2.0748
   33.690    2.0116
   33.720    2.1169
   33.750    2.0748
   33.780    1.8220
   33.810    2.0221
   33.840    2.0221
   33.870    2.0011
   33.900    2.0537
   33.930    1.9484
   33.960    1.8747
   33.990    1.9484
   34.020    1.9484
   34.050    1.9379
   34.080    2.0011
   34.110    1.8641
   34.140    2.1696
   34.170    1.9484
   34.200    1.8747
   34.230    1.9589
   34.260    1.8641
   34.290    1.8957
   34.320    2.0642
   34.350    2.1064
   34.380    1.7694
   34.410    1.7694
   34.440    1.9273
   34.470    1.7799
   34.500    1.8536
   34.530    1.8641
   34.560    1.7904
   34.590    1.8641
   34.620    1.8852
   34.650    1.9905
   34.680    1.9800
   34.710    1.8325
   34.740    2.3170
   34.770    1.9063
   34.800    2.1696
   34.830    1.9905
   34.860    1.8009
   34.890    1.9800
   34.920    2.0537
   34.950    1.6640
   34.980    1.8431
   35.010    1.8852
   35.040    1.8852
   35.070    1.8115
   35.100    1.8009
   35.130    1.9273
   35.160    1.8009
   35.190    2.0221
   35.220    1.8115
   35.250    1.8115
   35.280    1.7062
   35.310    1.8957
   35.340    1.8641
   35.370    1.8957
   35.400    1.8536
   35.430    1.5377
   35.460    1.9063
   35.490    1.9168
   35.520    1.7799
   35.550    1.6535
   35.580    1.8220
   35.610    1.6851
   35.640    1.7799
   35.670    2.0221
   35.700    1.9695
   35.730    1.9273
   35.760    1.6851
   35.790    2.0326
   35.820    1.8431
   35.850    1.6956
   35.880    1.7062
   35.910    1.8641
   35.940    1.8009
   35.970    1.9905
   36.000    1.8957
   36.030    1.7904
   36.060    2.0326
   36.090    1.7799
   36.120    1.6430
   36.150    1.8220
   36.180    1.7483
   36.210    1.7483
   36.240    2.0011
   36.270    1.7378
   36.300    1.8220
   36.330    2.0221
   36.360    1.7694
   36.390    1.7167
   36.420    1.9273
   36.450    1.8536
   36.480    1.8641
   36.510    1.9063
   36.540    1.7378
   36.570    1.6430
   36.600    1.8009
   36.630    1.8220
   36.660    1.6219
   36.690    1.7904
   36.720    1.5587
   36.750    1.7904
   36.780    1.7272
   36.810    1.6746
   36.840    1.8009
   36.870    1.6219
   36.900    1.6746
   36.930    1.7167
   36.960    1.7588
   36.990    1.6746
   37.020    1.8009
   37.050    1.6956
   37.080    1.7588
   37.110    1.7483
   37.140    1.8009
   37.170    1.5482
   37.200    1.5903
   37.230    1.8115
   37.260    1.6640
   37.290    1.6324
   37.320    1.9379
   37.350    1.6430
   37.380    1.7167
   37.410    1.6851
   37.440    1.8852
   37.470    1.7378
   37.500    1.8325
   37.530    1.5692
   37.560    1.6640
   37.590    1.6851
   37.620    1.7272
   37.650    1.6851
   37.680    1.5166
   37.710    1.8325
   37.740    1.8536
   37.770    1.6430
   37.800    1.7378
   37.830    1.6956
   37.860    1.8325
   37.890    1.7799
   37.920    2.0011
   37.950    1.8747
   37.980    1.6746
   38.010    1.6640
   38.040    1.6746
   38.070    1.7694
   38.100    1.6008
   38.130    1.7904
   38.160    1.7694
   38.190    1.9063
   38.220    1.7378
   38.250    1.8325
   38.280    1.5482
   38.310    1.8009
   38.340    1.7588
   38.370    1.6008
   38.400    1.9905
   38.430    1.7694
   38.460    1.5798
   38.490    1.7694
   38.520    1.6324
   38.550    1.7167
   38.580    1.9273
   38.610    1.9379
   38.640    1.7904
   38.670    1.6851
   38.700    1.7588
   38.730    1.7062
   38.760    1.7694
   38.790    1.7272
   38.820    1.7167
   38.850    1.6746
   38.880    1.4955
   38.910    1.7904
   38.940    1.6324
   38.970    1.7483
   39.000    1.8009
   39.030    1.7483
   39.060    1.6219
   39.090    1.7483
   39.120    1.7062
   39.150    1.6956
   39.180    1.7694
   39.210    1.6956
   39.240    1.7272
   39.270    1.8536
   39.300    1.8220
   39.330    1.5798
   39.360    1.6008
   39.390    1.6114
   39.420    1.6851
   39.450    1.7167
   39.480    1.7272
   39.510    1.7694
   39.540    1.8220
   39.570    1.9168
   39.600    1.7272
   39.630    1.6008
   39.660    1.6324
   39.690    1.8747
   39.720    1.9379
   39.750    1.7378
   39.780    1.8115
   39.810    1.6114
   39.840    1.6640
   39.870    1.7378
   39.900    1.6008
   39.930    1.7483
   39.960    1.7378
   39.990    1.6640