File: data/MOCOF-1/PXRD/PXRD_KE-317_Cu-Ka1_capillary-1mm_3s-deg.xyd
    1.500   10.3739
    1.530   10.1808
    1.560    9.6893
    1.590    9.9877
    1.620    9.8122
    1.650    8.9345
    1.680    9.0047
    1.710    8.6712
    1.740    8.4430
    1.770    7.6005
    1.800    8.3377
    1.830    7.6180
    1.860    7.6532
    1.890    7.5654
    1.920    7.2670
    1.950    7.1968
    1.980    6.8457
    2.010    6.6351
    2.040    6.4946
    2.070    5.9856
    2.100    6.8106
    2.130    5.9329
    2.160    6.1085
    2.190    5.7223
    2.220    5.8452
    2.250    5.9329
    2.280    5.5994
    2.310    5.9505
    2.340    5.3537
    2.370    5.6170
    2.400    5.5117
    2.430    5.3712
    2.460    5.2659
    2.490    5.8452
    2.520    5.3712
    2.550    5.2659
    2.580    5.2308
    2.610    5.5117
    2.640    5.1957
    2.670    4.8798
    2.700    5.0728
    2.730    4.8447
    2.760    5.0026
    2.790    4.4760
    2.820    5.2308
    2.850    5.2484
    2.880    4.7569
    2.910    4.9851
    2.940    4.7393
    2.970    4.6867
    3.000    4.7042
    3.030    5.0202
    3.060    4.7393
    3.090    4.6165
    3.120    5.0553
    3.150    4.8622
    3.180    4.9675
    3.210    4.9500
    3.240    5.0026
    3.270    4.7042
    3.300    4.4234
    3.330    4.3356
    3.360    4.6516
    3.390    4.7744
    3.420    4.3707
    3.450    4.4760
    3.480    4.6165
    3.510    4.9149
    3.540    4.4585
    3.570    4.2303
    3.600    4.6516
    3.630    4.6516
    3.660    4.2654
    3.690    4.4058
    3.720    4.1952
    3.750    4.5111
    3.780    4.4409
    3.810    4.4936
    3.840    4.3883
    3.870    4.4936
    3.900    4.7218
    3.930    4.4760
    3.960    4.5463
    3.990    4.4760
    4.020    4.5463
    4.050    4.7920
    4.080    4.4058
    4.110    4.1952
    4.140    4.0372
    4.170    4.8447
    4.200    4.6691
    4.230    5.0202
    4.260    4.4058
    4.290    4.5463
    4.320    4.3181
    4.350    4.3883
    4.380    4.0548
    4.410    4.4409
    4.440    4.4409
    4.470    4.7393
    4.500    4.5463
    4.530    4.3707
    4.560    4.5814
    4.590    4.0372
    4.620    3.9143
    4.650    4.1250
    4.680    4.4234
    4.710    4.4760
    4.740    4.5989
    4.770    4.5463
    4.800    4.1425
    4.830    4.4760
    4.860    4.9149
    4.890    4.7042
    4.920    4.3532
    4.950    4.2654
    4.980    4.0723
    5.010    4.2654
    5.040    4.3883
    5.070    4.0899
    5.100    4.5814
    5.130    3.7388
    5.160    4.4585
    5.190    4.1601
    5.220    4.6340
    5.250    4.3707
    5.280    4.4585
    5.310    4.5463
    5.340    4.5463
    5.370    4.6165
    5.400    4.4585
    5.430    4.6516
    5.460    4.3883
    5.490    4.1425
    5.520    4.7920
    5.550    4.2478
    5.580    4.9149
    5.610    4.6691
    5.640    4.3707
    5.670    4.7042
    5.700    5.1606
    5.730    4.2127
    5.760    4.7042
    5.790    4.1601
    5.820    4.4760
    5.850    4.6691
    5.880    4.2478
    5.910    4.1250
    5.940    4.0197
    5.970    4.4409
    6.000    4.6165
    6.030    4.6691
    6.060    4.3356
    6.090    4.5463
    6.120    3.9494
    6.150    4.3356
    6.180    4.3532
    6.210    4.3181
    6.240    4.4234
    6.270    4.5111
    6.300    4.2654
    6.330    4.6516
    6.360    4.3005
    6.390    4.4585
    6.420    4.7920
    6.450    4.7569
    6.480    4.4409
    6.510    4.3181
    6.540    4.5638
    6.570    4.6516
    6.600    4.6165
    6.630    4.7218
    6.660    4.5814
    6.690    4.5989
    6.720    4.5463
    6.750    4.3005
    6.780    4.1776
    6.810    4.7218
    6.840    4.3883
    6.870    4.4234
    6.900    4.8622
    6.930    4.5638
    6.960    4.0548
    6.990    4.1776
    7.020    4.4760
    7.050    4.5463
    7.080    4.4760
    7.110    4.8973
    7.140    4.5111
    7.170    4.5989
    7.200    4.7218
    7.230    4.8271
    7.260    4.7569
    7.290    4.5111
    7.320    4.7218
    7.350    4.8447
    7.380    4.7744
    7.410    4.3181
    7.440    4.8271
    7.470    4.6867
    7.500    4.7218
    7.530    4.8095
    7.560    4.7042
    7.590    4.5989
    7.620    4.8798
    7.650    4.2830
    7.680    4.8095
    7.710    4.5638
    7.740    4.6867
    7.770    4.7920
    7.800    4.6165
    7.830    5.0377
    7.860    4.8973
    7.890    4.4760
    7.920    4.6516
    7.950    5.0377
    7.980    4.9851
    8.010    4.9500
    8.040    4.9324
    8.070    4.5287
    8.100    4.6340
    8.130    4.9851
    8.160    5.2308
    8.190    4.9675
    8.220    4.8973
    8.250    4.9149
    8.280    4.5463
    8.310    5.0553
    8.340    5.1782
    8.370    4.4936
    8.400    5.1957
    8.430    5.0553
    8.460    4.9500
    8.490    4.8798
    8.520    5.3010
    8.550    4.7218
    8.580    5.3537
    8.610    4.9324
    8.640    5.0904
    8.670    5.0728
    8.700    5.2659
    8.730    4.9324
    8.760    5.1782
    8.790    5.2659
    8.820    5.3712
    8.850    5.0026
    8.880    5.0026
    8.910    5.3888
    8.940    5.4239
    8.970    5.0728
    9.000    4.9500
    9.030    4.9149
    9.060    5.2659
    9.090    5.6697
    9.120    5.3888
    9.150    4.9675
    9.180    5.2484
    9.210    5.5292
    9.240    5.3010
    9.270    5.3010
    9.300    5.3010
    9.330    5.3537
    9.360    5.3361
    9.390    5.8803
    9.420    5.3712
    9.450    4.8973
    9.480    5.5819
    9.510    5.5819
    9.540    5.4590
    9.570    5.1431
    9.600    5.2659
    9.630    4.8447
    9.660    5.1606
    9.690    4.8622
    9.720    5.4590
    9.750    5.4590
    9.780    4.9675
    9.810    5.1255
    9.840    5.0728
    9.870    5.3888
    9.900    5.8627
    9.930    5.1606
    9.960    5.3361
    9.990    5.6697
   10.020    5.5468
   10.050    5.2308
   10.080    5.1782
   10.110    5.4239
   10.140    5.2133
   10.170    5.4239
   10.200    5.4064
   10.230    5.0377
   10.260    5.3186
   10.290    5.2484
   10.320    5.3888
   10.350    5.4590
   10.380    5.0026
   10.410    5.5643
   10.440    5.1080
   10.470    5.1957
   10.500    5.1255
   10.530    5.2659
   10.560    4.9149
   10.590    5.3537
   10.620    5.1606
   10.650    5.4415
   10.680    4.9851
   10.710    5.4239
   10.740    5.3010
   10.770    4.8271
   10.800    4.8271
   10.830    5.3888
   10.860    5.3888
   10.890    4.9851
   10.920    4.7569
   10.950    5.7750
   10.980    4.8447
   11.010    5.0377
   11.040    4.9149
   11.070    4.9851
   11.100    4.8095
   11.130    5.0904
   11.160    5.4766
   11.190    5.2133
   11.220    4.8973
   11.250    4.7218
   11.280    5.6170
   11.310    4.6867
   11.340    4.5989
   11.370    4.7920
   11.400    5.3888
   11.430    4.7569
   11.460    4.6165
   11.490    4.7218
   11.520    4.8798
   11.550    4.7393
   11.580    4.7744
   11.610    5.0026
   11.640    4.5111
   11.670    5.0553
   11.700    5.0026
   11.730    4.8271
   11.760    4.6516
   11.790    4.7393
   11.820    4.5638
   11.850    4.8271
   11.880    4.5814
   11.910    4.2830
   11.940    4.5989
   11.970    5.1957
   12.000    4.2303
   12.030    4.3883
   12.060    4.5814
   12.090    4.4936
   12.120    4.7920
   12.150    4.8271
   12.180    4.4234
   12.210    4.5814
   12.240    4.8447
   12.270    4.9851
   12.300    4.9851
   12.330    4.5463
   12.360    4.3883
   12.390    4.4936
   12.420    4.4760
   12.450    4.5463
   12.480    4.0723
   12.510    4.2654
   12.540    4.6340
   12.570    4.1074
   12.600    4.3181
   12.630    4.5814
   12.660    4.2478
   12.690    4.7744
   12.720    4.6165
   12.750    4.1776
   12.780    4.7218
   12.810    4.3707
   12.840    4.4585
   12.870    4.6516
   12.900    4.0197
   12.930    4.6340
   12.960    4.2654
   12.990    4.1601
   13.020    4.5638
   13.050    4.2830
   13.080    4.8095
   13.110    4.4585
   13.140    4.2830
   13.170    4.3356
   13.200    4.3005
   13.230    4.5111
   13.260    3.9670
   13.290    4.4409
   13.320    4.1952
   13.350    4.3532
   13.380    4.4585
   13.410    4.5814
   13.440    4.5814
   13.470    4.1425
   13.500    4.4760
   13.530    3.7915
   13.560    4.2830
   13.590    4.4058
   13.620    4.5814
   13.650    4.4234
   13.680    4.1952
   13.710    4.3005
   13.740    4.1250
   13.770    4.1952
   13.800    4.4234
   13.830    3.9846
   13.860    4.2830
   13.890    4.1776
   13.920    4.6340
   13.950    4.4760
   13.980    4.9851
   14.010    4.0548
   14.040    4.3532
   14.070    4.1601
   14.100    4.2654
   14.130    4.3707
   14.160    4.2478
   14.190    4.4760
   14.220    4.2127
   14.250    4.7042
   14.280    4.4058
   14.310    4.5287
   14.340    4.3532
   14.370    4.4234
   14.400    4.2303
   14.430    4.0197
   14.460    4.1952
   14.490    4.4234
   14.520    4.3356
   14.550    4.3883
   14.580    4.8798
   14.610    4.5989
   14.640    4.4409
   14.670    4.5814
   14.700    4.0548
   14.730    4.3356
   14.760    4.1776
   14.790    4.3707
   14.820    4.4936
   14.850    4.1425
   14.880    4.2830
   14.910    4.0372
   14.940    4.4234
   14.970    4.0021
   15.000    4.2478
   15.030    4.2127
   15.060    4.5111
   15.090    4.4585
   15.120    4.2830
   15.150    4.2127
   15.180    4.1776
   15.210    4.4234
   15.240    4.0723
   15.270    4.7393
   15.300    4.7393
   15.330    4.5814
   15.360    4.1250
   15.390    4.1776
   15.420    4.3707
   15.450    3.6862
   15.480    4.4058
   15.510    4.3532
   15.540    4.2303
   15.570    4.2830
   15.600    4.3181
   15.630    4.6165
   15.660    4.5463
   15.690    4.2478
   15.720    4.5463
   15.750    4.4409
   15.780    4.8095
   15.810    4.4409
   15.840    4.0723
   15.870    4.2654
   15.900    4.4760
   15.930    4.6165
   15.960    4.7218
   15.990    4.3707
   16.020    4.0548
   16.050    4.2478
   16.080    4.7569
   16.110    4.5989
   16.140    4.5287
   16.170    4.2127
   16.200    4.1425
   16.230    4.3532
   16.260    4.4058
   16.290    4.4409
   16.320    4.1425
   16.350    3.6159
   16.380    4.1601
   16.410    4.1952
   16.440    4.2830
   16.470    4.1952
   16.500    4.5463
   16.530    4.2303
   16.560    4.3532
   16.590    4.1776
   16.620    4.0548
   16.650    4.5111
   16.680    4.0899
   16.710    4.4585
   16.740    4.3005
   16.770    4.2127
   16.800    3.9846
   16.830    4.5989
   16.860    4.8447
   16.890    4.2654
   16.920    4.2478
   16.950    4.2478
   16.980    4.6516
   17.010    4.4409
   17.040    4.2830
   17.070    4.3005
   17.100    4.4234
   17.130    3.8617
   17.160    4.6867
   17.190    4.2654
   17.220    3.9319
   17.250    4.3181
   17.280    3.7213
   17.310    4.5111
   17.340    4.3005
   17.370    4.0197
   17.400    4.0372
   17.430    4.3883
   17.460    4.6691
   17.490    4.2303
   17.520    4.2303
   17.550    4.7393
   17.580    4.7042
   17.610    4.2654
   17.640    4.5989
   17.670    4.2127
   17.700    4.3532
   17.730    4.3181
   17.760    4.1601
   17.790    4.3883
   17.820    4.3532
   17.850    4.1776
   17.880    4.0372
   17.910    4.3532
   17.940    4.1952
   17.970    3.9319
   18.000    4.2127
   18.030    4.3883
   18.060    4.6691
   18.090    4.0899
   18.120    4.1250
   18.150    4.0899
   18.180    3.9319
   18.210    4.3532
   18.240    4.5989
   18.270    4.1776
   18.300    4.6516
   18.330    4.1952
   18.360    4.2654
   18.390    4.3181
   18.420    4.3532
   18.450    4.8271
   18.480    4.1074
   18.510    4.3707
   18.540    4.5463
   18.570    4.0197
   18.600    4.2127
   18.630    4.0899
   18.660    4.5814
   18.690    4.3005
   18.720    4.1250
   18.750    4.4058
   18.780    4.3181
   18.810    4.2303
   18.840    4.4058
   18.870    4.0197
   18.900    4.5287
   18.930    4.0548
   18.960    4.3883
   18.990    4.8622
   19.020    4.7569
   19.050    4.4409
   19.080    4.2654
   19.110    4.6516
   19.140    4.1776
   19.170    4.5638
   19.200    4.3181
   19.230    4.3532
   19.260    4.4409
   19.290    4.2303
   19.320    4.1250
   19.350    4.3181
   19.380    4.4058
   19.410    4.1074
   19.440    4.0021
   19.470    4.6340
   19.500    4.2654
   19.530    4.6867
   19.560    4.3532
   19.590    4.2303
   19.620    4.4936
   19.650    4.6165
   19.680    4.5287
   19.710    4.5111
   19.740    4.2478
   19.770    4.3181
   19.800    4.5638
   19.830    4.4760
   19.860    3.9319
   19.890    4.2830
   19.920    4.7218
   19.950    4.2303
   19.980    4.8447
   20.010    4.8271
   20.040    4.5463
   20.070    4.5989
   20.100    4.6516
   20.130    4.5638
   20.160    4.4585
   20.190    4.3532
   20.220    4.4058
   20.250    4.3707
   20.280    4.5638
   20.310    4.7393
   20.340    4.4234
   20.370    4.7744
   20.400    3.8968
   20.430    4.7920
   20.460    4.7042
   20.490    4.5463
   20.520    4.3356
   20.550    4.0548
   20.580    4.3883
   20.610    4.4760
   20.640    4.4760
   20.670    4.2478
   20.700    4.4234
   20.730    4.3356
   20.760    4.6867
   20.790    4.2654
   20.820    4.5463
   20.850    4.8622
   20.880    4.7042
   20.910    4.4058
   20.940    4.4760
   20.970    4.7920
   21.000    4.3181
   21.030    4.7042
   21.060    4.3181
   21.090    4.6340
   21.120    4.1952
   21.150    4.4585
   21.180    4.2303
   21.210    4.6516
   21.240    5.0026
   21.270    4.2127
   21.300    4.5463
   21.330    4.5287
   21.360    4.3707
   21.390    4.4234
   21.420    4.7218
   21.450    4.4058
   21.480    4.4585
   21.510    4.2654
   21.540    4.9149
   21.570    4.5814
   21.600    4.3181
   21.630    4.5111
   21.660    4.2303
   21.690    4.7393
   21.720    4.9675
   21.750    4.9149
   21.780    4.5111
   21.810    4.4058
   21.840    4.2654
   21.870    4.7569
   21.900    4.3356
   21.930    4.4234
   21.960    4.3005
   21.990    4.3181
   22.020    4.5638
   22.050    4.6867
   22.080    4.5463
   22.110    4.4234
   22.140    4.8447
   22.170    4.7569
   22.200    4.4760
   22.230    4.5463
   22.260    4.0197
   22.290    4.7042
   22.320    4.7920
   22.350    4.4936
   22.380    4.4760
   22.410    4.7042
   22.440    4.5638
   22.470    4.7218
   22.500    4.9149
   22.530    4.5463
   22.560    4.5989
   22.590    4.4585
   22.620    4.4936
   22.650    4.4409
   22.680    4.3005
   22.710    4.2303
   22.740    4.8622
   22.770    4.6867
   22.800    4.4760
   22.830    4.9149
   22.860    4.7920
   22.890    4.5287
   22.920    4.5638
   22.950    4.4936
   22.980    4.3356
   23.010    4.7393
   23.040    4.0021
   23.070    4.9675
   23.100    4.2654
   23.130    4.3005
   23.160    4.2478
   23.190    4.4936
   23.220    4.3883
   23.250    4.5111
   23.280    4.2830
   23.310    4.7744
   23.340    4.7218
   23.370    4.5638
   23.400    4.2303
   23.430    4.3532
   23.460    4.5989
   23.490    4.8095
   23.520    4.0021
   23.550    4.2654
   23.580    4.5989
   23.610    4.4058
   23.640    4.8095
   23.670    4.7920
   23.700    4.6516
   23.730    4.4936
   23.760    4.3356
   23.790    4.6165
   23.820    4.5111
   23.850    4.5814
   23.880    4.1425
   23.910    4.1952
   23.940    4.3532
   23.970    4.3005
   24.000    4.1601
   24.030    4.6165
   24.060    4.5463
   24.090    4.3356
   24.120    4.5287
   24.150    4.4409
   24.180    4.4409
   24.210    4.4234
   24.240    4.3707
   24.270    4.0899
   24.300    4.8973
   24.330    4.3532
   24.360    4.3181
   24.390    4.3005
   24.420    4.2830
   24.450    4.5111
   24.480    4.2478
   24.510    4.4234
   24.540    4.3707
   24.570    4.5989
   24.600    3.9494
   24.630    4.5463
   24.660    4.5638
   24.690    4.4936
   24.720    4.1776
   24.750    4.7569
   24.780    4.4936
   24.810    4.4585
   24.840    4.3005
   24.870    4.4058
   24.900    4.4234
   24.930    4.2127
   24.960    4.6165
   24.990    4.5287
   25.020    4.0372
   25.050    4.2478
   25.080    4.2654
   25.110    4.5287
   25.140    4.6691
   25.170    4.5463
   25.200    4.4234
   25.230    4.1776
   25.260    4.1074
   25.290    4.3532
   25.320    4.2830
   25.350    4.4760
   25.380    4.3181
   25.410    4.4936
   25.440    4.5463
   25.470    4.5814
   25.500    4.1776
   25.530    4.7393
   25.560    4.6867
   25.590    4.6340
   25.620    4.2127
   25.650    4.0021
   25.680    4.7393
   25.710    4.3883
   25.740    4.6165
   25.770    4.2303
   25.800    4.2830
   25.830    4.6691
   25.860    4.3356
   25.890    4.4760
   25.920    4.6340
   25.950    3.9319
   25.980    4.1425
   26.010    4.3356
   26.040    4.5814
   26.070    4.4058
   26.100    4.3181
   26.130    4.2478
   26.160    4.5814
   26.190    4.4585
   26.220    4.4585
   26.250    4.3356
   26.280    4.6691
   26.310    4.1601
   26.340    4.2303
   26.370    4.2654
   26.400    3.9670
   26.430    4.0548
   26.460    4.5111
   26.490    4.1074
   26.520    3.8792
   26.550    4.0197
   26.580    4.5463
   26.610    4.4058
   26.640    4.3356
   26.670    4.4585
   26.700    4.4058
   26.730    4.1952
   26.760    4.0197
   26.790    4.3883
   26.820    4.5111
   26.850    4.2478
   26.880    3.9670
   26.910    4.1776
   26.940    4.6691
   26.970    4.3883
   27.000    4.1601
   27.030    4.4585
   27.060    4.2830
   27.090    4.5287
   27.120    4.1074
   27.150    3.8792
   27.180    4.2654
   27.210    4.2830
   27.240    4.4058
   27.270    4.1776
   27.300    4.2654
   27.330    3.7564
   27.360    3.8792
   27.390    3.6686
   27.420    4.4058
   27.450    4.2303
   27.480    3.9319
   27.510    3.8617
   27.540    4.3532
   27.570    3.8441
   27.600    3.9143
   27.630    4.0372
   27.660    3.7915
   27.690    4.1601
   27.720    4.3883
   27.750    4.0723
   27.780    4.8271
   27.810    4.2127
   27.840    3.9494
   27.870    4.1074
   27.900    4.6340
   27.930    4.1952
   27.960    4.1776
   27.990    3.8090
   28.020    4.0372
   28.050    3.8441
   28.080    4.7042
   28.110    4.1250
   28.140    3.8090
   28.170    3.8441
   28.200    3.8090
   28.230    3.9319
   28.260    4.0197
   28.290    3.8968
   28.320    4.1074
   28.350    4.2478
   28.380    4.2303
   28.410    4.2654
   28.440    4.0548
   28.470    4.0723
   28.500    3.7739
   28.530    3.7564
   28.560    4.1250
   28.590    3.6159
   28.620    4.0548
   28.650    3.9846
   28.680    3.9319
   28.710    4.0372
   28.740    4.2478
   28.770    3.9846
   28.800    4.2478
   28.830    4.3883
   28.860    4.1074
   28.890    4.0899
   28.920    4.1425
   28.950    4.0899
   28.980    4.1074
   29.010    4.3005
   29.040    4.3005
   29.070    4.3005
   29.100    3.9846
   29.130    3.9846
   29.160    3.8090
   29.190    4.0197
   29.220    4.1425
   29.250    3.6510
   29.280    4.2478
   29.310    4.2127
   29.340    3.9494
   29.370    4.1074
   29.400    4.3181
   29.430    3.7915
   29.460    4.2127
   29.490    3.6862
   29.520    3.6862
   29.550    4.0021
   29.580    3.7213
   29.610    3.6862
   29.640    3.9846
   29.670    3.7213
   29.700    4.0021
   29.730    4.1425
   29.760    4.2830
   29.790    4.1952
   29.820    3.7915
   29.850    3.7388
   29.880    3.9494
   29.910    3.7388
   29.940    3.7564
   29.970    3.6686
   30.000    3.6686
   30.030    3.9319
   30.060    3.7739
   30.090    3.6510
   30.120    3.8441
   30.150    3.9670
   30.180    3.8441
   30.210    3.7564
   30.240    3.8090
   30.270    3.6862
   30.300    4.0197
   30.330    3.9670
   30.360    3.8617
   30.390    3.5457
   30.420    4.0548
   30.450    3.6335
   30.480    4.0372
   30.510    4.1074
   30.540    4.0899
   30.570    3.8090
   30.600    4.3005
   30.630    3.6862
   30.660    3.6159
   30.690    4.1250
   30.720    4.1250
   30.750    3.8441
   30.780    3.7915
   30.810    3.5282
   30.840    3.5808
   30.870    3.9494
   30.900    3.7388
   30.930    3.4755
   30.960    3.6159
   30.990    3.7739
   31.020    3.6335
   31.050    3.7388
   31.080    3.7564
   31.110    3.7037
   31.140    3.5457
   31.170    3.5282
   31.200    3.5984
   31.230    3.4053
   31.260    3.6862
   31.290    3.8441
   31.320    3.9670
   31.350    3.5457
   31.380    3.3877
   31.410    3.4931
   31.440    3.8968
   31.470    3.4229
   31.500    3.5282
   31.530    3.6862
   31.560    3.5106
   31.590    3.4580
   31.620    3.5457
   31.650    3.6335
   31.680    3.9846
   31.710    3.5457
   31.740    4.0548
   31.770    3.8266
   31.800    3.9143
   31.830    3.8792
   31.860    3.7564
   31.890    3.8266
   31.920    3.8968
   31.950    3.8617
   31.980    3.4755
   32.010    3.8617
   32.040    3.5457
   32.070    3.9846
   32.100    3.9143
   32.130    3.2824
   32.160    3.4755
   32.190    3.7213
   32.220    3.4404
   32.250    3.7915
   32.280    3.4580
   32.310    3.5633
   32.340    3.6862
   32.370    3.7213
   32.400    3.0542
   32.430    3.5984
   32.460    3.2824
   32.490    3.5106
   32.520    3.3000
   32.550    3.4229
   32.580    3.5282
   32.610    3.6510
   32.640    3.4053
   32.670    3.7213
   32.700    3.7564
   32.730    3.5808
   32.760    3.4755
   32.790    3.3175
   32.820    3.2122
   32.850    3.3351
   32.880    3.5282
   32.910    3.3000
   32.940    3.6335
   32.970    3.4053
   33.000    3.6335
   33.030    3.7213
   33.060    3.7213
   33.090    3.7213
   33.120    3.6686
   33.150    3.2298
   33.180    3.3351
   33.210    3.4755
   33.240    3.9143
   33.270    3.4053
   33.300    3.3351
   33.330    3.6686
   33.360    3.5808
   33.390    3.3702
   33.420    3.5282
   33.450    3.5106
   33.480    3.0893
   33.510    3.6862
   33.540    3.3877
   33.570    3.3526
   33.600    3.4053
   33.630    3.3351
   33.660    3.2824
   33.690    3.4053
   33.720    3.2473
   33.750    3.7388
   33.780    3.0542
   33.810    3.1596
   33.840    3.4229
   33.870    3.6159
   33.900    3.8090
   33.930    3.4580
   33.960    3.3000
   33.990    3.3526
   34.020    3.3877
   34.050    3.2649
   34.080    2.7909
   34.110    3.1947
   34.140    3.2298
   34.170    3.3351
   34.200    3.3000
   34.230    3.4404
   34.260    3.3702
   34.290    3.2122
   34.320    3.1596
   34.350    3.5808
   34.380    3.2649
   34.410    3.3175
   34.440    3.3175
   34.470    3.3000
   34.500    3.2824
   34.530    3.4931
   34.560    3.6686
   34.590    3.4229
   34.620    3.1947
   34.650    3.0718
   34.680    3.2122
   34.710    3.5808
   34.740    3.1596
   34.770    3.4931
   34.800    3.4931
   34.830    3.4931
   34.860    3.5457
   34.890    3.3175
   34.920    2.9665
   34.950    3.1947
   34.980    3.2473
   35.010    3.3877
   35.040    3.7037
   35.070    3.3702
   35.100    3.4229
   35.130    3.1245
   35.160    3.1069
   35.190    3.1771
   35.220    3.4404
   35.250    3.2122
   35.280    3.3877
   35.310    3.2122
   35.340    3.0367
   35.370    3.6159
   35.400    3.2649
   35.430    3.0718
   35.460    3.1245
   35.490    3.4229
   35.520    3.3175
   35.550    3.5106
   35.580    3.3000
   35.610    3.2122
   35.640    3.2298
   35.670    3.2824
   35.700    3.3175
   35.730    3.0718
   35.760    3.1947
   35.790    2.9840
   35.820    3.6510
   35.850    3.7739
   35.880    3.3526
   35.910    3.3351
   35.940    3.1947
   35.970    3.2122
   36.000    2.8260
   36.030    3.1771
   36.060    3.6686
   36.090    3.5282
   36.120    3.1947
   36.150    3.2824
   36.180    3.0016
   36.210    3.2122
   36.240    3.1771
   36.270    3.1596
   36.300    3.0893
   36.330    3.0191
   36.360    3.5808
   36.390    2.9314
   36.420    3.0191
   36.450    3.2649
   36.480    3.2649
   36.510    3.1069
   36.540    3.5282
   36.570    3.4580
   36.600    3.2122
   36.630    3.6510
   36.660    2.9840
   36.690    3.3175
   36.720    3.3000
   36.750    3.2824
   36.780    3.2298
   36.810    2.9489
   36.840    3.3000
   36.870    3.0016
   36.900    3.4404
   36.930    3.5282
   36.960    3.1420
   36.990    3.0016
   37.020    3.1245
   37.050    3.1420
   37.080    3.3877
   37.110    3.3000
   37.140    3.1947
   37.170    3.2824
   37.200    3.5106
   37.230    3.0191
   37.260    3.3702
   37.290    3.1245
   37.320    3.2824
   37.350    3.3000
   37.380    3.1420
   37.410    3.2122
   37.440    3.1596
   37.470    3.1596
   37.500    3.4229
   37.530    3.0718
   37.560    3.2824
   37.590    3.1771
   37.620    3.3702
   37.650    2.8787
   37.680    3.4755
   37.710    3.1771
   37.740    2.8085
   37.770    3.1245
   37.800    3.2824
   37.830    3.3351
   37.860    3.0542
   37.890    2.7558
   37.920    3.1947
   37.950    3.0893
   37.980    2.9840
   38.010    3.3351
   38.040    3.0542
   38.070    2.8436
   38.100    3.1420
   38.130    2.9314
   38.160    3.1245
   38.190    3.0893
   38.220    3.0542
   38.250    3.0016
   38.280    3.1420
   38.310    3.3351
   38.340    3.2298
   38.370    3.0893
   38.400    3.2473
   38.430    2.7909
   38.460    3.2122
   38.490    3.3000
   38.520    3.4229
   38.550    3.1069
   38.580    2.9840
   38.610    3.0542
   38.640    3.4404
   38.670    2.7558
   38.700    3.2473
   38.730    3.3351
   38.760    3.1420
   38.790    3.2824
   38.820    2.9314
   38.850    2.9665
   38.880    3.3526
   38.910    3.1069
   38.940    3.3175
   38.970    3.1596
   39.000    2.9489
   39.030    3.4404
   39.060    2.7383
   39.090    3.0718
   39.120    3.3000
   39.150    3.1420
   39.180    3.0718
   39.210    2.9840
   39.240    3.2298
   39.270    3.3000
   39.300    3.0718
   39.330    2.8260
   39.360    3.1947
   39.390    2.8436
   39.420    2.7032
   39.450    3.1771
   39.480    3.3000
   39.510    3.2473
   39.540    3.2824
   39.570    3.3175
   39.600    3.2473
   39.630    3.1596
   39.660    3.0191
   39.690    2.7032
   39.720    3.3351
   39.750    2.9840
   39.780    2.8963
   39.810    3.1420
   39.840    2.8787
   39.870    2.8085
   39.900    2.7032
   39.930    2.8963
   39.960    3.2298
   39.990    3.1947