File: data/MOCOF-1/PXRD/PXRD_KE-252_Cu-Ka1_film-8mm_4s-deg_continuous.xyd
    2.000   14.2063
    2.030   13.8492
    2.060   13.9550
    2.090   14.1534
    2.120   14.1270
    2.150   13.8624
    2.180   14.2063
    2.210   13.6111
    2.240   13.3862
    2.270   13.8492
    2.300   13.6376
    2.330   13.6111
    2.360   13.6111
    2.390   13.2804
    2.420   13.6508
    2.450   13.7831
    2.480   13.4259
    2.510   13.6772
    2.540   13.2804
    2.570   13.2011
    2.600   13.3466
    2.630   12.8307
    2.660   12.6852
    2.690   13.8095
    2.720   13.0952
    2.750   13.2407
    2.780   13.4127
    2.810   14.0212
    2.840   13.8492
    2.870   12.8042
    2.900   13.4788
    2.930   13.2540
    2.960   13.5582
    2.990   13.2275
    3.020   12.8704
    3.050   13.6772
    3.080   13.1481
    3.110   13.7566
    3.140   13.9153
    3.170   13.5450
    3.200   14.2328
    3.230   14.1931
    3.260   13.9550
    3.290   14.0212
    3.320   14.5370
    3.350   13.8624
    3.380   14.4577
    3.410   14.3254
    3.440   15.2513
    3.470   15.0794
    3.500   15.0661
    3.530   15.0397
    3.560   16.0317
    3.590   16.1243
    3.620   16.8254
    3.650   16.5873
    3.680   17.6984
    3.710   19.6164
    3.740   21.3492
    3.770   23.4392
    3.800   25.6349
    3.830   22.9762
    3.860   16.6270
    3.890   14.7487
    3.920   14.2328
    3.950   14.6164
    3.980   14.3122
    4.010   14.5899
    4.040   14.5238
    4.070   13.7698
    4.100   14.1270
    4.130   13.6905
    4.160   14.0476
    4.190   14.7751
    4.220   14.4577
    4.250   14.7354
    4.280   13.9550
    4.310   14.2857
    4.340   14.6429
    4.370   14.4577
    4.400   15.2116
    4.430   14.4312
    4.460   14.5635
    4.490   14.8810
    4.520   14.9206
    4.550   14.6429
    4.580   14.4444
    4.610   15.0926
    4.640   16.0847
    4.670   15.0132
    4.700   15.1720
    4.730   15.6349
    4.760   15.7804
    4.790   16.1111
    4.820   15.8995
    4.850   16.0185
    4.880   15.8333
    4.910   16.1905
    4.940   16.8915
    4.970   15.8201
    5.000   16.7460
    5.030   16.3757
    5.060   17.1958
    5.090   17.1693
    5.120   18.0159
    5.150   18.2804
    5.180   18.2936
    5.210   18.7831
    5.240   18.3201
    5.270   18.7434
    5.300   19.2593
    5.330   19.1931
    5.360   19.3519
    5.390   19.8016
    5.420   20.1852
    5.450   20.7804
    5.480   19.1667
    5.510   18.3862
    5.540   18.9947
    5.570   17.8307
    5.600   18.0291
    5.630   18.2540
    5.660   17.6984
    5.690   16.6402
    5.720   16.3228
    5.750   16.4286
    5.780   16.4418
    5.810   15.3836
    5.840   15.6878
    5.870   15.0265
    5.900   15.7143
    5.930   15.2381
    5.960   15.7672
    5.990   14.9603
    6.020   14.8148
    6.050   15.1720
    6.080   14.1534
    6.110   14.1931
    6.140   13.7698
    6.170   13.7698
    6.200   13.8360
    6.230   13.3730
    6.260   13.0952
    6.290   13.3466
    6.320   13.3069
    6.350   13.1614
    6.380   13.5847
    6.410   13.1349
    6.440   13.2804
    6.470   13.0026
    6.500   12.8307
    6.530   13.1878
    6.560   13.3862
    6.590   12.7778
    6.620   13.1349
    6.650   12.4868
    6.680   12.9762
    6.710   12.5397
    6.740   11.8915
    6.770   12.0767
    6.800   12.6058
    6.830   12.0370
    6.860   11.7460
    6.890   12.7646
    6.920   12.1693
    6.950   11.6931
    6.980   11.6005
    7.010   11.7989
    7.040   11.5344
    7.070   11.5079
    7.100   11.2566
    7.130   10.8862
    7.160   11.2698
    7.190   10.8466
    7.220   11.5741
    7.250   11.0450
    7.280   10.6085
    7.310   10.9524
    7.340   10.9656
    7.370   10.2778
    7.400   11.0582
    7.430   11.0317
    7.460   10.3571
    7.490   10.9656
    7.520   10.1058
    7.550   10.1587
    7.580   10.2778
    7.610   10.5556
    7.640    9.9339
    7.670   10.6878
    7.700   10.6349
    7.730   11.0979
    7.760   10.1984
    7.790   10.3836
    7.820    9.4841
    7.850    9.4048
    7.880    9.6429
    7.910    9.0873
    7.940    9.7222
    7.970   10.3571
    8.000    9.5503
    8.030    9.2593
    8.060    9.3519
    8.090    9.3122
    8.120    9.0344
    8.150    9.3651
    8.180    9.2857
    8.210    9.3915
    8.240    9.3519
    8.270    9.2725
    8.300    8.9021
    8.330    9.1799
    8.360    9.0344
    8.390    8.9286
    8.420    9.2196
    8.450    9.2725
    8.480    8.5847
    8.510    8.6905
    8.540    8.8228
    8.570    9.6296
    8.600    8.6905
    8.630    8.8889
    8.660    9.1799
    8.690    9.1534
    8.720    8.6243
    8.750    8.7831
    8.780    9.3519
    8.810    8.6905
    8.840    8.9550
    8.870    8.9815
    8.900    9.0476
    8.930    8.9418
    8.960    9.0344
    8.990    8.6640
    9.020    9.0079
    9.050    8.7169
    9.080    8.6508
    9.110    8.7169
    9.140    8.5317
    9.170    8.6508
    9.200    8.4524
    9.230    8.6111
    9.260    8.5317
    9.290    8.6243
    9.320    8.5450
    9.350    8.5714
    9.380    8.5185
    9.410    8.8492
    9.440    9.0476
    9.470    9.6561
    9.500    9.5238
    9.530    9.4180
    9.560    9.1799
    9.590    8.7566
    9.620    8.9021
    9.650    8.8095
    9.680    8.4921
    9.710    8.6376
    9.740    9.6032
    9.770    8.3069
    9.800    8.4127
    9.830    8.5847
    9.860    8.4921
    9.890    8.6772
    9.920    8.5847
    9.950    8.4127
    9.980    8.3069
   10.010    8.6508
   10.040    8.9550
   10.070    8.5714
   10.100    9.4180
   10.130    8.6772
   10.160    8.7566
   10.190    9.4048
   10.220    9.5503
   10.250    9.6032
   10.280    9.0212
   10.310    8.8624
   10.340    9.2328
   10.370    9.3915
   10.400    8.9153
   10.430    8.4656
   10.460    9.0873
   10.490    8.8228
   10.520    9.7751
   10.550    8.6376
   10.580    9.2725
   10.610    8.9683
   10.640    9.4180
   10.670    9.3254
   10.700    9.1402
   10.730    9.1799
   10.760    8.8889
   10.790    9.1799
   10.820    9.6825
   10.850    9.4048
   10.880    9.3386
   10.910    9.5899
   10.940    9.6693
   10.970    9.5899
   11.000    9.5635
   11.030    9.4048
   11.060    8.9683
   11.090    9.1270
   11.120    9.1005
   11.150    9.6032
   11.180    9.2328
   11.210    8.8095
   11.240    9.1402
   11.270    8.7698
   11.300    8.8492
   11.330    9.0344
   11.360    8.9021
   11.390    9.4841
   11.420    8.8624
   11.450    9.2593
   11.480    8.8360
   11.510    9.2063
   11.540    8.9418
   11.570    9.0476
   11.600    9.1402
   11.630    9.4312
   11.660    9.3519
   11.690    9.0873
   11.720    9.2460
   11.750    8.8492
   11.780    8.8889
   11.810    8.7037
   11.840    8.7963
   11.870    8.7037
   11.900    8.7169
   11.930    8.7831
   11.960    8.7302
   11.990    8.4392
   12.020    8.8228
   12.050    8.9021
   12.080    8.5185
   12.110    8.5185
   12.140    8.5714
   12.170    8.8492
   12.200    8.4656
   12.230    8.2804
   12.260    8.6640
   12.290    8.6111
   12.320    8.5185
   12.350    8.2540
   12.380    8.0952
   12.410    8.3598
   12.440    8.9021
   12.470    8.3862
   12.500    8.4392
   12.530    8.4392
   12.560    8.2275
   12.590    8.8757
   12.620    8.5714
   12.650    8.2143
   12.680    8.1085
   12.710    8.6640
   12.740    8.3862
   12.770    8.2937
   12.800    8.6111
   12.830    8.5185
   12.860    8.4524
   12.890    8.8228
   12.920    9.2196
   12.950    8.4127
   12.980    8.0952
   13.010    8.2275
   13.040    8.9286
   13.070    8.2011
   13.100    8.2804
   13.130    8.2143
   13.160    8.3201
   13.190    8.0159
   13.220    8.1085
   13.250    8.1349
   13.280    8.2540
   13.310    8.1085
   13.340    8.2143
   13.370    7.6984
   13.400    8.4656
   13.430    8.2540
   13.460    8.3069
   13.490    8.0026
   13.520    8.7037
   13.550    8.7831
   13.580    7.7778
   13.610    8.5185
   13.640    8.3862
   13.670    8.3730
   13.700    8.1878
   13.730    8.7302
   13.760    8.3201
   13.790    9.1270
   13.820    8.8228
   13.850    8.5450
   13.880    8.7831
   13.910    8.4788
   13.940    8.3598
   13.970    9.3122
   14.000    9.6958
   14.030    9.0344
   14.060    8.8889
   14.090    8.8360
   14.120    8.8360
   14.150    8.5847
   14.180    8.9683
   14.210    9.0079
   14.240    9.1799
   14.270    8.8624
   14.300    9.1005
   14.330    9.1402
   14.360    8.9418
   14.390    9.4841
   14.420    8.9683
   14.450    9.2989
   14.480    8.2143
   14.510    9.5767
   14.540    8.7566
   14.570    8.4259
   14.600    8.6772
   14.630    9.3122
   14.660    8.9021
   14.690    8.2937
   14.720    8.6508
   14.750    8.6111
   14.780    8.3995
   14.810    8.4259
   14.840    8.5450
   14.870    8.4392
   14.900    8.3862
   14.930    8.2275
   14.960    8.2937
   14.990    8.5582
   15.020    7.5661
   15.050    8.4259
   15.080    8.5450
   15.110    8.4921
   15.140    8.5317
   15.170    8.1878
   15.200    8.2937
   15.230    8.3466
   15.260    8.1878
   15.290    8.6376
   15.320    7.9101
   15.350    8.5582
   15.380    8.1217
   15.410    8.2407
   15.440    8.1481
   15.470    8.2143
   15.500    8.6508
   15.530    7.5397
   15.560    7.7778
   15.590    8.4524
   15.620    8.7566
   15.650    8.3466
   15.680    8.1746
   15.710    8.1481
   15.740    7.6720
   15.770    8.0026
   15.800    8.0291
   15.830    8.7037
   15.860    7.7910
   15.890    8.0952
   15.920    7.7381
   15.950    8.4656
   15.980    8.2407
   16.010    8.1349
   16.040    8.0291
   16.070    8.0952
   16.100    7.8439
   16.130    8.1481
   16.160    8.2011
   16.190    8.1878
   16.220    8.3730
   16.250    8.5979
   16.280    7.7249
   16.310    7.8836
   16.340    7.9497
   16.370    8.2143
   16.400    8.3466
   16.430    8.7963
   16.460    8.3201
   16.490    8.5053
   16.520    8.7434
   16.550    8.6508
   16.580    8.4392
   16.610    8.1349
   16.640    7.4735
   16.670    7.9894
   16.700    8.1085
   16.730    8.0423
   16.760    7.6852
   16.790    8.1878
   16.820    8.2275
   16.850    8.2407
   16.880    7.7646
   16.910    8.1746
   16.940    8.2407
   16.970    7.8042
   17.000    8.3333
   17.030    8.3995
   17.060    8.0026
   17.090    8.3201
   17.120    8.2937
   17.150    7.8042
   17.180    8.0291
   17.210    7.6190
   17.240    7.9101
   17.270    7.5397
   17.300    8.3201
   17.330    7.9101
   17.360    7.9497
   17.390    7.8175
   17.420    8.0159
   17.450    8.5450
   17.480    8.1481
   17.510    8.3069
   17.540    7.9894
   17.570    7.9630
   17.600    8.0159
   17.630    7.6455
   17.660    8.0688
   17.690    8.1878
   17.720    7.6058
   17.750    7.8439
   17.780    7.6323
   17.810    7.7646
   17.840    7.9762
   17.870    7.8571
   17.900    7.9497
   17.930    7.9762
   17.960    7.6323
   17.990    7.7778
   18.020    8.1746
   18.050    8.4524
   18.080    7.5397
   18.110    7.4603
   18.140    7.7249
   18.170    7.6455
   18.200    7.6984
   18.230    7.8307
   18.260    8.3995
   18.290    8.1878
   18.320    8.3069
   18.350    7.8175
   18.380    8.0423
   18.410    7.7381
   18.440    7.8307
   18.470    7.7646
   18.500    8.0423
   18.530    7.3413
   18.560    7.8439
   18.590    8.0556
   18.620    7.8704
   18.650    7.6058
   18.680    7.3810
   18.710    7.6455
   18.740    7.2619
   18.770    8.2540
   18.800    7.9101
   18.830    7.7646
   18.860    7.8968
   18.890    7.3280
   18.920    7.4603
   18.950    7.8836
   18.980    7.9762
   19.010    7.3677
   19.040    7.5794
   19.070    7.6190
   19.100    7.5661
   19.130    7.5397
   19.160    7.7381
   19.190    7.5132
   19.220    7.2222
   19.250    7.6455
   19.280    7.1825
   19.310    7.5000
   19.340    7.5132
   19.370    7.5132
   19.400    7.6190
   19.430    7.4074
   19.460    7.3942
   19.490    7.7116
   19.520    7.1958
   19.550    7.5397
   19.580    7.5000
   19.610    7.4603
   19.640    7.7381
   19.670    8.0026
   19.700    7.2354
   19.730    7.0635
   19.760    7.6455
   19.790    7.7249
   19.820    7.5794
   19.850    7.6587
   19.880    6.8254
   19.910    7.1693
   19.940    7.8042
   19.970    7.2222
   20.000    7.2222
   20.030    7.2487
   20.060    7.2884
   20.090    7.4471
   20.120    7.5000
   20.150    7.3413
   20.180    7.5397
   20.210    7.1561
   20.240    7.4074
   20.270    6.8254
   20.300    7.4206
   20.330    7.3545
   20.360    7.0238
   20.390    7.1032
   20.420    7.6058
   20.450    6.9709
   20.480    7.0106
   20.510    7.2619
   20.540    7.5000
   20.570    7.3148
   20.600    7.3545
   20.630    7.1429
   20.660    6.9974
   20.690    7.3148
   20.720    7.2751
   20.750    7.0503
   20.780    6.9841
   20.810    6.8783
   20.840    7.1561
   20.870    7.0238
   20.900    6.5476
   20.930    7.0899
   20.960    6.9974
   20.990    6.9577
   21.020    6.8122
   21.050    7.5132
   21.080    6.8915
   21.110    6.6005
   21.140    7.1561
   21.170    7.2090
   21.200    7.0106
   21.230    6.9709
   21.260    7.1429
   21.290    7.0635
   21.320    6.9577
   21.350    6.8386
   21.380    6.8783
   21.410    7.2222
   21.440    6.6402
   21.470    7.5926
   21.500    7.5661
   21.530    7.2619
   21.560    6.4286
   21.590    7.3148
   21.620    7.0767
   21.650    7.4603
   21.680    6.9048
   21.710    7.1825
   21.740    6.9577
   21.770    7.0238
   21.800    7.3942
   21.830    7.3148
   21.860    6.6402
   21.890    6.4683
   21.920    6.4550
   21.950    6.8915
   21.980    6.8651
   22.010    6.7196
   22.040    6.9048
   22.070    7.1296
   22.100    6.2434
   22.130    6.7328
   22.160    6.7196
   22.190    6.6534
   22.220    7.1032
   22.250    6.9974
   22.280    6.7593
   22.310    6.9841
   22.340    6.9577
   22.370    6.8122
   22.400    6.8122
   22.430    6.7063
   22.460    6.5344
   22.490    6.6270
   22.520    6.9180
   22.550    6.7857
   22.580    6.7196
   22.610    6.6402
   22.640    6.1772
   22.670    6.6799
   22.700    6.5741
   22.730    6.5212
   22.760    6.6931
   22.790    6.8519
   22.820    6.6402
   22.850    6.5344
   22.880    7.0767
   22.910    6.8519
   22.940    6.3624
   22.970    6.7593
   23.000    6.1376
   23.030    6.4815
   23.060    6.2434
   23.090    6.3889
   23.120    6.0582
   23.150    6.2169
   23.180    6.5079
   23.210    6.5344
   23.240    6.0714
   23.270    5.9921
   23.300    5.9259
   23.330    6.1508
   23.360    6.1508
   23.390    5.8466
   23.420    6.2302
   23.450    6.0714
   23.480    6.1376
   23.510    5.9921
   23.540    6.1243
   23.570    6.2698
   23.600    6.6931
   23.630    5.8730
   23.660    6.2302
   23.690    6.2169
   23.720    5.9921
   23.750    6.3095
   23.780    6.3360
   23.810    5.9921
   23.840    6.2831
   23.870    5.8466
   23.900    6.1376
   23.930    6.1376
   23.960    6.2566
   23.990    5.5952
   24.020    6.3624
   24.050    5.6746
   24.080    6.0979
   24.110    5.8466
   24.140    6.3757
   24.170    5.8995
   24.200    6.0450
   24.230    5.8598
   24.260    6.0847
   24.290    5.7011
   24.320    5.9259
   24.350    5.7407
   24.380    5.8598
   24.410    5.5159
   24.440    6.0714
   24.470    5.6481
   24.500    6.0847
   24.530    5.8995
   24.560    5.8730
   24.590    6.2302
   24.620    5.9392
   24.650    5.7407
   24.680    6.0582
   24.710    6.0714
   24.740    6.2566
   24.770    5.6349
   24.800    5.6481
   24.830    5.7011
   24.860    5.8333
   24.890    5.6349
   24.920    5.8730
   24.950    5.5291
   24.980    5.9259
   25.010    5.4365
   25.040    5.6878
   25.070    5.6614
   25.100    5.7672
   25.130    5.3439
   25.160    5.2116
   25.190    5.6878
   25.220    5.5820
   25.250    5.7275
   25.280    5.7672
   25.310    5.5026
   25.340    5.7672
   25.370    5.6481
   25.400    5.9127
   25.430    5.4101
   25.460    6.1111
   25.490    5.8333
   25.520    5.6746
   25.550    5.5688
   25.580    5.5159
   25.610    5.8201
   25.640    5.5291
   25.670    5.5952
   25.700    5.2646
   25.730    5.5556
   25.760    6.0450
   25.790    5.5556
   25.820    5.3571
   25.850    5.5688
   25.880    5.8201
   25.910    5.4101
   25.940    5.4762
   25.970    5.6085
   26.000    5.5688
   26.030    5.5820
   26.060    5.7540
   26.090    5.2513
   26.120    5.5423
   26.150    5.4233
   26.180    5.5026
   26.210    5.2778
   26.240    5.5026
   26.270    5.3042
   26.300    5.0265
   26.330    5.2513
   26.360    5.5291
   26.390    4.9868
   26.420    5.4365
   26.450    5.2646
   26.480    4.9206
   26.510    5.1190
   26.540    5.3836
   26.570    5.4233
   26.600    5.5688
   26.630    5.5026
   26.660    5.5952
   26.690    5.5159
   26.720    5.1455
   26.750    5.3704
   26.780    5.3968
   26.810    5.3968
   26.840    5.3836
   26.870    5.3836
   26.900    5.3704
   26.930    5.4894
   26.960    5.4233
   26.990    5.4233
   27.020    5.3175
   27.050    5.1984
   27.080    4.9603
   27.110    5.7540
   27.140    5.1984
   27.170    4.8016
   27.200    4.9206
   27.230    4.9471
   27.260    5.1058
   27.290    5.1190
   27.320    4.8545
   27.350    4.9339
   27.380    4.8413
   27.410    4.6429
   27.440    4.9735
   27.470    4.8413
   27.500    5.0397
   27.530    4.5767
   27.560    5.2778
   27.590    5.0000
   27.620    4.6296
   27.650    4.8148
   27.680    5.2116
   27.710    4.6958
   27.740    4.8810
   27.770    4.9735
   27.800    5.1852
   27.830    5.3571
   27.860    5.5688
   27.890    5.2381
   27.920    4.5370
   27.950    4.8413
   27.980    4.8545
   28.010    4.8280
   28.040    4.6032
   28.070    5.0265
   28.100    4.5899
   28.130    5.0794
   28.160    4.8016
   28.190    5.0661
   28.220    5.0661
   28.250    4.6296
   28.280    4.1402
   28.310    5.0132
   28.340    4.4841
   28.370    4.5767
   28.400    4.6825
   28.430    4.8942
   28.460    4.6296
   28.490    5.1984
   28.520    4.5767
   28.550    5.0529
   28.580    5.0397
   28.610    4.5635
   28.640    4.8677
   28.670    4.9471
   28.700    5.3571
   28.730    4.9868
   28.760    4.7090
   28.790    5.0397
   28.820    4.7884
   28.850    4.9868
   28.880    4.6958
   28.910    5.1190
   28.940    4.6429
   28.970    4.4841
   29.000    4.6429
   29.030    5.1852
   29.060    4.2593
   29.090    4.8545
   29.120    4.7884
   29.150    4.4312
   29.180    4.3386
   29.210    4.7619
   29.240    4.5106
   29.270    4.3122
   29.300    4.5106
   29.330    4.3651
   29.360    4.3915
   29.390    4.2196
   29.420    4.4312
   29.450    4.5899
   29.480    4.1270
   29.510    4.3783
   29.540    4.4312
   29.570    4.5503
   29.600    4.4312
   29.630    4.3519
   29.660    3.9683
   29.690    4.2196
   29.720    3.8889
   29.750    4.1005
   29.780    4.2196
   29.810    4.1270
   29.840    4.0212
   29.870    4.0079
   29.900    3.7434
   29.930    3.9550
   29.960    4.1931
   29.990    4.2460
   30.020    3.7698
   30.050    3.6508
   30.080    3.9153
   30.110    4.2328
   30.140    4.3783
   30.170    4.1534
   30.200    3.7963
   30.230    3.6508
   30.260    4.2593
   30.290    4.3122
   30.320    4.4180
   30.350    3.9550
   30.380    4.1402
   30.410    3.8624
   30.440    3.9683
   30.470    3.8492
   30.500    3.7302
   30.530    3.8889
   30.560    4.1534
   30.590    3.8228
   30.620    3.7434
   30.650    3.8757
   30.680    4.1799
   30.710    3.9815
   30.740    3.7963
   30.770    3.6772
   30.800    4.0079
   30.830    3.7698
   30.860    3.8889
   30.890    3.7169
   30.920    3.6111
   30.950    3.9550
   30.980    3.7831
   31.010    3.5317
   31.040    3.6772
   31.070    3.9021
   31.100    3.4127
   31.130    3.7698
   31.160    3.4656
   31.190    3.8624
   31.220    3.3995
   31.250    3.6243
   31.280    3.8095
   31.310    3.8492
   31.340    3.6772
   31.370    3.8624
   31.400    3.9947
   31.430    3.4788
   31.460    3.8360
   31.490    3.6243
   31.520    3.6111
   31.550    3.4392
   31.580    3.6905
   31.610    3.4788
   31.640    3.5582
   31.670    3.5714
   31.700    3.6905
   31.730    3.4392
   31.760    3.8624
   31.790    3.9286
   31.820    3.4656
   31.850    3.4392
   31.880    3.4524
   31.910    3.4656
   31.940    3.5317
   31.970    3.3333
   32.000    3.5450
   32.030    3.4524
   32.060    3.4524
   32.090    3.6905
   32.120    3.2804
   32.150    3.6508
   32.180    3.7831
   32.210    3.5317
   32.240    3.4656
   32.270    3.2937
   32.300    3.4921
   32.330    3.1481
   32.360    3.5979
   32.390    3.5450
   32.420    3.4656
   32.450    3.3995
   32.480    3.7037
   32.510    3.3995
   32.540    3.3598
   32.570    3.5185
   32.600    3.5053
   32.630    3.3333
   32.660    3.1614
   32.690    3.3862
   32.720    3.2407
   32.750    3.4656
   32.780    3.4127
   32.810    3.4788
   32.840    3.2540
   32.870    3.2275
   32.900    3.5714
   32.930    3.5582
   32.960    3.4127
   32.990    3.1217
   33.020    3.0159
   33.050    3.4524
   33.080    3.3466
   33.110    3.4127
   33.140    3.1746
   33.170    3.3995
   33.200    3.1349
   33.230    2.9630
   33.260    3.3069
   33.290    3.0952
   33.320    3.4921
   33.350    3.3333
   33.380    3.3862
   33.410    3.2407
   33.440    3.0556
   33.470    3.0291
   33.500    3.1085
   33.530    3.3333
   33.560    3.2804
   33.590    3.0026
   33.620    3.0952
   33.650    3.2540
   33.680    3.3333
   33.710    3.3730
   33.740    3.0952
   33.770    3.2011
   33.800    3.2407
   33.830    3.3466
   33.860    3.4259
   33.890    3.0159
   33.920    3.2011
   33.950    3.5053
   33.980    3.2407
   34.010    2.8968
   34.040    3.0026
   34.070    3.4921
   34.100    3.3730
   34.130    3.1217
   34.160    3.0159
   34.190    3.4259
   34.220    3.0688
   34.250    3.0952
   34.280    3.3333
   34.310    3.0952
   34.340    3.0952
   34.370    3.5582
   34.400    3.1085
   34.430    3.1746
   34.460    3.0820
   34.490    3.2540
   34.520    2.9762
   34.550    3.1878
   34.580    3.0026
   34.610    3.3598
   34.640    3.0688
   34.670    3.5053
   34.700    3.2275
   34.730    3.1481
   34.760    3.2672
   34.790    3.1878
   34.820    2.9365
   34.850    3.0423
   34.880    2.7778
   34.910    3.0952
   34.940    3.0291
   34.970    2.7778
   35.000    3.1878
   35.030    3.0556
   35.060    2.8704
   35.090    2.9497
   35.120    3.0026
   35.150    3.2275
   35.180    3.0159
   35.210    3.1614
   35.240    3.0820
   35.270    2.9233
   35.300    3.0026
   35.330    3.0952
   35.360    3.0026
   35.390    2.9101
   35.420    3.1746
   35.450    3.1085
   35.480    3.0820
   35.510    3.2804
   35.540    3.4259
   35.570    2.8042
   35.600    2.9894
   35.630    3.1349
   35.660    3.0026
   35.690    3.1746
   35.720    3.1746
   35.750    3.0291
   35.780    2.9630
   35.810    2.9497
   35.840    2.8175
   35.870    3.0688
   35.900    3.0291
   35.930    2.9630
   35.960    3.1217
   35.990    2.6323
   36.020    2.9762
   36.050    3.1085
   36.080    3.1614
   36.110    3.0291
   36.140    2.8836
   36.170    3.0291
   36.200    2.8704
   36.230    3.2011
   36.260    2.8307
   36.290    3.2937
   36.320    3.0159
   36.350    2.9365
   36.380    3.4524
   36.410    2.8968
   36.440    3.0820
   36.470    3.1085
   36.500    3.1746
   36.530    2.7381
   36.560    2.8836
   36.590    3.0820
   36.620    3.1085
   36.650    2.8571
   36.680    2.8836
   36.710    2.8836
   36.740    2.6984
   36.770    3.1481
   36.800    3.0688
   36.830    3.0952
   36.860    2.8836
   36.890    2.9233
   36.920    2.9365
   36.950    3.0291
   36.980    2.9630
   37.010    3.2804
   37.040    3.0026
   37.070    2.9762
   37.100    2.7513
   37.130    2.9630
   37.160    2.9365
   37.190    3.0556
   37.220    2.9365
   37.250    3.0159
   37.280    2.7513
   37.310    2.6984
   37.340    2.8439
   37.370    3.0026
   37.400    2.7249
   37.430    2.6720
   37.460    2.7116
   37.490    3.0688
   37.520    2.9233
   37.550    2.7381
   37.580    2.7646
   37.610    2.7513
   37.640    2.9365
   37.670    2.8704
   37.700    3.0159
   37.730    3.3466
   37.760    2.7910
   37.790    2.9894
   37.820    2.7646
   37.850    3.0423
   37.880    2.6984
   37.910    2.8307
   37.940    2.5000
   37.970    2.8968
   38.000    2.6720
   38.030    2.8439
   38.060    2.4339
   38.090    2.3810
   38.120    2.8175
   38.150    2.8439
   38.180    2.7646
   38.210    2.5397
   38.240    2.7249
   38.270    2.6984
   38.300    2.9630
   38.330    2.7381
   38.360    2.6984
   38.390    2.5926
   38.420    2.7116
   38.450    3.0952
   38.480    2.7910
   38.510    2.6323
   38.540    2.8439
   38.570    2.8042
   38.600    2.7116
   38.630    2.6455
   38.660    2.7381
   38.690    2.7249
   38.720    3.0026
   38.750    2.8836
   38.780    2.5794
   38.810    3.0423
   38.840    2.8439
   38.870    2.8307
   38.900    2.6058
   38.930    2.8836
   38.960    2.7910
   38.990    2.5794
   39.020    2.7910
   39.050    2.6720
   39.080    2.7910
   39.110    2.9365
   39.140    2.6852
   39.170    2.6720
   39.200    2.5794
   39.230    2.8307
   39.260    2.6190
   39.290    2.3810
   39.320    2.7778
   39.350    2.7646
   39.380    2.5132
   39.410    2.5529
   39.440    2.5661
   39.470    2.6455
   39.500    2.5132
   39.530    2.6587
   39.560    3.0952
   39.590    2.4735
   39.620    2.7910
   39.650    2.7249
   39.680    2.8439
   39.710    2.6323
   39.740    2.7778
   39.770    2.7249
   39.800    2.5000
   39.830    2.6058
   39.860    2.7249
   39.890    2.9101
   39.920    2.5397
   39.950    2.6984
   39.980    2.7381