File: data/MOCOF-1/PXRD/PXRD_KE-221_Co-Ka1_capillary-1mm_5s-deg.xyd
    1.500    9.1600
    1.530    9.0851
    1.560    9.2028
    1.590    8.7105
    1.620    8.1434
    1.650    7.8866
    1.680    7.6512
    1.710    7.7582
    1.740    7.4157
    1.770    7.0305
    1.800    6.6239
    1.830    7.0305
    1.860    6.8058
    1.890    6.3884
    1.920    6.2493
    1.950    6.1316
    1.980    5.9390
    2.010    5.7892
    2.040    5.7036
    2.070    5.5859
    2.100    5.3933
    2.130    5.3077
    2.160    5.1150
    2.190    5.0936
    2.220    5.3398
    2.250    5.0936
    2.280    5.1364
    2.310    4.6014
    2.340    4.6763
    2.370    4.7940
    2.400    4.6121
    2.430    4.6014
    2.460    4.7405
    2.490    4.5479
    2.520    4.3553
    2.550    4.3767
    2.580    4.4837
    2.610    4.2911
    2.640    4.4409
    2.670    4.2269
    2.700    4.1734
    2.730    3.9807
    2.760    3.9165
    2.790    4.1841
    2.820    4.3018
    2.850    4.0770
    2.880    3.8416
    2.910    4.7405
    2.940    4.3553
    2.970    4.6442
    3.000    4.4409
    3.030    4.5586
    3.060    4.6335
    3.090    4.7405
    3.120    4.7726
    3.150    4.7512
    3.180    4.8582
    3.210    5.0829
    3.240    5.2220
    3.270    5.4147
    3.300    5.1150
    3.330    5.7892
    3.360    6.0032
    3.390    6.5811
    3.420    6.3670
    3.450    6.9556
    3.480    6.9342
    3.510    7.2017
    3.540    8.1434
    3.570    8.0471
    3.600    8.5500
    3.630    9.3098
    3.660    9.7913
    3.690   10.4762
    3.720   11.5784
    3.750   12.4131
    3.780   13.4938
    3.810   14.3071
    3.840   15.9872
    3.870   17.7742
    3.900   19.5934
    3.930   22.9963
    3.960   24.7512
    3.990   26.1958
    4.020   28.5714
    4.050   27.3515
    4.080   23.0284
    4.110   19.6576
    4.140   17.3569
    4.170   15.9872
    4.200   16.0942
    4.230   16.3617
    4.260   16.9823
    4.290   18.9192
    4.320   21.0273
    4.350   22.7608
    4.380   26.2493
    4.410   30.4013
    4.440   36.0621
    4.470   43.8951
    4.500   60.6528
    4.530   83.0177
    4.560   37.7635
    4.590   11.7496
    4.620    9.0958
    4.650    9.0209
    4.680    8.5393
    4.710    9.3954
    4.740    9.5452
    4.770    9.0102
    4.800    9.3954
    4.830    8.9139
    4.860    9.0423
    4.890    8.7426
    4.920    7.9187
    4.950    7.4157
    4.980    6.7844
    5.010    6.4526
    5.040    5.7785
    5.070    5.0615
    5.100    4.3125
    5.130    4.1627
    5.160    3.3815
    5.190    3.4243
    5.220    3.0284
    5.250    2.7715
    5.280    2.4398
    5.310    2.4826
    5.340    2.1295
    5.370    2.1509
    5.400    2.0332
    5.430    1.9262
    5.460    2.0118
    5.490    1.6907
    5.520    1.8834
    5.550    2.0225
    5.580    1.8513
    5.610    1.8299
    5.640    1.6372
    5.670    1.7549
    5.700    1.8727
    5.730    1.7978
    5.760    1.5730
    5.790    1.6479
    5.820    1.8192
    5.850    1.6372
    5.880    1.6800
    5.910    1.9690
    5.940    1.8620
    5.970    1.9904
    6.000    2.1188
    6.030    2.0760
    6.060    2.3221
    6.090    2.3007
    6.120    2.8036
    6.150    2.7929
    6.180    3.2852
    6.210    3.4350
    6.240    4.2804
    6.270    4.7512
    6.300    4.9117
    6.330    6.3884
    6.360    8.6784
    6.390   11.2895
    6.420   13.9540
    6.450    5.6501
    6.480    1.9048
    6.510    1.4767
    6.540    1.4767
    6.570    1.2627
    6.600    1.2092
    6.630    1.2306
    6.660    1.1985
    6.690    1.1343
    6.720    1.2520
    6.750    1.1985
    6.780    1.2092
    6.810    1.2306
    6.840    1.0915
    6.870    1.1771
    6.900    1.0915
    6.930    1.0701
    6.960    1.1771
    6.990    1.0915
    7.020    1.1985
    7.050    1.0487
    7.080    1.2199
    7.110    1.1450
    7.140    1.1236
    7.170    1.0487
    7.200    1.1985
    7.230    0.8775
    7.260    1.1985
    7.290    1.0808
    7.320    1.0701
    7.350    1.1771
    7.380    1.0915
    7.410    1.1771
    7.440    1.0380
    7.470    1.0594
    7.500    1.3376
    7.530    1.1771
    7.560    1.0594
    7.590    1.2306
    7.620    1.4018
    7.650    1.3376
    7.680    1.3269
    7.710    1.6372
    7.740    1.6479
    7.770    1.7442
    7.800    2.0760
    7.830    2.4077
    7.860    2.8464
    7.890    2.3970
    7.920    2.0760
    7.950    2.0439
    7.980    2.1830
    8.010    2.5682
    8.040    2.9320
    8.070    3.1889
    8.100    2.8892
    8.130    2.5896
    8.160    2.1723
    8.190    1.7442
    8.220    1.4767
    8.250    1.3162
    8.280    1.3055
    8.310    1.2092
    8.340    1.1878
    8.370    1.0915
    8.400    1.2520
    8.430    1.0915
    8.460    1.0380
    8.490    1.1878
    8.520    1.0701
    8.550    1.0808
    8.580    1.1022
    8.610    1.0487
    8.640    1.1771
    8.670    1.0808
    8.700    1.1450
    8.730    1.1236
    8.760    1.1878
    8.790    1.1771
    8.820    1.3376
    8.850    1.5730
    8.880    1.6265
    8.910    1.7121
    8.940    2.1295
    8.970    2.2365
    9.000    2.4398
    9.030    3.1889
    9.060    4.0663
    9.090    5.2755
    9.120    2.7073
    9.150    1.4874
    9.180    1.2520
    9.210    1.0273
    9.240    1.3697
    9.270    1.4018
    9.300    1.2734
    9.330    1.3055
    9.360    1.3697
    9.390    1.3483
    9.420    1.3483
    9.450    1.4339
    9.480    1.4553
    9.510    1.5409
    9.540    1.4339
    9.570    1.3590
    9.600    1.3911
    9.630    1.4767
    9.660    1.7764
    9.690    1.5409
    9.720    1.4660
    9.750    1.5730
    9.780    1.4981
    9.810    1.5944
    9.840    1.7549
    9.870    1.5516
    9.900    1.5195
    9.930    1.3162
    9.960    1.4446
    9.990    1.4553
   10.020    1.4981
   10.050    1.5730
   10.080    1.7121
   10.110    1.6586
   10.140    1.9690
   10.170    1.9797
   10.200    1.3590
   10.230    1.2627
   10.260    1.0380
   10.290    1.1771
   10.320    1.0487
   10.350    0.8775
   10.380    1.0808
   10.410    0.8668
   10.440    1.0166
   10.470    0.8561
   10.500    0.8240
   10.530    1.0808
   10.560    0.8775
   10.590    0.9845
   10.620    0.9203
   10.650    1.0059
   10.680    0.9524
   10.710    1.0273
   10.740    1.2199
   10.770    0.9952
   10.800    0.9738
   10.830    1.1022
   10.860    1.1878
   10.890    1.3590
   10.920    1.3376
   10.950    1.5302
   10.980    1.8085
   11.010    2.3007
   11.040    2.6645
   11.070    3.2852
   11.100    4.8475
   11.130    6.0781
   11.160    5.1150
   11.190    1.8406
   11.220    1.1022
   11.250    1.0273
   11.280    0.8882
   11.310    0.8561
   11.340    0.8240
   11.370    0.8454
   11.400    0.7491
   11.430    0.7812
   11.460    0.8668
   11.490    0.9310
   11.520    0.8026
   11.550    0.8882
   11.580    0.7277
   11.610    0.8026
   11.640    0.8133
   11.670    0.7170
   11.700    0.9096
   11.730    0.9845
   11.760    0.9310
   11.790    0.9203
   11.820    0.8882
   11.850    0.9310
   11.880    1.0594
   11.910    1.2199
   11.940    1.6158
   11.970    1.8192
   12.000    2.0225
   12.030    2.8999
   12.060    2.1830
   12.090    1.1450
   12.120    0.8989
   12.150    1.0059
   12.180    0.9845
   12.210    0.9738
   12.240    0.7170
   12.270    1.1450
   12.300    0.8026
   12.330    0.7812
   12.360    0.9203
   12.390    0.7063
   12.420    0.9310
   12.450    0.7705
   12.480    0.7170
   12.510    0.6956
   12.540    0.8668
   12.570    0.8347
   12.600    0.8775
   12.630    0.8775
   12.660    0.8882
   12.690    0.7705
   12.720    1.1022
   12.750    1.2092
   12.780    1.1878
   12.810    1.6158
   12.840    2.1295
   12.870    2.4933
   12.900    1.8834
   12.930    0.9738
   12.960    0.7491
   12.990    0.7170
   13.020    0.7491
   13.050    0.6528
   13.080    0.8347
   13.110    0.7063
   13.140    0.7170
   13.170    0.6849
   13.200    0.8454
   13.230    0.8882
   13.260    0.8454
   13.290    0.8989
   13.320    0.7277
   13.350    0.6635
   13.380    0.7812
   13.410    0.9952
   13.440    0.9310
   13.470    0.7491
   13.500    1.1022
   13.530    1.1236
   13.560    1.4553
   13.590    1.6051
   13.620    2.1081
   13.650    2.5575
   13.680    2.4291
   13.710    1.1664
   13.740    0.8240
   13.770    0.7277
   13.800    0.6956
   13.830    0.8561
   13.860    0.8775
   13.890    0.7277
   13.920    0.8561
   13.950    0.7919
   13.980    0.7705
   14.010    0.8989
   14.040    0.7812
   14.070    0.6956
   14.100    0.8668
   14.130    0.6956
   14.160    0.8882
   14.190    0.7598
   14.220    1.0166
   14.250    0.8561
   14.280    0.9417
   14.310    0.9952
   14.340    1.2092
   14.370    1.1985
   14.400    1.2734
   14.430    1.1343
   14.460    0.8668
   14.490    0.8561
   14.520    0.8133
   14.550    0.9096
   14.580    0.7063
   14.610    0.7277
   14.640    0.8561
   14.670    0.9631
   14.700    0.9524
   14.730    0.7705
   14.760    0.8668
   14.790    0.8133
   14.820    0.8882
   14.850    0.8240
   14.880    0.8882
   14.910    1.0808
   14.940    0.9524
   14.970    0.9310
   15.000    1.1129
   15.030    1.3590
   15.060    1.5944
   15.090    2.2258
   15.120    2.0332
   15.150    1.2306
   15.180    1.0380
   15.210    0.8561
   15.240    0.8026
   15.270    0.8347
   15.300    0.8347
   15.330    0.8133
   15.360    0.8989
   15.390    0.7063
   15.420    0.7598
   15.450    0.7170
   15.480    0.6849
   15.510    0.9524
   15.540    0.6956
   15.570    0.7384
   15.600    0.8026
   15.630    0.7919
   15.660    0.9203
   15.690    1.1450
   15.720    1.0594
   15.750    1.3804
   15.780    1.1450
   15.810    1.0915
   15.840    0.8882
   15.870    0.8240
   15.900    0.8240
   15.930    0.7812
   15.960    0.7491
   15.990    0.6849
   16.020    0.7277
   16.050    0.7919
   16.080    0.7277
   16.110    0.8561
   16.140    0.8026
   16.170    0.8347
   16.200    0.7277
   16.230    0.8347
   16.260    0.8240
   16.290    1.0594
   16.320    1.0380
   16.350    1.1664
   16.380    1.5516
   16.410    1.6907
   16.440    1.7228
   16.470    1.3483
   16.500    0.8882
   16.530    0.7063
   16.560    0.7919
   16.590    0.6314
   16.620    0.6742
   16.650    0.8347
   16.680    0.8026
   16.710    0.8882
   16.740    0.6314
   16.770    0.7170
   16.800    0.9096
   16.830    0.6635
   16.860    0.7598
   16.890    0.6207
   16.920    0.6207
   16.950    0.6207
   16.980    0.6528
   17.010    0.7598
   17.040    0.6956
   17.070    0.6956
   17.100    0.7063
   17.130    0.6956
   17.160    0.7491
   17.190    0.7277
   17.220    0.7705
   17.250    0.8668
   17.280    0.6742
   17.310    0.7384
   17.340    0.7598
   17.370    0.7705
   17.400    0.5564
   17.430    0.6635
   17.460    0.8561
   17.490    0.5778
   17.520    0.6849
   17.550    0.7491
   17.580    0.7919
   17.610    0.8882
   17.640    0.9310
   17.670    1.0059
   17.700    1.0380
   17.730    0.7491
   17.760    0.6421
   17.790    0.7812
   17.820    0.6956
   17.850    0.6742
   17.880    0.7812
   17.910    0.7812
   17.940    0.6849
   17.970    0.7063
   18.000    0.6849
   18.030    0.6314
   18.060    0.6528
   18.090    0.7277
   18.120    0.6528
   18.150    0.8240
   18.180    0.6956
   18.210    0.6956
   18.240    0.7277
   18.270    0.7384
   18.300    0.8240
   18.330    0.6314
   18.360    0.7170
   18.390    0.7812
   18.420    0.7705
   18.450    0.8668
   18.480    0.7812
   18.510    0.6528
   18.540    0.6528
   18.570    0.7705
   18.600    0.7170
   18.630    0.7063
   18.660    0.7705
   18.690    0.9952
   18.720    0.8240
   18.750    0.9524
   18.780    1.0380
   18.810    0.8989
   18.840    0.9417
   18.870    0.8668
   18.900    0.7170
   18.930    0.7598
   18.960    0.7598
   18.990    0.7705
   19.020    0.6314
   19.050    0.7491
   19.080    0.7063
   19.110    0.7598
   19.140    0.8882
   19.170    0.6956
   19.200    0.6849
   19.230    0.7277
   19.260    0.8989
   19.290    0.9203
   19.320    1.0594
   19.350    1.0059
   19.380    0.9845
   19.410    0.9845
   19.440    0.7277
   19.470    0.6314
   19.500    0.6849
   19.530    0.7063
   19.560    0.6742
   19.590    0.6421
   19.620    0.7277
   19.650    0.7384
   19.680    0.6849
   19.710    0.6314
   19.740    0.8561
   19.770    0.7919
   19.800    0.9631
   19.830    1.0915
   19.860    1.4553
   19.890    1.6051
   19.920    1.3804
   19.950    1.1664
   19.980    0.8240
   20.010    0.8454
   20.040    0.7170
   20.070    0.9417
   20.100    0.5886
   20.130    0.7491
   20.160    0.6849
   20.190    0.7491
   20.220    0.8775
   20.250    0.6742
   20.280    0.9096
   20.310    0.7919
   20.340    0.8133
   20.370    0.8989
   20.400    0.8668
   20.430    0.9310
   20.460    0.7384
   20.490    0.8026
   20.520    0.5993
   20.550    0.7063
   20.580    0.7812
   20.610    0.6635
   20.640    0.6849
   20.670    0.7277
   20.700    0.6742
   20.730    0.7277
   20.760    0.7705
   20.790    0.5993
   20.820    0.8133
   20.850    0.8454
   20.880    0.8668
   20.910    0.7812
   20.940    0.8882
   20.970    0.6956
   21.000    0.7491
   21.030    0.5778
   21.060    0.8240
   21.090    0.7384
   21.120    0.6956
   21.150    0.6956
   21.180    0.5457
   21.210    0.7491
   21.240    0.6849
   21.270    0.7919
   21.300    0.6207
   21.330    0.7598
   21.360    0.7598
   21.390    0.9738
   21.420    1.0059
   21.450    0.9096
   21.480    0.9631
   21.510    0.7919
   21.540    0.7384
   21.570    0.7491
   21.600    0.7812
   21.630    0.7170
   21.660    0.5886
   21.690    0.6421
   21.720    0.6207
   21.750    0.7598
   21.780    0.6635
   21.810    0.7277
   21.840    0.7277
   21.870    0.7491
   21.900    0.7598
   21.930    0.7277
   21.960    0.8775
   21.990    0.7812
   22.020    0.7919
   22.050    0.7598
   22.080    0.6314
   22.110    0.7277
   22.140    0.6421
   22.170    0.5993
   22.200    0.6956
   22.230    0.6528
   22.260    0.6314
   22.290    0.6956
   22.320    0.6635
   22.350    0.5671
   22.380    0.6849
   22.410    0.6421
   22.440    0.7598
   22.470    0.7491
   22.500    0.7812
   22.530    0.6635
   22.560    0.8133
   22.590    0.6956
   22.620    0.7919
   22.650    0.6742
   22.680    0.7170
   22.710    0.9203
   22.740    0.8989
   22.770    0.8347
   22.800    1.0059
   22.830    1.1878
   22.860    0.9524
   22.890    1.0808
   22.920    0.9738
   22.950    0.8240
   22.980    0.8347
   23.010    0.6421
   23.040    0.8347
   23.070    0.8026
   23.100    0.8240
   23.130    0.6849
   23.160    0.7491
   23.190    0.9096
   23.220    0.8026
   23.250    0.6956
   23.280    0.8668
   23.310    0.9096
   23.340    0.8347
   23.370    0.7277
   23.400    0.8454
   23.430    0.7812
   23.460    1.0380
   23.490    0.6956
   23.520    0.9952
   23.550    0.8561
   23.580    0.8454
   23.610    0.8989
   23.640    0.9524
   23.670    1.0273
   23.700    1.1878
   23.730    1.4018
   23.760    1.5302
   23.790    1.3376
   23.820    1.3590
   23.850    0.9738
   23.880    0.7491
   23.910    0.6635
   23.940    0.8133
   23.970    0.8775
   24.000    0.6849
   24.030    0.6528
   24.060    0.8882
   24.090    0.8133
   24.120    0.8133
   24.150    0.7384
   24.180    0.9845
   24.210    0.7491
   24.240    0.7491
   24.270    0.7170
   24.300    0.8989
   24.330    0.8882
   24.360    0.8561
   24.390    0.7277
   24.420    0.7705
   24.450    0.8775
   24.480    0.8561
   24.510    0.8775
   24.540    0.6849
   24.570    0.7812
   24.600    0.8133
   24.630    0.8561
   24.660    0.6956
   24.690    0.8347
   24.720    0.7812
   24.750    0.8454
   24.780    0.7384
   24.810    0.7919
   24.840    0.8454
   24.870    0.6956
   24.900    0.9096
   24.930    0.7491
   24.960    0.7170
   24.990    0.8561
   25.020    0.8347
   25.050    0.7384
   25.080    0.8240
   25.110    0.8454
   25.140    0.7598
   25.170    0.9096
   25.200    0.8133
   25.230    0.8561
   25.260    0.8240
   25.290    0.8347
   25.320    0.8454
   25.350    0.7598
   25.380    0.8882
   25.410    0.7491
   25.440    1.1129
   25.470    1.0273
   25.500    0.9417
   25.530    1.1450
   25.560    0.9845
   25.590    0.9203
   25.620    0.6314
   25.650    0.7812
   25.680    0.9203
   25.710    0.6635
   25.740    0.7919
   25.770    0.7812
   25.800    0.7812
   25.830    0.9310
   25.860    0.8240
   25.890    0.9203
   25.920    0.9096
   25.950    0.8989
   25.980    0.7919
   26.010    0.9096
   26.040    0.7598
   26.070    0.8240
   26.100    0.7919
   26.130    0.6528
   26.160    0.9417
   26.190    0.9096
   26.220    0.9845
   26.250    0.9952
   26.280    1.2734
   26.310    1.4446
   26.340    1.5837
   26.370    1.2092
   26.400    1.1022
   26.430    0.9417
   26.460    1.0166
   26.490    0.7812
   26.520    0.7812
   26.550    0.8561
   26.580    0.7919
   26.610    1.0059
   26.640    1.0380
   26.670    1.1878
   26.700    1.4018
   26.730    1.5409
   26.760    1.4125
   26.790    1.3911
   26.820    0.9952
   26.850    0.9845
   26.880    0.8668
   26.910    0.7598
   26.940    0.8347
   26.970    0.7812
   27.000    0.6849
   27.030    0.7812
   27.060    0.8882
   27.090    1.0701
   27.120    1.0273
   27.150    0.9952
   27.180    1.0487
   27.210    0.8561
   27.240    0.8026
   27.270    0.7063
   27.300    0.7384
   27.330    0.7277
   27.360    0.7170
   27.390    0.6956
   27.420    0.6849
   27.450    0.8026
   27.480    0.7170
   27.510    0.7491
   27.540    0.8561
   27.570    0.7919
   27.600    0.7705
   27.630    0.7705
   27.660    0.6742
   27.690    0.6956
   27.720    0.7705
   27.750    0.7384
   27.780    0.7919
   27.810    0.7491
   27.840    0.7491
   27.870    0.9631
   27.900    1.0059
   27.930    0.8989
   27.960    0.8347
   27.990    0.7705
   28.020    0.6956
   28.050    0.7384
   28.080    0.6849
   28.110    0.8775
   28.140    0.5886
   28.170    0.8668
   28.200    0.7063
   28.230    0.7812
   28.260    0.8454
   28.290    0.6421
   28.320    0.6742
   28.350    0.7170
   28.380    0.8133
   28.410    0.7063
   28.440    0.7705
   28.470    0.7919
   28.500    0.6528
   28.530    0.9524
   28.560    0.9310
   28.590    0.7491
   28.620    0.8133
   28.650    0.8989
   28.680    0.7812
   28.710    0.8133
   28.740    0.6956
   28.770    0.7491
   28.800    0.6314
   28.830    0.7598
   28.860    0.7491
   28.890    0.7812
   28.920    0.6100
   28.950    0.8347
   28.980    0.7170
   29.010    0.8347
   29.040    0.8240
   29.070    0.7384
   29.100    0.7919
   29.130    0.6849
   29.160    0.7598
   29.190    0.6956
   29.220    0.5778
   29.250    0.6528
   29.280    0.8026
   29.310    0.6421
   29.340    0.7277
   29.370    0.7812
   29.400    0.7598
   29.430    0.7063
   29.460    0.8989
   29.490    0.5778
   29.520    0.6742
   29.550    0.6956
   29.580    0.5778
   29.610    0.7491
   29.640    0.7063
   29.670    0.8026
   29.700    0.7384
   29.730    0.6421
   29.760    0.8668
   29.790    0.7384
   29.820    0.7491
   29.850    0.7384
   29.880    0.6100
   29.910    0.6849
   29.940    0.6100
   29.970    0.7277
   30.000    0.8133
   30.030    0.8561
   30.060    0.7919
   30.090    0.8989
   30.120    1.0915
   30.150    1.1557
   30.180    1.0273
   30.210    1.0701
   30.240    0.8668
   30.270    0.6742
   30.300    0.6207
   30.330    0.6635
   30.360    0.7491
   30.390    0.6207
   30.420    0.6742
   30.450    0.6100
   30.480    0.6849
   30.510    0.6742
   30.540    0.7812
   30.570    0.6207
   30.600    0.7277
   30.630    0.7919
   30.660    0.6421
   30.690    0.5671
   30.720    0.6100
   30.750    0.4922
   30.780    0.8240
   30.810    0.7919
   30.840    0.7063
   30.870    0.5886
   30.900    0.8133
   30.930    0.6849
   30.960    0.6956
   30.990    0.6207
   31.020    0.6207
   31.050    0.5886
   31.080    0.6742
   31.110    0.6421
   31.140    0.6528
   31.170    0.5993
   31.200    0.6849
   31.230    0.4601
   31.260    0.5886
   31.290    0.6742
   31.320    0.5993
   31.350    0.7491
   31.380    0.5136
   31.410    0.7491
   31.440    0.5350
   31.470    0.7170
   31.500    0.8775
   31.530    0.8775
   31.560    0.7063
   31.590    0.7705
   31.620    0.7277
   31.650    0.6528
   31.680    0.6314
   31.710    0.6314
   31.740    0.6100
   31.770    0.5457
   31.800    0.5350
   31.830    0.4815
   31.860    0.6635
   31.890    0.5993
   31.920    0.6956
   31.950    0.6528
   31.980    0.5778
   32.010    0.6207
   32.040    0.5029
   32.070    0.7598
   32.100    0.6635
   32.130    0.6635
   32.160    0.7170
   32.190    0.6421
   32.220    0.7491
   32.250    0.5564
   32.280    0.6528
   32.310    0.7170
   32.340    0.5993
   32.370    0.5243
   32.400    0.6421
   32.430    0.5886
   32.460    0.5136
   32.490    0.7170
   32.520    0.7919
   32.550    0.6635
   32.580    0.5993
   32.610    0.5778
   32.640    0.7705
   32.670    0.6207
   32.700    0.6100
   32.730    0.5671
   32.760    0.6528
   32.790    0.5993
   32.820    0.6314
   32.850    0.8668
   32.880    0.8561
   32.910    0.8989
   32.940    0.9417
   32.970    0.8133
   33.000    0.6100
   33.030    0.6742
   33.060    0.5778
   33.090    0.6528
   33.120    0.5671
   33.150    0.7919
   33.180    0.6635
   33.210    0.7277
   33.240    0.6849
   33.270    0.8347
   33.300    0.7812
   33.330    0.6742
   33.360    0.5029
   33.390    0.5457
   33.420    0.5457
   33.450    0.5671
   33.480    0.5886
   33.510    0.5778
   33.540    0.4601
   33.570    0.5778
   33.600    0.5350
   33.630    0.5778
   33.660    0.5886
   33.690    0.6207
   33.720    0.5136
   33.750    0.5778
   33.780    0.5671
   33.810    0.4815
   33.840    0.5778
   33.870    0.6742
   33.900    0.7170
   33.930    0.5778
   33.960    0.5993
   33.990    0.6421
   34.020    0.6421
   34.050    0.5350
   34.080    0.4708
   34.110    0.6100
   34.140    0.6742
   34.170    0.6528
   34.200    0.6100
   34.230    0.5886
   34.260    0.7277
   34.290    0.6314
   34.320    0.5778
   34.350    0.5671
   34.380    0.5564
   34.410    0.5993
   34.440    0.5243
   34.470    0.4494
   34.500    0.5993
   34.530    0.5350
   34.560    0.5350
   34.590    0.4173
   34.620    0.5564
   34.650    0.4815
   34.680    0.5243
   34.710    0.6207
   34.740    0.5778
   34.770    0.5029
   34.800    0.5886
   34.830    0.6528
   34.860    0.5993
   34.890    0.6849
   34.920    0.6100
   34.950    0.5671
   34.980    0.6528
   35.010    0.6528
   35.040    0.4922
   35.070    0.5136
   35.100    0.6528
   35.130    0.6100
   35.160    0.6314
   35.190    0.6742
   35.220    0.5778
   35.250    0.6528
   35.280    0.5671
   35.310    0.4922
   35.340    0.5243
   35.370    0.5136
   35.400    0.6100
   35.430    0.5457
   35.460    0.5243
   35.490    0.5671
   35.520    0.7491
   35.550    0.5671
   35.580    0.5886
   35.610    0.4280
   35.640    0.6635
   35.670    0.5993
   35.700    0.6207
   35.730    0.4922
   35.760    0.6742
   35.790    0.6207
   35.820    0.5136
   35.850    0.5671
   35.880    0.4494
   35.910    0.5350
   35.940    0.5671
   35.970    0.5778
   36.000    0.5564
   36.030    0.5671
   36.060    0.6100
   36.090    0.6207
   36.120    0.5457
   36.150    0.4601
   36.180    0.4601
   36.210    0.4922
   36.240    0.5778
   36.270    0.4494
   36.300    0.5029
   36.330    0.5136
   36.360    0.5136
   36.390    0.4601
   36.420    0.5029
   36.450    0.4815
   36.480    0.5778
   36.510    0.5564
   36.540    0.5993
   36.570    0.5350
   36.600    0.5671
   36.630    0.6421
   36.660    0.5671
   36.690    0.4922
   36.720    0.7277
   36.750    0.5136
   36.780    0.5778
   36.810    0.5350
   36.840    0.5136
   36.870    0.5778
   36.900    0.5029
   36.930    0.5029
   36.960    0.5778
   36.990    0.5778
   37.020    0.4815
   37.050    0.5671
   37.080    0.5029
   37.110    0.5029
   37.140    0.4387
   37.170    0.4815
   37.200    0.4494
   37.230    0.5457
   37.260    0.5993
   37.290    0.5778
   37.320    0.4601
   37.350    0.4922
   37.380    0.4922
   37.410    0.4280
   37.440    0.4815
   37.470    0.3424
   37.500    0.4494
   37.530    0.5457
   37.560    0.5350
   37.590    0.4815
   37.620    0.4601
   37.650    0.3852
   37.680    0.3959
   37.710    0.4066
   37.740    0.3852
   37.770    0.4494
   37.800    0.4601
   37.830    0.4173
   37.860    0.4494
   37.890    0.5243
   37.920    0.5243
   37.950    0.4066
   37.980    0.4922
   38.010    0.4922
   38.040    0.3852
   38.070    0.4280
   38.100    0.4066
   38.130    0.5671
   38.160    0.5350
   38.190    0.5243
   38.220    0.4173
   38.250    0.5243
   38.280    0.5350
   38.310    0.3745
   38.340    0.4066
   38.370    0.5564
   38.400    0.4815
   38.430    0.5350
   38.460    0.4494
   38.490    0.5243
   38.520    0.5457
   38.550    0.4280
   38.580    0.4173
   38.610    0.4494
   38.640    0.3745
   38.670    0.3852
   38.700    0.4708
   38.730    0.4601
   38.760    0.4601
   38.790    0.3852
   38.820    0.4280
   38.850    0.3317
   38.880    0.3317
   38.910    0.3959
   38.940    0.4173
   38.970    0.5136
   39.000    0.4066
   39.030    0.4066
   39.060    0.3852
   39.090    0.4280
   39.120    0.4922
   39.150    0.4173
   39.180    0.4280
   39.210    0.4387
   39.240    0.4708
   39.270    0.4815
   39.300    0.4173
   39.330    0.5350
   39.360    0.5457
   39.390    0.4280
   39.420    0.5243
   39.450    0.3638
   39.480    0.4708
   39.510    0.4173
   39.540    0.4280
   39.570    0.5350
   39.600    0.5029
   39.630    0.4708
   39.660    0.4815
   39.690    0.3317
   39.720    0.5029
   39.750    0.3424
   39.780    0.4494
   39.810    0.5243
   39.840    0.3959
   39.870    0.3745
   39.900    0.4066
   39.930    0.3852
   39.960    0.3638
   39.990    0.4601