File: data/MIL-88B_101/PXRD/PXRD_S-11_Cu-Kα1_capillary-0.7mm.xyd
    2.000     1844
    2.030     1908
    2.060     1835
    2.090     1905
    2.120     1795
    2.150     1859
    2.180     1754
    2.210     1796
    2.240     1862
    2.270     1762
    2.300     1756
    2.330     1738
    2.360     1817
    2.390     1815
    2.420     1849
    2.450     1836
    2.480     1802
    2.510     1794
    2.540     1888
    2.570     1989
    2.600     1904
    2.630     2029
    2.660     2225
    2.690     2462
    2.720     2413
    2.750     1857
    2.780     1701
    2.810     1668
    2.840     1723
    2.870     1789
    2.900     1747
    2.930     1835
    2.960     1977
    2.990     1895
    3.020     2078
    3.050     2100
    3.080     2312
    3.110     2495
    3.140     2785
    3.170     3373
    3.200     3138
    3.230     2274
    3.260     2011
    3.290     1895
    3.320     2149
    3.350     1928
    3.380     1556
    3.410     1319
    3.440     1386
    3.470     1340
    3.500     1365
    3.530     1295
    3.560     1264
    3.590     1377
    3.620     1388
    3.650     1377
    3.680     1452
    3.710     1366
    3.740     1463
    3.770     1439
    3.800     1473
    3.830     1634
    3.860     1521
    3.890     1517
    3.920     1369
    3.950     1355
    3.980     1334
    4.010     1413
    4.040     1364
    4.070     1328
    4.100     1453
    4.130     1346
    4.160     1418
    4.190     1388
    4.220     1452
    4.250     1384
    4.280     1369
    4.310     1284
    4.340     1368
    4.370     1366
    4.400     1282
    4.430     1367
    4.460     1378
    4.490     1383
    4.520     1382
    4.550     1375
    4.580     1435
    4.610     1430
    4.640     1428
    4.670     1453
    4.700     1540
    4.730     1630
    4.760     1583
    4.790     1426
    4.820     1481
    4.850     1426
    4.880     1581
    4.910     1573
    4.940     1628
    4.970     1668
    5.000     1847
    5.030     1931
    5.060     1786
    5.090     1437
    5.120     1240
    5.150     1365
    5.180     1306
    5.210     1371
    5.240     1295
    5.270     1339
    5.300     1360
    5.330     1348
    5.360     1386
    5.390     1441
    5.420     1414
    5.450     1510
    5.480     1521
    5.510     1486
    5.540     1469
    5.570     1397
    5.600     1393
    5.630     1394
    5.660     1483
    5.690     1606
    5.720     1779
    5.750     1767
    5.780     1553
    5.810     1388
    5.840     1308
    5.870     1350
    5.900     1239
    5.930     1315
    5.960     1263
    5.990     1283
    6.020     1333
    6.050     1247
    6.080     1287
    6.110     1290
    6.140     1269
    6.170     1257
    6.200     1311
    6.230     1319
    6.260     1216
    6.290     1259
    6.320     1274
    6.350     1290
    6.380     1293
    6.410     1309
    6.440     1268
    6.470     1300
    6.500     1299
    6.530     1228
    6.560     1301
    6.590     1256
    6.620     1250
    6.650     1246
    6.680     1285
    6.710     1296
    6.740     1348
    6.770     1328
    6.800     1349
    6.830     1342
    6.860     1324
    6.890     1390
    6.920     1346
    6.950     1351
    6.980     1294
    7.010     1287
    7.040     1337
    7.070     1363
    7.100     1313
    7.130     1326
    7.160     1307
    7.190     1326
    7.220     1363
    7.250     1335
    7.280     1348
    7.310     1263
    7.340     1318
    7.370     1398
    7.400     1379
    7.430     1260
    7.460     1314
    7.490     1331
    7.520     1276
    7.550     1357
    7.580     1302
    7.610     1353
    7.640     1305
    7.670     1393
    7.700     1389
    7.730     1338
    7.760     1439
    7.790     1282
    7.820     1381
    7.850     1485
    7.880     1336
    7.910     1471
    7.940     1481
    7.970     1551
    8.000     1494
    8.030     1550
    8.060     1472
    8.090     1535
    8.120     1530
    8.150     1629
    8.180     1656
    8.210     1832
    8.240     2022
    8.270     2267
    8.300     2146
    8.330     1750
    8.360     1631
    8.390     1683
    8.420     1903
    8.450     1942
    8.480     1856
    8.510     1639
    8.540     1652
    8.570     1805
    8.600     1679
    8.630     1830
    8.660     2001
    8.690     2270
    8.720     2728
    8.750     2490
    8.780     2243
    8.810     2371
    8.840     2613
    8.870     3367
    8.900     3566
    8.930     3076
    8.960     2333
    8.990     1712
    9.020     1522
    9.050     1479
    9.080     1494
    9.110     1473
    9.140     1476
    9.170     1615
    9.200     1650
    9.230     1674
    9.260     1881
    9.290     1761
    9.320     1524
    9.350     1468
    9.380     1381
    9.410     1405
    9.440     1561
    9.470     1480
    9.500     1522
    9.530     1636
    9.560     1680
    9.590     1672
    9.620     1553
    9.650     1477
    9.680     1656
    9.710     1557
    9.740     1693
    9.770     1497
    9.800     1537
    9.830     1544
    9.860     1552
    9.890     1609
    9.920     1614
    9.950     1721
    9.980     1731
   10.010     1748
   10.040     1647
   10.070     1721
   10.100     1989
   10.130     1895
   10.160     2014
   10.190     1807
   10.220     1698
   10.250     1484
   10.280     1476
   10.310     1455
   10.340     1459
   10.370     1564
   10.400     1460
   10.430     1555
   10.460     1576
   10.490     1596
   10.520     1590
   10.550     1520
   10.580     1565
   10.610     1474
   10.640     1533
   10.670     1540
   10.700     1565
   10.730     1638
   10.760     1576
   10.790     1520
   10.820     1590
   10.850     1493
   10.880     1582
   10.910     1609
   10.940     1577
   10.970     1631
   11.000     1555
   11.030     1674
   11.060     1743
   11.090     1654
   11.120     1621
   11.150     1642
   11.180     1595
   11.210     1751
   11.240     1587
   11.270     1660
   11.300     1557
   11.330     1598
   11.360     1557
   11.390     1520
   11.420     1634
   11.450     1591
   11.480     1587
   11.510     1599
   11.540     1645
   11.570     1632
   11.600     1587
   11.630     1513
   11.660     1543
   11.690     1582
   11.720     1628
   11.750     1594
   11.780     1547
   11.810     1542
   11.840     1609
   11.870     1619
   11.900     1493
   11.930     1623
   11.960     1485
   11.990     1613
   12.020     1692
   12.050     1563
   12.080     1526
   12.110     1570
   12.140     1567
   12.170     1581
   12.200     1606
   12.230     1587
   12.260     1524
   12.290     1581
   12.320     1524
   12.350     1556
   12.380     1727
   12.410     1679
   12.440     1698
   12.470     1716
   12.500     1565
   12.530     1625
   12.560     1631
   12.590     1657
   12.620     1654
   12.650     1546
   12.680     1648
   12.710     1661
   12.740     1673
   12.770     1693
   12.800     1699
   12.830     1677
   12.860     1709
   12.890     1721
   12.920     1814
   12.950     1781
   12.980     1806
   13.010     1727
   13.040     1754
   13.070     1793
   13.100     1798
   13.130     1825
   13.160     1642
   13.190     1765
   13.220     1749
   13.250     1722
   13.280     1697
   13.310     1568
   13.340     1783
   13.370     1773
   13.400     1739
   13.430     1751
   13.460     1770
   13.490     1746
   13.520     1737
   13.550     1756
   13.580     1770
   13.610     1889
   13.640     1765
   13.670     1773
   13.700     1847
   13.730     1838
   13.760     1959
   13.790     1763
   13.820     1864
   13.850     1888
   13.880     1791
   13.910     1837
   13.940     1789
   13.970     1894
   14.000     1825
   14.030     1922
   14.060     1857
   14.090     1923
   14.120     1807
   14.150     1849
   14.180     1825
   14.210     1803
   14.240     1864
   14.270     1876
   14.300     1864
   14.330     1884
   14.360     1989
   14.390     1936
   14.420     1982
   14.450     1909
   14.480     1841
   14.510     1876
   14.540     1931
   14.570     2018
   14.600     1894
   14.630     1976
   14.660     1929
   14.690     1976
   14.720     1984
   14.750     1902
   14.780     1906
   14.810     2038
   14.840     2049
   14.870     2038
   14.900     2010
   14.930     2046
   14.960     2073
   14.990     1955
   15.020     2006
   15.050     2120
   15.080     2152
   15.110     2050
   15.140     2021
   15.170     2237
   15.200     2149
   15.230     2066
   15.260     2253
   15.290     2162
   15.320     2170
   15.350     2280
   15.380     2072
   15.410     2144
   15.440     2223
   15.470     2125
   15.500     2299
   15.530     2175
   15.560     2187
   15.590     2234
   15.620     2234
   15.650     2200
   15.680     2400
   15.710     2214
   15.740     2337
   15.770     2302
   15.800     2340
   15.830     2434
   15.860     2356
   15.890     2449
   15.920     2472
   15.950     2457
   15.980     2377
   16.010     2522
   16.040     2470
   16.070     2542
   16.100     2590
   16.130     2367
   16.160     2476
   16.190     2440
   16.220     2714
   16.250     2690
   16.280     2926
   16.310     2799
   16.340     2759
   16.370     2663
   16.400     2466
   16.430     2601
   16.460     2674
   16.490     2650
   16.520     2697
   16.550     2644
   16.580     2642
   16.610     2659
   16.640     2743
   16.670     2611
   16.700     2688
   16.730     2687
   16.760     2751
   16.790     2674
   16.820     2749
   16.850     2668
   16.880     2828
   16.910     2894
   16.940     2883
   16.970     2858
   17.000     2822
   17.030     2916
   17.060     2839
   17.090     2797
   17.120     2818
   17.150     2986
   17.180     2825
   17.210     3015
   17.240     2892
   17.270     3014
   17.300     2975
   17.330     2879
   17.360     3027
   17.390     3082
   17.420     3027
   17.450     3197
   17.480     2988
   17.510     3096
   17.540     3107
   17.570     3061
   17.600     3088
   17.630     3186
   17.660     3208
   17.690     3356
   17.720     3534
   17.750     3357
   17.780     3144
   17.810     3134
   17.840     3250
   17.870     3288
   17.900     3054
   17.930     3206
   17.960     3190
   17.990     3226
   18.020     3331
   18.050     3095
   18.080     3149
   18.110     3197
   18.140     3146
   18.170     3258
   18.200     3211
   18.230     3360
   18.260     3144
   18.290     3288
   18.320     3279
   18.350     3222
   18.380     3429
   18.410     3406
   18.440     3317
   18.470     3441
   18.500     3434
   18.530     3629
   18.560     3531
   18.590     3643
   18.620     3769
   18.650     3740
   18.680     3764
   18.710     3770
   18.740     3698
   18.770     3728
   18.800     3696
   18.830     3588
   18.860     3448
   18.890     3579
   18.920     3638
   18.950     3592
   18.980     3638
   19.010     3505
   19.040     3473
   19.070     3561
   19.100     3592
   19.130     3792
   19.160     3397
   19.190     3604
   19.220     3492
   19.250     3455
   19.280     3600
   19.310     3436
   19.340     3593
   19.370     3669
   19.400     3546
   19.430     3595
   19.460     3624
   19.490     3496
   19.520     3631
   19.550     3565
   19.580     3533
   19.610     3615
   19.640     3592
   19.670     3519
   19.700     3553
   19.730     3492
   19.760     3714
   19.790     3415
   19.820     3749
   19.850     3592
   19.880     3459
   19.910     3586
   19.940     3542
   19.970     3609
   20.000     3557
   20.030     3720
   20.060     3585
   20.090     3538
   20.120     3395
   20.150     3579
   20.180     3507
   20.210     3600
   20.240     3644
   20.270     3454
   20.300     3550
   20.330     3474
   20.360     3584
   20.390     3551
   20.420     3618
   20.450     3534
   20.480     3543
   20.510     3388
   20.540     3490
   20.570     3572
   20.600     3394
   20.630     3444
   20.660     3512
   20.690     3463
   20.720     3604
   20.750     3359
   20.780     3334
   20.810     3481
   20.840     3485
   20.870     3509
   20.900     3445
   20.930     3443
   20.960     3492
   20.990     3266
   21.020     3445
   21.050     3516
   21.080     3511
   21.110     3574
   21.140     3398
   21.170     3554
   21.200     3497
   21.230     3366
   21.260     3649
   21.290     3508
   21.320     3463
   21.350     3449
   21.380     3298
   21.410     3288
   21.440     3573
   21.470     3439
   21.500     3466
   21.530     3331
   21.560     3197
   21.590     3237
   21.620     3344
   21.650     3206
   21.680     3569
   21.710     3300
   21.740     3327
   21.770     3187
   21.800     3348
   21.830     3321
   21.860     3118
   21.890     3299
   21.920     3241
   21.950     3273
   21.980     3154
   22.010     3280
   22.040     3252
   22.070     3331
   22.100     3358
   22.130     3099
   22.160     3191
   22.190     3046
   22.220     3158
   22.250     3052
   22.280     3236
   22.310     3037
   22.340     3223
   22.370     3211
   22.400     3085
   22.430     3171
   22.460     3101
   22.490     3207
   22.520     3135
   22.550     3142
   22.580     3143
   22.610     3086
   22.640     3080
   22.670     2928
   22.700     2969
   22.730     3030
   22.760     3065
   22.790     2943
   22.820     2934
   22.850     2778
   22.880     2974
   22.910     3038
   22.940     3050
   22.970     2956
   23.000     2856
   23.030     2928
   23.060     2897
   23.090     2904
   23.120     2847
   23.150     2981
   23.180     2783
   23.210     2966
   23.240     2842
   23.270     2885
   23.300     2900
   23.330     2808
   23.360     2906
   23.390     3100
   23.420     2954
   23.450     2877
   23.480     2789
   23.510     2749
   23.540     2870
   23.570     2775
   23.600     2695
   23.630     2695
   23.660     2671
   23.690     2658
   23.720     2871
   23.750     2842
   23.780     2722
   23.810     2716
   23.840     2827
   23.870     2756
   23.900     2696
   23.930     2856
   23.960     2641
   23.990     2732
   24.020     2773
   24.050     2644
   24.080     2581
   24.110     2638
   24.140     2501
   24.170     2591
   24.200     2635
   24.230     2612
   24.260     2573
   24.290     2522
   24.320     2515
   24.350     2535
   24.380     2660
   24.410     2668
   24.440     2619
   24.470     2719
   24.500     2526
   24.530     2582
   24.560     2540
   24.590     2625
   24.620     2637
   24.650     2431
   24.680     2491
   24.710     2430
   24.740     2452
   24.770     2501
   24.800     2530
   24.830     2527
   24.860     2427
   24.890     2523
   24.920     2531
   24.950     2528
   24.980     2408
   25.010     2425
   25.040     2522
   25.070     2536
   25.100     2568
   25.130     2642
   25.160     2313
   25.190     2422
   25.220     2438
   25.250     2405
   25.280     2481
   25.310     2265
   25.340     2398
   25.370     2398
   25.400     2420
   25.430     2431
   25.460     2334
   25.490     2293
   25.520     2330
   25.550     2248
   25.580     2261
   25.610     2350
   25.640     2214
   25.670     2208
   25.700     2316
   25.730     2164
   25.760     2368
   25.790     2121
   25.820     2349
   25.850     2240
   25.880     2152
   25.910     2177
   25.940     2165
   25.970     2262
   26.000     2242
   26.030     2353
   26.060     2312
   26.090     2315
   26.120     2241
   26.150     2212
   26.180     2146
   26.210     2171
   26.240     2243
   26.270     2172
   26.300     2155
   26.330     2099
   26.360     2152
   26.390     2183
   26.420     2161
   26.450     2138
   26.480     2105
   26.510     2067
   26.540     2108
   26.570     2203
   26.600     2085
   26.630     2126
   26.660     2071
   26.690     2141
   26.720     2123
   26.750     2013
   26.780     1989
   26.810     2090
   26.840     2100
   26.870     2149
   26.900     2045
   26.930     2050
   26.960     2084
   26.990     1970
   27.020     2041
   27.050     2111
   27.080     2012
   27.110     2005
   27.140     2048
   27.170     2171
   27.200     2148
   27.230     1993
   27.260     2124
   27.290     1986
   27.320     2045
   27.350     2007
   27.380     1958
   27.410     1934
   27.440     2055
   27.470     1889
   27.500     2035
   27.530     2014
   27.560     1910
   27.590     1975
   27.620     2102
   27.650     1952
   27.680     2139
   27.710     1908
   27.740     1973
   27.770     1889
   27.800     1964
   27.830     2019
   27.860     1926
   27.890     2030
   27.920     2027
   27.950     1845
   27.980     1840
   28.010     1972
   28.040     1926
   28.070     2073
   28.100     2080
   28.130     1863
   28.160     1929
   28.190     1796
   28.220     1999
   28.250     1837
   28.280     1931
   28.310     1848
   28.340     1973
   28.370     1993
   28.400     1854
   28.430     1921
   28.460     1914
   28.490     1912
   28.520     1846
   28.550     1928
   28.580     1824
   28.610     1775
   28.640     1835
   28.670     1796
   28.700     1844
   28.730     1838
   28.760     1858
   28.790     1745
   28.820     1841
   28.850     1749
   28.880     1884
   28.910     1858
   28.940     1802
   28.970     1779
   29.000     1788
   29.030     1735
   29.060     1797
   29.090     1729
   29.120     1752
   29.150     1817
   29.180     1721
   29.210     1739
   29.240     1677
   29.270     1722
   29.300     1753
   29.330     1700
   29.360     1799
   29.390     1855
   29.420     1704
   29.450     1690
   29.480     1695
   29.510     1717
   29.540     1796
   29.570     1662
   29.600     1668
   29.630     1623
   29.660     1637
   29.690     1697
   29.720     1752
   29.750     1793
   29.780     1697
   29.810     1673
   29.840     1753
   29.870     1676
   29.900     1619
   29.930     1683
   29.960     1589
   29.990     1728
   30.020     1764
   30.050     1613
   30.080     1631
   30.110     1628
   30.140     1582
   30.170     1624
   30.200     1640
   30.230     1630
   30.260     1533
   30.290     1592
   30.320     1571
   30.350     1595
   30.380     1661
   30.410     1649
   30.440     1619
   30.470     1606
   30.500     1535
   30.530     1649
   30.560     1620
   30.590     1622
   30.620     1616
   30.650     1644
   30.680     1686
   30.710     1666
   30.740     1720
   30.770     1691
   30.800     1754
   30.830     1569
   30.860     1643
   30.890     1661
   30.920     1661
   30.950     1597
   30.980     1620
   31.010     1570
   31.040     1553
   31.070     1601
   31.100     1668
   31.130     1619
   31.160     1529
   31.190     1610
   31.220     1425
   31.250     1527
   31.280     1550
   31.310     1469
   31.340     1446
   31.370     1623
   31.400     1494
   31.430     1525
   31.460     1517
   31.490     1489
   31.520     1530
   31.550     1516
   31.580     1488
   31.610     1571
   31.640     1457
   31.670     1458
   31.700     1491
   31.730     1470
   31.760     1611
   31.790     1411
   31.820     1462
   31.850     1525
   31.880     1385
   31.910     1423
   31.940     1419
   31.970     1418
   32.000     1479
   32.030     1482
   32.060     1482
   32.090     1425
   32.120     1429
   32.150     1468
   32.180     1398
   32.210     1462
   32.240     1415
   32.270     1424
   32.300     1473
   32.330     1418
   32.360     1458
   32.390     1494
   32.420     1535
   32.450     1512
   32.480     1489
   32.510     1429
   32.540     1420
   32.570     1531
   32.600     1469
   32.630     1428
   32.660     1438
   32.690     1429
   32.720     1494
   32.750     1368
   32.780     1376
   32.810     1445
   32.840     1401
   32.870     1440
   32.900     1371
   32.930     1352
   32.960     1455
   32.990     1319
   33.020     1419
   33.050     1400
   33.080     1453
   33.110     1385
   33.140     1319
   33.170     1411
   33.200     1385
   33.230     1418
   33.260     1395
   33.290     1319
   33.320     1376
   33.350     1462
   33.380     1301
   33.410     1326
   33.440     1433
   33.470     1350
   33.500     1363
   33.530     1324
   33.560     1306
   33.590     1328
   33.620     1409
   33.650     1278
   33.680     1405
   33.710     1335
   33.740     1386
   33.770     1309
   33.800     1342
   33.830     1378
   33.860     1317
   33.890     1354
   33.920     1342
   33.950     1332
   33.980     1285
   34.010     1324
   34.040     1329
   34.070     1305
   34.100     1377
   34.130     1281
   34.160     1294
   34.190     1257
   34.220     1289
   34.250     1222
   34.280     1318
   34.310     1263
   34.340     1284
   34.370     1325
   34.400     1293
   34.430     1346
   34.460     1327
   34.490     1335
   34.520     1268
   34.550     1330
   34.580     1274
   34.610     1224
   34.640     1267
   34.670     1201
   34.700     1220
   34.730     1242
   34.760     1258
   34.790     1241
   34.820     1208
   34.850     1242
   34.880     1239
   34.910     1259
   34.940     1317
   34.970     1245
   35.000     1254
   35.030     1216
   35.060     1220
   35.090     1230
   35.120     1238
   35.150     1254
   35.180     1181
   35.210     1216
   35.240     1217
   35.270     1201
   35.300     1200
   35.330     1208
   35.360     1157
   35.390     1231
   35.420     1198
   35.450     1212
   35.480     1108
   35.510     1133
   35.540     1281
   35.570     1215
   35.600     1217
   35.630     1203
   35.660     1228
   35.690     1100
   35.720     1207
   35.750     1181
   35.780     1183
   35.810     1139
   35.840     1174
   35.870     1183
   35.900     1090
   35.930     1202
   35.960     1146
   35.990     1152
   36.020     1180
   36.050     1121
   36.080     1141
   36.110     1144
   36.140     1121
   36.170     1088
   36.200     1145
   36.230     1198
   36.260     1092
   36.290     1124
   36.320     1109
   36.350     1069
   36.380     1176
   36.410     1183
   36.440     1132
   36.470     1150
   36.500     1092
   36.530     1088
   36.560     1144
   36.590     1138
   36.620     1158
   36.650     1098
   36.680     1094
   36.710     1106
   36.740     1173
   36.770     1141
   36.800     1163
   36.830     1182
   36.860     1107
   36.890     1118
   36.920     1152
   36.950     1174
   36.980     1137
   37.010     1073
   37.040     1042
   37.070     1129
   37.100     1164
   37.130     1211
   37.160     1081
   37.190     1128
   37.220     1116
   37.250     1102
   37.280     1131
   37.310     1044
   37.340     1154
   37.370     1160
   37.400     1077
   37.430     1055
   37.460     1098
   37.490     1092
   37.520     1045
   37.550     1111
   37.580     1118
   37.610     1065
   37.640     1055
   37.670     1089
   37.700     1165
   37.730     1011
   37.760     1175
   37.790     1044
   37.820     1119
   37.850     1117
   37.880     1040
   37.910     1070
   37.940     1020
   37.970     1050
   38.000     1090
   38.030     1157
   38.060     1097
   38.090     1051
   38.120     1097
   38.150     1144
   38.180     1025
   38.210     1086
   38.240     1127
   38.270     1040
   38.300     1058
   38.330     1013
   38.360     1106
   38.390     1088
   38.420     1140
   38.450     1095
   38.480     1056
   38.510     1007
   38.540     1040
   38.570     1076
   38.600     1025
   38.630     1063
   38.660      998
   38.690     1053
   38.720     1102
   38.750      975
   38.780     1022
   38.810     1072
   38.840     1034
   38.870     1046
   38.900     1107
   38.930     1069
   38.960     1074
   38.990     1005
   39.020     1060
   39.050     1067
   39.080     1099
   39.110     1042
   39.140     1056
   39.170     1026
   39.200     1036
   39.230     1044
   39.260     1080
   39.290     1021
   39.320     1072
   39.350     1076
   39.380      991
   39.410      995
   39.440     1074
   39.470     1013
   39.500     1046
   39.530      999
   39.560     1041
   39.590     1039
   39.620     1019
   39.650      950
   39.680     1085
   39.710     1032
   39.740     1056
   39.770     1006
   39.800     1019
   39.830     1072
   39.860     1031
   39.890     1083
   39.920     1116
   39.950     1016
   39.980     1006
   40.010     1008
   40.040     1051
   40.070     1076
   40.100     1135
   40.130     1049
   40.160     1069
   40.190     1022
   40.220     1005
   40.250     1002
   40.280     1074
   40.310     1001
   40.340     1023
   40.370     1043
   40.400     1020
   40.430     1010
   40.460     1062
   40.490     1043
   40.520     1042
   40.550     1105
   40.580     1041
   40.610     1066
   40.640     1072
   40.670     1028
   40.700     1013
   40.730     1064
   40.760     1044
   40.790      959
   40.820     1012
   40.850      960
   40.880     1036
   40.910     1038
   40.940     1047
   40.970     1062
   41.000     1011
   41.030     1033
   41.060     1055
   41.090     1016
   41.120     1020
   41.150     1075
   41.180      988
   41.210     1054
   41.240     1052
   41.270      968
   41.300     1021
   41.330     1006
   41.360     1029
   41.390     1070
   41.420     1021
   41.450     1104
   41.480     1018
   41.510     1009
   41.540     1057
   41.570     1026
   41.600     1025
   41.630      989
   41.660      977
   41.690      999
   41.720     1037
   41.750     1013
   41.780      981
   41.810     1002
   41.840      988
   41.870     1047
   41.900     1014
   41.930     1045
   41.960     1026
   41.990     1028
   42.020     1102
   42.050      946
   42.080     1033
   42.110      989
   42.140      961
   42.170     1013
   42.200      987
   42.230      964
   42.260      981
   42.290      980
   42.320      936
   42.350      958
   42.380     1008
   42.410     1025
   42.440     1006
   42.470     1030
   42.500     1011
   42.530     1000
   42.560      945
   42.590     1031
   42.620     1018
   42.650      988
   42.680      955
   42.710      977
   42.740      998
   42.770     1024
   42.800     1016
   42.830     1024
   42.860     1019
   42.890      975
   42.920      989
   42.950      980
   42.980      992
   43.010      930
   43.040      986
   43.070     1058
   43.100     1046
   43.130     1036
   43.160      943
   43.190     1011
   43.220      981
   43.250      998
   43.280      950
   43.310      935
   43.340      986
   43.370     1024
   43.400      969
   43.430     1000
   43.460     1040
   43.490     1018
   43.520      987
   43.550      980
   43.580      986
   43.610     1044
   43.640      924
   43.670      995
   43.700     1003
   43.730      960
   43.760     1051
   43.790      907
   43.820      966
   43.850     1016
   43.880      962
   43.910      954
   43.940      932
   43.970      965
   43.985      994