File: data/MIL-88B_101/PXRD/PXRD_S-18_Cu-Kα1_capillary-0.7mm_MIL-101-DMF.xyd
    2.000      647
    2.030      662
    2.060      653
    2.090      669
    2.120      652
    2.150      721
    2.180      672
    2.210      653
    2.240      778
    2.270      713
    2.300      734
    2.330      752
    2.360      791
    2.390      789
    2.420      852
    2.450      888
    2.480      890
    2.510      964
    2.540      992
    2.570     1083
    2.600     1181
    2.630     1354
    2.660     1569
    2.690     1888
    2.720     1788
    2.750     1153
    2.780      856
    2.810      912
    2.840      912
    2.870     1051
    2.900     1066
    2.930     1070
    2.960     1211
    2.990     1197
    3.020     1395
    3.050     1556
    3.080     1846
    3.110     2063
    3.140     2573
    3.170     3514
    3.200     3019
    3.230     1865
    3.260     1452
    3.290     1519
    3.320     1780
    3.350     1471
    3.380      886
    3.410      649
    3.440      652
    3.470      650
    3.500      642
    3.530      654
    3.560      650
    3.590      658
    3.620      695
    3.650      679
    3.680      731
    3.710      703
    3.740      806
    3.770      769
    3.800      945
    3.830     1007
    3.860      933
    3.890      895
    3.920      679
    3.950      641
    3.980      636
    4.010      677
    4.040      689
    4.070      684
    4.100      787
    4.130      726
    4.160      762
    4.190      823
    4.220      822
    4.250      718
    4.280      680
    4.310      612
    4.340      661
    4.370      660
    4.400      650
    4.430      661
    4.460      660
    4.490      640
    4.520      685
    4.550      698
    4.580      714
    4.610      753
    4.640      788
    4.670      861
    4.700      952
    4.730     1067
    4.760     1035
    4.790      872
    4.820      809
    4.850      801
    4.880      854
    4.910      970
    4.940     1026
    4.970     1186
    5.000     1523
    5.030     1652
    5.060     1331
    5.090      844
    5.120      602
    5.150      676
    5.180      647
    5.210      667
    5.240      664
    5.270      653
    5.300      690
    5.330      729
    5.360      699
    5.390      801
    5.420      860
    5.450      928
    5.480      956
    5.510      964
    5.540      860
    5.570      766
    5.600      788
    5.630      852
    5.660      897
    5.690     1061
    5.720     1404
    5.750     1329
    5.780      995
    5.810      787
    5.840      704
    5.870      632
    5.900      647
    5.930      621
    5.960      605
    5.990      644
    6.020      639
    6.050      606
    6.080      609
    6.110      620
    6.140      638
    6.170      682
    6.200      640
    6.230      624
    6.260      617
    6.290      638
    6.320      615
    6.350      627
    6.380      654
    6.410      664
    6.440      602
    6.470      642
    6.500      619
    6.530      593
    6.560      596
    6.590      665
    6.620      628
    6.650      585
    6.680      652
    6.710      609
    6.740      653
    6.770      587
    6.800      635
    6.830      611
    6.860      623
    6.890      586
    6.920      647
    6.950      642
    6.980      703
    7.010      656
    7.040      692
    7.070      619
    7.100      641
    7.130      644
    7.160      603
    7.190      669
    7.220      648
    7.250      689
    7.280      707
    7.310      672
    7.340      624
    7.370      664
    7.400      613
    7.430      631
    7.460      627
    7.490      619
    7.520      600
    7.550      639
    7.580      645
    7.610      608
    7.640      615
    7.670      652
    7.700      647
    7.730      588
    7.760      654
    7.790      629
    7.820      659
    7.850      666
    7.880      650
    7.910      647
    7.940      745
    7.970      795
    8.000      762
    8.030      781
    8.060      696
    8.090      726
    8.120      774
    8.150      912
    8.180      921
    8.210     1083
    8.240     1475
    8.270     1684
    8.300     1489
    8.330     1071
    8.360      901
    8.390      946
    8.420     1202
    8.450     1311
    8.480     1095
    8.510      871
    8.540      790
    8.570      879
    8.600      896
    8.630     1049
    8.660     1279
    8.690     1705
    8.720     2241
    8.750     1900
    8.780     1563
    8.810     1634
    8.840     2178
    8.870     3228
    8.900     3484
    8.930     2871
    8.960     1816
    8.990     1057
    9.020      758
    9.050      669
    9.080      698
    9.110      630
    9.140      666
    9.170      698
    9.200      646
    9.230      685
    9.260      765
    9.290      716
    9.320      728
    9.350      766
    9.380      661
    9.410      628
    9.440      685
    9.470      695
    9.500      744
    9.530      792
    9.560      896
    9.590      897
    9.620      846
    9.650      786
    9.680      880
    9.710      892
    9.740      925
    9.770      794
    9.800      667
    9.830      687
    9.860      736
    9.890      817
    9.920      827
    9.950      990
    9.980      971
   10.010      929
   10.040      820
   10.070      912
   10.100     1118
   10.130     1310
   10.160     1523
   10.190     1243
   10.220      898
   10.250      715
   10.280      674
   10.310      659
   10.340      702
   10.370      698
   10.400      687
   10.430      758
   10.460      764
   10.490      773
   10.520      735
   10.550      690
   10.580      705
   10.610      714
   10.640      717
   10.670      742
   10.700      797
   10.730      789
   10.760      771
   10.790      668
   10.820      691
   10.850      671
   10.880      694
   10.910      725
   10.940      738
   10.970      767
   11.000      756
   11.030      853
   11.060      948
   11.090      859
   11.120      779
   11.150      768
   11.180      818
   11.210      911
   11.240      795
   11.270      806
   11.300      720
   11.330      657
   11.360      710
   11.390      672
   11.420      692
   11.450      712
   11.480      729
   11.510      766
   11.540      856
   11.570      811
   11.600      810
   11.630      687
   11.660      706
   11.690      683
   11.720      719
   11.750      756
   11.780      703
   11.810      685
   11.840      703
   11.870      745
   11.900      685
   11.930      681
   11.960      654
   11.990      705
   12.020      708
   12.050      713
   12.080      715
   12.110      675
   12.140      642
   12.170      710
   12.200      666
   12.230      695
   12.260      697
   12.290      686
   12.320      704
   12.350      721
   12.380      727
   12.410      743
   12.440      706
   12.470      736
   12.500      717
   12.530      708
   12.560      722
   12.590      698
   12.620      676
   12.650      697
   12.680      732
   12.710      744
   12.740      773
   12.770      702
   12.800      754
   12.830      781
   12.860      718
   12.890      770
   12.920      762
   12.950      766
   12.980      799
   13.010      795
   13.040      748
   13.070      750
   13.100      825
   13.130      783
   13.160      765
   13.190      741
   13.220      690
   13.250      735
   13.280      744
   13.310      732
   13.340      821
   13.370      817
   13.400      786
   13.430      725
   13.460      802
   13.490      758
   13.520      770
   13.550      725
   13.580      788
   13.610      747
   13.640      742
   13.670      789
   13.700      792
   13.730      793
   13.760      821
   13.790      736
   13.820      765
   13.850      801
   13.880      777
   13.910      781
   13.940      802
   13.970      821
   14.000      795
   14.030      836
   14.060      805
   14.090      761
   14.120      770
   14.150      801
   14.180      774
   14.210      820
   14.240      835
   14.270      825
   14.300      796
   14.330      802
   14.360      842
   14.390      797
   14.420      864
   14.450      799
   14.480      827
   14.510      826
   14.540      853
   14.570      821
   14.600      822
   14.630      836
   14.660      847
   14.690      867
   14.720      864
   14.750      794
   14.780      845
   14.810      891
   14.840      858
   14.870      869
   14.900      908
   14.930      840
   14.960      884
   14.990      816
   15.020      865
   15.050      917
   15.080      895
   15.110      918
   15.140      866
   15.170      911
   15.200      890
   15.230      881
   15.260     1002
   15.290      946
   15.320      998
   15.350      955
   15.380      904
   15.410      870
   15.440     1003
   15.470      886
   15.500      990
   15.530      903
   15.560      919
   15.590      863
   15.620      908
   15.650      899
   15.680     1005
   15.710      935
   15.740     1030
   15.770      960
   15.800     1044
   15.830     1043
   15.860      964
   15.890     1003
   15.920     1024
   15.950     1048
   15.980     1105
   16.010     1134
   16.040     1069
   16.070     1053
   16.100     1122
   16.130     1021
   16.160     1065
   16.190     1130
   16.220     1273
   16.250     1332
   16.280     1547
   16.310     1506
   16.340     1363
   16.370     1161
   16.400     1080
   16.430     1084
   16.460     1111
   16.490     1118
   16.520     1099
   16.550     1062
   16.580     1086
   16.610     1133
   16.640     1179
   16.670     1247
   16.700     1163
   16.730     1189
   16.760     1135
   16.790     1125
   16.820     1099
   16.850     1093
   16.880     1172
   16.910     1197
   16.940     1175
   16.970     1243
   17.000     1291
   17.030     1231
   17.060     1235
   17.090     1190
   17.120     1138
   17.150     1213
   17.180     1172
   17.210     1367
   17.240     1277
   17.270     1336
   17.300     1169
   17.330     1150
   17.360     1183
   17.390     1256
   17.420     1340
   17.450     1405
   17.480     1299
   17.510     1250
   17.540     1266
   17.570     1277
   17.600     1313
   17.630     1397
   17.660     1485
   17.690     1585
   17.720     1567
   17.750     1471
   17.780     1311
   17.810     1376
   17.840     1354
   17.870     1382
   17.900     1370
   17.930     1363
   17.960     1298
   17.990     1242
   18.020     1282
   18.050     1221
   18.080     1299
   18.110     1310
   18.140     1271
   18.170     1276
   18.200     1277
   18.230     1319
   18.260     1306
   18.290     1343
   18.320     1416
   18.350     1333
   18.380     1378
   18.410     1355
   18.440     1385
   18.470     1402
   18.500     1471
   18.530     1562
   18.560     1614
   18.590     1573
   18.620     1586
   18.650     1442
   18.680     1607
   18.710     1615
   18.740     1621
   18.770     1657
   18.800     1464
   18.830     1399
   18.860     1290
   18.890     1374
   18.920     1340
   18.950     1342
   18.980     1432
   19.010     1334
   19.040     1346
   19.070     1323
   19.100     1448
   19.130     1417
   19.160     1283
   19.190     1401
   19.220     1341
   19.250     1345
   19.280     1329
   19.310     1350
   19.340     1432
   19.370     1477
   19.400     1402
   19.430     1372
   19.460     1424
   19.490     1363
   19.520     1386
   19.550     1363
   19.580     1459
   19.610     1385
   19.640     1319
   19.670     1404
   19.700     1400
   19.730     1299
   19.760     1450
   19.790     1424
   19.820     1489
   19.850     1404
   19.880     1311
   19.910     1374
   19.940     1351
   19.970     1393
   20.000     1406
   20.030     1445
   20.060     1333
   20.090     1382
   20.120     1322
   20.150     1412
   20.180     1292
   20.210     1312
   20.240     1366
   20.270     1304
   20.300     1286
   20.330     1339
   20.360     1365
   20.390     1320
   20.420     1384
   20.450     1373
   20.480     1379
   20.510     1283
   20.540     1319
   20.570     1336
   20.600     1241
   20.630     1303
   20.660     1285
   20.690     1324
   20.720     1346
   20.750     1247
   20.780     1306
   20.810     1280
   20.840     1257
   20.870     1303
   20.900     1296
   20.930     1305
   20.960     1352
   20.990     1221
   21.020     1309
   21.050     1345
   21.080     1340
   21.110     1264
   21.140     1294
   21.170     1335
   21.200     1364
   21.230     1264
   21.260     1464
   21.290     1304
   21.320     1360
   21.350     1390
   21.380     1256
   21.410     1224
   21.440     1361
   21.470     1344
   21.500     1381
   21.530     1268
   21.560     1198
   21.590     1202
   21.620     1256
   21.650     1155
   21.680     1313
   21.710     1242
   21.740     1361
   21.770     1209
   21.800     1300
   21.830     1316
   21.860     1211
   21.890     1259
   21.920     1203
   21.950     1190
   21.980     1219
   22.010     1282
   22.040     1237
   22.070     1234
   22.100     1339
   22.130     1204
   22.160     1206
   22.190     1165
   22.220     1238
   22.250     1193
   22.280     1288
   22.310     1157
   22.340     1212
   22.370     1238
   22.400     1200
   22.430     1294
   22.460     1252
   22.490     1189
   22.520     1262
   22.550     1300
   22.580     1248
   22.610     1231
   22.640     1221
   22.670     1153
   22.700     1173
   22.730     1233
   22.760     1121
   22.790     1158
   22.820     1181
   22.850     1211
   22.880     1168
   22.910     1214
   22.940     1191
   22.970     1165
   23.000     1160
   23.030     1132
   23.060     1182
   23.090     1101
   23.120     1134
   23.150     1158
   23.180     1083
   23.210     1166
   23.240     1110
   23.270     1122
   23.300     1172
   23.330     1139
   23.360     1127
   23.390     1306
   23.420     1256
   23.450     1359
   23.480     1224
   23.510     1194
   23.540     1219
   23.570     1148
   23.600     1148
   23.630     1153
   23.660     1108
   23.690     1011
   23.720     1110
   23.750     1181
   23.780     1142
   23.810     1128
   23.840     1148
   23.870     1152
   23.900     1188
   23.930     1212
   23.960     1125
   23.990     1113
   24.020     1122
   24.050     1035
   24.080     1121
   24.110     1128
   24.140     1116
   24.170     1163
   24.200     1116
   24.230     1157
   24.260     1118
   24.290     1097
   24.320     1025
   24.350     1063
   24.380     1225
   24.410     1241
   24.440     1222
   24.470     1267
   24.500     1141
   24.530     1140
   24.560     1169
   24.590     1167
   24.620     1056
   24.650     1050
   24.680     1087
   24.710     1111
   24.740     1103
   24.770     1095
   24.800     1117
   24.830     1060
   24.860     1059
   24.890     1089
   24.920     1049
   24.950      987
   24.980     1018
   25.010      999
   25.040     1047
   25.070     1154
   25.100     1205
   25.130     1188
   25.160     1020
   25.190     1077
   25.220     1061
   25.250     1049
   25.280     1136
   25.310      998
   25.340     1112
   25.370     1163
   25.400     1087
   25.430     1074
   25.460     1048
   25.490      976
   25.520      938
   25.550      964
   25.580     1042
   25.610     1032
   25.640      996
   25.670      963
   25.700     1055
   25.730      942
   25.760     1053
   25.790      948
   25.820      985
   25.850     1010
   25.880      962
   25.910      940
   25.940      950
   25.970      994
   26.000      982
   26.030     1004
   26.060     1043
   26.090      990
   26.120      992
   26.150     1020
   26.180      942
   26.210      990
   26.240      974
   26.270      996
   26.300      958
   26.330      964
   26.360      946
   26.390      943
   26.420     1026
   26.450      942
   26.480      960
   26.510      937
   26.540      981
   26.570      972
   26.600      996
   26.630     1034
   26.660     1015
   26.690      948
   26.720      964
   26.750      930
   26.780      916
   26.810      946
   26.840      944
   26.870      956
   26.900      958
   26.930      959
   26.960      955
   26.990      937
   27.020      969
   27.050      968
   27.080      943
   27.110      895
   27.140      881
   27.170      995
   27.200     1046
   27.230      974
   27.260     1010
   27.290      922
   27.320      938
   27.350      938
   27.380      933
   27.410      897
   27.440      914
   27.470      927
   27.500      977
   27.530      936
   27.560      889
   27.590      896
   27.620      962
   27.650      925
   27.680     1038
   27.710      901
   27.740     1022
   27.770      956
   27.800      993
   27.830      992
   27.860      973
   27.890      964
   27.920      924
   27.950      917
   27.980      867
   28.010      904
   28.040      886
   28.070      912
   28.100      971
   28.130      888
   28.160      927
   28.190      892
   28.220      933
   28.250      903
   28.280      942
   28.310      834
   28.340      931
   28.370      943
   28.400      985
   28.430      928
   28.460      910
   28.490      917
   28.520      870
   28.550      869
   28.580      894
   28.610      910
   28.640      924
   28.670      919
   28.700      878
   28.730      918
   28.760      909
   28.790      903
   28.820      905
   28.850      834
   28.880      930
   28.910      882
   28.940      872
   28.970      863
   29.000      923
   29.030      834
   29.060      861
   29.090      867
   29.120      796
   29.150      817
   29.180      866
   29.210      863
   29.240      864
   29.270      884
   29.300      843
   29.330      860
   29.360      857
   29.390      854
   29.420      862
   29.450      846
   29.480      839
   29.510      841
   29.540      855
   29.570      817
   29.600      819
   29.630      845
   29.660      832
   29.690      818
   29.720      836
   29.750      873
   29.780      788
   29.810      860
   29.840      805
   29.870      825
   29.900      840
   29.930      868
   29.960      846
   29.990      864
   30.020      868
   30.050      782
   30.080      821
   30.110      755
   30.140      813
   30.170      811
   30.200      833
   30.230      800
   30.260      777
   30.290      813
   30.320      829
   30.350      791
   30.380      856
   30.410      828
   30.440      825
   30.470      841
   30.500      795
   30.530      737
   30.560      777
   30.590      764
   30.620      788
   30.650      767
   30.680      770
   30.710      801
   30.740      802
   30.770      802
   30.800      816
   30.830      801
   30.860      792
   30.890      841
   30.920      794
   30.950      816
   30.980      803
   31.010      772
   31.040      787
   31.070      831
   31.100      822
   31.130      834
   31.160      783
   31.190      740
   31.220      724
   31.250      753
   31.280      774
   31.310      756
   31.340      733
   31.370      819
   31.400      769
   31.430      748
   31.460      782
   31.490      768
   31.520      756
   31.550      783
   31.580      786
   31.610      800
   31.640      710
   31.670      780
   31.700      774
   31.730      690
   31.760      768
   31.790      698
   31.820      772
   31.850      730
   31.880      726
   31.910      753
   31.940      730
   31.970      764
   32.000      688
   32.030      793
   32.060      753
   32.090      733
   32.120      782
   32.150      771
   32.180      732
   32.210      752
   32.240      757
   32.270      719
   32.300      759
   32.330      690
   32.360      791
   32.390      766
   32.420      761
   32.450      818
   32.480      830
   32.510      782
   32.540      805
   32.570      791
   32.600      765
   32.630      783
   32.660      800
   32.690      791
   32.720      737
   32.750      717
   32.780      660
   32.810      729
   32.840      752
   32.870      747
   32.900      777
   32.930      683
   32.960      790
   32.990      742
   33.020      745
   33.050      753
   33.080      713
   33.110      742
   33.140      693
   33.170      651
   33.200      743
   33.230      678
   33.260      721
   33.290      714
   33.320      699
   33.350      734
   33.380      730
   33.410      704
   33.440      698
   33.470      701
   33.500      780
   33.530      723
   33.560      700
   33.590      720
   33.620      709
   33.650      696
   33.680      752
   33.710      705
   33.740      755
   33.770      693
   33.800      737
   33.830      713
   33.860      692
   33.890      723
   33.920      735
   33.950      720
   33.980      728
   34.010      731
   34.040      676
   34.070      667
   34.100      712
   34.130      678
   34.160      673
   34.190      631
   34.220      674
   34.250      655
   34.280      714
   34.310      656
   34.340      706
   34.370      693
   34.400      686
   34.430      729
   34.460      684
   34.490      677
   34.520      681
   34.550      678
   34.580      646
   34.610      654
   34.640      690
   34.670      612
   34.700      616
   34.730      643
   34.760      666
   34.790      628
   34.820      659
   34.850      630
   34.880      668
   34.910      637
   34.940      673
   34.970      688
   35.000      657
   35.030      610
   35.060      630
   35.090      648
   35.120      611
   35.150      674
   35.180      608
   35.210      647
   35.240      598
   35.270      663
   35.300      662
   35.330      618
   35.360      666
   35.390      642
   35.420      621
   35.450      643
   35.480      590
   35.510      574
   35.540      689
   35.570      645
   35.600      640
   35.630      629
   35.660      601
   35.690      617
   35.720      651
   35.750      585
   35.780      622
   35.810      620
   35.840      608
   35.870      619
   35.900      604
   35.930      615
   35.960      587
   35.990      655
   36.020      617
   36.050      601
   36.080      601
   36.110      600
   36.140      580
   36.170      581
   36.200      587
   36.230      614
   36.260      574
   36.290      589
   36.320      592
   36.350      596
   36.380      608
   36.410      617
   36.440      595
   36.470      637
   36.500      606
   36.530      590
   36.560      616
   36.590      590
   36.620      597
   36.650      515
   36.680      583
   36.710      603
   36.740      629
   36.770      630
   36.800      581
   36.830      622
   36.860      566
   36.890      645
   36.920      570
   36.950      605
   36.980      641
   37.010      615
   37.040      611
   37.070      590
   37.100      613
   37.130      584
   37.160      585
   37.190      593
   37.220      569
   37.250      587
   37.280      598
   37.310      555
   37.340      600
   37.370      608
   37.400      599
   37.430      572
   37.460      595
   37.490      552
   37.520      599
   37.550      587
   37.580      604
   37.610      580
   37.640      557
   37.670      589
   37.700      599
   37.730      569
   37.760      618
   37.790      553
   37.820      629
   37.850      562
   37.880      559
   37.910      562
   37.940      554
   37.970      556
   38.000      545
   38.030      602
   38.060      599
   38.090      572
   38.120      590
   38.150      616
   38.180      578
   38.210      582
   38.240      597
   38.270      557
   38.300      587
   38.330      583
   38.360      608
   38.390      589
   38.420      590
   38.450      570
   38.480      581
   38.510      562
   38.540      566
   38.570      580
   38.600      555
   38.630      580
   38.660      554
   38.690      517
   38.720      578
   38.750      534
   38.780      559
   38.810      578
   38.840      542
   38.870      598
   38.900      590
   38.930      556
   38.960      606
   38.990      525
   39.020      555
   39.050      595
   39.080      569
   39.110      564
   39.140      567
   39.170      559
   39.200      586
   39.230      564
   39.260      613
   39.290      571
   39.320      589
   39.350      560
   39.380      552
   39.410      531
   39.440      552
   39.470      521
   39.500      597
   39.530      543
   39.560      551
   39.590      567
   39.620      554
   39.650      578
   39.680      588
   39.710      580
   39.740      597
   39.770      568
   39.800      570
   39.830      561
   39.860      564
   39.890      587
   39.920      638
   39.950      579
   39.980      571
   40.010      602
   40.040      601
   40.070      539
   40.100      606
   40.130      546
   40.160      561
   40.190      586
   40.220      586
   40.250      585
   40.280      618
   40.310      546
   40.340      599
   40.370      581
   40.400      570
   40.430      559
   40.460      571
   40.490      570
   40.520      582
   40.550      587
   40.580      614
   40.610      613
   40.640      592
   40.670      600
   40.700      579
   40.730      607
   40.760      541
   40.790      546
   40.820      578
   40.850      543
   40.880      593
   40.910      555
   40.940      613
   40.970      608
   41.000      629
   41.030      568
   41.060      580
   41.090      622
   41.120      616
   41.150      623
   41.180      558
   41.210      616
   41.240      567
   41.270      610
   41.300      559
   41.330      584
   41.360      557
   41.390      617
   41.420      646
   41.450      610
   41.480      532
   41.510      611
   41.540      617
   41.570      525
   41.600      607
   41.630      555
   41.660      580
   41.690      505
   41.720      536
   41.750      525
   41.780      526
   41.810      561
   41.840      555
   41.870      569
   41.900      571
   41.930      530
   41.960      562
   41.990      555
   42.020      571
   42.050      544
   42.080      567
   42.110      574
   42.140      565
   42.170      570
   42.200      594
   42.230      559
   42.260      598
   42.290      555
   42.320      552
   42.350      541
   42.380      560
   42.410      594
   42.440      543
   42.470      587
   42.500      558
   42.530      583
   42.560      596
   42.590      516
   42.620      561
   42.650      556
   42.680      554
   42.710      530
   42.740      556
   42.770      564
   42.800      592
   42.830      567
   42.860      537
   42.890      536
   42.920      596
   42.950      551
   42.980      557
   43.010      534
   43.040      610
   43.070      574
   43.100      586
   43.130      590
   43.160      572
   43.190      571
   43.220      523
   43.250      524
   43.280      565
   43.310      533
   43.340      554
   43.370      569
   43.400      569
   43.430      533
   43.460      568
   43.490      539
   43.520      570
   43.550      588
   43.580      573
   43.610      566
   43.640      549
   43.670      550
   43.700      535
   43.730      544
   43.760      546
   43.790      522
   43.820      537
   43.850      503
   43.880      527
   43.910      497
   43.940      481
   43.970      528
   43.985      526