File: data/MIL-88B_101/PXRD/PXRD_S-2_Cu-Kα1_capillary-0.7mm.xyd
    2.000      627
    2.030      707
    2.060      669
    2.090      687
    2.120      644
    2.150      651
    2.180      636
    2.210      708
    2.240      679
    2.270      649
    2.300      643
    2.330      636
    2.360      676
    2.390      702
    2.420      670
    2.450      661
    2.480      666
    2.510      606
    2.540      688
    2.570      673
    2.600      680
    2.630      652
    2.660      652
    2.690      648
    2.720      716
    2.750      633
    2.780      680
    2.810      660
    2.840      658
    2.870      615
    2.900      631
    2.930      637
    2.960      661
    2.990      665
    3.020      654
    3.050      697
    3.080      707
    3.110      634
    3.140      652
    3.170      738
    3.200      697
    3.230      655
    3.260      693
    3.290      636
    3.320      656
    3.350      649
    3.380      636
    3.410      650
    3.440      672
    3.470      652
    3.500      641
    3.530      658
    3.560      654
    3.590      636
    3.620      679
    3.650      648
    3.680      744
    3.710      639
    3.740      636
    3.770      611
    3.800      630
    3.830      676
    3.860      609
    3.890      690
    3.920      678
    3.950      666
    3.980      648
    4.010      680
    4.040      638
    4.070      687
    4.100      701
    4.130      635
    4.160      652
    4.190      588
    4.220      676
    4.250      650
    4.280      711
    4.310      643
    4.340      639
    4.370      672
    4.400      622
    4.430      654
    4.460      680
    4.490      675
    4.520      655
    4.550      687
    4.580      706
    4.610      634
    4.640      682
    4.670      656
    4.700      654
    4.730      652
    4.760      674
    4.790      668
    4.820      649
    4.850      611
    4.880      654
    4.910      693
    4.940      661
    4.970      644
    5.000      684
    5.030      661
    5.060      650
    5.090      640
    5.120      638
    5.150      643
    5.180      653
    5.210      666
    5.240      617
    5.270      653
    5.300      682
    5.330      661
    5.360      694
    5.390      653
    5.420      647
    5.450      634
    5.480      633
    5.510      671
    5.540      674
    5.570      645
    5.600      688
    5.630      653
    5.660      729
    5.690      658
    5.720      673
    5.750      633
    5.780      695
    5.810      660
    5.840      684
    5.870      648
    5.900      623
    5.930      661
    5.960      632
    5.990      687
    6.020      682
    6.050      636
    6.080      625
    6.110      647
    6.140      606
    6.170      653
    6.200      658
    6.230      664
    6.260      635
    6.290      650
    6.320      645
    6.350      662
    6.380      647
    6.410      656
    6.440      641
    6.470      682
    6.500      623
    6.530      620
    6.560      644
    6.590      654
    6.620      658
    6.650      669
    6.680      631
    6.710      673
    6.740      621
    6.770      675
    6.800      673
    6.830      672
    6.860      696
    6.890      673
    6.920      697
    6.950      650
    6.980      667
    7.010      652
    7.040      667
    7.070      716
    7.100      686
    7.130      682
    7.160      630
    7.190      696
    7.220      627
    7.250      641
    7.280      656
    7.310      636
    7.340      710
    7.370      663
    7.400      634
    7.430      691
    7.460      638
    7.490      644
    7.520      672
    7.550      706
    7.580      668
    7.610      687
    7.640      624
    7.670      684
    7.700      678
    7.730      655
    7.760      693
    7.790      631
    7.820      733
    7.850      702
    7.880      694
    7.910      696
    7.940      683
    7.970      677
    8.000      676
    8.030      713
    8.060      632
    8.090      623
    8.120      658
    8.150      714
    8.180      680
    8.210      697
    8.240      659
    8.270      674
    8.300      661
    8.330      669
    8.360      710
    8.390      671
    8.420      707
    8.450      696
    8.480      692
    8.510      668
    8.540      681
    8.570      669
    8.600      701
    8.630      666
    8.660      714
    8.690      670
    8.720      711
    8.750      686
    8.780      667
    8.810      721
    8.840      702
    8.870      688
    8.900      759
    8.930      727
    8.960      764
    8.990      747
    9.020      759
    9.050      789
    9.080      895
    9.110     1016
    9.140     1146
    9.170     1479
    9.200     2035
    9.230     2667
    9.260     3370
    9.290     2205
    9.320     1186
    9.350      833
    9.380      744
    9.410      783
    9.440      864
    9.470      862
    9.500     1006
    9.530     1199
    9.560     1166
    9.590     1005
    9.620      759
    9.650      736
    9.680      729
    9.710      677
    9.740      757
    9.770      677
    9.800      697
    9.830      766
    9.860      689
    9.890      779
    9.920      690
    9.950      711
    9.980      668
   10.010      674
   10.040      727
   10.070      690
   10.100      754
   10.130      692
   10.160      714
   10.190      688
   10.220      694
   10.250      694
   10.280      736
   10.310      717
   10.340      709
   10.370      734
   10.400      697
   10.430      722
   10.460      704
   10.490      742
   10.520      732
   10.550      742
   10.580      764
   10.610      699
   10.640      731
   10.670      701
   10.700      702
   10.730      710
   10.760      752
   10.790      753
   10.820      759
   10.850      719
   10.880      738
   10.910      751
   10.940      790
   10.970      732
   11.000      761
   11.030      772
   11.060      714
   11.090      734
   11.120      735
   11.150      724
   11.180      743
   11.210      754
   11.240      737
   11.270      800
   11.300      760
   11.330      766
   11.360      773
   11.390      802
   11.420      731
   11.450      765
   11.480      741
   11.510      777
   11.540      792
   11.570      766
   11.600      778
   11.630      696
   11.660      723
   11.690      685
   11.720      766
   11.750      763
   11.780      738
   11.810      815
   11.840      769
   11.870      764
   11.900      740
   11.930      775
   11.960      756
   11.990      797
   12.020      769
   12.050      709
   12.080      736
   12.110      785
   12.140      773
   12.170      767
   12.200      768
   12.230      805
   12.260      735
   12.290      780
   12.320      871
   12.350      905
   12.380     1038
   12.410     1258
   12.440     1414
   12.470     1361
   12.500      977
   12.530      863
   12.560      798
   12.590      816
   12.620      833
   12.650      817
   12.680      792
   12.710      835
   12.740      814
   12.770      833
   12.800      807
   12.830      837
   12.860      842
   12.890      820
   12.920      846
   12.950      844
   12.980      868
   13.010      813
   13.040      801
   13.070      874
   13.100      911
   13.130      861
   13.160      784
   13.190      884
   13.220      787
   13.250      870
   13.280      830
   13.310      830
   13.340      852
   13.370      867
   13.400      838
   13.430      863
   13.460      847
   13.490      829
   13.520      890
   13.550      854
   13.580      883
   13.610      885
   13.640      868
   13.670      898
   13.700      946
   13.730      976
   13.760     1211
   13.790     1151
   13.820     1141
   13.850     1007
   13.880      870
   13.910      932
   13.940      923
   13.970      949
   14.000      896
   14.030      942
   14.060      932
   14.090      937
   14.120      905
   14.150      977
   14.180      877
   14.210      936
   14.240      931
   14.270      909
   14.300      904
   14.330      906
   14.360      948
   14.390      935
   14.420      974
   14.450      938
   14.480      955
   14.510      898
   14.540      945
   14.570      957
   14.600      970
   14.630      949
   14.660      952
   14.690      967
   14.720      994
   14.750      941
   14.780      918
   14.810      982
   14.840      995
   14.870     1012
   14.900     1014
   14.930     1006
   14.960      999
   14.990     1016
   15.020      981
   15.050     1067
   15.080     1031
   15.110     1058
   15.140     1000
   15.170     1063
   15.200     1081
   15.230     1033
   15.260     1096
   15.290     1040
   15.320     1020
   15.350     1135
   15.380     1060
   15.410     1035
   15.440     1099
   15.470     1052
   15.500     1108
   15.530     1073
   15.560     1031
   15.590     1056
   15.620     1103
   15.650     1071
   15.680     1258
   15.710     1098
   15.740     1133
   15.770     1114
   15.800     1166
   15.830     1236
   15.860     1182
   15.890     1324
   15.920     1352
   15.950     1381
   15.980     1277
   16.010     1255
   16.040     1168
   16.070     1195
   16.100     1274
   16.130     1148
   16.160     1195
   16.190     1147
   16.220     1255
   16.250     1181
   16.280     1241
   16.310     1193
   16.340     1327
   16.370     1308
   16.400     1342
   16.430     1576
   16.460     1686
   16.490     1666
   16.520     1475
   16.550     1356
   16.580     1304
   16.610     1239
   16.640     1321
   16.670     1275
   16.700     1223
   16.730     1385
   16.760     1426
   16.790     1440
   16.820     1483
   16.850     1437
   16.880     1445
   16.910     1380
   16.940     1407
   16.970     1349
   17.000     1336
   17.030     1376
   17.060     1332
   17.090     1327
   17.120     1294
   17.150     1396
   17.180     1421
   17.210     1422
   17.240     1355
   17.270     1385
   17.300     1414
   17.330     1396
   17.360     1437
   17.390     1493
   17.420     1447
   17.450     1504
   17.480     1386
   17.510     1476
   17.540     1512
   17.570     1446
   17.600     1483
   17.630     1439
   17.660     1494
   17.690     1484
   17.720     1578
   17.750     1579
   17.780     1531
   17.810     1482
   17.840     1556
   17.870     1517
   17.900     1528
   17.930     1571
   17.960     1513
   17.990     1596
   18.020     1647
   18.050     1482
   18.080     1575
   18.110     1571
   18.140     1563
   18.170     1579
   18.200     1546
   18.230     1603
   18.260     1510
   18.290     1574
   18.320     1565
   18.350     1618
   18.380     1651
   18.410     1638
   18.440     1595
   18.470     1663
   18.500     1640
   18.530     1773
   18.560     1813
   18.590     2126
   18.620     2690
   18.650     3008
   18.680     2877
   18.710     2215
   18.740     1901
   18.770     1761
   18.800     1749
   18.830     1706
   18.860     1712
   18.890     1766
   18.920     1805
   18.950     1705
   18.980     1743
   19.010     1737
   19.040     1732
   19.070     1769
   19.100     1811
   19.130     1840
   19.160     1707
   19.190     1994
   19.220     1801
   19.250     2034
   19.280     2012
   19.310     1798
   19.340     1751
   19.370     1758
   19.400     1677
   19.430     1678
   19.460     1746
   19.490     1746
   19.520     1652
   19.550     1717
   19.580     1665
   19.610     1803
   19.640     1667
   19.670     1706
   19.700     1740
   19.730     1663
   19.760     1781
   19.790     1647
   19.820     1733
   19.850     1789
   19.880     1647
   19.910     1650
   19.940     1728
   19.970     1663
   20.000     1662
   20.030     1798
   20.060     1688
   20.090     1718
   20.120     1661
   20.150     1715
   20.180     1634
   20.210     1764
   20.240     1674
   20.270     1679
   20.300     1649
   20.330     1633
   20.360     1726
   20.390     1721
   20.420     1728
   20.450     1657
   20.480     1647
   20.510     1611
   20.540     1653
   20.570     1655
   20.600     1570
   20.630     1583
   20.660     1615
   20.690     1609
   20.720     1703
   20.750     1589
   20.780     1513
   20.810     1667
   20.840     1690
   20.870     1748
   20.900     1734
   20.930     1636
   20.960     1639
   20.990     1591
   21.020     1593
   21.050     1574
   21.080     1694
   21.110     1646
   21.140     1635
   21.170     1797
   21.200     1751
   21.230     1622
   21.260     1711
   21.290     1546
   21.320     1607
   21.350     1615
   21.380     1553
   21.410     1492
   21.440     1609
   21.470     1495
   21.500     1605
   21.530     1541
   21.560     1570
   21.590     1567
   21.620     1701
   21.650     1604
   21.680     2014
   21.710     2163
   21.740     2346
   21.770     1916
   21.800     1790
   21.830     1648
   21.860     1502
   21.890     1543
   21.920     1525
   21.950     1465
   21.980     1458
   22.010     1577
   22.040     1544
   22.070     1483
   22.100     1552
   22.130     1413
   22.160     1459
   22.190     1374
   22.220     1485
   22.250     1348
   22.280     1561
   22.310     1453
   22.340     1472
   22.370     1473
   22.400     1385
   22.430     1485
   22.460     1442
   22.490     1428
   22.520     1436
   22.550     1450
   22.580     1442
   22.610     1435
   22.640     1451
   22.670     1327
   22.700     1377
   22.730     1372
   22.760     1441
   22.790     1386
   22.820     1387
   22.850     1394
   22.880     1412
   22.910     1406
   22.940     1382
   22.970     1366
   23.000     1368
   23.030     1320
   23.060     1382
   23.090     1306
   23.120     1316
   23.150     1346
   23.180     1296
   23.210     1392
   23.240     1338
   23.270     1507
   23.300     1415
   23.330     1415
   23.360     1429
   23.390     1383
   23.420     1346
   23.450     1340
   23.480     1287
   23.510     1256
   23.540     1305
   23.570     1284
   23.600     1359
   23.630     1266
   23.660     1274
   23.690     1309
   23.720     1439
   23.750     1398
   23.780     1265
   23.810     1415
   23.840     1373
   23.870     1348
   23.900     1230
   23.930     1277
   23.960     1246
   23.990     1277
   24.020     1331
   24.050     1163
   24.080     1210
   24.110     1206
   24.140     1184
   24.170     1228
   24.200     1230
   24.230     1274
   24.260     1149
   24.290     1161
   24.320     1173
   24.350     1215
   24.380     1270
   24.410     1183
   24.440     1159
   24.470     1229
   24.500     1199
   24.530     1258
   24.560     1246
   24.590     1284
   24.620     1249
   24.650     1209
   24.680     1211
   24.710     1186
   24.740     1217
   24.770     1220
   24.800     1242
   24.830     1200
   24.860     1156
   24.890     1188
   24.920     1224
   24.950     1206
   24.980     1251
   25.010     1177
   25.040     1230
   25.070     1236
   25.100     1297
   25.130     1212
   25.160     1193
   25.190     1210
   25.220     1124
   25.250     1169
   25.280     1194
   25.310     1137
   25.340     1146
   25.370     1135
   25.400     1131
   25.430     1152
   25.460     1209
   25.490     1184
   25.520     1162
   25.550     1139
   25.580     1129
   25.610     1189
   25.640     1141
   25.670     1218
   25.700     1260
   25.730     1336
   25.760     1405
   25.790     1205
   25.820     1242
   25.850     1219
   25.880     1104
   25.910     1286
   25.940     1302
   25.970     1337
   26.000     1281
   26.030     1287
   26.060     1159
   26.090     1138
   26.120     1073
   26.150     1182
   26.180     1102
   26.210     1083
   26.240     1094
   26.270     1119
   26.300     1188
   26.330     1086
   26.360     1155
   26.390     1112
   26.420     1114
   26.450     1144
   26.480     1131
   26.510     1099
   26.540     1062
   26.570     1076
   26.600     1071
   26.630     1064
   26.660     1091
   26.690     1076
   26.720     1096
   26.750     1019
   26.780      983
   26.810     1076
   26.840     1075
   26.870     1118
   26.900     1048
   26.930     1062
   26.960     1051
   26.990     1050
   27.020     1110
   27.050     1096
   27.080     1056
   27.110     1083
   27.140     1072
   27.170     1085
   27.200     1132
   27.230     1030
   27.260     1089
   27.290     1016
   27.320     1107
   27.350     1076
   27.380     1023
   27.410     1034
   27.440     1095
   27.470     1045
   27.500     1104
   27.530     1010
   27.560      944
   27.590      991
   27.620     1000
   27.650     1047
   27.680     1045
   27.710     1035
   27.740     1048
   27.770      985
   27.800     1036
   27.830     1128
   27.860     1074
   27.890     1124
   27.920     1141
   27.950      962
   27.980     1005
   28.010     1091
   28.040     1027
   28.070     1052
   28.100     1112
   28.130     1096
   28.160     1273
   28.190     1211
   28.220     1264
   28.250     1112
   28.280     1049
   28.310      968
   28.340     1072
   28.370     1045
   28.400     1000
   28.430     1008
   28.460     1054
   28.490     1006
   28.520     1003
   28.550      964
   28.580      956
   28.610      985
   28.640      953
   28.670      960
   28.700      970
   28.730      977
   28.760      962
   28.790      965
   28.820     1012
   28.850      971
   28.880     1013
   28.910      971
   28.940      994
   28.970      993
   29.000      944
   29.030      983
   29.060      989
   29.090      958
   29.120      959
   29.150      981
   29.180      937
   29.210     1003
   29.240      941
   29.270     1003
   29.300      977
   29.330      906
   29.360      992
   29.390     1048
   29.420     1017
   29.450     1039
   29.480      958
   29.510      957
   29.540     1031
   29.570      970
   29.600      940
   29.630      941
   29.660      928
   29.690      918
   29.720      916
   29.750      972
   29.780      904
   29.810      908
   29.840      914
   29.870      964
   29.900      870
   29.930      942
   29.960      888
   29.990      957
   30.020      990
   30.050      854
   30.080      830
   30.110      881
   30.140      844
   30.170      929
   30.200      903
   30.230      910
   30.260      846
   30.290      878
   30.320      856
   30.350      885
   30.380      916
   30.410      897
   30.440      848
   30.470      926
   30.500      901
   30.530      862
   30.560      879
   30.590      919
   30.620      947
   30.650      996
   30.680      962
   30.710      937
   30.740      875
   30.770      921
   30.800      897
   30.830      882
   30.860      927
   30.890      922
   30.920      877
   30.950      907
   30.980      924
   31.010      868
   31.040      865
   31.070      921
   31.100      889
   31.130      897
   31.160      803
   31.190      840
   31.220      866
   31.250      855
   31.280      865
   31.310      794
   31.340      809
   31.370      873
   31.400      824
   31.430      807
   31.460      790
   31.490      798
   31.520      860
   31.550      879
   31.580      839
   31.610      856
   31.640      793
   31.670      813
   31.700      836
   31.730      826
   31.760      819
   31.790      816
   31.820      885
   31.850      817
   31.880      793
   31.910      763
   31.940      794
   31.970      809
   32.000      792
   32.030      821
   32.060      795
   32.090      778
   32.120      772
   32.150      867
   32.180      815
   32.210      806
   32.240      833
   32.270      770
   32.300      851
   32.330      889
   32.360      935
   32.390      909
   32.420      906
   32.450      800
   32.480      773
   32.510      808
   32.540      818
   32.570      862
   32.600      810
   32.630      820
   32.660      781
   32.690      751
   32.720      751
   32.750      702
   32.780      716
   32.810      746
   32.840      749
   32.870      755
   32.900      714
   32.930      749
   32.960      729
   32.990      714
   33.020      738
   33.050      765
   33.080      792
   33.110      748
   33.140      728
   33.170      750
   33.200      774
   33.230      734
   33.260      777
   33.290      769
   33.320      797
   33.350      827
   33.380      811
   33.410      748
   33.440      815
   33.470      757
   33.500      756
   33.530      671
   33.560      688
   33.590      704
   33.620      714
   33.650      699
   33.680      756
   33.710      736
   33.740      754
   33.770      686
   33.800      739
   33.830      759
   33.860      687
   33.890      737
   33.920      718
   33.950      675
   33.980      690
   34.010      730
   34.040      693
   34.070      748
   34.100      837
   34.130      741
   34.160      786
   34.190      700
   34.220      693
   34.250      660
   34.280      714
   34.310      663
   34.340      733
   34.370      733
   34.400      730
   34.430      747
   34.460      720
   34.490      701
   34.520      675
   34.550      700
   34.580      653
   34.610      659
   34.640      676
   34.670      649
   34.700      648
   34.730      678
   34.760      662
   34.790      632
   34.820      658
   34.850      627
   34.880      709
   34.910      675
   34.940      673
   34.970      675
   35.000      675
   35.030      648
   35.060      664
   35.090      679
   35.120      649
   35.150      682
   35.180      675
   35.210      662
   35.240      654
   35.270      663
   35.300      655
   35.330      663
   35.360      662
   35.390      647
   35.420      657
   35.450      621
   35.480      622
   35.510      619
   35.540      648
   35.570      635
   35.600      678
   35.630      646
   35.660      641
   35.690      646
   35.720      648
   35.750      664
   35.780      611
   35.810      609
   35.840      595
   35.870      651
   35.900      600
   35.930      599
   35.960      614
   35.990      594
   36.020      666
   36.050      576
   36.080      579
   36.110      567
   36.140      578
   36.170      579
   36.200      580
   36.230      583
   36.260      572
   36.290      598
   36.320      593
   36.350      565
   36.380      623
   36.410      623
   36.440      561
   36.470      605
   36.500      611
   36.530      568
   36.560      586
   36.590      625
   36.620      643
   36.650      639
   36.680      663
   36.710      660
   36.740      636
   36.770      562
   36.800      596
   36.830      582
   36.860      565
   36.890      616
   36.920      609
   36.950      647
   36.980      653
   37.010      607
   37.040      614
   37.070      584
   37.100      641
   37.130      630
   37.160      583
   37.190      593
   37.220      637
   37.250      529
   37.280      601
   37.310      566
   37.340      561
   37.370      594
   37.400      551
   37.430      538
   37.460      581
   37.490      611
   37.520      673
   37.550      642
   37.580      632
   37.610      626
   37.640      571
   37.670      544
   37.700      540
   37.730      571
   37.760      580
   37.790      565
   37.820      598
   37.850      618
   37.880      620
   37.910      642
   37.940      629
   37.970      619
   38.000      585
   38.030      572
   38.060      572
   38.090      558
   38.120      569
   38.150      602
   38.180      543
   38.210      544
   38.240      600
   38.270      576
   38.300      571
   38.330      595
   38.360      581
   38.390      548
   38.420      585
   38.450      559
   38.480      558
   38.510      554
   38.540      540
   38.570      582
   38.600      526
   38.630      563
   38.660      570
   38.690      546
   38.720      556
   38.750      544
   38.780      532
   38.810      524
   38.840      590
   38.870      548
   38.900      575
   38.930      567
   38.960      570
   38.990      527
   39.020      576
   39.050      570
   39.080      580
   39.110      577
   39.140      550
   39.170      579
   39.200      557
   39.230      544
   39.260      542
   39.290      532
   39.320      544
   39.350      570
   39.380      532
   39.410      548
   39.440      580
   39.470      516
   39.500      565
   39.530      524
   39.560      526
   39.590      532
   39.620      521
   39.650      508
   39.680      549
   39.710      565
   39.740      536
   39.770      521
   39.800      540
   39.830      551
   39.860      545
   39.890      569
   39.920      491
   39.950      546
   39.980      519
   40.010      537
   40.040      571
   40.070      541
   40.100      585
   40.130      591
   40.160      539
   40.190      539
   40.220      560
   40.250      529
   40.280      531
   40.310      500
   40.340      521
   40.370      566
   40.400      553
   40.430      519
   40.460      592
   40.490      599
   40.520      589
   40.550      628
   40.580      598
   40.610      550
   40.640      546
   40.670      520
   40.700      545
   40.730      538
   40.760      534
   40.790      541
   40.820      564
   40.850      494
   40.880      549
   40.910      569
   40.940      568
   40.970      532
   41.000      552
   41.030      511
   41.060      515
   41.090      533
   41.120      510
   41.150      530
   41.180      507
   41.210      519
   41.240      510
   41.270      554
   41.300      557
   41.330      520
   41.360      524
   41.390      503
   41.420      481
   41.450      563
   41.480      525
   41.510      549
   41.540      607
   41.570      603
   41.600      638
   41.630      622
   41.660      642
   41.690      564
   41.720      597
   41.750      563
   41.780      577
   41.810      580
   41.840      554
   41.870      578
   41.900      550
   41.930      590
   41.960      570
   41.990      600
   42.020      596
   42.050      494
   42.080      555
   42.110      551
   42.140      544
   42.170      520
   42.200      586
   42.230      529
   42.260      540
   42.290      568
   42.320      518
   42.350      536
   42.380      569
   42.410      576
   42.440      524
   42.470      524
   42.500      537
   42.530      531
   42.560      527
   42.590      550
   42.620      519
   42.650      515
   42.680      555
   42.710      547
   42.740      525
   42.770      551
   42.800      534
   42.830      512
   42.860      501
   42.890      513
   42.920      556
   42.950      553
   42.980      458
   43.010      506
   43.040      507
   43.070      525
   43.100      529
   43.130      567
   43.160      528
   43.190      506
   43.220      491
   43.250      502
   43.280      573
   43.310      559
   43.340      543
   43.370      547
   43.400      485
   43.430      514
   43.460      508
   43.490      513
   43.520      562
   43.550      547
   43.580      533
   43.610      522
   43.640      519
   43.670      523
   43.700      486
   43.730      476
   43.760      572
   43.790      475
   43.820      542
   43.850      499
   43.880      481
   43.910      487
   43.940      508
   43.970      485
   43.985      516