File: data/MIL-88B_101/PXRD/PXRD_S-9_Cu-Kα1_capillary-0.7mm.xyd
    2.000     2305
    2.030     2574
    2.060     2375
    2.090     2362
    2.120     2379
    2.150     2392
    2.180     2249
    2.210     2222
    2.240     2214
    2.270     2215
    2.300     2198
    2.330     2259
    2.360     2259
    2.390     2141
    2.420     2225
    2.450     2231
    2.480     2137
    2.510     2136
    2.540     2122
    2.570     2185
    2.600     2041
    2.630     2087
    2.660     2121
    2.690     2093
    2.720     2091
    2.750     2029
    2.780     2048
    2.810     2040
    2.840     2029
    2.870     2090
    2.900     2157
    2.930     2024
    2.960     2046
    2.990     1944
    3.020     2070
    3.050     2112
    3.080     2086
    3.110     1943
    3.140     1934
    3.170     2028
    3.200     1989
    3.230     2072
    3.260     2109
    3.290     1975
    3.320     1947
    3.350     1926
    3.380     1931
    3.410     1850
    3.440     1994
    3.470     1895
    3.500     2068
    3.530     1893
    3.560     1896
    3.590     1863
    3.620     1827
    3.650     1869
    3.680     1956
    3.710     1916
    3.740     2009
    3.770     1828
    3.800     1862
    3.830     1948
    3.860     1932
    3.890     1992
    3.920     1972
    3.950     1864
    3.980     1998
    4.010     2025
    4.040     1959
    4.070     1965
    4.100     2039
    4.130     1977
    4.160     2019
    4.190     2000
    4.220     1996
    4.250     1974
    4.280     1960
    4.310     1940
    4.340     2040
    4.370     1972
    4.400     2035
    4.430     1963
    4.460     2071
    4.490     2134
    4.520     2105
    4.550     2211
    4.580     2195
    4.610     2370
    4.640     2460
    4.670     2682
    4.700     2847
    4.730     2740
    4.760     2237
    4.790     2013
    4.820     1889
    4.850     1871
    4.880     1971
    4.910     1959
    4.940     2064
    4.970     2079
    5.000     2052
    5.030     2059
    5.060     2071
    5.090     1954
    5.120     1872
    5.150     1881
    5.180     1837
    5.210     1899
    5.240     1911
    5.270     1911
    5.300     1844
    5.330     1887
    5.360     1960
    5.390     1923
    5.420     1949
    5.450     1999
    5.480     1904
    5.510     1986
    5.540     1990
    5.570     1962
    5.600     1941
    5.630     1879
    5.660     1922
    5.690     1961
    5.720     1976
    5.750     2008
    5.780     1988
    5.810     1948
    5.840     1882
    5.870     1904
    5.900     1733
    5.930     1827
    5.960     1796
    5.990     1891
    6.020     1886
    6.050     1840
    6.080     1887
    6.110     1868
    6.140     1838
    6.170     1839
    6.200     1933
    6.230     1822
    6.260     1785
    6.290     1834
    6.320     1941
    6.350     1872
    6.380     1892
    6.410     1930
    6.440     1864
    6.470     1900
    6.500     1917
    6.530     1819
    6.560     1961
    6.590     1977
    6.620     1915
    6.650     1791
    6.680     1819
    6.710     1804
    6.740     1939
    6.770     1898
    6.800     1932
    6.830     1855
    6.860     1953
    6.890     2041
    6.920     1867
    6.950     1909
    6.980     1939
    7.010     2003
    7.040     2004
    7.070     1994
    7.100     1993
    7.130     1974
    7.160     1994
    7.190     1968
    7.220     1939
    7.250     1877
    7.280     2003
    7.310     1914
    7.340     1994
    7.370     2088
    7.400     1960
    7.430     1975
    7.460     2084
    7.490     2060
    7.520     2052
    7.550     2039
    7.580     1947
    7.610     2124
    7.640     1887
    7.670     1988
    7.700     1943
    7.730     1970
    7.760     2081
    7.790     1939
    7.820     2032
    7.850     2108
    7.880     2033
    7.910     2114
    7.940     2125
    7.970     2248
    8.000     2166
    8.030     2258
    8.060     2309
    8.090     2299
    8.120     2245
    8.150     2384
    8.180     2468
    8.210     2625
    8.240     2677
    8.270     2773
    8.300     2771
    8.330     2733
    8.360     2699
    8.390     2582
    8.420     2697
    8.450     2846
    8.480     2920
    8.510     2847
    8.540     2843
    8.570     2816
    8.600     2765
    8.630     2940
    8.660     3138
    8.690     3469
    8.720     4040
    8.750     4340
    8.780     4333
    8.810     4324
    8.840     4233
    8.870     4833
    8.900     5761
    8.930     6174
    8.960     5716
    8.990     4550
    9.020     4250
    9.050     4088
    9.080     4225
    9.110     4421
    9.140     4616
    9.170     5212
    9.200     5047
    9.230     4327
    9.260     4151
    9.290     3670
    9.320     3352
    9.350     3076
    9.380     2943
    9.410     2970
    9.440     3422
    9.470     3864
    9.500     4397
    9.530     4070
    9.560     3377
    9.590     3036
    9.620     3116
    9.650     3023
    9.680     3495
    9.710     3372
    9.740     3437
    9.770     2879
    9.800     2617
    9.830     2504
    9.860     2341
    9.890     2500
    9.920     2488
    9.950     2508
    9.980     2833
   10.010     2944
   10.040     2765
   10.070     2656
   10.100     2843
   10.130     2906
   10.160     3173
   10.190     3177
   10.220     3195
   10.250     2853
   10.280     2693
   10.310     2458
   10.340     2428
   10.370     2475
   10.400     2355
   10.430     2316
   10.460     2288
   10.490     2386
   10.520     2344
   10.550     2268
   10.580     2166
   10.610     2261
   10.640     2140
   10.670     2144
   10.700     2126
   10.730     2219
   10.760     2078
   10.790     2068
   10.820     1981
   10.850     1920
   10.880     1946
   10.910     1976
   10.940     2071
   10.970     2017
   11.000     2003
   11.030     1997
   11.060     2125
   11.090     2181
   11.120     2071
   11.150     2057
   11.180     2008
   11.210     2060
   11.240     1942
   11.270     1957
   11.300     2035
   11.330     1936
   11.360     1937
   11.390     1870
   11.420     1825
   11.450     1855
   11.480     1727
   11.510     1921
   11.540     1889
   11.570     1938
   11.600     1833
   11.630     1834
   11.660     1797
   11.690     1800
   11.720     1824
   11.750     1814
   11.780     1794
   11.810     1893
   11.840     1749
   11.870     1849
   11.900     1716
   11.930     1769
   11.960     1763
   11.990     1853
   12.020     1769
   12.050     1749
   12.080     1741
   12.110     1679
   12.140     1794
   12.170     1732
   12.200     1841
   12.230     1746
   12.260     1741
   12.290     1712
   12.320     1814
   12.350     1850
   12.380     1883
   12.410     1884
   12.440     1946
   12.470     1959
   12.500     1926
   12.530     1816
   12.560     1882
   12.590     1955
   12.620     1911
   12.650     1794
   12.680     1778
   12.710     1779
   12.740     1775
   12.770     1836
   12.800     1854
   12.830     1797
   12.860     1832
   12.890     1844
   12.920     1852
   12.950     1727
   12.980     1869
   13.010     1894
   13.040     1908
   13.070     1948
   13.100     1894
   13.130     1856
   13.160     1800
   13.190     1847
   13.220     1780
   13.250     1712
   13.280     1799
   13.310     1739
   13.340     1717
   13.370     1892
   13.400     1758
   13.430     1742
   13.460     1714
   13.490     1851
   13.520     1722
   13.550     1849
   13.580     1838
   13.610     1886
   13.640     1885
   13.670     1867
   13.700     1788
   13.730     1692
   13.760     1749
   13.790     1651
   13.820     1760
   13.850     1793
   13.880     1838
   13.910     1759
   13.940     1757
   13.970     1843
   14.000     1744
   14.030     1873
   14.060     1795
   14.090     1778
   14.120     1790
   14.150     1859
   14.180     1661
   14.210     1671
   14.240     1769
   14.270     1830
   14.300     1805
   14.330     1915
   14.360     1864
   14.390     1787
   14.420     1838
   14.450     1776
   14.480     1805
   14.510     1733
   14.540     1796
   14.570     1796
   14.600     1776
   14.630     1763
   14.660     1793
   14.690     1850
   14.720     1840
   14.750     1827
   14.780     1888
   14.810     1886
   14.840     1876
   14.870     1978
   14.900     2064
   14.930     1930
   14.960     2073
   14.990     2042
   15.020     2139
   15.050     2145
   15.080     2063
   15.110     1946
   15.140     1951
   15.170     1930
   15.200     2073
   15.230     2095
   15.260     2129
   15.290     1904
   15.320     1948
   15.350     1993
   15.380     1985
   15.410     1852
   15.440     1875
   15.470     1866
   15.500     1918
   15.530     1887
   15.560     1930
   15.590     1862
   15.620     1984
   15.650     1874
   15.680     1879
   15.710     1852
   15.740     1880
   15.770     1860
   15.800     1892
   15.830     1957
   15.860     2004
   15.890     2020
   15.920     2028
   15.950     2002
   15.980     2143
   16.010     2224
   16.040     2184
   16.070     2077
   16.100     2161
   16.130     2043
   16.160     2096
   16.190     2034
   16.220     2079
   16.250     2238
   16.280     2373
   16.310     2374
   16.340     2630
   16.370     2713
   16.400     2434
   16.430     2315
   16.460     2199
   16.490     2302
   16.520     2370
   16.550     2392
   16.580     2535
   16.610     2420
   16.640     2242
   16.670     2266
   16.700     2274
   16.730     2345
   16.760     2345
   16.790     2199
   16.820     2057
   16.850     2055
   16.880     2113
   16.910     2134
   16.940     2190
   16.970     2090
   17.000     2157
   17.030     2082
   17.060     2213
   17.090     2150
   17.120     2171
   17.150     2115
   17.180     2059
   17.210     2213
   17.240     2259
   17.270     2332
   17.300     2182
   17.330     2053
   17.360     2161
   17.390     2094
   17.420     2089
   17.450     2169
   17.480     2138
   17.510     2283
   17.540     2287
   17.570     2193
   17.600     2211
   17.630     2223
   17.660     2277
   17.690     2285
   17.720     2516
   17.750     2443
   17.780     2414
   17.810     2342
   17.840     2179
   17.870     2256
   17.900     2190
   17.930     2308
   17.960     2267
   17.990     2451
   18.020     2411
   18.050     2146
   18.080     2129
   18.110     2082
   18.140     2163
   18.170     2287
   18.200     2372
   18.230     2345
   18.260     2297
   18.290     2342
   18.320     2444
   18.350     2433
   18.380     2586
   18.410     2660
   18.440     2822
   18.470     2887
   18.500     2798
   18.530     2623
   18.560     2613
   18.590     2614
   18.620     2710
   18.650     2587
   18.680     2632
   18.710     2780
   18.740     2773
   18.770     2559
   18.800     2551
   18.830     2377
   18.860     2423
   18.890     2312
   18.920     2223
   18.950     2135
   18.980     2214
   19.010     2274
   19.040     2359
   19.070     2463
   19.100     2478
   19.130     2693
   19.160     2731
   19.190     2737
   19.220     2425
   19.250     2322
   19.280     2323
   19.310     2174
   19.340     2163
   19.370     2266
   19.400     2236
   19.430     2244
   19.460     2207
   19.490     2247
   19.520     2206
   19.550     2182
   19.580     2239
   19.610     2309
   19.640     2221
   19.670     2209
   19.700     2169
   19.730     2151
   19.760     2264
   19.790     2097
   19.820     2212
   19.850     2261
   19.880     2144
   19.910     2237
   19.940     2224
   19.970     2237
   20.000     2204
   20.030     2349
   20.060     2261
   20.090     2164
   20.120     2179
   20.150     2212
   20.180     2109
   20.210     2157
   20.240     2225
   20.270     2191
   20.300     2192
   20.330     2167
   20.360     2318
   20.390     2223
   20.420     2286
   20.450     2244
   20.480     2191
   20.510     2235
   20.540     2278
   20.570     2313
   20.600     2254
   20.630     2276
   20.660     2308
   20.690     2347
   20.720     2468
   20.750     2350
   20.780     2264
   20.810     2440
   20.840     2379
   20.870     2428
   20.900     2490
   20.930     2309
   20.960     2393
   20.990     2316
   21.020     2458
   21.050     2379
   21.080     2414
   21.110     2268
   21.140     2305
   21.170     2375
   21.200     2311
   21.230     2302
   21.260     2412
   21.290     2377
   21.320     2341
   21.350     2361
   21.380     2257
   21.410     2201
   21.440     2418
   21.470     2393
   21.500     2510
   21.530     2395
   21.560     2492
   21.590     2259
   21.620     2343
   21.650     2210
   21.680     2272
   21.710     2256
   21.740     2306
   21.770     2284
   21.800     2446
   21.830     2454
   21.860     2408
   21.890     2368
   21.920     2288
   21.950     2197
   21.980     2292
   22.010     2277
   22.040     2254
   22.070     2157
   22.100     2246
   22.130     2143
   22.160     2245
   22.190     2112
   22.220     2197
   22.250     2112
   22.280     2278
   22.310     2087
   22.340     2145
   22.370     2154
   22.400     2139
   22.430     2101
   22.460     2217
   22.490     2230
   22.520     2222
   22.550     2211
   22.580     2240
   22.610     2300
   22.640     2184
   22.670     2209
   22.700     2171
   22.730     2280
   22.760     2271
   22.790     2156
   22.820     2122
   22.850     2136
   22.880     2206
   22.910     2157
   22.940     2240
   22.970     2249
   23.000     2159
   23.030     2130
   23.060     2140
   23.090     2157
   23.120     2075
   23.150     2117
   23.180     2045
   23.210     2166
   23.240     2090
   23.270     2200
   23.300     2128
   23.330     2096
   23.360     2110
   23.390     2205
   23.420     2166
   23.450     2308
   23.480     2136
   23.510     2319
   23.540     2333
   23.570     2169
   23.600     2115
   23.630     2139
   23.660     2180
   23.690     2131
   23.720     2237
   23.750     2153
   23.780     2169
   23.810     2205
   23.840     2149
   23.870     2233
   23.900     2042
   23.930     2124
   23.960     2159
   23.990     2298
   24.020     2392
   24.050     2213
   24.080     2104
   24.110     2050
   24.140     2004
   24.170     2138
   24.200     2161
   24.230     2185
   24.260     2131
   24.290     2143
   24.320     2129
   24.350     2074
   24.380     2208
   24.410     2104
   24.440     2123
   24.470     2169
   24.500     2215
   24.530     2176
   24.560     2315
   24.590     2197
   24.620     2201
   24.650     2094
   24.680     2153
   24.710     2078
   24.740     2163
   24.770     2046
   24.800     2217
   24.830     2104
   24.860     2112
   24.890     2066
   24.920     2115
   24.950     1997
   24.980     2037
   25.010     2039
   25.040     2165
   25.070     2107
   25.100     2161
   25.130     2193
   25.160     2087
   25.190     2128
   25.220     2138
   25.250     2062
   25.280     2038
   25.310     2044
   25.340     2042
   25.370     2115
   25.400     2077
   25.430     2128
   25.460     2089
   25.490     2105
   25.520     2259
   25.550     2079
   25.580     2084
   25.610     2037
   25.640     1971
   25.670     1881
   25.700     1894
   25.730     1901
   25.760     2041
   25.790     1934
   25.820     2051
   25.850     2009
   25.880     1904
   25.910     1954
   25.940     1946
   25.970     1999
   26.000     1870
   26.030     2018
   26.060     1972
   26.090     1980
   26.120     2053
   26.150     2026
   26.180     1854
   26.210     1904
   26.240     1946
   26.270     1870
   26.300     1896
   26.330     1875
   26.360     1925
   26.390     1944
   26.420     1969
   26.450     1908
   26.480     1856
   26.510     1838
   26.540     1906
   26.570     1939
   26.600     1918
   26.630     1913
   26.660     1906
   26.690     1979
   26.720     2070
   26.750     2038
   26.780     2117
   26.810     2193
   26.840     2028
   26.870     2162
   26.900     2035
   26.930     1943
   26.960     1887
   26.990     1843
   27.020     2003
   27.050     1995
   27.080     1891
   27.110     1896
   27.140     1929
   27.170     1866
   27.200     1870
   27.230     1954
   27.260     2017
   27.290     1986
   27.320     1990
   27.350     1959
   27.380     1917
   27.410     1768
   27.440     1946
   27.470     1933
   27.500     2066
   27.530     1913
   27.560     2008
   27.590     1867
   27.620     1901
   27.650     1917
   27.680     2010
   27.710     1999
   27.740     2073
   27.770     1969
   27.800     1991
   27.830     2004
   27.860     2022
   27.890     2050
   27.920     2084
   27.950     1974
   27.980     2016
   28.010     1950
   28.040     1865
   28.070     1777
   28.100     1922
   28.130     1848
   28.160     1868
   28.190     1809
   28.220     1865
   28.250     1916
   28.280     1907
   28.310     1819
   28.340     1890
   28.370     1813
   28.400     1755
   28.430     1814
   28.460     1823
   28.490     1845
   28.520     1874
   28.550     1898
   28.580     1846
   28.610     1869
   28.640     1787
   28.670     1843
   28.700     1818
   28.730     1900
   28.760     1965
   28.790     1817
   28.820     1803
   28.850     1784
   28.880     1876
   28.910     1838
   28.940     1912
   28.970     1884
   29.000     1831
   29.030     1664
   29.060     1723
   29.090     1772
   29.120     1715
   29.150     1740
   29.180     1718
   29.210     1770
   29.240     1758
   29.270     1761
   29.300     1755
   29.330     1685
   29.360     1756
   29.390     1805
   29.420     1716
   29.450     1746
   29.480     1750
   29.510     1714
   29.540     1788
   29.570     1780
   29.600     1742
   29.630     1733
   29.660     1795
   29.690     1688
   29.720     1796
   29.750     1703
   29.780     1675
   29.810     1777
   29.840     1723
   29.870     1747
   29.900     1730
   29.930     1768
   29.960     1666
   29.990     1792
   30.020     1678
   30.050     1699
   30.080     1666
   30.110     1699
   30.140     1685
   30.170     1766
   30.200     1789
   30.230     1713
   30.260     1695
   30.290     1747
   30.320     1806
   30.350     1735
   30.380     1791
   30.410     1765
   30.440     1704
   30.470     1728
   30.500     1706
   30.530     1649
   30.560     1684
   30.590     1709
   30.620     1778
   30.650     1687
   30.680     1691
   30.710     1694
   30.740     1888
   30.770     1884
   30.800     1827
   30.830     1832
   30.860     1741
   30.890     1662
   30.920     1655
   30.950     1543
   30.980     1650
   31.010     1687
   31.040     1713
   31.070     1739
   31.100     1690
   31.130     1666
   31.160     1784
   31.190     1785
   31.220     1657
   31.250     1654
   31.280     1727
   31.310     1712
   31.340     1661
   31.370     1735
   31.400     1765
   31.430     1691
   31.460     1635
   31.490     1734
   31.520     1692
   31.550     1692
   31.580     1732
   31.610     1799
   31.640     1648
   31.670     1799
   31.700     1686
   31.730     1693
   31.760     1721
   31.790     1641
   31.820     1625
   31.850     1554
   31.880     1568
   31.910     1565
   31.940     1591
   31.970     1765
   32.000     1605
   32.030     1639
   32.060     1692
   32.090     1652
   32.120     1672
   32.150     1715
   32.180     1599
   32.210     1612
   32.240     1747
   32.270     1729
   32.300     1862
   32.330     1871
   32.360     1901
   32.390     1770
   32.420     1873
   32.450     1753
   32.480     1680
   32.510     1642
   32.540     1736
   32.570     1743
   32.600     1760
   32.630     1681
   32.660     1797
   32.690     1748
   32.720     1809
   32.750     1753
   32.780     1783
   32.810     1732
   32.840     1674
   32.870     1781
   32.900     1814
   32.930     1708
   32.960     1733
   32.990     1718
   33.020     1816
   33.050     1764
   33.080     1744
   33.110     1790
   33.140     1700
   33.170     1774
   33.200     1654
   33.230     1776
   33.260     1765
   33.290     1662
   33.320     1653
   33.350     1727
   33.380     1628
   33.410     1600
   33.440     1633
   33.470     1612
   33.500     1726
   33.530     1589
   33.560     1685
   33.590     1611
   33.620     1708
   33.650     1642
   33.680     1707
   33.710     1766
   33.740     1731
   33.770     1669
   33.800     1670
   33.830     1710
   33.860     1703
   33.890     1758
   33.920     1799
   33.950     1679
   33.980     1759
   34.010     1693
   34.040     1690
   34.070     1645
   34.100     1789
   34.130     1721
   34.160     1648
   34.190     1552
   34.220     1685
   34.250     1704
   34.280     1657
   34.310     1680
   34.340     1701
   34.370     1679
   34.400     1611
   34.430     1668
   34.460     1625
   34.490     1710
   34.520     1663
   34.550     1634
   34.580     1656
   34.610     1684
   34.640     1623
   34.670     1656
   34.700     1558
   34.730     1606
   34.760     1643
   34.790     1650
   34.820     1554
   34.850     1580
   34.880     1640
   34.910     1587
   34.940     1776
   34.970     1678
   35.000     1683
   35.030     1540
   35.060     1593
   35.090     1666
   35.120     1616
   35.150     1568
   35.180     1582
   35.210     1635
   35.240     1593
   35.270     1605
   35.300     1629
   35.330     1617
   35.360     1634
   35.390     1624
   35.420     1619
   35.450     1650
   35.480     1483
   35.510     1634
   35.540     1687
   35.570     1602
   35.600     1649
   35.630     1568
   35.660     1573
   35.690     1611
   35.720     1609
   35.750     1654
   35.780     1581
   35.810     1594
   35.840     1593
   35.870     1690
   35.900     1505
   35.930     1587
   35.960     1474
   35.990     1580
   36.020     1581
   36.050     1611
   36.080     1531
   36.110     1549
   36.140     1522
   36.170     1516
   36.200     1656
   36.230     1510
   36.260     1573
   36.290     1549
   36.320     1515
   36.350     1549
   36.380     1602
   36.410     1630
   36.440     1593
   36.470     1530
   36.500     1585
   36.530     1566
   36.560     1702
   36.590     1603
   36.620     1654
   36.650     1567
   36.680     1559
   36.710     1487
   36.740     1610
   36.770     1578
   36.800     1552
   36.830     1532
   36.860     1532
   36.890     1595
   36.920     1520
   36.950     1397
   36.980     1464
   37.010     1483
   37.040     1496
   37.070     1554
   37.100     1472
   37.130     1485
   37.160     1520
   37.190     1468
   37.220     1560
   37.250     1460
   37.280     1505
   37.310     1466
   37.340     1553
   37.370     1613
   37.400     1559
   37.430     1503
   37.460     1391
   37.490     1530
   37.520     1506
   37.550     1517
   37.580     1553
   37.610     1599
   37.640     1481
   37.670     1483
   37.700     1514
   37.730     1532
   37.760     1479
   37.790     1424
   37.820     1440
   37.850     1479
   37.880     1468
   37.910     1477
   37.940     1488
   37.970     1495
   38.000     1490
   38.030     1529
   38.060     1487
   38.090     1449
   38.120     1499
   38.150     1579
   38.180     1474
   38.210     1398
   38.240     1488
   38.270     1470
   38.300     1527
   38.330     1522
   38.360     1468
   38.390     1543
   38.420     1566
   38.450     1530
   38.480     1486
   38.510     1485
   38.540     1504
   38.570     1469
   38.600     1513
   38.630     1476
   38.660     1516
   38.690     1574
   38.720     1574
   38.750     1562
   38.780     1532
   38.810     1598
   38.840     1533
   38.870     1549
   38.900     1633
   38.930     1574
   38.960     1594
   38.990     1514
   39.020     1608
   39.050     1587
   39.080     1535
   39.110     1511
   39.140     1538
   39.170     1533
   39.200     1535
   39.230     1556
   39.260     1592
   39.290     1551
   39.320     1484
   39.350     1497
   39.380     1474
   39.410     1469
   39.440     1498
   39.470     1495
   39.500     1600
   39.530     1535
   39.560     1474
   39.590     1471
   39.620     1469
   39.650     1492
   39.680     1554
   39.710     1434
   39.740     1505
   39.770     1430
   39.800     1543
   39.830     1484
   39.860     1631
   39.890     1589
   39.920     1576
   39.950     1490
   39.980     1621
   40.010     1681
   40.040     1643
   40.070     1623
   40.100     1685
   40.130     1563
   40.160     1642
   40.190     1543
   40.220     1510
   40.250     1530
   40.280     1634
   40.310     1519
   40.340     1561
   40.370     1547
   40.400     1529
   40.430     1498
   40.460     1510
   40.490     1554
   40.520     1589
   40.550     1596
   40.580     1637
   40.610     1600
   40.640     1557
   40.670     1623
   40.700     1563
   40.730     1653
   40.760     1668
   40.790     1685
   40.820     1569
   40.850     1624
   40.880     1662
   40.910     1655
   40.940     1718
   40.970     1595
   41.000     1617
   41.030     1546
   41.060     1677
   41.090     1673
   41.120     1605
   41.150     1603
   41.180     1555
   41.210     1658
   41.240     1596
   41.270     1657
   41.300     1707
   41.330     1552
   41.360     1546
   41.390     1650
   41.420     1604
   41.450     1591
   41.480     1582
   41.510     1594
   41.540     1653
   41.570     1614
   41.600     1625
   41.630     1624
   41.660     1616
   41.690     1635
   41.720     1717
   41.750     1713
   41.780     1587
   41.810     1586
   41.840     1521
   41.870     1578
   41.900     1463
   41.930     1487
   41.960     1450
   41.990     1550
   42.020     1611
   42.050     1562
   42.080     1529
   42.110     1569
   42.140     1544
   42.170     1587
   42.200     1665
   42.230     1546
   42.260     1564
   42.290     1636
   42.320     1670
   42.350     1665
   42.380     1683
   42.410     1654
   42.440     1637
   42.470     1564
   42.500     1576
   42.530     1536
   42.560     1673
   42.590     1691
   42.620     1693
   42.650     1555
   42.680     1527
   42.710     1577
   42.740     1645
   42.770     1642
   42.800     1609
   42.830     1612
   42.860     1641
   42.890     1595
   42.920     1561
   42.950     1467
   42.980     1579
   43.010     1564
   43.040     1631
   43.070     1563
   43.100     1567
   43.130     1613
   43.160     1576
   43.190     1546
   43.220     1479
   43.250     1516
   43.280     1591
   43.310     1556
   43.340     1508
   43.370     1538
   43.400     1529
   43.430     1517
   43.460     1499
   43.490     1563
   43.520     1528
   43.550     1565
   43.580     1618
   43.610     1556
   43.640     1408
   43.670     1495
   43.700     1514
   43.730     1544
   43.760     1567
   43.790     1542
   43.820     1588
   43.850     1576
   43.880     1508
   43.910     1598
   43.940     1544
   43.970     1648
   43.985     1618