File: data/MIL-88B_101/PXRD/PXRD_S-12_Cu-Kα1_capillary-0.7mm.xyd
    2.000     1894
    2.030     1948
    2.060     1910
    2.090     1807
    2.120     1848
    2.150     1816
    2.180     1761
    2.210     1696
    2.240     1747
    2.270     1729
    2.300     1724
    2.330     1714
    2.360     1729
    2.390     1746
    2.420     1862
    2.450     1711
    2.480     1768
    2.510     1730
    2.540     1811
    2.570     1892
    2.600     1821
    2.630     1974
    2.660     2112
    2.690     2436
    2.720     2305
    2.750     1771
    2.780     1576
    2.810     1600
    2.840     1692
    2.870     1712
    2.900     1751
    2.930     1766
    2.960     1835
    2.990     1829
    3.020     1929
    3.050     2125
    3.080     2311
    3.110     2388
    3.140     2632
    3.170     3269
    3.200     3123
    3.230     2186
    3.260     1745
    3.290     1892
    3.320     2058
    3.350     1949
    3.380     1425
    3.410     1269
    3.440     1312
    3.470     1274
    3.500     1320
    3.530     1284
    3.560     1263
    3.590     1277
    3.620     1284
    3.650     1277
    3.680     1370
    3.710     1309
    3.740     1382
    3.770     1312
    3.800     1445
    3.830     1529
    3.860     1523
    3.890     1438
    3.920     1340
    3.950     1270
    3.980     1259
    4.010     1311
    4.040     1288
    4.070     1266
    4.100     1277
    4.130     1274
    4.160     1376
    4.190     1339
    4.220     1462
    4.250     1292
    4.280     1315
    4.310     1242
    4.340     1289
    4.370     1319
    4.400     1232
    4.430     1356
    4.460     1337
    4.490     1312
    4.520     1313
    4.550     1348
    4.580     1319
    4.610     1351
    4.640     1433
    4.670     1430
    4.700     1493
    4.730     1578
    4.760     1511
    4.790     1379
    4.820     1385
    4.850     1372
    4.880     1441
    4.910     1537
    4.940     1623
    4.970     1647
    5.000     1809
    5.030     1931
    5.060     1784
    5.090     1342
    5.120     1220
    5.150     1313
    5.180     1290
    5.210     1276
    5.240     1218
    5.270     1272
    5.300     1292
    5.330     1288
    5.360     1371
    5.390     1349
    5.420     1427
    5.450     1416
    5.480     1501
    5.510     1419
    5.540     1329
    5.570     1303
    5.600     1343
    5.630     1328
    5.660     1380
    5.690     1482
    5.720     1755
    5.750     1764
    5.780     1506
    5.810     1294
    5.840     1277
    5.870     1279
    5.900     1135
    5.930     1273
    5.960     1263
    5.990     1222
    6.020     1249
    6.050     1219
    6.080     1206
    6.110     1185
    6.140     1185
    6.170     1196
    6.200     1243
    6.230     1261
    6.260     1158
    6.290     1254
    6.320     1175
    6.350     1203
    6.380     1263
    6.410     1244
    6.440     1214
    6.470     1290
    6.500     1191
    6.530     1208
    6.560     1192
    6.590     1211
    6.620     1228
    6.650     1222
    6.680     1216
    6.710     1265
    6.740     1213
    6.770     1279
    6.800     1344
    6.830     1236
    6.860     1183
    6.890     1256
    6.920     1266
    6.950     1207
    6.980     1250
    7.010     1264
    7.040     1216
    7.070     1293
    7.100     1285
    7.130     1340
    7.160     1224
    7.190     1308
    7.220     1278
    7.250     1242
    7.280     1346
    7.310     1236
    7.340     1293
    7.370     1247
    7.400     1267
    7.430     1254
    7.460     1273
    7.490     1210
    7.520     1283
    7.550     1300
    7.580     1249
    7.610     1336
    7.640     1248
    7.670     1305
    7.700     1249
    7.730     1297
    7.760     1372
    7.790     1240
    7.820     1426
    7.850     1373
    7.880     1338
    7.910     1370
    7.940     1460
    7.970     1385
    8.000     1407
    8.030     1494
    8.060     1470
    8.090     1451
    8.120     1524
    8.150     1614
    8.180     1559
    8.210     1689
    8.240     2010
    8.270     2121
    8.300     2123
    8.330     1657
    8.360     1584
    8.390     1697
    8.420     1844
    8.450     1950
    8.480     1813
    8.510     1614
    8.540     1618
    8.570     1667
    8.600     1655
    8.630     1845
    8.660     1956
    8.690     2254
    8.720     2627
    8.750     2533
    8.780     2141
    8.810     2223
    8.840     2583
    8.870     3387
    8.900     3627
    8.930     3088
    8.960     2144
    8.990     1582
    9.020     1427
    9.050     1451
    9.080     1378
    9.110     1404
    9.140     1315
    9.170     1394
    9.200     1378
    9.230     1326
    9.260     1474
    9.290     1418
    9.320     1422
    9.350     1430
    9.380     1334
    9.410     1358
    9.440     1513
    9.470     1400
    9.500     1558
    9.530     1432
    9.560     1538
    9.590     1559
    9.620     1510
    9.650     1416
    9.680     1612
    9.710     1544
    9.740     1648
    9.770     1469
    9.800     1453
    9.830     1487
    9.860     1474
    9.890     1592
    9.920     1581
    9.950     1688
    9.980     1603
   10.010     1684
   10.040     1577
   10.070     1666
   10.100     1843
   10.130     1883
   10.160     2042
   10.190     1745
   10.220     1576
   10.250     1392
   10.280     1471
   10.310     1362
   10.340     1476
   10.370     1422
   10.400     1433
   10.430     1505
   10.460     1533
   10.490     1516
   10.520     1499
   10.550     1499
   10.580     1516
   10.610     1406
   10.640     1476
   10.670     1399
   10.700     1498
   10.730     1589
   10.760     1527
   10.790     1466
   10.820     1514
   10.850     1422
   10.880     1510
   10.910     1529
   10.940     1554
   10.970     1546
   11.000     1539
   11.030     1620
   11.060     1724
   11.090     1625
   11.120     1457
   11.150     1568
   11.180     1597
   11.210     1606
   11.240     1537
   11.270     1560
   11.300     1545
   11.330     1460
   11.360     1473
   11.390     1539
   11.420     1449
   11.450     1516
   11.480     1458
   11.510     1588
   11.540     1632
   11.570     1618
   11.600     1456
   11.630     1508
   11.660     1444
   11.690     1439
   11.720     1546
   11.750     1646
   11.780     1484
   11.810     1528
   11.840     1560
   11.870     1552
   11.900     1529
   11.930     1562
   11.960     1481
   11.990     1539
   12.020     1616
   12.050     1497
   12.080     1497
   12.110     1502
   12.140     1433
   12.170     1508
   12.200     1524
   12.230     1535
   12.260     1521
   12.290     1506
   12.320     1529
   12.350     1482
   12.380     1558
   12.410     1552
   12.440     1474
   12.470     1570
   12.500     1510
   12.530     1571
   12.560     1603
   12.590     1561
   12.620     1621
   12.650     1548
   12.680     1572
   12.710     1669
   12.740     1574
   12.770     1627
   12.800     1664
   12.830     1681
   12.860     1609
   12.890     1698
   12.920     1721
   12.950     1672
   12.980     1668
   13.010     1757
   13.040     1731
   13.070     1635
   13.100     1725
   13.130     1749
   13.160     1629
   13.190     1605
   13.220     1638
   13.250     1592
   13.280     1631
   13.310     1623
   13.340     1572
   13.370     1716
   13.400     1638
   13.430     1591
   13.460     1673
   13.490     1661
   13.520     1676
   13.550     1726
   13.580     1664
   13.610     1825
   13.640     1613
   13.670     1731
   13.700     1696
   13.730     1660
   13.760     1815
   13.790     1660
   13.820     1724
   13.850     1774
   13.880     1724
   13.910     1776
   13.940     1747
   13.970     1757
   14.000     1749
   14.030     1843
   14.060     1780
   14.090     1817
   14.120     1781
   14.150     1832
   14.180     1753
   14.210     1741
   14.240     1800
   14.270     1853
   14.300     1828
   14.330     1833
   14.360     1815
   14.390     1799
   14.420     1897
   14.450     1846
   14.480     1905
   14.510     1799
   14.540     1845
   14.570     1926
   14.600     1794
   14.630     1769
   14.660     1820
   14.690     1816
   14.720     1930
   14.750     1805
   14.780     1828
   14.810     1929
   14.840     1883
   14.870     1904
   14.900     1893
   14.930     1955
   14.960     2002
   14.990     1834
   15.020     1952
   15.050     2056
   15.080     2035
   15.110     2007
   15.140     1976
   15.170     2081
   15.200     2054
   15.230     2012
   15.260     2148
   15.290     2113
   15.320     2120
   15.350     2090
   15.380     1953
   15.410     2000
   15.440     2172
   15.470     2128
   15.500     2101
   15.530     2086
   15.560     2033
   15.590     2070
   15.620     2114
   15.650     2068
   15.680     2299
   15.710     2088
   15.740     2193
   15.770     2083
   15.800     2158
   15.830     2232
   15.860     2177
   15.890     2267
   15.920     2283
   15.950     2264
   15.980     2262
   16.010     2337
   16.040     2310
   16.070     2367
   16.100     2450
   16.130     2367
   16.160     2387
   16.190     2362
   16.220     2475
   16.250     2496
   16.280     2734
   16.310     2676
   16.340     2577
   16.370     2451
   16.400     2392
   16.430     2384
   16.460     2415
   16.490     2447
   16.520     2536
   16.550     2533
   16.580     2515
   16.610     2465
   16.640     2685
   16.670     2550
   16.700     2544
   16.730     2528
   16.760     2501
   16.790     2464
   16.820     2571
   16.850     2515
   16.880     2572
   16.910     2609
   16.940     2650
   16.970     2706
   17.000     2671
   17.030     2798
   17.060     2706
   17.090     2663
   17.120     2607
   17.150     2809
   17.180     2681
   17.210     2770
   17.240     2796
   17.270     2796
   17.300     2732
   17.330     2708
   17.360     2855
   17.390     2981
   17.420     2834
   17.450     2976
   17.480     2847
   17.510     2829
   17.540     2875
   17.570     2838
   17.600     2912
   17.630     2993
   17.660     2960
   17.690     3120
   17.720     3336
   17.750     3195
   17.780     2879
   17.810     2932
   17.840     3060
   17.870     3014
   17.900     2883
   17.930     3028
   17.960     2949
   17.990     2924
   18.020     3042
   18.050     2917
   18.080     2843
   18.110     3000
   18.140     2832
   18.170     3006
   18.200     2901
   18.230     3077
   18.260     2865
   18.290     3082
   18.320     3095
   18.350     3056
   18.380     3209
   18.410     3148
   18.440     3088
   18.470     3213
   18.500     3200
   18.530     3322
   18.560     3308
   18.590     3454
   18.620     3351
   18.650     3266
   18.680     3300
   18.710     3376
   18.740     3497
   18.770     3427
   18.800     3416
   18.830     3270
   18.860     3296
   18.890     3332
   18.920     3332
   18.950     3386
   18.980     3337
   19.010     3205
   19.040     3309
   19.070     3302
   19.100     3392
   19.130     3521
   19.160     3193
   19.190     3387
   19.220     3182
   19.250     3355
   19.280     3415
   19.310     3158
   19.340     3409
   19.370     3345
   19.400     3276
   19.430     3346
   19.460     3401
   19.490     3205
   19.520     3310
   19.550     3272
   19.580     3367
   19.610     3427
   19.640     3111
   19.670     3391
   19.700     3348
   19.730     3206
   19.760     3514
   19.790     3233
   19.820     3494
   19.850     3477
   19.880     3173
   19.910     3319
   19.940     3268
   19.970     3313
   20.000     3180
   20.030     3567
   20.060     3322
   20.090     3325
   20.120     3222
   20.150     3560
   20.180     3254
   20.210     3376
   20.240     3352
   20.270     3247
   20.300     3328
   20.330     3275
   20.360     3428
   20.390     3404
   20.420     3428
   20.450     3405
   20.480     3330
   20.510     3259
   20.540     3250
   20.570     3461
   20.600     3130
   20.630     3215
   20.660     3209
   20.690     3338
   20.720     3277
   20.750     3136
   20.780     3087
   20.810     3304
   20.840     3187
   20.870     3231
   20.900     3255
   20.930     3301
   20.960     3353
   20.990     3186
   21.020     3348
   21.050     3349
   21.080     3286
   21.110     3278
   21.140     3215
   21.170     3307
   21.200     3341
   21.230     3148
   21.260     3509
   21.290     3218
   21.320     3339
   21.350     3307
   21.380     3109
   21.410     3124
   21.440     3275
   21.470     3241
   21.500     3464
   21.530     3144
   21.560     2972
   21.590     3024
   21.620     3151
   21.650     3086
   21.680     3393
   21.710     2950
   21.740     3128
   21.770     3011
   21.800     3179
   21.830     3191
   21.860     3078
   21.890     3144
   21.920     3097
   21.950     2986
   21.980     3054
   22.010     3088
   22.040     3097
   22.070     3142
   22.100     3188
   22.130     2993
   22.160     2987
   22.190     2950
   22.220     3086
   22.250     2993
   22.280     3115
   22.310     2982
   22.340     3135
   22.370     3029
   22.400     2930
   22.430     3084
   22.460     3067
   22.490     3050
   22.520     3023
   22.550     3006
   22.580     3000
   22.610     2886
   22.640     2990
   22.670     2768
   22.700     2897
   22.730     2938
   22.760     2981
   22.790     2862
   22.820     2906
   22.850     2755
   22.880     2855
   22.910     2952
   22.940     2930
   22.970     2735
   23.000     2847
   23.030     2745
   23.060     2815
   23.090     2711
   23.120     2662
   23.150     2848
   23.180     2693
   23.210     2789
   23.240     2677
   23.270     2762
   23.300     2741
   23.330     2667
   23.360     2785
   23.390     2937
   23.420     2804
   23.450     2830
   23.480     2629
   23.510     2695
   23.540     2787
   23.570     2667
   23.600     2714
   23.630     2679
   23.660     2465
   23.690     2655
   23.720     2813
   23.750     2794
   23.780     2618
   23.810     2617
   23.840     2677
   23.870     2693
   23.900     2628
   23.930     2838
   23.960     2667
   23.990     2562
   24.020     2627
   24.050     2472
   24.080     2479
   24.110     2542
   24.140     2463
   24.170     2606
   24.200     2490
   24.230     2648
   24.260     2354
   24.290     2474
   24.320     2415
   24.350     2385
   24.380     2561
   24.410     2635
   24.440     2493
   24.470     2550
   24.500     2417
   24.530     2495
   24.560     2424
   24.590     2423
   24.620     2473
   24.650     2413
   24.680     2351
   24.710     2364
   24.740     2385
   24.770     2474
   24.800     2412
   24.830     2378
   24.860     2309
   24.890     2440
   24.920     2424
   24.950     2362
   24.980     2353
   25.010     2353
   25.040     2371
   25.070     2436
   25.100     2483
   25.130     2509
   25.160     2175
   25.190     2392
   25.220     2211
   25.250     2294
   25.280     2397
   25.310     2169
   25.340     2256
   25.370     2280
   25.400     2255
   25.430     2342
   25.460     2213
   25.490     2091
   25.520     2249
   25.550     2155
   25.580     2250
   25.610     2197
   25.640     2047
   25.670     2220
   25.700     2244
   25.730     2079
   25.760     2270
   25.790     2035
   25.820     2245
   25.850     2244
   25.880     2030
   25.910     2143
   25.940     2045
   25.970     2099
   26.000     2152
   26.030     2224
   26.060     2189
   26.090     2101
   26.120     2065
   26.150     2125
   26.180     2087
   26.210     2217
   26.240     2072
   26.270     2018
   26.300     2088
   26.330     2043
   26.360     2054
   26.390     2032
   26.420     2114
   26.450     2042
   26.480     2028
   26.510     1927
   26.540     2011
   26.570     2157
   26.600     1964
   26.630     2028
   26.660     2036
   26.690     2001
   26.720     2056
   26.750     1986
   26.780     1918
   26.810     1959
   26.840     1975
   26.870     1956
   26.900     1926
   26.930     1920
   26.960     1953
   26.990     1870
   27.020     1946
   27.050     1956
   27.080     2006
   27.110     1953
   27.140     1841
   27.170     1994
   27.200     1984
   27.230     1908
   27.260     2096
   27.290     1906
   27.320     1900
   27.350     1938
   27.380     1841
   27.410     1911
   27.440     2011
   27.470     1850
   27.500     2004
   27.530     1928
   27.560     1760
   27.590     1860
   27.620     1936
   27.650     1885
   27.680     2115
   27.710     1799
   27.740     1898
   27.770     1832
   27.800     1892
   27.830     1989
   27.860     1821
   27.890     1884
   27.920     1834
   27.950     1763
   27.980     1790
   28.010     1836
   28.040     1822
   28.070     1924
   28.100     1938
   28.130     1793
   28.160     1811
   28.190     1697
   28.220     1871
   28.250     1841
   28.280     1867
   28.310     1696
   28.340     1869
   28.370     1859
   28.400     1814
   28.430     1832
   28.460     1798
   28.490     1746
   28.520     1844
   28.550     1798
   28.580     1766
   28.610     1744
   28.640     1775
   28.670     1630
   28.700     1678
   28.730     1754
   28.760     1736
   28.790     1723
   28.820     1716
   28.850     1668
   28.880     1732
   28.910     1710
   28.940     1754
   28.970     1720
   29.000     1748
   29.030     1718
   29.060     1708
   29.090     1630
   29.120     1700
   29.150     1723
   29.180     1643
   29.210     1724
   29.240     1580
   29.270     1798
   29.300     1728
   29.330     1676
   29.360     1732
   29.390     1769
   29.420     1653
   29.450     1751
   29.480     1587
   29.510     1654
   29.540     1671
   29.570     1654
   29.600     1593
   29.630     1578
   29.660     1569
   29.690     1555
   29.720     1718
   29.750     1623
   29.780     1593
   29.810     1573
   29.840     1601
   29.870     1635
   29.900     1555
   29.930     1634
   29.960     1529
   29.990     1590
   30.020     1579
   30.050     1533
   30.080     1515
   30.110     1534
   30.140     1471
   30.170     1503
   30.200     1549
   30.230     1580
   30.260     1489
   30.290     1526
   30.320     1487
   30.350     1460
   30.380     1580
   30.410     1588
   30.440     1516
   30.470     1578
   30.500     1496
   30.530     1480
   30.560     1463
   30.590     1563
   30.620     1642
   30.650     1636
   30.680     1589
   30.710     1560
   30.740     1635
   30.770     1611
   30.800     1652
   30.830     1613
   30.860     1488
   30.890     1520
   30.920     1520
   30.950     1585
   30.980     1510
   31.010     1490
   31.040     1541
   31.070     1510
   31.100     1500
   31.130     1539
   31.160     1436
   31.190     1536
   31.220     1384
   31.250     1437
   31.280     1485
   31.310     1389
   31.340     1463
   31.370     1511
   31.400     1457
   31.430     1423
   31.460     1503
   31.490     1392
   31.520     1387
   31.550     1428
   31.580     1416
   31.610     1485
   31.640     1416
   31.670     1484
   31.700     1474
   31.730     1379
   31.760     1461
   31.790     1285
   31.820     1459
   31.850     1382
   31.880     1332
   31.910     1381
   31.940     1393
   31.970     1372
   32.000     1351
   32.030     1439
   32.060     1380
   32.090     1366
   32.120     1405
   32.150     1426
   32.180     1309
   32.210     1413
   32.240     1341
   32.270     1371
   32.300     1386
   32.330     1319
   32.360     1357
   32.390     1380
   32.420     1386
   32.450     1409
   32.480     1403
   32.510     1313
   32.540     1397
   32.570     1441
   32.600     1290
   32.630     1353
   32.660     1319
   32.690     1347
   32.720     1380
   32.750     1307
   32.780     1284
   32.810     1355
   32.840     1299
   32.870     1340
   32.900     1371
   32.930     1301
   32.960     1369
   32.990     1320
   33.020     1347
   33.050     1355
   33.080     1359
   33.110     1337
   33.140     1285
   33.170     1334
   33.200     1320
   33.230     1232
   33.260     1392
   33.290     1269
   33.320     1281
   33.350     1308
   33.380     1267
   33.410     1260
   33.440     1332
   33.470     1302
   33.500     1368
   33.530     1271
   33.560     1223
   33.590     1193
   33.620     1274
   33.650     1291
   33.680     1335
   33.710     1207
   33.740     1320
   33.770     1208
   33.800     1268
   33.830     1344
   33.860     1289
   33.890     1270
   33.920     1267
   33.950     1270
   33.980     1240
   34.010     1308
   34.040     1257
   34.070     1275
   34.100     1285
   34.130     1178
   34.160     1210
   34.190     1160
   34.220     1220
   34.250     1193
   34.280     1204
   34.310     1234
   34.340     1250
   34.370     1302
   34.400     1215
   34.430     1222
   34.460     1262
   34.490     1206
   34.520     1285
   34.550     1201
   34.580     1235
   34.610     1147
   34.640     1183
   34.670     1171
   34.700     1151
   34.730     1162
   34.760     1177
   34.790     1173
   34.820     1192
   34.850     1161
   34.880     1133
   34.910     1178
   34.940     1192
   34.970     1143
   35.000     1142
   35.030     1161
   35.060     1163
   35.090     1153
   35.120     1129
   35.150     1194
   35.180     1145
   35.210     1158
   35.240     1156
   35.270     1210
   35.300     1143
   35.330     1134
   35.360     1170
   35.390     1196
   35.420     1128
   35.450     1160
   35.480     1101
   35.510     1046
   35.540     1120
   35.570     1154
   35.600     1117
   35.630     1099
   35.660     1105
   35.690     1073
   35.720     1161
   35.750     1190
   35.780     1049
   35.810     1094
   35.840     1111
   35.870     1163
   35.900     1053
   35.930     1110
   35.960     1062
   35.990     1114
   36.020     1102
   36.050     1077
   36.080     1071
   36.110     1078
   36.140     1073
   36.170     1046
   36.200     1059
   36.230     1071
   36.260     1082
   36.290     1111
   36.320     1030
   36.350     1055
   36.380     1133
   36.410     1120
   36.440     1057
   36.470     1085
   36.500     1037
   36.530     1044
   36.560     1024
   36.590     1008
   36.620     1088
   36.650     1089
   36.680     1103
   36.710     1079
   36.740     1095
   36.770     1057
   36.800     1132
   36.830     1063
   36.860     1055
   36.890     1121
   36.920     1122
   36.950     1055
   36.980     1088
   37.010     1044
   37.040     1055
   37.070     1039
   37.100     1097
   37.130     1075
   37.160     1000
   37.190     1090
   37.220     1001
   37.250     1047
   37.280     1055
   37.310      998
   37.340     1057
   37.370     1031
   37.400     1018
   37.430     1094
   37.460      965
   37.490     1044
   37.520     1009
   37.550      968
   37.580     1055
   37.610     1060
   37.640     1009
   37.670     1064
   37.700     1018
   37.730      995
   37.760     1060
   37.790      964
   37.820     1043
   37.850     1027
   37.880      978
   37.910     1009
   37.940     1003
   37.970     1008
   38.000     1010
   38.030     1030
   38.060     1060
   38.090      991
   38.120     1000
   38.150     1067
   38.180     1002
   38.210     1004
   38.240     1027
   38.270      997
   38.300     1052
   38.330      965
   38.360     1054
   38.390      977
   38.420     1010
   38.450     1008
   38.480      970
   38.510      937
   38.540      990
   38.570     1045
   38.600      941
   38.630     1008
   38.660      925
   38.690      977
   38.720     1033
   38.750      986
   38.780      960
   38.810     1008
   38.840     1019
   38.870     1029
   38.900     1022
   38.930      950
   38.960      978
   38.990      968
   39.020      952
   39.050      986
   39.080     1001
   39.110      987
   39.140      935
   39.170     1003
   39.200      988
   39.230      926
   39.260     1071
   39.290      942
   39.320      974
   39.350     1010
   39.380      902
   39.410      921
   39.440     1019
   39.470     1001
   39.500      994
   39.530      962
   39.560      954
   39.590      941
   39.620      945
   39.650      922
   39.680     1068
   39.710      984
   39.740     1004
   39.770      947
   39.800      978
   39.830      967
   39.860     1011
   39.890      951
   39.920      995
   39.950     1003
   39.980      936
   40.010      985
   40.040     1009
   40.070      985
   40.100      974
   40.130      911
   40.160      973
   40.190      979
   40.220     1009
   40.250      980
   40.280      975
   40.310      934
   40.340      974
   40.370      999
   40.400      957
   40.430      988
   40.460      960
   40.490      975
   40.520      962
   40.550      971
   40.580     1009
   40.610      979
   40.640      992
   40.670      961
   40.700      984
   40.730      966
   40.760      980
   40.790      923
   40.820      973
   40.850      929
   40.880      966
   40.910      900
   40.940      962
   40.970      967
   41.000      930
   41.030      967
   41.060      963
   41.090      988
   41.120      953
   41.150     1016
   41.180      950
   41.210     1018
   41.240      931
   41.270      982
   41.300      963
   41.330     1001
   41.360      983
   41.390     1021
   41.420     1002
   41.450      987
   41.480      929
   41.510      899
   41.540      960
   41.570      967
   41.600      939
   41.630      868
   41.660      933
   41.690      914
   41.720      967
   41.750      943
   41.780      913
   41.810      875
   41.840      937
   41.870      969
   41.900      959
   41.930      964
   41.960      920
   41.990      943
   42.020      944
   42.050      903
   42.080      898
   42.110      916
   42.140      927
   42.170      958
   42.200      941
   42.230      966
   42.260      912
   42.290      933
   42.320      878
   42.350      906
   42.380      977
   42.410      949
   42.440      874
   42.470      938
   42.500      928
   42.530      900
   42.560      899
   42.590      941
   42.620      950
   42.650      935
   42.680      940
   42.710      913
   42.740      939
   42.770      970
   42.800      967
   42.830      973
   42.860      952
   42.890      927
   42.920      974
   42.950      964
   42.980      939
   43.010      927
   43.040      998
   43.070     1005
   43.100     1037
   43.130      987
   43.160      870
   43.190      961
   43.220      942
   43.250      879
   43.280      884
   43.310      823
   43.340      866
   43.370      979
   43.400      944
   43.430      989
   43.460      928
   43.490      925
   43.520      904
   43.550      950
   43.580      946
   43.610      907
   43.640      916
   43.670      942
   43.700      951
   43.730      893
   43.760      976
   43.790      846
   43.820      939
   43.850      878
   43.880      855
   43.910      907
   43.940      836
   43.970      961
   43.985      896