File: data/MIL-88B_101/PXRD/PXRD_S-18_Cu-Kα1_capillary-0.7mm_MIL-101-Water.xyd
    2.000      197
    2.030      201
    2.060      198
    2.090      206
    2.120      199
    2.150      187
    2.180      205
    2.210      199
    2.240      193
    2.270      190
    2.300      204
    2.330      185
    2.360      201
    2.390      181
    2.420      215
    2.450      188
    2.480      202
    2.510      200
    2.540      206
    2.570      219
    2.600      220
    2.630      238
    2.660      237
    2.690      279
    2.720      271
    2.750      221
    2.780      189
    2.810      190
    2.840      187
    2.870      196
    2.900      202
    2.930      226
    2.960      224
    2.990      217
    3.020      241
    3.050      253
    3.080      284
    3.110      301
    3.140      313
    3.170      380
    3.200      389
    3.230      309
    3.260      213
    3.290      194
    3.320      243
    3.350      229
    3.380      185
    3.410      174
    3.440      156
    3.470      173
    3.500      149
    3.530      180
    3.560      146
    3.590      167
    3.620      187
    3.650      185
    3.680      181
    3.710      151
    3.740      169
    3.770      163
    3.800      203
    3.830      206
    3.860      188
    3.890      202
    3.920      160
    3.950      145
    3.980      149
    4.010      168
    4.040      170
    4.070      166
    4.100      180
    4.130      164
    4.160      152
    4.190      183
    4.220      188
    4.250      155
    4.280      160
    4.310      148
    4.340      149
    4.370      161
    4.400      165
    4.430      157
    4.460      148
    4.490      176
    4.520      166
    4.550      159
    4.580      168
    4.610      163
    4.640      174
    4.670      170
    4.700      177
    4.730      200
    4.760      205
    4.790      173
    4.820      180
    4.850      166
    4.880      187
    4.910      188
    4.940      187
    4.970      219
    5.000      212
    5.030      249
    5.060      213
    5.090      171
    5.120      149
    5.150      167
    5.180      151
    5.210      159
    5.240      143
    5.270      141
    5.300      151
    5.330      162
    5.360      145
    5.390      172
    5.420      165
    5.450      166
    5.480      172
    5.510      183
    5.540      179
    5.570      162
    5.600      175
    5.630      184
    5.660      150
    5.690      195
    5.720      246
    5.750      218
    5.780      177
    5.810      158
    5.840      166
    5.870      169
    5.900      161
    5.930      143
    5.960      132
    5.990      139
    6.020      146
    6.050      136
    6.080      148
    6.110      173
    6.140      139
    6.170      141
    6.200      164
    6.230      161
    6.260      145
    6.290      168
    6.320      169
    6.350      151
    6.380      182
    6.410      148
    6.440      143
    6.470      153
    6.500      151
    6.530      149
    6.560      141
    6.590      152
    6.620      173
    6.650      152
    6.680      130
    6.710      144
    6.740      165
    6.770      162
    6.800      162
    6.830      148
    6.860      149
    6.890      147
    6.920      157
    6.950      158
    6.980      151
    7.010      146
    7.040      161
    7.070      147
    7.100      178
    7.130      145
    7.160      141
    7.190      165
    7.220      149
    7.250      149
    7.280      173
    7.310      149
    7.340      150
    7.370      153
    7.400      135
    7.430      131
    7.460      165
    7.490      131
    7.520      133
    7.550      137
    7.580      161
    7.610      170
    7.640      156
    7.670      155
    7.700      151
    7.730      148
    7.760      149
    7.790      136
    7.820      166
    7.850      142
    7.880      172
    7.910      151
    7.940      159
    7.970      186
    8.000      159
    8.030      192
    8.060      154
    8.090      177
    8.120      177
    8.150      176
    8.180      168
    8.210      189
    8.240      204
    8.270      256
    8.300      243
    8.330      212
    8.360      219
    8.390      222
    8.420      239
    8.450      252
    8.480      255
    8.510      216
    8.540      194
    8.570      167
    8.600      161
    8.630      176
    8.660      196
    8.690      227
    8.720      304
    8.750      285
    8.780      264
    8.810      254
    8.840      287
    8.870      369
    8.900      439
    8.930      397
    8.960      311
    8.990      206
    9.020      189
    9.050      170
    9.080      164
    9.110      148
    9.140      165
    9.170      167
    9.200      173
    9.230      120
    9.260      164
    9.290      179
    9.320      158
    9.350      177
    9.380      158
    9.410      143
    9.440      156
    9.470      156
    9.500      148
    9.530      165
    9.560      181
    9.590      175
    9.620      173
    9.650      152
    9.680      188
    9.710      181
    9.740      200
    9.770      171
    9.800      177
    9.830      159
    9.860      143
    9.890      160
    9.920      180
    9.950      209
    9.980      172
   10.010      197
   10.040      174
   10.070      164
   10.100      183
   10.130      198
   10.160      232
   10.190      209
   10.220      180
   10.250      161
   10.280      162
   10.310      135
   10.340      150
   10.370      174
   10.400      135
   10.430      156
   10.460      171
   10.490      164
   10.520      162
   10.550      152
   10.580      149
   10.610      149
   10.640      150
   10.670      169
   10.700      166
   10.730      148
   10.760      161
   10.790      152
   10.820      149
   10.850      143
   10.880      161
   10.910      149
   10.940      170
   10.970      157
   11.000      150
   11.030      146
   11.060      194
   11.090      165
   11.120      171
   11.150      150
   11.180      147
   11.210      187
   11.240      173
   11.270      161
   11.300      148
   11.330      134
   11.360      148
   11.390      142
   11.420      150
   11.450      167
   11.480      147
   11.510      138
   11.540      162
   11.570      176
   11.600      158
   11.630      153
   11.660      138
   11.690      146
   11.720      156
   11.750      176
   11.780      148
   11.810      155
   11.840      135
   11.870      151
   11.900      141
   11.930      151
   11.960      137
   11.990      151
   12.020      151
   12.050      137
   12.080      137
   12.110      136
   12.140      137
   12.170      144
   12.200      136
   12.230      154
   12.260      133
   12.290      151
   12.320      162
   12.350      141
   12.380      151
   12.410      148
   12.440      152
   12.470      146
   12.500      152
   12.530      155
   12.560      157
   12.590      151
   12.620      171
   12.650      137
   12.680      155
   12.710      140
   12.740      142
   12.770      147
   12.800      168
   12.830      144
   12.860      165
   12.890      176
   12.920      183
   12.950      145
   12.980      149
   13.010      164
   13.040      154
   13.070      169
   13.100      151
   13.130      179
   13.160      161
   13.190      140
   13.220      152
   13.250      166
   13.280      167
   13.310      149
   13.340      158
   13.370      155
   13.400      150
   13.430      158
   13.460      186
   13.490      153
   13.520      186
   13.550      180
   13.580      164
   13.610      150
   13.640      147
   13.670      161
   13.700      157
   13.730      150
   13.760      168
   13.790      143
   13.820      150
   13.850      165
   13.880      163
   13.910      153
   13.940      142
   13.970      151
   14.000      165
   14.030      172
   14.060      151
   14.090      153
   14.120      162
   14.150      146
   14.180      148
   14.210      165
   14.240      177
   14.270      145
   14.300      155
   14.330      161
   14.360      158
   14.390      186
   14.420      175
   14.450      155
   14.480      175
   14.510      159
   14.540      156
   14.570      163
   14.600      164
   14.630      170
   14.660      158
   14.690      167
   14.720      175
   14.750      143
   14.780      160
   14.810      160
   14.840      173
   14.870      171
   14.900      164
   14.930      175
   14.960      173
   14.990      144
   15.020      164
   15.050      159
   15.080      169
   15.110      174
   15.140      178
   15.170      159
   15.200      167
   15.230      164
   15.260      166
   15.290      195
   15.320      181
   15.350      193
   15.380      171
   15.410      170
   15.440      197
   15.470      170
   15.500      167
   15.530      163
   15.560      175
   15.590      171
   15.620      143
   15.650      179
   15.680      214
   15.710      165
   15.740      167
   15.770      171
   15.800      170
   15.830      177
   15.860      181
   15.890      201
   15.920      184
   15.950      181
   15.980      187
   16.010      211
   16.040      196
   16.070      178
   16.100      205
   16.130      195
   16.160      207
   16.190      188
   16.220      202
   16.250      204
   16.280      238
   16.310      251
   16.340      264
   16.370      244
   16.400      182
   16.430      193
   16.460      193
   16.490      194
   16.520      197
   16.550      194
   16.580      196
   16.610      183
   16.640      193
   16.670      208
   16.700      201
   16.730      211
   16.760      189
   16.790      184
   16.820      160
   16.850      200
   16.880      218
   16.910      186
   16.940      216
   16.970      202
   17.000      208
   17.030      201
   17.060      202
   17.090      210
   17.120      177
   17.150      200
   17.180      208
   17.210      207
   17.240      199
   17.270      208
   17.300      223
   17.330      205
   17.360      192
   17.390      212
   17.420      219
   17.450      211
   17.480      190
   17.510      227
   17.540      192
   17.570      203
   17.600      235
   17.630      228
   17.660      204
   17.690      196
   17.720      259
   17.750      237
   17.780      236
   17.810      207
   17.840      206
   17.870      242
   17.900      194
   17.930      219
   17.960      218
   17.990      210
   18.020      185
   18.050      226
   18.080      204
   18.110      228
   18.140      216
   18.170      201
   18.200      207
   18.230      214
   18.260      207
   18.290      202
   18.320      199
   18.350      213
   18.380      220
   18.410      216
   18.440      202
   18.470      219
   18.500      235
   18.530      226
   18.560      231
   18.590      239
   18.620      228
   18.650      237
   18.680      227
   18.710      232
   18.740      235
   18.770      258
   18.800      254
   18.830      230
   18.860      213
   18.890      267
   18.920      233
   18.950      249
   18.980      249
   19.010      226
   19.040      245
   19.070      237
   19.100      266
   19.130      239
   19.160      234
   19.190      243
   19.220      238
   19.250      246
   19.280      251
   19.310      243
   19.340      216
   19.370      241
   19.400      221
   19.430      232
   19.460      265
   19.490      229
   19.520      273
   19.550      239
   19.580      255
   19.610      252
   19.640      244
   19.670      238
   19.700      263
   19.730      251
   19.760      260
   19.790      275
   19.820      268
   19.850      263
   19.880      244
   19.910      250
   19.940      243
   19.970      253
   20.000      266
   20.030      299
   20.060      257
   20.090      258
   20.120      257
   20.150      269
   20.180      273
   20.210      259
   20.240      272
   20.270      247
   20.300      279
   20.330      252
   20.360      264
   20.390      259
   20.420      267
   20.450      281
   20.480      246
   20.510      253
   20.540      242
   20.570      306
   20.600      248
   20.630      252
   20.660      264
   20.690      262
   20.720      261
   20.750      274
   20.780      240
   20.810      266
   20.840      288
   20.870      245
   20.900      288
   20.930      267
   20.960      263
   20.990      274
   21.020      308
   21.050      267
   21.080      307
   21.110      271
   21.140      278
   21.170      300
   21.200      304
   21.230      274
   21.260      285
   21.290      282
   21.320      297
   21.350      296
   21.380      251
   21.410      285
   21.440      306
   21.470      305
   21.500      301
   21.530      280
   21.560      271
   21.590      264
   21.620      307
   21.650      279
   21.680      304
   21.710      287
   21.740      319
   21.770      286
   21.800      297
   21.830      286
   21.860      291
   21.890      326
   21.920      291
   21.950      296
   21.980      298
   22.010      307
   22.040      295
   22.070      316
   22.100      315
   22.130      303
   22.160      297
   22.190      282
   22.220      321
   22.250      285
   22.280      323
   22.310      281
   22.340      304
   22.370      320
   22.400      299
   22.430      322
   22.460      292
   22.490      341
   22.520      325
   22.550      314
   22.580      313
   22.610      312
   22.640      303
   22.670      325
   22.700      289
   22.730      310
   22.760      331
   22.790      323
   22.820      282
   22.850      296
   22.880      337
   22.910      308
   22.940      337
   22.970      308
   23.000      314
   23.030      316
   23.060      322
   23.090      295
   23.120      300
   23.150      340
   23.180      305
   23.210      341
   23.240      328
   23.270      328
   23.300      334
   23.330      313
   23.360      330
   23.390      327
   23.420      328
   23.450      353
   23.480      328
   23.510      334
   23.540      313
   23.570      328
   23.600      334
   23.630      317
   23.660      329
   23.690      345
   23.720      328
   23.750      334
   23.780      333
   23.810      341
   23.840      342
   23.870      352
   23.900      316
   23.930      345
   23.960      325
   23.990      339
   24.020      320
   24.050      343
   24.080      329
   24.110      333
   24.140      350
   24.170      343
   24.200      355
   24.230      349
   24.260      340
   24.290      340
   24.320      329
   24.350      334
   24.380      353
   24.410      354
   24.440      337
   24.470      366
   24.500      361
   24.530      356
   24.560      346
   24.590      358
   24.620      380
   24.650      338
   24.680      370
   24.710      332
   24.740      380
   24.770      378
   24.800      372
   24.830      394
   24.860      359
   24.890      372
   24.920      385
   24.950      360
   24.980      358
   25.010      352
   25.040      385
   25.070      360
   25.100      388
   25.130      385
   25.160      364
   25.190      369
   25.220      321
   25.250      389
   25.280      398
   25.310      337
   25.340      354
   25.370      375
   25.400      376
   25.430      409
   25.460      402
   25.490      345
   25.520      369
   25.550      364
   25.580      348
   25.610      391
   25.640      374
   25.670      362
   25.700      386
   25.730      341
   25.760      389
   25.790      330
   25.820      379
   25.850      366
   25.880      344
   25.910      385
   25.940      356
   25.970      370
   26.000      359
   26.030      396
   26.060      356
   26.090      384
   26.120      360
   26.150      383
   26.180      344
   26.210      365
   26.240      364
   26.270      375
   26.300      347
   26.330      361
   26.360      389
   26.390      389
   26.420      381
   26.450      367
   26.480      355
   26.510      385
   26.540      332
   26.570      404
   26.600      360
   26.630      386
   26.660      359
   26.690      395
   26.720      418
   26.750      383
   26.780      347
   26.810      354
   26.840      377
   26.870      339
   26.900      399
   26.930      351
   26.960      352
   26.990      357
   27.020      411
   27.050      361
   27.080      394
   27.110      391
   27.140      361
   27.170      390
   27.200      357
   27.230      369
   27.260      388
   27.290      401
   27.320      386
   27.350      387
   27.380      381
   27.410      362
   27.440      432
   27.470      383
   27.500      401
   27.530      396
   27.560      371
   27.590      372
   27.620      403
   27.650      357
   27.680      398
   27.710      366
   27.740      411
   27.770      376
   27.800      408
   27.830      405
   27.860      394
   27.890      448
   27.920      380
   27.950      383
   27.980      381
   28.010      380
   28.040      382
   28.070      411
   28.100      414
   28.130      367
   28.160      373
   28.190      358
   28.220      384
   28.250      362
   28.280      384
   28.310      369
   28.340      373
   28.370      389
   28.400      392
   28.430      391
   28.460      373
   28.490      384
   28.520      376
   28.550      401
   28.580      382
   28.610      340
   28.640      374
   28.670      376
   28.700      368
   28.730      379
   28.760      365
   28.790      354
   28.820      373
   28.850      350
   28.880      371
   28.910      368
   28.940      370
   28.970      358
   29.000      357
   29.030      336
   29.060      378
   29.090      359
   29.120      363
   29.150      377
   29.180      356
   29.210      372
   29.240      396
   29.270      361
   29.300      404
   29.330      342
   29.360      382
   29.390      362
   29.420      344
   29.450      361
   29.480      359
   29.510      362
   29.540      365
   29.570      366
   29.600      392
   29.630      359
   29.660      345
   29.690      347
   29.720      372
   29.750      352
   29.780      355
   29.810      373
   29.840      398
   29.870      356
   29.900      352
   29.930      348
   29.960      328
   29.990      352
   30.020      358
   30.050      318
   30.080      362
   30.110      328
   30.140      309
   30.170      345
   30.200      346
   30.230      341
   30.260      330
   30.290      356
   30.320      317
   30.350      328
   30.380      366
   30.410      344
   30.440      301
   30.470      348
   30.500      335
   30.530      348
   30.560      321
   30.590      359
   30.620      335
   30.650      342
   30.680      360
   30.710      357
   30.740      351
   30.770      313
   30.800      350
   30.830      340
   30.860      356
   30.890      354
   30.920      361
   30.950      358
   30.980      373
   31.010      309
   31.040      354
   31.070      340
   31.100      390
   31.130      350
   31.160      326
   31.190      369
   31.220      320
   31.250      334
   31.280      348
   31.310      308
   31.340      331
   31.370      333
   31.400      310
   31.430      351
   31.460      345
   31.490      331
   31.520      339
   31.550      315
   31.580      310
   31.610      328
   31.640      306
   31.670      336
   31.700      365
   31.730      299
   31.760      353
   31.790      319
   31.820      300
   31.850      341
   31.880      308
   31.910      291
   31.940      274
   31.970      317
   32.000      316
   32.030      345
   32.060      301
   32.090      344
   32.120      288
   32.150      321
   32.180      317
   32.210      320
   32.240      318
   32.270      318
   32.300      314
   32.330      288
   32.360      345
   32.390      308
   32.420      309
   32.450      327
   32.480      306
   32.510      307
   32.540      320
   32.570      335
   32.600      296
   32.630      286
   32.660      303
   32.690      316
   32.720      307
   32.750      300
   32.780      287
   32.810      311
   32.840      304
   32.870      273
   32.900      297
   32.930      304
   32.960      305
   32.990      306
   33.020      307
   33.050      312
   33.080      281
   33.110      287
   33.140      279
   33.170      320
   33.200      309
   33.230      292
   33.260      286
   33.290      304
   33.320      294
   33.350      316
   33.380      288
   33.410      305
   33.440      305
   33.470      294
   33.500      308
   33.530      296
   33.560      275
   33.590      286
   33.620      289
   33.650      273
   33.680      321
   33.710      269
   33.740      270
   33.770      267
   33.800      268
   33.830      301
   33.860      274
   33.890      286
   33.920      300
   33.950      279
   33.980      299
   34.010      291
   34.040      277
   34.070      273
   34.100      299
   34.130      270
   34.160      274
   34.190      277
   34.220      289
   34.250      282
   34.280      296
   34.310      280
   34.340      279
   34.370      286
   34.400      284
   34.430      273
   34.460      281
   34.490      293
   34.520      258
   34.550      268
   34.580      256
   34.610      262
   34.640      263
   34.670      267
   34.700      241
   34.730      282
   34.760      277
   34.790      270
   34.820      247
   34.850      275
   34.880      274
   34.910      284
   34.940      278
   34.970      257
   35.000      287
   35.030      247
   35.060      259
   35.090      266
   35.120      263
   35.150      262
   35.180      252
   35.210      267
   35.240      258
   35.270      262
   35.300      262
   35.330      253
   35.360      292
   35.390      278
   35.420      277
   35.450      294
   35.480      253
   35.510      250
   35.540      272
   35.570      268
   35.600      258
   35.630      249
   35.660      255
   35.690      268
   35.720      262
   35.750      275
   35.780      257
   35.810      264
   35.840      272
   35.870      230
   35.900      238
   35.930      264
   35.960      239
   35.990      281
   36.020      258
   36.050      252
   36.080      264
   36.110      256
   36.140      252
   36.170      230
   36.200      236
   36.230      265
   36.260      233
   36.290      251
   36.320      256
   36.350      241
   36.380      243
   36.410      259
   36.440      250
   36.470      263
   36.500      231
   36.530      227
   36.560      245
   36.590      237
   36.620      255
   36.650      218
   36.680      250
   36.710      235
   36.740      241
   36.770      252
   36.800      264
   36.830      233
   36.860      228
   36.890      240
   36.920      230
   36.950      248
   36.980      246
   37.010      238
   37.040      243
   37.070      257
   37.100      256
   37.130      255
   37.160      263
   37.190      255
   37.220      237
   37.250      227
   37.280      247
   37.310      222
   37.340      216
   37.370      246
   37.400      236
   37.430      239
   37.460      240
   37.490      242
   37.520      225
   37.550      258
   37.580      250
   37.610      259
   37.640      221
   37.670      246
   37.700      242
   37.730      243
   37.760      235
   37.790      226
   37.820      248
   37.850      251
   37.880      232
   37.910      228
   37.940      243
   37.970      234
   38.000      236
   38.030      257
   38.060      247
   38.090      249
   38.120      228
   38.150      246
   38.180      241
   38.210      229
   38.240      237
   38.270      219
   38.300      233
   38.330      217
   38.360      224
   38.390      255
   38.420      267
   38.450      241
   38.480      232
   38.510      229
   38.540      225
   38.570      215
   38.600      223
   38.630      210
   38.660      211
   38.690      234
   38.720      228
   38.750      232
   38.780      209
   38.810      258
   38.840      216
   38.870      217
   38.900      240
   38.930      228
   38.960      246
   38.990      218
   39.020      246
   39.050      248
   39.080      244
   39.110      219
   39.140      235
   39.170      232
   39.200      261
   39.230      247
   39.260      244
   39.290      249
   39.320      229
   39.350      257
   39.380      198
   39.410      222
   39.440      241
   39.470      259
   39.500      240
   39.530      217
   39.560      221
   39.590      244
   39.620      246
   39.650      226
   39.680      245
   39.710      210
   39.740      247
   39.770      211
   39.800      223
   39.830      227
   39.860      210
   39.890      250
   39.920      226
   39.950      210
   39.980      222
   40.010      220
   40.040      247
   40.070      255
   40.100      237
   40.130      229
   40.160      235
   40.190      229
   40.220      254
   40.250      223
   40.280      261
   40.310      253
   40.340      248
   40.370      240
   40.400      225
   40.430      228
   40.460      223
   40.490      242
   40.520      236
   40.550      258
   40.580      228
   40.610      211
   40.640      259
   40.670      236
   40.700      230
   40.730      255
   40.760      230
   40.790      244
   40.820      231
   40.850      199
   40.880      231
   40.910      234
   40.940      197
   40.970      246
   41.000      231
   41.030      207
   41.060      225
   41.090      225
   41.120      220
   41.150      242
   41.180      242
   41.210      235
   41.240      216
   41.270      235
   41.300      250
   41.330      217
   41.360      219
   41.390      216
   41.420      227
   41.450      252
   41.480      195
   41.510      270
   41.540      241
   41.570      218
   41.600      237
   41.630      196
   41.660      207
   41.690      212
   41.720      249
   41.750      233
   41.780      207
   41.810      224
   41.840      244
   41.870      216
   41.900      203
   41.930      225
   41.960      225
   41.990      226
   42.020      225
   42.050      223
   42.080      223
   42.110      224
   42.140      218
   42.170      193
   42.200      203
   42.230      200
   42.260      224
   42.290      205
   42.320      207
   42.350      216
   42.380      211
   42.410      217
   42.440      216
   42.470      205
   42.500      215
   42.530      210
   42.560      192
   42.590      215
   42.620      208
   42.650      209
   42.680      224
   42.710      263
   42.740      248
   42.770      220
   42.800      210
   42.830      188
   42.860      218
   42.890      223
   42.920      193
   42.950      207
   42.980      212
   43.010      208
   43.040      200
   43.070      231
   43.100      228
   43.130      224
   43.160      189
   43.190      198
   43.220      193
   43.250      226
   43.280      216
   43.310      203
   43.340      242
   43.370      248
   43.400      210
   43.430      213
   43.460      206
   43.490      209
   43.520      203
   43.550      231
   43.580      212
   43.610      214
   43.640      205
   43.670      205
   43.700      226
   43.730      212
   43.760      223
   43.790      230
   43.820      221
   43.850      201
   43.880      201
   43.910      219
   43.940      192
   43.970      185
   43.985      171