File: data/MIL-88B_101/PXRD/PXRD_S-4_Cu-Kα1_capillary-0.7mm.xyd
    2.000     1543
    2.030     1675
    2.060     1611
    2.090     1556
    2.120     1564
    2.150     1583
    2.180     1570
    2.210     1531
    2.240     1581
    2.270     1511
    2.300     1556
    2.330     1537
    2.360     1589
    2.390     1555
    2.420     1572
    2.450     1525
    2.480     1569
    2.510     1509
    2.540     1473
    2.570     1583
    2.600     1491
    2.630     1483
    2.660     1521
    2.690     1569
    2.720     1559
    2.750     1458
    2.780     1398
    2.810     1552
    2.840     1488
    2.870     1595
    2.900     1507
    2.930     1485
    2.960     1542
    2.990     1420
    3.020     1488
    3.050     1535
    3.080     1498
    3.110     1536
    3.140     1535
    3.170     1498
    3.200     1569
    3.230     1493
    3.260     1555
    3.290     1470
    3.320     1451
    3.350     1529
    3.380     1445
    3.410     1400
    3.440     1493
    3.470     1411
    3.500     1550
    3.530     1483
    3.560     1413
    3.590     1446
    3.620     1412
    3.650     1416
    3.680     1512
    3.710     1452
    3.740     1431
    3.770     1471
    3.800     1402
    3.830     1470
    3.860     1417
    3.890     1467
    3.920     1397
    3.950     1471
    3.980     1429
    4.010     1502
    4.040     1453
    4.070     1472
    4.100     1474
    4.130     1426
    4.160     1462
    4.190     1407
    4.220     1501
    4.250     1428
    4.280     1480
    4.310     1403
    4.340     1422
    4.370     1454
    4.400     1451
    4.430     1476
    4.460     1485
    4.490     1538
    4.520     1424
    4.550     1451
    4.580     1410
    4.610     1435
    4.640     1434
    4.670     1436
    4.700     1453
    4.730     1469
    4.760     1417
    4.790     1442
    4.820     1356
    4.850     1432
    4.880     1413
    4.910     1482
    4.940     1502
    4.970     1384
    5.000     1415
    5.030     1418
    5.060     1355
    5.090     1436
    5.120     1376
    5.150     1434
    5.180     1395
    5.210     1430
    5.240     1437
    5.270     1336
    5.300     1360
    5.330     1390
    5.360     1390
    5.390     1452
    5.420     1461
    5.450     1427
    5.480     1336
    5.510     1446
    5.540     1431
    5.570     1421
    5.600     1378
    5.630     1349
    5.660     1406
    5.690     1425
    5.720     1379
    5.750     1521
    5.780     1389
    5.810     1401
    5.840     1413
    5.870     1436
    5.900     1367
    5.930     1405
    5.960     1333
    5.990     1372
    6.020     1437
    6.050     1359
    6.080     1292
    6.110     1406
    6.140     1350
    6.170     1376
    6.200     1372
    6.230     1433
    6.260     1318
    6.290     1347
    6.320     1369
    6.350     1361
    6.380     1435
    6.410     1364
    6.440     1360
    6.470     1355
    6.500     1342
    6.530     1363
    6.560     1403
    6.590     1363
    6.620     1379
    6.650     1403
    6.680     1431
    6.710     1350
    6.740     1451
    6.770     1409
    6.800     1400
    6.830     1447
    6.860     1402
    6.890     1479
    6.920     1380
    6.950     1310
    6.980     1415
    7.010     1279
    7.040     1412
    7.070     1423
    7.100     1415
    7.130     1449
    7.160     1225
    7.190     1424
    7.220     1367
    7.250     1383
    7.280     1365
    7.310     1355
    7.340     1418
    7.370     1325
    7.400     1397
    7.430     1365
    7.460     1386
    7.490     1353
    7.520     1341
    7.550     1404
    7.580     1380
    7.610     1376
    7.640     1359
    7.670     1427
    7.700     1290
    7.730     1332
    7.760     1385
    7.790     1320
    7.820     1402
    7.850     1432
    7.880     1382
    7.910     1381
    7.940     1337
    7.970     1434
    8.000     1406
    8.030     1540
    8.060     1425
    8.090     1380
    8.120     1410
    8.150     1375
    8.180     1372
    8.210     1366
    8.240     1438
    8.270     1398
    8.300     1410
    8.330     1417
    8.360     1481
    8.390     1442
    8.420     1475
    8.450     1393
    8.480     1387
    8.510     1353
    8.540     1414
    8.570     1451
    8.600     1366
    8.630     1350
    8.660     1394
    8.690     1400
    8.720     1475
    8.750     1359
    8.780     1472
    8.810     1491
    8.840     1466
    8.870     1606
    8.900     1634
    8.930     1652
    8.960     1688
    8.990     1840
    9.020     1968
    9.050     2221
    9.080     2334
    9.110     2699
    9.140     2928
    9.170     3546
    9.200     4286
    9.230     5051
    9.260     7095
    9.290    10037
    9.320    12798
    9.350     9239
    9.380     3708
    9.410     2208
    9.440     2088
    9.470     2068
    9.500     2481
    9.530     2972
    9.560     2717
    9.590     1817
    9.620     1495
    9.650     1407
    9.680     1522
    9.710     1441
    9.740     1440
    9.770     1375
    9.800     1387
    9.830     1427
    9.860     1408
    9.890     1491
    9.920     1481
    9.950     1359
    9.980     1413
   10.010     1478
   10.040     1402
   10.070     1411
   10.100     1495
   10.130     1393
   10.160     1432
   10.190     1356
   10.220     1400
   10.250     1396
   10.280     1476
   10.310     1378
   10.340     1438
   10.370     1431
   10.400     1381
   10.430     1436
   10.460     1489
   10.490     1491
   10.520     1433
   10.550     1453
   10.580     1410
   10.610     1420
   10.640     1435
   10.670     1365
   10.700     1440
   10.730     1456
   10.760     1432
   10.790     1441
   10.820     1421
   10.850     1422
   10.880     1437
   10.910     1502
   10.940     1481
   10.970     1395
   11.000     1394
   11.030     1435
   11.060     1433
   11.090     1410
   11.120     1365
   11.150     1479
   11.180     1416
   11.210     1537
   11.240     1388
   11.270     1476
   11.300     1459
   11.330     1359
   11.360     1463
   11.390     1453
   11.420     1415
   11.450     1538
   11.480     1395
   11.510     1441
   11.540     1496
   11.570     1424
   11.600     1436
   11.630     1387
   11.660     1358
   11.690     1425
   11.720     1450
   11.750     1442
   11.780     1413
   11.810     1424
   11.840     1508
   11.870     1465
   11.900     1427
   11.930     1467
   11.960     1348
   11.990     1458
   12.020     1445
   12.050     1430
   12.080     1376
   12.110     1341
   12.140     1384
   12.170     1431
   12.200     1491
   12.230     1489
   12.260     1505
   12.290     1597
   12.320     1639
   12.350     1741
   12.380     1972
   12.410     2192
   12.440     2570
   12.470     3494
   12.500     3530
   12.530     2400
   12.560     1571
   12.590     1453
   12.620     1477
   12.650     1354
   12.680     1425
   12.710     1482
   12.740     1460
   12.770     1426
   12.800     1479
   12.830     1443
   12.860     1437
   12.890     1469
   12.920     1529
   12.950     1420
   12.980     1436
   13.010     1455
   13.040     1442
   13.070     1472
   13.100     1409
   13.130     1411
   13.160     1366
   13.190     1415
   13.220     1444
   13.250     1430
   13.280     1488
   13.310     1429
   13.340     1468
   13.370     1401
   13.400     1416
   13.430     1390
   13.460     1442
   13.490     1398
   13.520     1447
   13.550     1403
   13.580     1476
   13.610     1470
   13.640     1411
   13.670     1475
   13.700     1412
   13.730     1486
   13.760     1542
   13.790     1425
   13.820     1591
   13.850     1572
   13.880     1625
   13.910     1601
   13.940     1576
   13.970     1589
   14.000     1412
   14.030     1505
   14.060     1450
   14.090     1455
   14.120     1436
   14.150     1444
   14.180     1466
   14.210     1449
   14.240     1504
   14.270     1475
   14.300     1460
   14.330     1480
   14.360     1506
   14.390     1572
   14.420     1445
   14.450     1475
   14.480     1488
   14.510     1466
   14.540     1465
   14.570     1508
   14.600     1399
   14.630     1432
   14.660     1472
   14.690     1583
   14.720     1556
   14.750     1465
   14.780     1442
   14.810     1499
   14.840     1453
   14.870     1565
   14.900     1548
   14.930     1511
   14.960     1525
   14.990     1472
   15.020     1543
   15.050     1534
   15.080     1553
   15.110     1552
   15.140     1503
   15.170     1572
   15.200     1571
   15.230     1513
   15.260     1601
   15.290     1549
   15.320     1475
   15.350     1533
   15.380     1508
   15.410     1498
   15.440     1622
   15.470     1493
   15.500     1640
   15.530     1441
   15.560     1477
   15.590     1463
   15.620     1525
   15.650     1498
   15.680     1611
   15.710     1553
   15.740     1578
   15.770     1498
   15.800     1558
   15.830     1603
   15.860     1631
   15.890     1616
   15.920     1655
   15.950     1647
   15.980     1675
   16.010     1921
   16.040     1996
   16.070     2222
   16.100     2529
   16.130     2269
   16.160     1965
   16.190     1664
   16.220     1639
   16.250     1553
   16.280     1700
   16.310     1601
   16.340     1680
   16.370     1705
   16.400     1752
   16.430     1932
   16.460     2142
   16.490     2581
   16.520     2242
   16.550     1744
   16.580     1661
   16.610     1646
   16.640     1608
   16.670     1618
   16.700     1677
   16.730     1739
   16.760     1717
   16.790     1737
   16.820     1755
   16.850     1739
   16.880     1880
   16.910     2111
   16.940     2149
   16.970     2003
   17.000     1732
   17.030     1695
   17.060     1712
   17.090     1704
   17.120     1662
   17.150     1757
   17.180     1700
   17.210     1839
   17.240     1751
   17.270     1832
   17.300     1830
   17.330     1783
   17.360     1854
   17.390     1819
   17.420     1731
   17.450     1749
   17.480     1646
   17.510     1757
   17.540     1823
   17.570     1703
   17.600     1659
   17.630     1663
   17.660     1739
   17.690     1700
   17.720     1789
   17.750     1792
   17.780     1781
   17.810     1753
   17.840     1719
   17.870     1820
   17.900     1688
   17.930     1791
   17.960     1736
   17.990     1754
   18.020     1799
   18.050     1681
   18.080     1734
   18.110     1773
   18.140     1690
   18.170     1829
   18.200     1784
   18.230     1837
   18.260     1747
   18.290     1758
   18.320     1695
   18.350     1739
   18.380     1822
   18.410     1833
   18.440     1817
   18.470     1873
   18.500     1863
   18.530     1784
   18.560     1934
   18.590     2024
   18.620     2139
   18.650     2368
   18.680     2854
   18.710     3699
   18.740     4932
   18.770     5683
   18.800     5518
   18.830     3894
   18.860     2427
   18.890     1970
   18.920     1984
   18.950     1871
   18.980     1948
   19.010     1893
   19.040     1990
   19.070     1925
   19.100     2115
   19.130     2185
   19.160     2170
   19.190     2554
   19.220     3089
   19.250     2811
   19.280     2188
   19.310     1902
   19.340     1930
   19.370     1950
   19.400     1949
   19.430     1918
   19.460     1987
   19.490     1800
   19.520     1884
   19.550     1931
   19.580     1886
   19.610     1913
   19.640     1829
   19.670     1907
   19.700     1930
   19.730     1872
   19.760     2087
   19.790     1830
   19.820     1988
   19.850     2053
   19.880     1901
   19.910     1907
   19.940     1884
   19.970     1967
   20.000     1891
   20.030     2066
   20.060     1925
   20.090     1964
   20.120     1917
   20.150     2027
   20.180     1905
   20.210     1993
   20.240     2019
   20.270     1932
   20.300     1981
   20.330     1991
   20.360     2078
   20.390     2036
   20.420     2087
   20.450     2020
   20.480     1972
   20.510     1968
   20.540     1995
   20.570     2091
   20.600     1931
   20.630     2014
   20.660     2006
   20.690     2017
   20.720     2117
   20.750     2028
   20.780     2038
   20.810     2143
   20.840     2199
   20.870     2419
   20.900     2327
   20.930     2180
   20.960     2198
   20.990     2178
   21.020     2353
   21.050     2565
   21.080     2802
   21.110     2867
   21.140     3190
   21.170     3641
   21.200     4014
   21.230     4051
   21.260     4586
   21.290     4568
   21.320     4482
   21.350     4369
   21.380     3876
   21.410     3387
   21.440     3177
   21.470     2439
   21.500     2369
   21.530     2108
   21.560     2030
   21.590     2030
   21.620     2002
   21.650     2016
   21.680     2129
   21.710     1987
   21.740     2123
   21.770     2097
   21.800     2353
   21.830     2664
   21.860     2850
   21.890     3083
   21.920     3311
   21.950     3309
   21.980     2855
   22.010     2355
   22.040     2045
   22.070     2024
   22.100     2086
   22.130     1917
   22.160     1882
   22.190     1826
   22.220     2002
   22.250     1824
   22.280     1973
   22.310     1912
   22.340     1962
   22.370     1920
   22.400     1886
   22.430     1920
   22.460     1916
   22.490     1876
   22.520     1900
   22.550     1839
   22.580     1852
   22.610     1838
   22.640     1854
   22.670     1709
   22.700     1796
   22.730     1845
   22.760     1889
   22.790     1797
   22.820     1854
   22.850     1851
   22.880     1811
   22.910     1851
   22.940     1872
   22.970     1815
   23.000     1827
   23.030     1798
   23.060     1810
   23.090     1742
   23.120     1782
   23.150     1765
   23.180     1713
   23.210     1874
   23.240     1768
   23.270     1789
   23.300     1843
   23.330     1833
   23.360     1860
   23.390     1907
   23.420     1974
   23.450     2031
   23.480     2107
   23.510     2215
   23.540     2385
   23.570     2298
   23.600     2347
   23.630     2372
   23.660     2353
   23.690     2396
   23.720     2425
   23.750     2309
   23.780     2151
   23.810     2104
   23.840     2088
   23.870     1993
   23.900     1802
   23.930     1733
   23.960     1660
   23.990     1671
   24.020     1747
   24.050     1603
   24.080     1591
   24.110     1512
   24.140     1487
   24.170     1655
   24.200     1644
   24.230     1596
   24.260     1535
   24.290     1650
   24.320     1604
   24.350     1545
   24.380     1635
   24.410     1570
   24.440     1571
   24.470     1589
   24.500     1533
   24.530     1513
   24.560     1487
   24.590     1570
   24.620     1674
   24.650     1575
   24.680     1583
   24.710     1600
   24.740     1678
   24.770     1666
   24.800     1628
   24.830     1579
   24.860     1487
   24.890     1565
   24.920     1556
   24.950     1488
   24.980     1551
   25.010     1563
   25.040     1562
   25.070     1520
   25.100     1589
   25.130     1588
   25.160     1500
   25.190     1807
   25.220     1768
   25.250     1604
   25.280     1575
   25.310     1436
   25.340     1516
   25.370     1486
   25.400     1492
   25.430     1527
   25.460     1568
   25.490     1456
   25.520     1413
   25.550     1472
   25.580     1474
   25.610     1447
   25.640     1384
   25.670     1491
   25.700     1422
   25.730     1417
   25.760     1520
   25.790     1508
   25.820     1704
   25.850     1781
   25.880     1724
   25.910     1857
   25.940     1628
   25.970     1498
   26.000     1365
   26.030     1449
   26.060     1513
   26.090     1544
   26.120     1618
   26.150     1769
   26.180     1778
   26.210     1799
   26.240     1678
   26.270     1438
   26.300     1364
   26.330     1378
   26.360     1375
   26.390     1367
   26.420     1301
   26.450     1351
   26.480     1324
   26.510     1260
   26.540     1338
   26.570     1366
   26.600     1308
   26.630     1291
   26.660     1351
   26.690     1308
   26.720     1347
   26.750     1273
   26.780     1280
   26.810     1329
   26.840     1344
   26.870     1343
   26.900     1327
   26.930     1276
   26.960     1300
   26.990     1284
   27.020     1337
   27.050     1353
   27.080     1398
   27.110     1367
   27.140     1283
   27.170     1334
   27.200     1384
   27.230     1300
   27.260     1377
   27.290     1328
   27.320     1285
   27.350     1282
   27.380     1247
   27.410     1254
   27.440     1357
   27.470     1243
   27.500     1354
   27.530     1278
   27.560     1225
   27.590     1300
   27.620     1282
   27.650     1260
   27.680     1263
   27.710     1275
   27.740     1396
   27.770     1332
   27.800     1386
   27.830     1445
   27.860     1386
   27.890     1460
   27.920     1377
   27.950     1385
   27.980     1343
   28.010     1406
   28.040     1388
   28.070     1354
   28.100     1468
   28.130     1385
   28.160     1428
   28.190     1359
   28.220     1401
   28.250     1336
   28.280     1443
   28.310     1463
   28.340     1601
   28.370     1702
   28.400     1686
   28.430     1485
   28.460     1345
   28.490     1201
   28.520     1215
   28.550     1176
   28.580     1174
   28.610     1228
   28.640     1211
   28.670     1171
   28.700     1114
   28.730     1229
   28.760     1193
   28.790     1174
   28.820     1182
   28.850     1147
   28.880     1276
   28.910     1272
   28.940     1324
   28.970     1254
   29.000     1217
   29.030     1142
   29.060     1183
   29.090     1173
   29.120     1158
   29.150     1224
   29.180     1158
   29.210     1219
   29.240     1206
   29.270     1261
   29.300     1270
   29.330     1206
   29.360     1193
   29.390     1217
   29.420     1159
   29.450     1178
   29.480     1057
   29.510     1164
   29.540     1220
   29.570     1145
   29.600     1152
   29.630     1165
   29.660     1252
   29.690     1277
   29.720     1309
   29.750     1363
   29.780     1302
   29.810     1268
   29.840     1270
   29.870     1277
   29.900     1127
   29.930     1124
   29.960     1087
   29.990     1094
   30.020     1127
   30.050     1096
   30.080     1029
   30.110     1048
   30.140     1021
   30.170     1121
   30.200     1166
   30.230     1110
   30.260     1070
   30.290     1089
   30.320     1073
   30.350     1064
   30.380     1057
   30.410     1086
   30.440     1058
   30.470     1089
   30.500      975
   30.530     1038
   30.560     1066
   30.590     1032
   30.620     1067
   30.650     1051
   30.680     1069
   30.710     1026
   30.740     1050
   30.770     1111
   30.800     1236
   30.830     1121
   30.860     1178
   30.890     1262
   30.920     1201
   30.950     1199
   30.980     1175
   31.010     1040
   31.040      995
   31.070     1049
   31.100     1092
   31.130     1143
   31.160     1066
   31.190     1077
   31.220     1062
   31.250     1028
   31.280     1010
   31.310     1055
   31.340     1043
   31.370     1039
   31.400     1014
   31.430      988
   31.460     1004
   31.490     1036
   31.520     1021
   31.550     1000
   31.580     1058
   31.610     1047
   31.640      984
   31.670     1002
   31.700      966
   31.730     1004
   31.760     1041
   31.790      891
   31.820     1066
   31.850     1029
   31.880      997
   31.910     1032
   31.940      959
   31.970     1026
   32.000     1020
   32.030     1038
   32.060     1022
   32.090     1022
   32.120     1006
   32.150     1007
   32.180     1005
   32.210      962
   32.240     1038
   32.270     1010
   32.300     1039
   32.330     1069
   32.360     1027
   32.390     1145
   32.420     1178
   32.450     1229
   32.480     1279
   32.510     1253
   32.540     1180
   32.570     1126
   32.600     1065
   32.630     1129
   32.660     1152
   32.690     1133
   32.720     1182
   32.750     1100
   32.780     1168
   32.810     1234
   32.840     1194
   32.870     1257
   32.900     1171
   32.930     1068
   32.960     1018
   32.990      984
   33.020      979
   33.050     1055
   33.080     1035
   33.110      957
   33.140      921
   33.170     1004
   33.200     1011
   33.230      990
   33.260     1053
   33.290     1043
   33.320     1058
   33.350     1055
   33.380     1168
   33.410     1276
   33.440     1375
   33.470     1124
   33.500     1010
   33.530     1026
   33.560      896
   33.590      944
   33.620      953
   33.650      989
   33.680      998
   33.710      943
   33.740     1012
   33.770      976
   33.800      987
   33.830      935
   33.860      946
   33.890      948
   33.920     1011
   33.950      942
   33.980     1010
   34.010     1019
   34.040     1021
   34.070     1049
   34.100     1030
   34.130      986
   34.160      979
   34.190      952
   34.220      994
   34.250     1037
   34.280     1111
   34.310     1171
   34.340     1220
   34.370     1248
   34.400     1158
   34.430     1091
   34.460     1083
   34.490     1091
   34.520     1156
   34.550     1159
   34.580     1050
   34.610     1003
   34.640     1017
   34.670      953
   34.700      919
   34.730     1007
   34.760      959
   34.790      971
   34.820      956
   34.850      954
   34.880      985
   34.910      937
   34.940     1050
   34.970      999
   35.000      982
   35.030      974
   35.060      983
   35.090      940
   35.120      926
   35.150      969
   35.180      949
   35.210      988
   35.240     1012
   35.270     1034
   35.300      994
   35.330     1006
   35.360     1055
   35.390     1050
   35.420      949
   35.450      920
   35.480      876
   35.510      960
   35.540      979
   35.570      930
   35.600      951
   35.630      951
   35.660      985
   35.690      924
   35.720     1000
   35.750      984
   35.780      983
   35.810      989
   35.840      984
   35.870      966
   35.900     1033
   35.930      998
   35.960      970
   35.990     1043
   36.020     1089
   36.050     1031
   36.080      980
   36.110      973
   36.140      926
   36.170      929
   36.200      970
   36.230      941
   36.260      885
   36.290      865
   36.320      875
   36.350      926
   36.380      962
   36.410      918
   36.440      922
   36.470      915
   36.500      910
   36.530      866
   36.560      946
   36.590      844
   36.620      935
   36.650      948
   36.680      885
   36.710      932
   36.740      897
   36.770      864
   36.800      958
   36.830      979
   36.860      932
   36.890      935
   36.920      923
   36.950      896
   36.980      990
   37.010     1033
   37.040     1016
   37.070     1043
   37.100      942
   37.130      878
   37.160      858
   37.190      860
   37.220      858
   37.250      925
   37.280      879
   37.310      855
   37.340      876
   37.370      926
   37.400      881
   37.430      894
   37.460      872
   37.490      851
   37.520      852
   37.550      930
   37.580      888
   37.610      914
   37.640      872
   37.670      939
   37.700      938
   37.730      846
   37.760      961
   37.790      835
   37.820      971
   37.850      938
   37.880     1002
   37.910     1055
   37.940      987
   37.970      979
   38.000      889
   38.030      997
   38.060      926
   38.090      972
   38.120      996
   38.150     1031
   38.180     1057
   38.210     1148
   38.240     1049
   38.270      961
   38.300      913
   38.330      947
   38.360      924
   38.390      924
   38.420      904
   38.450      892
   38.480      894
   38.510      872
   38.540      849
   38.570      878
   38.600      886
   38.630      840
   38.660      919
   38.690      928
   38.720      938
   38.750      884
   38.780      855
   38.810      893
   38.840      859
   38.870      927
   38.900      888
   38.930      887
   38.960      875
   38.990      846
   39.020      878
   39.050      902
   39.080      901
   39.110      944
   39.140      907
   39.170      879
   39.200      912
   39.230      931
   39.260      890
   39.290      855
   39.320      868
   39.350      873
   39.380      831
   39.410      870
   39.440      912
   39.470      847
   39.500      934
   39.530      875
   39.560      849
   39.590      890
   39.620      897
   39.650      847
   39.680      853
   39.710      878
   39.740      916
   39.770      878
   39.800      886
   39.830      896
   39.860      913
   39.890      926
   39.920      947
   39.950      892
   39.980      900
   40.010      928
   40.040      888
   40.070      907
   40.100      897
   40.130      889
   40.160      892
   40.190      877
   40.220      858
   40.250      899
   40.280      947
   40.310      887
   40.340      884
   40.370      932
   40.400      908
   40.430      945
   40.460      955
   40.490      959
   40.520     1018
   40.550     1069
   40.580     1153
   40.610     1126
   40.640      988
   40.670      922
   40.700      890
   40.730      955
   40.760      959
   40.790      874
   40.820      918
   40.850      953
   40.880      973
   40.910     1005
   40.940      943
   40.970      955
   41.000      895
   41.030      886
   41.060      873
   41.090      850
   41.120      857
   41.150      875
   41.180      835
   41.210      870
   41.240      868
   41.270      841
   41.300      930
   41.330      891
   41.360      875
   41.390      874
   41.420      865
   41.450      883
   41.480      813
   41.510      889
   41.540      915
   41.570      859
   41.600      869
   41.630      874
   41.660      944
   41.690     1078
   41.720     1222
   41.750     1259
   41.780     1164
   41.810     1149
   41.840     1031
   41.870      960
   41.900      803
   41.930      852
   41.960      846
   41.990      861
   42.020      886
   42.050      860
   42.080      868
   42.110      818
   42.140      880
   42.170      907
   42.200      935
   42.230      951
   42.260      996
   42.290     1081
   42.320     1064
   42.350     1067
   42.380     1062
   42.410     1062
   42.440      942
   42.470      924
   42.500      887
   42.530      931
   42.560      993
   42.590      995
   42.620      915
   42.650      829
   42.680      867
   42.710      870
   42.740      903
   42.770      844
   42.800      912
   42.830      904
   42.860      914
   42.890      999
   42.920      824
   42.950      871
   42.980      866
   43.010      867
   43.040      872
   43.070      894
   43.100      874
   43.130      852
   43.160      847
   43.190      822
   43.220      863
   43.250      802
   43.280      876
   43.310      860
   43.340      813
   43.370      823
   43.400      891
   43.430      845
   43.460      870
   43.490      834
   43.520      925
   43.550      936
   43.580      941
   43.610      899
   43.640      845
   43.670      864
   43.700      851
   43.730      837
   43.760      868
   43.790      787
   43.820      810
   43.850      838
   43.880      818
   43.910      811
   43.940      813
   43.970      877
   43.985      847