File: data/MIL-88B_101/PXRD/PXRD_S-13_Cu-Kα1_capillary-0.7mm.xyd
    2.000     1479
    2.030     1510
    2.060     1528
    2.090     1496
    2.120     1529
    2.150     1565
    2.180     1552
    2.210     1538
    2.240     1539
    2.270     1523
    2.300     1519
    2.330     1579
    2.360     1637
    2.390     1658
    2.420     1690
    2.450     1691
    2.480     1741
    2.510     1697
    2.540     1749
    2.570     1951
    2.600     1808
    2.630     2006
    2.660     2123
    2.690     2387
    2.720     2309
    2.750     1816
    2.780     1630
    2.810     1778
    2.840     1714
    2.870     1772
    2.900     1775
    2.930     1817
    2.960     1931
    2.990     1943
    3.020     2085
    3.050     2197
    3.080     2350
    3.110     2543
    3.140     2891
    3.170     3391
    3.200     3126
    3.230     2265
    3.260     2050
    3.290     2068
    3.320     2168
    3.350     1923
    3.380     1580
    3.410     1302
    3.440     1408
    3.470     1409
    3.500     1442
    3.530     1385
    3.560     1410
    3.590     1321
    3.620     1426
    3.650     1410
    3.680     1461
    3.710     1361
    3.740     1454
    3.770     1430
    3.800     1514
    3.830     1675
    3.860     1620
    3.890     1563
    3.920     1417
    3.950     1403
    3.980     1350
    4.010     1394
    4.040     1444
    4.070     1449
    4.100     1436
    4.130     1453
    4.160     1496
    4.190     1457
    4.220     1516
    4.250     1416
    4.280     1418
    4.310     1305
    4.340     1447
    4.370     1430
    4.400     1383
    4.430     1486
    4.460     1444
    4.490     1498
    4.520     1417
    4.550     1397
    4.580     1495
    4.610     1409
    4.640     1503
    4.670     1531
    4.700     1613
    4.730     1733
    4.760     1694
    4.790     1575
    4.820     1456
    4.850     1458
    4.880     1553
    4.910     1681
    4.940     1721
    4.970     1827
    5.000     1998
    5.030     2033
    5.060     1851
    5.090     1464
    5.120     1388
    5.150     1319
    5.180     1370
    5.210     1419
    5.240     1392
    5.270     1466
    5.300     1424
    5.330     1399
    5.360     1489
    5.390     1487
    5.420     1557
    5.450     1556
    5.480     1606
    5.510     1555
    5.540     1558
    5.570     1430
    5.600     1407
    5.630     1438
    5.660     1544
    5.690     1577
    5.720     1936
    5.750     1898
    5.780     1565
    5.810     1457
    5.840     1328
    5.870     1402
    5.900     1253
    5.930     1321
    5.960     1260
    5.990     1353
    6.020     1392
    6.050     1338
    6.080     1326
    6.110     1305
    6.140     1254
    6.170     1331
    6.200     1311
    6.230     1286
    6.260     1316
    6.290     1347
    6.320     1282
    6.350     1301
    6.380     1377
    6.410     1455
    6.440     1265
    6.470     1319
    6.500     1337
    6.530     1322
    6.560     1398
    6.590     1380
    6.620     1389
    6.650     1361
    6.680     1333
    6.710     1233
    6.740     1377
    6.770     1376
    6.800     1474
    6.830     1371
    6.860     1323
    6.890     1358
    6.920     1406
    6.950     1327
    6.980     1394
    7.010     1292
    7.040     1360
    7.070     1495
    7.100     1443
    7.130     1424
    7.160     1357
    7.190     1411
    7.220     1383
    7.250     1370
    7.280     1413
    7.310     1357
    7.340     1322
    7.370     1376
    7.400     1377
    7.430     1409
    7.460     1333
    7.490     1402
    7.520     1364
    7.550     1378
    7.580     1370
    7.610     1350
    7.640     1401
    7.670     1370
    7.700     1404
    7.730     1362
    7.760     1484
    7.790     1424
    7.820     1511
    7.850     1543
    7.880     1529
    7.910     1550
    7.940     1686
    7.970     1613
    8.000     1565
    8.030     1640
    8.060     1603
    8.090     1563
    8.120     1575
    8.150     1674
    8.180     1717
    8.210     1819
    8.240     2125
    8.270     2199
    8.300     2078
    8.330     1842
    8.360     1770
    8.390     1793
    8.420     1957
    8.450     1969
    8.480     1882
    8.510     1718
    8.540     1697
    8.570     1861
    8.600     1894
    8.630     2082
    8.660     2172
    8.690     2495
    8.720     2745
    8.750     2578
    8.780     2438
    8.810     2565
    8.840     2939
    8.870     3691
    8.900     3821
    8.930     3218
    8.960     2714
    8.990     2212
    9.020     2201
    9.050     2279
    9.080     2552
    9.110     2777
    9.140     3032
    9.170     3724
    9.200     4589
    9.230     5947
    9.260     7329
    9.290     5582
    9.320     3084
    9.350     1839
    9.380     1785
    9.410     1707
    9.440     1920
    9.470     2035
    9.500     2318
    9.530     2618
    9.560     2657
    9.590     2307
    9.620     1807
    9.650     1592
    9.680     1697
    9.710     1616
    9.740     1739
    9.770     1567
    9.800     1613
    9.830     1675
    9.860     1592
    9.890     1758
    9.920     1710
    9.950     1892
    9.980     1818
   10.010     1791
   10.040     1761
   10.070     1782
   10.100     1979
   10.130     1973
   10.160     2061
   10.190     1855
   10.220     1644
   10.250     1553
   10.280     1616
   10.310     1491
   10.340     1574
   10.370     1675
   10.400     1527
   10.430     1638
   10.460     1571
   10.490     1599
   10.520     1612
   10.550     1559
   10.580     1550
   10.610     1655
   10.640     1534
   10.670     1612
   10.700     1624
   10.730     1775
   10.760     1605
   10.790     1633
   10.820     1624
   10.850     1645
   10.880     1639
   10.910     1622
   10.940     1722
   10.970     1622
   11.000     1691
   11.030     1721
   11.060     1804
   11.090     1794
   11.120     1627
   11.150     1671
   11.180     1681
   11.210     1822
   11.240     1703
   11.270     1645
   11.300     1610
   11.330     1605
   11.360     1756
   11.390     1637
   11.420     1692
   11.450     1644
   11.480     1628
   11.510     1734
   11.540     1787
   11.570     1735
   11.600     1698
   11.630     1650
   11.660     1648
   11.690     1643
   11.720     1739
   11.750     1669
   11.780     1629
   11.810     1698
   11.840     1659
   11.870     1641
   11.900     1618
   11.930     1630
   11.960     1640
   11.990     1668
   12.020     1775
   12.050     1670
   12.080     1643
   12.110     1670
   12.140     1678
   12.170     1685
   12.200     1745
   12.230     1783
   12.260     1748
   12.290     1949
   12.320     1887
   12.350     2094
   12.380     2385
   12.410     2664
   12.440     2837
   12.470     2892
   12.500     2321
   12.530     1919
   12.560     1713
   12.590     1766
   12.620     1797
   12.650     1764
   12.680     1701
   12.710     1763
   12.740     1752
   12.770     1763
   12.800     1823
   12.830     1826
   12.860     1775
   12.890     1924
   12.920     1856
   12.950     1766
   12.980     1929
   13.010     1843
   13.040     1912
   13.070     1895
   13.100     1909
   13.130     1890
   13.160     1767
   13.190     1922
   13.220     1821
   13.250     1894
   13.280     1885
   13.310     1798
   13.340     1854
   13.370     1931
   13.400     1864
   13.430     1873
   13.460     1908
   13.490     1880
   13.520     1903
   13.550     1959
   13.580     1993
   13.610     2026
   13.640     1996
   13.670     2040
   13.700     2140
   13.730     2207
   13.760     2531
   13.790     2424
   13.820     2525
   13.850     2259
   13.880     2042
   13.910     2015
   13.940     2005
   13.970     2024
   14.000     1940
   14.030     2058
   14.060     1974
   14.090     1994
   14.120     1999
   14.150     2069
   14.180     1965
   14.210     2055
   14.240     2089
   14.270     2066
   14.300     2086
   14.330     2075
   14.360     2058
   14.390     2128
   14.420     2152
   14.450     2109
   14.480     2092
   14.510     2094
   14.540     2098
   14.570     2247
   14.600     2076
   14.630     2168
   14.660     2167
   14.690     2263
   14.720     2252
   14.750     2147
   14.780     2091
   14.810     2289
   14.840     2243
   14.870     2312
   14.900     2266
   14.930     2187
   14.960     2270
   14.990     2214
   15.020     2362
   15.050     2294
   15.080     2374
   15.110     2302
   15.140     2258
   15.170     2357
   15.200     2324
   15.230     2395
   15.260     2534
   15.290     2351
   15.320     2434
   15.350     2392
   15.380     2330
   15.410     2333
   15.440     2408
   15.470     2394
   15.500     2556
   15.530     2421
   15.560     2308
   15.590     2381
   15.620     2469
   15.650     2441
   15.680     2597
   15.710     2469
   15.740     2663
   15.770     2569
   15.800     2633
   15.830     2860
   15.860     2647
   15.890     3020
   15.920     3116
   15.950     3162
   15.980     3047
   16.010     3099
   16.040     2991
   16.070     2840
   16.100     2991
   16.130     2769
   16.160     2865
   16.190     2860
   16.220     3121
   16.250     3046
   16.280     3337
   16.310     3134
   16.340     3183
   16.370     3148
   16.400     3156
   16.430     3531
   16.460     3683
   16.490     3758
   16.520     3496
   16.550     3147
   16.580     3056
   16.610     2984
   16.640     3181
   16.670     3099
   16.700     3060
   16.730     3262
   16.760     3277
   16.790     3221
   16.820     3313
   16.850     3337
   16.880     3405
   16.910     3317
   16.940     3285
   16.970     3188
   17.000     3192
   17.030     3185
   17.060     3261
   17.090     3235
   17.120     3196
   17.150     3370
   17.180     3223
   17.210     3455
   17.240     3221
   17.270     3383
   17.300     3330
   17.330     3220
   17.360     3390
   17.390     3445
   17.420     3465
   17.450     3522
   17.480     3368
   17.510     3417
   17.540     3559
   17.570     3500
   17.600     3625
   17.630     3547
   17.660     3655
   17.690     3716
   17.720     4076
   17.750     3855
   17.780     3401
   17.810     3614
   17.840     3772
   17.870     3738
   17.900     3582
   17.930     3668
   17.960     3493
   17.990     3669
   18.020     3746
   18.050     3451
   18.080     3507
   18.110     3683
   18.140     3563
   18.170     3612
   18.200     3653
   18.230     3732
   18.260     3625
   18.290     3806
   18.320     3663
   18.350     3768
   18.380     3999
   18.410     3945
   18.440     3880
   18.470     4099
   18.500     4365
   18.530     4505
   18.560     4710
   18.590     5363
   18.620     6211
   18.650     6542
   18.680     6459
   18.710     5699
   18.740     4896
   18.770     4272
   18.800     4082
   18.830     4023
   18.860     3901
   18.890     4024
   18.920     4018
   18.950     4051
   18.980     4122
   19.010     4030
   19.040     4037
   19.070     4151
   19.100     4161
   19.130     4259
   19.160     3857
   19.190     4350
   19.220     4307
   19.250     4521
   19.280     4527
   19.310     4050
   19.340     4173
   19.370     4144
   19.400     3908
   19.430     3970
   19.460     4132
   19.490     3866
   19.520     3915
   19.550     4175
   19.580     3930
   19.610     3987
   19.640     3827
   19.670     4055
   19.700     3963
   19.730     3834
   19.760     4124
   19.790     3824
   19.820     3972
   19.850     3943
   19.880     3856
   19.910     3858
   19.940     3925
   19.970     3901
   20.000     3876
   20.030     4057
   20.060     3919
   20.090     3958
   20.120     3730
   20.150     3965
   20.180     3820
   20.210     3871
   20.240     3908
   20.270     3792
   20.300     3783
   20.330     3824
   20.360     3967
   20.390     3859
   20.420     4028
   20.450     3837
   20.480     3854
   20.510     3713
   20.540     3872
   20.570     3907
   20.600     3597
   20.630     3740
   20.660     3675
   20.690     3836
   20.720     3805
   20.750     3623
   20.780     3740
   20.810     3857
   20.840     3823
   20.870     3923
   20.900     3895
   20.930     3835
   20.960     3868
   20.990     3591
   21.020     3798
   21.050     3768
   21.080     3942
   21.110     3903
   21.140     3747
   21.170     3938
   21.200     4070
   21.230     3800
   21.260     4067
   21.290     3888
   21.320     3792
   21.350     3739
   21.380     3526
   21.410     3528
   21.440     3751
   21.470     3572
   21.500     3785
   21.530     3598
   21.560     3569
   21.590     3669
   21.620     3964
   21.650     4071
   21.680     4519
   21.710     4618
   21.740     4872
   21.770     4494
   21.800     4374
   21.830     4068
   21.860     3483
   21.890     3562
   21.920     3447
   21.950     3414
   21.980     3284
   22.010     3465
   22.040     3454
   22.070     3420
   22.100     3566
   22.130     3324
   22.160     3330
   22.190     3243
   22.220     3423
   22.250     3312
   22.280     3471
   22.310     3165
   22.340     3278
   22.370     3488
   22.400     3295
   22.430     3402
   22.460     3357
   22.490     3446
   22.520     3368
   22.550     3365
   22.580     3302
   22.610     3241
   22.640     3288
   22.670     3105
   22.700     3162
   22.730     3256
   22.760     3216
   22.790     3164
   22.820     3188
   22.850     3041
   22.880     3153
   22.910     3324
   22.940     3261
   22.970     3158
   23.000     3068
   23.030     3151
   23.060     3106
   23.090     3057
   23.120     2922
   23.150     3114
   23.180     3067
   23.210     3180
   23.240     3068
   23.270     3291
   23.300     3217
   23.330     3217
   23.360     3300
   23.390     3300
   23.420     3234
   23.450     3126
   23.480     3009
   23.510     3105
   23.540     3136
   23.570     3090
   23.600     2942
   23.630     3032
   23.660     2935
   23.690     3091
   23.720     3214
   23.750     3177
   23.780     3044
   23.810     3096
   23.840     3214
   23.870     3191
   23.900     2928
   23.930     3053
   23.960     2892
   23.990     2996
   24.020     3068
   24.050     2888
   24.080     2888
   24.110     2960
   24.140     2902
   24.170     2994
   24.200     2939
   24.230     2946
   24.260     2798
   24.290     2866
   24.320     2799
   24.350     2825
   24.380     2958
   24.410     3067
   24.440     2963
   24.470     2980
   24.500     2924
   24.530     2951
   24.560     2953
   24.590     2942
   24.620     2956
   24.650     2881
   24.680     2800
   24.710     2847
   24.740     2919
   24.770     2858
   24.800     2919
   24.830     2855
   24.860     2661
   24.890     2883
   24.920     2777
   24.950     2859
   24.980     2841
   25.010     2817
   25.040     2888
   25.070     2873
   25.100     3051
   25.130     2968
   25.160     2828
   25.190     2839
   25.220     2811
   25.250     2705
   25.280     2809
   25.310     2575
   25.340     2744
   25.370     2803
   25.400     2678
   25.430     2765
   25.460     2836
   25.490     2675
   25.520     2718
   25.550     2818
   25.580     2717
   25.610     2670
   25.640     2714
   25.670     2944
   25.700     2957
   25.730     2889
   25.760     3254
   25.790     2841
   25.820     2851
   25.850     2834
   25.880     2686
   25.910     2912
   25.940     2923
   25.970     2994
   26.000     3048
   26.030     3091
   26.060     2899
   26.090     2677
   26.120     2609
   26.150     2658
   26.180     2546
   26.210     2573
   26.240     2591
   26.270     2570
   26.300     2600
   26.330     2577
   26.360     2625
   26.390     2614
   26.420     2577
   26.450     2627
   26.480     2526
   26.510     2494
   26.540     2557
   26.570     2703
   26.600     2444
   26.630     2576
   26.660     2512
   26.690     2532
   26.720     2643
   26.750     2467
   26.780     2396
   26.810     2546
   26.840     2546
   26.870     2516
   26.900     2497
   26.930     2468
   26.960     2522
   26.990     2409
   27.020     2451
   27.050     2503
   27.080     2553
   27.110     2520
   27.140     2422
   27.170     2552
   27.200     2494
   27.230     2488
   27.260     2575
   27.290     2476
   27.320     2444
   27.350     2438
   27.380     2444
   27.410     2318
   27.440     2611
   27.470     2415
   27.500     2527
   27.530     2407
   27.560     2408
   27.590     2354
   27.620     2410
   27.650     2436
   27.680     2494
   27.710     2371
   27.740     2528
   27.770     2412
   27.800     2570
   27.830     2646
   27.860     2583
   27.890     2673
   27.920     2551
   27.950     2535
   27.980     2430
   28.010     2574
   28.040     2380
   28.070     2509
   28.100     2713
   28.130     2668
   28.160     2759
   28.190     2752
   28.220     2818
   28.250     2658
   28.280     2664
   28.310     2372
   28.340     2412
   28.370     2438
   28.400     2356
   28.430     2496
   28.460     2383
   28.490     2420
   28.520     2339
   28.550     2265
   28.580     2316
   28.610     2273
   28.640     2324
   28.670     2254
   28.700     2332
   28.730     2343
   28.760     2379
   28.790     2381
   28.820     2469
   28.850     2282
   28.880     2365
   28.910     2321
   28.940     2403
   28.970     2273
   29.000     2259
   29.030     2272
   29.060     2360
   29.090     2311
   29.120     2228
   29.150     2231
   29.180     2181
   29.210     2277
   29.240     2248
   29.270     2304
   29.300     2266
   29.330     2195
   29.360     2264
   29.390     2398
   29.420     2263
   29.450     2302
   29.480     2232
   29.510     2394
   29.540     2446
   29.570     2377
   29.600     2326
   29.630     2206
   29.660     2184
   29.690     2254
   29.720     2361
   29.750     2340
   29.780     2137
   29.810     2199
   29.840     2167
   29.870     2237
   29.900     2057
   29.930     2233
   29.960     2049
   29.990     2136
   30.020     2239
   30.050     2040
   30.080     2044
   30.110     2132
   30.140     2038
   30.170     2082
   30.200     2161
   30.230     2085
   30.260     2046
   30.290     2110
   30.320     2066
   30.350     2007
   30.380     2070
   30.410     2085
   30.440     2017
   30.470     2026
   30.500     2108
   30.530     2115
   30.560     2126
   30.590     2157
   30.620     2285
   30.650     2223
   30.680     2184
   30.710     2218
   30.740     2237
   30.770     2169
   30.800     2232
   30.830     2121
   30.860     1977
   30.890     2104
   30.920     2023
   30.950     2076
   30.980     2115
   31.010     2068
   31.040     2091
   31.070     2199
   31.100     2150
   31.130     2107
   31.160     1898
   31.190     2029
   31.220     1948
   31.250     2023
   31.280     1965
   31.310     2015
   31.340     1917
   31.370     2081
   31.400     2027
   31.430     1929
   31.460     2005
   31.490     1926
   31.520     1888
   31.550     2071
   31.580     2051
   31.610     1964
   31.640     1887
   31.670     1885
   31.700     1911
   31.730     1855
   31.760     2015
   31.790     1834
   31.820     1959
   31.850     1915
   31.880     1827
   31.910     1868
   31.940     1864
   31.970     1927
   32.000     1878
   32.030     1927
   32.060     1896
   32.090     1848
   32.120     1834
   32.150     1909
   32.180     1824
   32.210     1940
   32.240     1924
   32.270     1960
   32.300     2071
   32.330     2123
   32.360     2201
   32.390     2166
   32.420     2172
   32.450     2090
   32.480     1980
   32.510     1938
   32.540     1984
   32.570     2118
   32.600     2003
   32.630     2016
   32.660     2009
   32.690     1959
   32.720     1923
   32.750     1761
   32.780     1821
   32.810     1883
   32.840     1813
   32.870     1853
   32.900     1933
   32.930     1840
   32.960     1857
   32.990     1751
   33.020     1822
   33.050     1805
   33.080     1864
   33.110     1766
   33.140     1782
   33.170     1842
   33.200     1859
   33.230     1780
   33.260     1875
   33.290     1845
   33.320     1925
   33.350     1879
   33.380     1914
   33.410     1865
   33.440     1975
   33.470     1842
   33.500     1912
   33.530     1711
   33.560     1713
   33.590     1717
   33.620     1753
   33.650     1686
   33.680     1821
   33.710     1710
   33.740     1754
   33.770     1732
   33.800     1844
   33.830     1860
   33.860     1786
   33.890     1814
   33.920     1780
   33.950     1781
   33.980     1688
   34.010     1841
   34.040     1777
   34.070     1747
   34.100     1967
   34.130     1821
   34.160     1846
   34.190     1797
   34.220     1788
   34.250     1758
   34.280     1811
   34.310     1677
   34.340     1784
   34.370     1871
   34.400     1801
   34.430     1909
   34.460     1789
   34.490     1772
   34.520     1688
   34.550     1659
   34.580     1665
   34.610     1653
   34.640     1569
   34.670     1587
   34.700     1629
   34.730     1641
   34.760     1650
   34.790     1634
   34.820     1586
   34.850     1569
   34.880     1623
   34.910     1626
   34.940     1687
   34.970     1673
   35.000     1676
   35.030     1572
   35.060     1663
   35.090     1614
   35.120     1623
   35.150     1630
   35.180     1578
   35.210     1676
   35.240     1564
   35.270     1669
   35.300     1659
   35.330     1593
   35.360     1661
   35.390     1663
   35.420     1605
   35.450     1601
   35.480     1534
   35.510     1545
   35.540     1579
   35.570     1617
   35.600     1585
   35.630     1549
   35.660     1633
   35.690     1584
   35.720     1705
   35.750     1622
   35.780     1551
   35.810     1599
   35.840     1594
   35.870     1642
   35.900     1482
   35.930     1519
   35.960     1475
   35.990     1533
   36.020     1563
   36.050     1486
   36.080     1480
   36.110     1496
   36.140     1459
   36.170     1519
   36.200     1554
   36.230     1532
   36.260     1456
   36.290     1515
   36.320     1460
   36.350     1479
   36.380     1547
   36.410     1566
   36.440     1476
   36.470     1474
   36.500     1493
   36.530     1466
   36.560     1546
   36.590     1545
   36.620     1550
   36.650     1505
   36.680     1532
   36.710     1534
   36.740     1581
   36.770     1577
   36.800     1656
   36.830     1518
   36.860     1479
   36.890     1462
   36.920     1497
   36.950     1510
   36.980     1554
   37.010     1518
   37.040     1542
   37.070     1513
   37.100     1547
   37.130     1553
   37.160     1463
   37.190     1437
   37.220     1492
   37.250     1473
   37.280     1574
   37.310     1500
   37.340     1481
   37.370     1523
   37.400     1559
   37.430     1567
   37.460     1555
   37.490     1498
   37.520     1507
   37.550     1600
   37.580     1660
   37.610     1548
   37.640     1540
   37.670     1483
   37.700     1521
   37.730     1400
   37.760     1555
   37.790     1427
   37.820     1571
   37.850     1584
   37.880     1536
   37.910     1541
   37.940     1531
   37.970     1596
   38.000     1529
   38.030     1589
   38.060     1485
   38.090     1399
   38.120     1470
   38.150     1502
   38.180     1452
   38.210     1523
   38.240     1493
   38.270     1446
   38.300     1469
   38.330     1523
   38.360     1499
   38.390     1487
   38.420     1534
   38.450     1473
   38.480     1426
   38.510     1401
   38.540     1431
   38.570     1485
   38.600     1416
   38.630     1449
   38.660     1450
   38.690     1430
   38.720     1396
   38.750     1416
   38.780     1415
   38.810     1509
   38.840     1394
   38.870     1443
   38.900     1486
   38.930     1393
   38.960     1420
   38.990     1396
   39.020     1395
   39.050     1411
   39.080     1486
   39.110     1364
   39.140     1429
   39.170     1445
   39.200     1448
   39.230     1429
   39.260     1546
   39.290     1440
   39.320     1419
   39.350     1438
   39.380     1454
   39.410     1290
   39.440     1437
   39.470     1389
   39.500     1507
   39.530     1326
   39.560     1346
   39.590     1413
   39.620     1411
   39.650     1421
   39.680     1424
   39.710     1350
   39.740     1469
   39.770     1338
   39.800     1456
   39.830     1477
   39.860     1396
   39.890     1488
   39.920     1366
   39.950     1394
   39.980     1476
   40.010     1519
   40.040     1443
   40.070     1458
   40.100     1549
   40.130     1414
   40.160     1412
   40.190     1379
   40.220     1436
   40.250     1411
   40.280     1443
   40.310     1399
   40.340     1383
   40.370     1458
   40.400     1369
   40.430     1485
   40.460     1500
   40.490     1527
   40.520     1589
   40.550     1601
   40.580     1617
   40.610     1578
   40.640     1560
   40.670     1500
   40.700     1485
   40.730     1487
   40.760     1520
   40.790     1459
   40.820     1449
   40.850     1396
   40.880     1458
   40.910     1500
   40.940     1454
   40.970     1415
   41.000     1450
   41.030     1423
   41.060     1435
   41.090     1438
   41.120     1438
   41.150     1371
   41.180     1459
   41.210     1481
   41.240     1393
   41.270     1522
   41.300     1426
   41.330     1414
   41.360     1482
   41.390     1408
   41.420     1456
   41.450     1487
   41.480     1382
   41.510     1476
   41.540     1552
   41.570     1528
   41.600     1564
   41.630     1548
   41.660     1568
   41.690     1584
   41.720     1637
   41.750     1588
   41.780     1465
   41.810     1458
   41.840     1488
   41.870     1515
   41.900     1470
   41.930     1508
   41.960     1477
   41.990     1494
   42.020     1544
   42.050     1447
   42.080     1403
   42.110     1434
   42.140     1415
   42.170     1466
   42.200     1457
   42.230     1485
   42.260     1390
   42.290     1468
   42.320     1504
   42.350     1382
   42.380     1488
   42.410     1436
   42.440     1453
   42.470     1471
   42.500     1468
   42.530     1442
   42.560     1428
   42.590     1448
   42.620     1523
   42.650     1385
   42.680     1372
   42.710     1449
   42.740     1430
   42.770     1404
   42.800     1405
   42.830     1388
   42.860     1339
   42.890     1393
   42.920     1306
   42.950     1365
   42.980     1396
   43.010     1370
   43.040     1468
   43.070     1412
   43.100     1413
   43.130     1478
   43.160     1370
   43.190     1428
   43.220     1427
   43.250     1411
   43.280     1393
   43.310     1384
   43.340     1351
   43.370     1426
   43.400     1359
   43.430     1397
   43.460     1397
   43.490     1403
   43.520     1405
   43.550     1476
   43.580     1446
   43.610     1447
   43.640     1344
   43.670     1335
   43.700     1420
   43.730     1301
   43.760     1422
   43.790     1271
   43.820     1415
   43.850     1352
   43.880     1331
   43.910     1379
   43.940     1333
   43.970     1373
   43.985     1327