File: data/MIL-88B_101/PXRD/PXRD_S-8_Cu-Kα1_capillary-0.7mm.xyd
    2.000     1671
    2.030     1749
    2.060     1750
    2.090     1634
    2.120     1649
    2.150     1688
    2.180     1554
    2.210     1594
    2.240     1599
    2.270     1549
    2.300     1551
    2.330     1654
    2.360     1574
    2.390     1556
    2.420     1566
    2.450     1545
    2.480     1470
    2.510     1548
    2.540     1458
    2.570     1499
    2.600     1491
    2.630     1443
    2.660     1503
    2.690     1490
    2.720     1507
    2.750     1449
    2.780     1533
    2.810     1520
    2.840     1449
    2.870     1512
    2.900     1494
    2.930     1381
    2.960     1439
    2.990     1337
    3.020     1446
    3.050     1492
    3.080     1439
    3.110     1463
    3.140     1407
    3.170     1370
    3.200     1416
    3.230     1519
    3.260     1426
    3.290     1404
    3.320     1364
    3.350     1371
    3.380     1344
    3.410     1325
    3.440     1376
    3.470     1347
    3.500     1470
    3.530     1346
    3.560     1345
    3.590     1258
    3.620     1269
    3.650     1371
    3.680     1383
    3.710     1331
    3.740     1414
    3.770     1290
    3.800     1360
    3.830     1333
    3.860     1380
    3.890     1383
    3.920     1384
    3.950     1316
    3.980     1382
    4.010     1417
    4.040     1380
    4.070     1356
    4.100     1369
    4.130     1353
    4.160     1333
    4.190     1344
    4.220     1374
    4.250     1359
    4.280     1331
    4.310     1314
    4.340     1353
    4.370     1353
    4.400     1344
    4.430     1399
    4.460     1349
    4.490     1376
    4.520     1332
    4.550     1350
    4.580     1327
    4.610     1388
    4.640     1337
    4.670     1380
    4.700     1352
    4.730     1440
    4.760     1398
    4.790     1378
    4.820     1341
    4.850     1329
    4.880     1397
    4.910     1386
    4.940     1419
    4.970     1448
    5.000     1338
    5.030     1317
    5.060     1424
    5.090     1334
    5.120     1335
    5.150     1374
    5.180     1280
    5.210     1437
    5.240     1319
    5.270     1313
    5.300     1354
    5.330     1312
    5.360     1359
    5.390     1342
    5.420     1379
    5.450     1366
    5.480     1289
    5.510     1279
    5.540     1338
    5.570     1288
    5.600     1292
    5.630     1319
    5.660     1363
    5.690     1362
    5.720     1389
    5.750     1358
    5.780     1344
    5.810     1310
    5.840     1317
    5.870     1375
    5.900     1321
    5.930     1360
    5.960     1323
    5.990     1354
    6.020     1368
    6.050     1325
    6.080     1344
    6.110     1345
    6.140     1240
    6.170     1389
    6.200     1413
    6.230     1316
    6.260     1327
    6.290     1351
    6.320     1389
    6.350     1313
    6.380     1435
    6.410     1395
    6.440     1337
    6.470     1388
    6.500     1320
    6.530     1312
    6.560     1420
    6.590     1373
    6.620     1352
    6.650     1270
    6.680     1281
    6.710     1295
    6.740     1382
    6.770     1385
    6.800     1432
    6.830     1311
    6.860     1351
    6.890     1272
    6.920     1318
    6.950     1235
    6.980     1276
    7.010     1301
    7.040     1372
    7.070     1337
    7.100     1338
    7.130     1362
    7.160     1304
    7.190     1330
    7.220     1343
    7.250     1324
    7.280     1384
    7.310     1342
    7.340     1333
    7.370     1413
    7.400     1458
    7.430     1350
    7.460     1336
    7.490     1445
    7.520     1357
    7.550     1488
    7.580     1433
    7.610     1477
    7.640     1340
    7.670     1400
    7.700     1331
    7.730     1383
    7.760     1425
    7.790     1352
    7.820     1455
    7.850     1372
    7.880     1447
    7.910     1533
    7.940     1505
    7.970     1529
    8.000     1391
    8.030     1343
    8.060     1426
    8.090     1329
    8.120     1337
    8.150     1396
    8.180     1303
    8.210     1381
    8.240     1393
    8.270     1369
    8.300     1438
    8.330     1424
    8.360     1416
    8.390     1446
    8.420     1451
    8.450     1429
    8.480     1391
    8.510     1406
    8.540     1522
    8.570     1561
    8.600     1491
    8.630     1561
    8.660     1564
    8.690     1641
    8.720     1787
    8.750     1791
    8.780     1912
    8.810     2061
    8.840     2171
    8.870     2449
    8.900     2589
    8.930     2853
    8.960     3229
    8.990     3388
    9.020     3828
    9.050     4314
    9.080     4779
    9.110     5050
    9.140     5192
    9.170     6001
    9.200     7151
    9.230     8259
    9.260    11300
    9.290    11398
    9.320     8993
    9.350     5562
    9.380     3298
    9.410     2595
    9.440     2734
    9.470     2822
    9.500     3571
    9.530     4036
    9.560     3882
    9.590     2939
    9.620     2238
    9.650     1903
    9.680     1889
    9.710     1780
    9.740     1797
    9.770     1703
    9.800     1690
    9.830     1564
    9.860     1567
    9.890     1518
    9.920     1567
    9.950     1474
    9.980     1486
   10.010     1570
   10.040     1565
   10.070     1510
   10.100     1547
   10.130     1457
   10.160     1542
   10.190     1494
   10.220     1466
   10.250     1511
   10.280     1535
   10.310     1460
   10.340     1543
   10.370     1570
   10.400     1572
   10.430     1623
   10.460     1587
   10.490     1665
   10.520     1668
   10.550     1637
   10.580     1696
   10.610     1788
   10.640     1756
   10.670     1741
   10.700     1732
   10.730     1753
   10.760     1680
   10.790     1626
   10.820     1499
   10.850     1559
   10.880     1499
   10.910     1584
   10.940     1542
   10.970     1531
   11.000     1465
   11.030     1431
   11.060     1466
   11.090     1478
   11.120     1389
   11.150     1457
   11.180     1435
   11.210     1455
   11.240     1461
   11.270     1432
   11.300     1379
   11.330     1479
   11.360     1483
   11.390     1425
   11.420     1415
   11.450     1456
   11.480     1348
   11.510     1347
   11.540     1396
   11.570     1389
   11.600     1351
   11.630     1306
   11.660     1445
   11.690     1351
   11.720     1370
   11.750     1418
   11.780     1384
   11.810     1352
   11.840     1332
   11.870     1486
   11.900     1313
   11.930     1316
   11.960     1330
   11.990     1377
   12.020     1437
   12.050     1442
   12.080     1454
   12.110     1393
   12.140     1409
   12.170     1550
   12.200     1571
   12.230     1582
   12.260     1650
   12.290     1769
   12.320     1915
   12.350     2076
   12.380     2337
   12.410     2735
   12.440     3259
   12.470     3540
   12.500     2915
   12.530     2100
   12.560     1648
   12.590     1530
   12.620     1434
   12.650     1407
   12.680     1313
   12.710     1418
   12.740     1429
   12.770     1455
   12.800     1429
   12.830     1389
   12.860     1371
   12.890     1335
   12.920     1382
   12.950     1323
   12.980     1318
   13.010     1398
   13.040     1395
   13.070     1407
   13.100     1440
   13.130     1424
   13.160     1354
   13.190     1393
   13.220     1373
   13.250     1359
   13.280     1388
   13.310     1357
   13.340     1355
   13.370     1346
   13.400     1398
   13.430     1341
   13.460     1283
   13.490     1460
   13.520     1390
   13.550     1424
   13.580     1455
   13.610     1465
   13.640     1403
   13.670     1440
   13.700     1489
   13.730     1507
   13.760     1631
   13.790     1618
   13.820     1714
   13.850     1867
   13.880     1745
   13.910     1611
   13.940     1476
   13.970     1419
   14.000     1326
   14.030     1441
   14.060     1393
   14.090     1346
   14.120     1341
   14.150     1364
   14.180     1326
   14.210     1317
   14.240     1399
   14.270     1294
   14.300     1401
   14.330     1387
   14.360     1432
   14.390     1338
   14.420     1394
   14.450     1389
   14.480     1361
   14.510     1389
   14.540     1377
   14.570     1410
   14.600     1397
   14.630     1356
   14.660     1371
   14.690     1419
   14.720     1405
   14.750     1388
   14.780     1465
   14.810     1493
   14.840     1400
   14.870     1453
   14.900     1451
   14.930     1342
   14.960     1444
   14.990     1405
   15.020     1451
   15.050     1483
   15.080     1396
   15.110     1433
   15.140     1432
   15.170     1468
   15.200     1475
   15.230     1475
   15.260     1458
   15.290     1476
   15.320     1475
   15.350     1399
   15.380     1492
   15.410     1343
   15.440     1436
   15.470     1430
   15.500     1504
   15.530     1385
   15.560     1397
   15.590     1394
   15.620     1369
   15.650     1464
   15.680     1459
   15.710     1461
   15.740     1582
   15.770     1489
   15.800     1584
   15.830     1520
   15.860     1580
   15.890     1633
   15.920     1726
   15.950     1903
   15.980     1965
   16.010     2167
   16.040     2288
   16.070     2117
   16.100     1872
   16.130     1646
   16.160     1592
   16.190     1458
   16.220     1517
   16.250     1563
   16.280     1650
   16.310     1609
   16.340     1773
   16.370     1890
   16.400     2009
   16.430     2485
   16.460     2900
   16.490     2881
   16.520     2551
   16.550     2053
   16.580     1798
   16.610     1684
   16.640     1671
   16.670     1651
   16.700     1686
   16.730     1798
   16.760     1737
   16.790     1812
   16.820     1883
   16.850     1944
   16.880     2118
   16.910     2116
   16.940     1880
   16.970     1781
   17.000     1559
   17.030     1563
   17.060     1534
   17.090     1496
   17.120     1460
   17.150     1549
   17.180     1484
   17.210     1552
   17.240     1530
   17.270     1528
   17.300     1515
   17.330     1427
   17.360     1480
   17.390     1586
   17.420     1498
   17.450     1529
   17.480     1475
   17.510     1511
   17.540     1520
   17.570     1478
   17.600     1458
   17.630     1491
   17.660     1532
   17.690     1458
   17.720     1582
   17.750     1519
   17.780     1490
   17.810     1549
   17.840     1522
   17.870     1585
   17.900     1592
   17.930     1487
   17.960     1553
   17.990     1633
   18.020     1666
   18.050     1594
   18.080     1679
   18.110     1609
   18.140     1660
   18.170     1707
   18.200     1747
   18.230     1673
   18.260     1665
   18.290     1732
   18.320     1728
   18.350     1678
   18.380     1826
   18.410     1858
   18.440     1841
   18.470     1953
   18.500     2001
   18.530     2076
   18.560     2365
   18.590     2713
   18.620     3373
   18.650     4073
   18.680     5090
   18.710     5701
   18.740     5710
   18.770     4575
   18.800     3200
   18.830     2178
   18.860     1790
   18.890     1772
   18.920     1713
   18.950     1618
   18.980     1678
   19.010     1655
   19.040     1714
   19.070     1741
   19.100     1762
   19.130     1856
   19.160     1972
   19.190     2393
   19.220     2560
   19.250     2544
   19.280     2324
   19.310     1860
   19.340     1642
   19.370     1741
   19.400     1667
   19.430     1588
   19.460     1578
   19.490     1639
   19.520     1594
   19.550     1683
   19.580     1653
   19.610     1714
   19.640     1629
   19.670     1616
   19.700     1612
   19.730     1641
   19.760     1760
   19.790     1545
   19.820     1616
   19.850     1580
   19.880     1620
   19.910     1595
   19.940     1621
   19.970     1626
   20.000     1555
   20.030     1670
   20.060     1688
   20.090     1592
   20.120     1631
   20.150     1612
   20.180     1583
   20.210     1566
   20.240     1622
   20.270     1611
   20.300     1630
   20.330     1577
   20.360     1712
   20.390     1647
   20.420     1698
   20.450     1622
   20.480     1694
   20.510     1600
   20.540     1611
   20.570     1813
   20.600     1648
   20.630     1682
   20.660     1660
   20.690     1729
   20.720     1749
   20.750     1774
   20.780     1803
   20.810     1833
   20.840     1859
   20.870     2068
   20.900     1966
   20.930     1908
   20.960     1818
   20.990     1684
   21.020     1727
   21.050     1736
   21.080     1737
   21.110     1788
   21.140     1770
   21.170     1841
   21.200     1945
   21.230     2049
   21.260     2069
   21.290     2151
   21.320     2059
   21.350     2025
   21.380     1886
   21.410     1762
   21.440     1746
   21.470     1794
   21.500     1777
   21.530     1677
   21.560     1746
   21.590     1759
   21.620     1892
   21.650     1877
   21.680     2152
   21.710     2230
   21.740     2611
   21.770     2859
   21.800     3226
   21.830     3515
   21.860     3419
   21.890     3193
   21.920     2524
   21.950     1961
   21.980     1843
   22.010     1816
   22.040     1674
   22.070     1625
   22.100     1708
   22.130     1632
   22.160     1704
   22.190     1630
   22.220     1644
   22.250     1617
   22.280     1715
   22.310     1595
   22.340     1632
   22.370     1711
   22.400     1714
   22.430     1733
   22.460     1711
   22.490     1695
   22.520     1710
   22.550     1645
   22.580     1657
   22.610     1689
   22.640     1590
   22.670     1708
   22.700     1684
   22.730     1724
   22.760     1661
   22.790     1605
   22.820     1639
   22.850     1676
   22.880     1669
   22.910     1757
   22.940     1785
   22.970     1770
   23.000     1714
   23.030     1599
   23.060     1701
   23.090     1680
   23.120     1592
   23.150     1664
   23.180     1652
   23.210     1629
   23.240     1640
   23.270     1636
   23.300     1742
   23.330     1735
   23.360     1743
   23.390     1863
   23.420     1829
   23.450     1817
   23.480     1647
   23.510     1632
   23.540     1632
   23.570     1570
   23.600     1608
   23.630     1556
   23.660     1624
   23.690     1563
   23.720     1626
   23.750     1779
   23.780     1697
   23.810     1802
   23.840     1826
   23.870     1785
   23.900     1563
   23.930     1653
   23.960     1482
   23.990     1538
   24.020     1575
   24.050     1567
   24.080     1586
   24.110     1504
   24.140     1550
   24.170     1618
   24.200     1633
   24.230     1569
   24.260     1502
   24.290     1560
   24.320     1559
   24.350     1505
   24.380     1585
   24.410     1557
   24.440     1557
   24.470     1596
   24.500     1605
   24.530     1454
   24.560     1546
   24.590     1618
   24.620     1657
   24.650     1609
   24.680     1585
   24.710     1580
   24.740     1685
   24.770     1651
   24.800     1631
   24.830     1588
   24.860     1515
   24.890     1568
   24.920     1558
   24.950     1506
   24.980     1577
   25.010     1628
   25.040     1648
   25.070     1649
   25.100     1649
   25.130     1767
   25.160     1703
   25.190     1739
   25.220     1675
   25.250     1488
   25.280     1580
   25.310     1487
   25.340     1447
   25.370     1614
   25.400     1585
   25.430     1663
   25.460     1636
   25.490     1679
   25.520     1596
   25.550     1596
   25.580     1523
   25.610     1530
   25.640     1536
   25.670     1597
   25.700     1594
   25.730     1695
   25.760     2041
   25.790     1961
   25.820     2199
   25.850     2101
   25.880     1807
   25.910     1756
   25.940     1628
   25.970     1779
   26.000     1738
   26.030     1955
   26.060     1952
   26.090     2015
   26.120     2047
   26.150     1894
   26.180     1594
   26.210     1485
   26.240     1489
   26.270     1419
   26.300     1454
   26.330     1446
   26.360     1437
   26.390     1421
   26.420     1521
   26.450     1445
   26.480     1434
   26.510     1427
   26.540     1441
   26.570     1506
   26.600     1386
   26.630     1441
   26.660     1403
   26.690     1458
   26.720     1473
   26.750     1514
   26.780     1470
   26.810     1519
   26.840     1434
   26.870     1523
   26.900     1456
   26.930     1456
   26.960     1479
   26.990     1436
   27.020     1425
   27.050     1493
   27.080     1478
   27.110     1457
   27.140     1431
   27.170     1467
   27.200     1467
   27.230     1451
   27.260     1512
   27.290     1510
   27.320     1443
   27.350     1435
   27.380     1434
   27.410     1315
   27.440     1462
   27.470     1382
   27.500     1479
   27.530     1376
   27.560     1463
   27.590     1355
   27.620     1373
   27.650     1376
   27.680     1410
   27.710     1406
   27.740     1471
   27.770     1367
   27.800     1512
   27.830     1475
   27.860     1511
   27.890     1526
   27.920     1559
   27.950     1610
   27.980     1613
   28.010     1674
   28.040     1718
   28.070     1595
   28.100     1750
   28.130     1625
   28.160     1684
   28.190     1594
   28.220     1859
   28.250     1958
   28.280     2167
   28.310     2051
   28.340     1988
   28.370     1742
   28.400     1553
   28.430     1510
   28.460     1447
   28.490     1470
   28.520     1430
   28.550     1381
   28.580     1360
   28.610     1457
   28.640     1327
   28.670     1380
   28.700     1333
   28.730     1444
   28.760     1480
   28.790     1462
   28.820     1370
   28.850     1478
   28.880     1501
   28.910     1518
   28.940     1566
   28.970     1456
   29.000     1397
   29.030     1382
   29.060     1352
   29.090     1413
   29.120     1417
   29.150     1381
   29.180     1424
   29.210     1458
   29.240     1404
   29.270     1455
   29.300     1395
   29.330     1329
   29.360     1420
   29.390     1385
   29.420     1383
   29.450     1407
   29.480     1376
   29.510     1406
   29.540     1512
   29.570     1492
   29.600     1538
   29.630     1575
   29.660     1591
   29.690     1518
   29.720     1497
   29.750     1480
   29.780     1444
   29.810     1333
   29.840     1330
   29.870     1424
   29.900     1353
   29.930     1349
   29.960     1310
   29.990     1314
   30.020     1377
   30.050     1362
   30.080     1384
   30.110     1318
   30.140     1331
   30.170     1404
   30.200     1395
   30.230     1344
   30.260     1389
   30.290     1407
   30.320     1362
   30.350     1341
   30.380     1369
   30.410     1356
   30.440     1356
   30.470     1359
   30.500     1347
   30.530     1324
   30.560     1350
   30.590     1334
   30.620     1396
   30.650     1333
   30.680     1382
   30.710     1386
   30.740     1493
   30.770     1522
   30.800     1545
   30.830     1554
   30.860     1507
   30.890     1454
   30.920     1397
   30.950     1273
   30.980     1303
   31.010     1367
   31.040     1382
   31.070     1336
   31.100     1394
   31.130     1403
   31.160     1329
   31.190     1317
   31.220     1365
   31.250     1206
   31.280     1323
   31.310     1308
   31.340     1289
   31.370     1344
   31.400     1352
   31.430     1250
   31.460     1240
   31.490     1326
   31.520     1238
   31.550     1328
   31.580     1333
   31.610     1316
   31.640     1263
   31.670     1301
   31.700     1268
   31.730     1267
   31.760     1329
   31.790     1203
   31.820     1265
   31.850     1239
   31.880     1253
   31.910     1253
   31.940     1297
   31.970     1362
   32.000     1290
   32.030     1372
   32.060     1362
   32.090     1225
   32.120     1279
   32.150     1362
   32.180     1241
   32.210     1339
   32.240     1344
   32.270     1309
   32.300     1465
   32.330     1436
   32.360     1630
   32.390     1660
   32.420     1798
   32.450     1722
   32.480     1675
   32.510     1567
   32.540     1475
   32.570     1501
   32.600     1430
   32.630     1444
   32.660     1459
   32.690     1560
   32.720     1642
   32.750     1614
   32.780     1569
   32.810     1492
   32.840     1380
   32.870     1411
   32.900     1404
   32.930     1330
   32.960     1346
   32.990     1290
   33.020     1339
   33.050     1411
   33.080     1352
   33.110     1345
   33.140     1286
   33.170     1364
   33.200     1299
   33.230     1369
   33.260     1385
   33.290     1397
   33.320     1413
   33.350     1493
   33.380     1640
   33.410     1574
   33.440     1580
   33.470     1467
   33.500     1457
   33.530     1239
   33.560     1322
   33.590     1327
   33.620     1280
   33.650     1233
   33.680     1268
   33.710     1294
   33.740     1346
   33.770     1221
   33.800     1295
   33.830     1226
   33.860     1372
   33.890     1434
   33.920     1378
   33.950     1415
   33.980     1426
   34.010     1454
   34.040     1379
   34.070     1355
   34.100     1440
   34.130     1342
   34.160     1468
   34.190     1504
   34.220     1512
   34.250     1539
   34.280     1660
   34.310     1502
   34.340     1458
   34.370     1500
   34.400     1476
   34.430     1508
   34.460     1562
   34.490     1544
   34.520     1479
   34.550     1397
   34.580     1365
   34.610     1349
   34.640     1262
   34.670     1362
   34.700     1366
   34.730     1354
   34.760     1304
   34.790     1323
   34.820     1297
   34.850     1283
   34.880     1286
   34.910     1291
   34.940     1444
   34.970     1365
   35.000     1317
   35.030     1319
   35.060     1328
   35.090     1366
   35.120     1345
   35.150     1295
   35.180     1344
   35.210     1404
   35.240     1425
   35.270     1441
   35.300     1353
   35.330     1333
   35.360     1369
   35.390     1324
   35.420     1238
   35.450     1331
   35.480     1240
   35.510     1292
   35.540     1333
   35.570     1311
   35.600     1284
   35.630     1287
   35.660     1353
   35.690     1264
   35.720     1335
   35.750     1270
   35.780     1360
   35.810     1305
   35.840     1291
   35.870     1405
   35.900     1291
   35.930     1334
   35.960     1250
   35.990     1247
   36.020     1291
   36.050     1264
   36.080     1208
   36.110     1170
   36.140     1233
   36.170     1220
   36.200     1322
   36.230     1272
   36.260     1255
   36.290     1285
   36.320     1267
   36.350     1319
   36.380     1267
   36.410     1272
   36.440     1297
   36.470     1299
   36.500     1239
   36.530     1183
   36.560     1314
   36.590     1341
   36.620     1303
   36.650     1201
   36.680     1235
   36.710     1256
   36.740     1328
   36.770     1318
   36.800     1391
   36.830     1388
   36.860     1378
   36.890     1432
   36.920     1379
   36.950     1291
   36.980     1305
   37.010     1268
   37.040     1278
   37.070     1243
   37.100     1230
   37.130     1207
   37.160     1259
   37.190     1245
   37.220     1277
   37.250     1142
   37.280     1311
   37.310     1242
   37.340     1249
   37.370     1365
   37.400     1298
   37.430     1282
   37.460     1227
   37.490     1290
   37.520     1200
   37.550     1295
   37.580     1316
   37.610     1324
   37.640     1252
   37.670     1361
   37.700     1359
   37.730     1428
   37.760     1434
   37.790     1341
   37.820     1318
   37.850     1285
   37.880     1214
   37.910     1287
   37.940     1331
   37.970     1427
   38.000     1373
   38.030     1476
   38.060     1550
   38.090     1500
   38.120     1437
   38.150     1438
   38.180     1270
   38.210     1267
   38.240     1278
   38.270     1262
   38.300     1282
   38.330     1294
   38.360     1264
   38.390     1250
   38.420     1324
   38.450     1273
   38.480     1202
   38.510     1241
   38.540     1219
   38.570     1303
   38.600     1243
   38.630     1274
   38.660     1248
   38.690     1298
   38.720     1312
   38.750     1245
   38.780     1289
   38.810     1324
   38.840     1246
   38.870     1338
   38.900     1280
   38.930     1219
   38.960     1267
   38.990     1188
   39.020     1293
   39.050     1332
   39.080     1281
   39.110     1321
   39.140     1261
   39.170     1296
   39.200     1225
   39.230     1284
   39.260     1244
   39.290     1271
   39.320     1248
   39.350     1211
   39.380     1257
   39.410     1147
   39.440     1210
   39.470     1207
   39.500     1301
   39.530     1141
   39.560     1244
   39.590     1171
   39.620     1157
   39.650     1139
   39.680     1221
   39.710     1213
   39.740     1271
   39.770     1259
   39.800     1179
   39.830     1242
   39.860     1227
   39.890     1215
   39.920     1263
   39.950     1186
   39.980     1254
   40.010     1327
   40.040     1275
   40.070     1219
   40.100     1334
   40.130     1238
   40.160     1259
   40.190     1227
   40.220     1216
   40.250     1320
   40.280     1279
   40.310     1248
   40.340     1240
   40.370     1285
   40.400     1244
   40.430     1336
   40.460     1362
   40.490     1431
   40.520     1582
   40.550     1562
   40.580     1619
   40.610     1575
   40.640     1471
   40.670     1460
   40.700     1384
   40.730     1429
   40.760     1429
   40.790     1395
   40.820     1330
   40.850     1325
   40.880     1349
   40.910     1313
   40.940     1369
   40.970     1301
   41.000     1289
   41.030     1197
   41.060     1300
   41.090     1312
   41.120     1241
   41.150     1243
   41.180     1246
   41.210     1293
   41.240     1282
   41.270     1300
   41.300     1292
   41.330     1218
   41.360     1285
   41.390     1249
   41.420     1327
   41.450     1332
   41.480     1203
   41.510     1236
   41.540     1340
   41.570     1277
   41.600     1413
   41.630     1418
   41.660     1616
   41.690     1694
   41.720     1770
   41.750     1790
   41.780     1597
   41.810     1456
   41.840     1347
   41.870     1371
   41.900     1279
   41.930     1321
   41.960     1229
   41.990     1295
   42.020     1330
   42.050     1393
   42.080     1353
   42.110     1330
   42.140     1384
   42.170     1525
   42.200     1570
   42.230     1571
   42.260     1614
   42.290     1548
   42.320     1474
   42.350     1412
   42.380     1363
   42.410     1305
   42.440     1347
   42.470     1377
   42.500     1373
   42.530     1331
   42.560     1464
   42.590     1416
   42.620     1420
   42.650     1360
   42.680     1313
   42.710     1285
   42.740     1313
   42.770     1249
   42.800     1289
   42.830     1216
   42.860     1233
   42.890     1305
   42.920     1231
   42.950     1155
   42.980     1186
   43.010     1231
   43.040     1251
   43.070     1230
   43.100     1273
   43.130     1243
   43.160     1265
   43.190     1243
   43.220     1249
   43.250     1171
   43.280     1328
   43.310     1292
   43.340     1337
   43.370     1390
   43.400     1376
   43.430     1359
   43.460     1294
   43.490     1346
   43.520     1286
   43.550     1299
   43.580     1337
   43.610     1286
   43.640     1190
   43.670     1237
   43.700     1274
   43.730     1222
   43.760     1291
   43.790     1212
   43.820     1300
   43.850     1271
   43.880     1218
   43.910     1279
   43.940     1200
   43.970     1270
   43.985     1213