File: data/MIL-88B_101/PXRD/PXRD_S-10_Cu-Kα1_capillary-0.7mm.xyd
    2.000     1544
    2.030     1582
    2.060     1607
    2.090     1572
    2.120     1522
    2.150     1620
    2.180     1538
    2.210     1638
    2.240     1726
    2.270     1659
    2.300     1633
    2.330     1707
    2.360     1716
    2.390     1738
    2.420     1791
    2.450     1768
    2.480     1856
    2.510     1875
    2.540     1927
    2.570     2070
    2.600     2068
    2.630     2133
    2.660     2438
    2.690     2860
    2.720     2731
    2.750     1970
    2.780     1687
    2.810     1801
    2.840     1846
    2.870     1824
    2.900     1910
    2.930     1970
    2.960     2076
    2.990     2069
    3.020     2180
    3.050     2380
    3.080     2672
    3.110     2909
    3.140     3352
    3.170     4178
    3.200     3929
    3.230     2585
    3.260     2098
    3.290     2211
    3.320     2369
    3.350     2164
    3.380     1508
    3.410     1249
    3.440     1330
    3.470     1266
    3.500     1388
    3.530     1271
    3.560     1324
    3.590     1398
    3.620     1309
    3.650     1292
    3.680     1445
    3.710     1352
    3.740     1405
    3.770     1356
    3.800     1473
    3.830     1631
    3.860     1599
    3.890     1516
    3.920     1360
    3.950     1286
    3.980     1300
    4.010     1399
    4.040     1281
    4.070     1292
    4.100     1404
    4.130     1377
    4.160     1385
    4.190     1420
    4.220     1441
    4.250     1319
    4.280     1256
    4.310     1225
    4.340     1311
    4.370     1255
    4.400     1222
    4.430     1327
    4.460     1330
    4.490     1318
    4.520     1408
    4.550     1376
    4.580     1378
    4.610     1434
    4.640     1439
    4.670     1528
    4.700     1588
    4.730     1721
    4.760     1667
    4.790     1455
    4.820     1444
    4.850     1413
    4.880     1557
    4.910     1654
    4.940     1715
    4.970     1856
    5.000     2092
    5.030     2228
    5.060     1933
    5.090     1449
    5.120     1184
    5.150     1242
    5.180     1276
    5.210     1310
    5.240     1285
    5.270     1339
    5.300     1346
    5.330     1398
    5.360     1400
    5.390     1412
    5.420     1467
    5.450     1531
    5.480     1565
    5.510     1501
    5.540     1485
    5.570     1415
    5.600     1492
    5.630     1432
    5.660     1534
    5.690     1652
    5.720     2018
    5.750     2034
    5.780     1594
    5.810     1319
    5.840     1308
    5.870     1311
    5.900     1238
    5.930     1191
    5.960     1245
    5.990     1222
    6.020     1179
    6.050     1192
    6.080     1222
    6.110     1229
    6.140     1208
    6.170     1210
    6.200     1262
    6.230     1236
    6.260     1195
    6.290     1217
    6.320     1194
    6.350     1194
    6.380     1281
    6.410     1261
    6.440     1239
    6.470     1241
    6.500     1233
    6.530     1202
    6.560     1237
    6.590     1197
    6.620     1189
    6.650     1232
    6.680     1151
    6.710     1208
    6.740     1225
    6.770     1207
    6.800     1253
    6.830     1175
    6.860     1218
    6.890     1311
    6.920     1241
    6.950     1224
    6.980     1268
    7.010     1230
    7.040     1216
    7.070     1349
    7.100     1301
    7.130     1322
    7.160     1243
    7.190     1340
    7.220     1210
    7.250     1283
    7.280     1403
    7.310     1197
    7.340     1265
    7.370     1269
    7.400     1232
    7.430     1247
    7.460     1289
    7.490     1265
    7.520     1241
    7.550     1262
    7.580     1246
    7.610     1325
    7.640     1233
    7.670     1325
    7.700     1249
    7.730     1231
    7.760     1383
    7.790     1294
    7.820     1431
    7.850     1386
    7.880     1376
    7.910     1382
    7.940     1436
    7.970     1579
    8.000     1538
    8.030     1518
    8.060     1517
    8.090     1506
    8.120     1573
    8.150     1737
    8.180     1776
    8.210     1936
    8.240     2363
    8.270     2630
    8.300     2352
    8.330     2009
    8.360     1696
    8.390     1864
    8.420     2137
    8.450     2253
    8.480     2025
    8.510     1746
    8.540     1770
    8.570     1840
    8.600     1832
    8.630     2027
    8.660     2229
    8.690     2718
    8.720     3293
    8.750     2980
    8.780     2591
    8.810     2717
    8.840     3191
    8.870     4285
    8.900     4579
    8.930     3840
    8.960     2599
    8.990     1805
    9.020     1472
    9.050     1432
    9.080     1431
    9.110     1399
    9.140     1422
    9.170     1526
    9.200     1598
    9.230     1602
    9.260     1761
    9.290     1667
    9.320     1476
    9.350     1469
    9.380     1345
    9.410     1431
    9.440     1517
    9.470     1496
    9.500     1617
    9.530     1649
    9.560     1806
    9.590     1691
    9.620     1685
    9.650     1552
    9.680     1713
    9.710     1629
    9.740     1737
    9.770     1502
    9.800     1457
    9.830     1497
    9.860     1558
    9.890     1717
    9.920     1696
    9.950     1786
    9.980     1845
   10.010     1790
   10.040     1664
   10.070     1762
   10.100     2026
   10.130     2162
   10.160     2298
   10.190     1935
   10.220     1621
   10.250     1432
   10.280     1422
   10.310     1350
   10.340     1458
   10.370     1432
   10.400     1389
   10.430     1441
   10.460     1526
   10.490     1565
   10.520     1562
   10.550     1501
   10.580     1474
   10.610     1447
   10.640     1471
   10.670     1509
   10.700     1568
   10.730     1650
   10.760     1589
   10.790     1477
   10.820     1455
   10.850     1428
   10.880     1498
   10.910     1580
   10.940     1612
   10.970     1573
   11.000     1598
   11.030     1645
   11.060     1761
   11.090     1723
   11.120     1552
   11.150     1589
   11.180     1583
   11.210     1676
   11.240     1551
   11.270     1602
   11.300     1471
   11.330     1408
   11.360     1485
   11.390     1481
   11.420     1588
   11.450     1512
   11.480     1518
   11.510     1622
   11.540     1743
   11.570     1633
   11.600     1567
   11.630     1446
   11.660     1560
   11.690     1493
   11.720     1542
   11.750     1520
   11.780     1465
   11.810     1514
   11.840     1545
   11.870     1519
   11.900     1477
   11.930     1554
   11.960     1446
   11.990     1476
   12.020     1567
   12.050     1454
   12.080     1486
   12.110     1476
   12.140     1498
   12.170     1486
   12.200     1540
   12.230     1559
   12.260     1522
   12.290     1521
   12.320     1543
   12.350     1455
   12.380     1624
   12.410     1592
   12.440     1580
   12.470     1609
   12.500     1537
   12.530     1507
   12.560     1523
   12.590     1577
   12.620     1603
   12.650     1557
   12.680     1470
   12.710     1575
   12.740     1596
   12.770     1585
   12.800     1688
   12.830     1563
   12.860     1562
   12.890     1739
   12.920     1656
   12.950     1618
   12.980     1722
   13.010     1633
   13.040     1602
   13.070     1724
   13.100     1697
   13.130     1742
   13.160     1622
   13.190     1638
   13.220     1565
   13.250     1626
   13.280     1629
   13.310     1566
   13.340     1586
   13.370     1692
   13.400     1609
   13.430     1668
   13.460     1641
   13.490     1571
   13.520     1614
   13.550     1697
   13.580     1677
   13.610     1709
   13.640     1639
   13.670     1696
   13.700     1700
   13.730     1690
   13.760     1829
   13.790     1692
   13.820     1755
   13.850     1773
   13.880     1675
   13.910     1676
   13.940     1691
   13.970     1750
   14.000     1681
   14.030     1760
   14.060     1743
   14.090     1689
   14.120     1736
   14.150     1776
   14.180     1760
   14.210     1757
   14.240     1792
   14.270     1747
   14.300     1771
   14.330     1741
   14.360     1800
   14.390     1783
   14.420     1821
   14.450     1835
   14.480     1728
   14.510     1749
   14.540     1845
   14.570     1875
   14.600     1839
   14.630     1810
   14.660     1823
   14.690     1883
   14.720     1889
   14.750     1769
   14.780     1787
   14.810     1872
   14.840     1875
   14.870     1898
   14.900     1895
   14.930     1870
   14.960     1900
   14.990     1837
   15.020     1899
   15.050     1894
   15.080     1972
   15.110     1934
   15.140     1897
   15.170     1996
   15.200     2020
   15.230     1959
   15.260     2091
   15.290     2096
   15.320     2028
   15.350     2103
   15.380     1921
   15.410     1961
   15.440     2084
   15.470     2011
   15.500     2043
   15.530     2053
   15.560     2065
   15.590     2070
   15.620     2052
   15.650     2054
   15.680     2225
   15.710     1969
   15.740     2164
   15.770     2143
   15.800     2195
   15.830     2234
   15.860     2073
   15.890     2319
   15.920     2269
   15.950     2313
   15.980     2319
   16.010     2348
   16.040     2304
   16.070     2353
   16.100     2483
   16.130     2194
   16.160     2339
   16.190     2343
   16.220     2613
   16.250     2595
   16.280     2932
   16.310     2766
   16.340     2644
   16.370     2438
   16.400     2288
   16.430     2467
   16.460     2473
   16.490     2466
   16.520     2501
   16.550     2434
   16.580     2471
   16.610     2519
   16.640     2601
   16.670     2545
   16.700     2547
   16.730     2557
   16.760     2572
   16.790     2386
   16.820     2456
   16.850     2373
   16.880     2555
   16.910     2650
   16.940     2675
   16.970     2613
   17.000     2639
   17.030     2646
   17.060     2718
   17.090     2600
   17.120     2576
   17.150     2772
   17.180     2642
   17.210     2827
   17.240     2747
   17.270     2842
   17.300     2716
   17.330     2635
   17.360     2716
   17.390     2770
   17.420     2840
   17.450     2947
   17.480     2709
   17.510     2797
   17.540     2847
   17.570     2976
   17.600     2953
   17.630     3113
   17.660     3114
   17.690     3284
   17.720     3368
   17.750     3108
   17.780     2892
   17.810     2970
   17.840     2942
   17.870     3117
   17.900     2965
   17.930     3112
   17.960     2779
   17.990     2862
   18.020     3042
   18.050     2822
   18.080     2905
   18.110     2960
   18.140     2900
   18.170     2958
   18.200     2939
   18.230     2978
   18.260     2937
   18.290     3064
   18.320     2956
   18.350     2969
   18.380     3186
   18.410     3126
   18.440     3085
   18.470     3244
   18.500     3147
   18.530     3438
   18.560     3317
   18.590     3427
   18.620     3537
   18.650     3423
   18.680     3514
   18.710     3484
   18.740     3543
   18.770     3523
   18.800     3319
   18.830     3228
   18.860     3109
   18.890     3255
   18.920     3290
   18.950     3202
   18.980     3251
   19.010     3082
   19.040     3144
   19.070     3275
   19.100     3364
   19.130     3384
   19.160     2974
   19.190     3235
   19.220     3187
   19.250     3129
   19.280     3394
   19.310     3061
   19.340     3251
   19.370     3297
   19.400     3148
   19.430     3224
   19.460     3279
   19.490     3154
   19.520     3136
   19.550     3265
   19.580     3275
   19.610     3315
   19.640     3173
   19.670     3334
   19.700     3303
   19.730     3052
   19.760     3403
   19.790     3056
   19.820     3311
   19.850     3296
   19.880     3088
   19.910     3264
   19.940     3146
   19.970     3189
   20.000     3201
   20.030     3243
   20.060     3170
   20.090     3166
   20.120     3120
   20.150     3222
   20.180     3137
   20.210     3218
   20.240     3252
   20.270     3164
   20.300     3082
   20.330     3163
   20.360     3199
   20.390     3236
   20.420     3227
   20.450     3131
   20.480     3125
   20.510     3132
   20.540     3114
   20.570     3259
   20.600     3049
   20.630     3024
   20.660     3017
   20.690     3103
   20.720     3218
   20.750     2990
   20.780     2939
   20.810     3115
   20.840     3070
   20.870     3190
   20.900     3132
   20.930     3034
   20.960     3181
   20.990     3026
   21.020     3124
   21.050     3189
   21.080     3195
   21.110     3216
   21.140     2981
   21.170     3200
   21.200     3145
   21.230     3087
   21.260     3348
   21.290     3141
   21.320     3183
   21.350     3198
   21.380     2946
   21.410     2933
   21.440     3169
   21.470     3097
   21.500     3153
   21.530     2972
   21.560     2815
   21.590     2947
   21.620     2986
   21.650     2915
   21.680     3175
   21.710     3112
   21.740     3123
   21.770     2931
   21.800     3035
   21.830     3119
   21.860     2938
   21.890     3034
   21.920     2964
   21.950     2820
   21.980     2905
   22.010     2958
   22.040     2950
   22.070     2896
   22.100     3090
   22.130     2854
   22.160     2863
   22.190     2757
   22.220     2943
   22.250     2718
   22.280     2924
   22.310     2817
   22.340     2963
   22.370     2932
   22.400     2726
   22.430     2851
   22.460     2836
   22.490     2795
   22.520     2906
   22.550     2971
   22.580     2892
   22.610     2795
   22.640     2866
   22.670     2712
   22.700     2732
   22.730     2734
   22.760     2746
   22.790     2634
   22.820     2654
   22.850     2639
   22.880     2684
   22.910     2662
   22.940     2752
   22.970     2624
   23.000     2648
   23.030     2646
   23.060     2592
   23.090     2569
   23.120     2641
   23.150     2613
   23.180     2573
   23.210     2707
   23.240     2537
   23.270     2735
   23.300     2587
   23.330     2624
   23.360     2567
   23.390     2764
   23.420     2796
   23.450     2767
   23.480     2569
   23.510     2650
   23.540     2609
   23.570     2601
   23.600     2602
   23.630     2505
   23.660     2494
   23.690     2513
   23.720     2585
   23.750     2637
   23.780     2518
   23.810     2530
   23.840     2585
   23.870     2660
   23.900     2503
   23.930     2638
   23.960     2536
   23.990     2425
   24.020     2488
   24.050     2376
   24.080     2400
   24.110     2475
   24.140     2490
   24.170     2473
   24.200     2507
   24.230     2463
   24.260     2348
   24.290     2314
   24.320     2304
   24.350     2362
   24.380     2443
   24.410     2541
   24.440     2485
   24.470     2613
   24.500     2482
   24.530     2394
   24.560     2448
   24.590     2437
   24.620     2391
   24.650     2309
   24.680     2250
   24.710     2238
   24.740     2368
   24.770     2404
   24.800     2425
   24.830     2348
   24.860     2348
   24.890     2314
   24.920     2326
   24.950     2273
   24.980     2274
   25.010     2223
   25.040     2324
   25.070     2357
   25.100     2358
   25.130     2344
   25.160     2128
   25.190     2236
   25.220     2269
   25.250     2224
   25.280     2310
   25.310     2049
   25.340     2224
   25.370     2341
   25.400     2204
   25.430     2199
   25.460     2141
   25.490     2103
   25.520     2102
   25.550     2043
   25.580     2075
   25.610     2163
   25.640     2080
   25.670     2143
   25.700     2136
   25.730     2044
   25.760     2194
   25.790     2024
   25.820     2111
   25.850     2144
   25.880     1976
   25.910     2115
   25.940     2025
   25.970     2166
   26.000     2065
   26.030     2175
   26.060     2124
   26.090     2074
   26.120     2065
   26.150     2114
   26.180     2028
   26.210     2045
   26.240     2044
   26.270     1992
   26.300     1995
   26.330     1999
   26.360     2054
   26.390     1989
   26.420     2118
   26.450     2022
   26.480     1943
   26.510     1921
   26.540     1981
   26.570     2083
   26.600     2000
   26.630     1980
   26.660     1939
   26.690     1988
   26.720     2015
   26.750     1933
   26.780     1935
   26.810     1952
   26.840     1880
   26.870     1989
   26.900     1955
   26.930     1869
   26.960     1926
   26.990     1848
   27.020     1907
   27.050     1917
   27.080     1900
   27.110     1860
   27.140     1812
   27.170     1951
   27.200     1943
   27.230     1925
   27.260     2102
   27.290     1842
   27.320     1891
   27.350     1879
   27.380     1866
   27.410     1843
   27.440     1865
   27.470     1865
   27.500     1965
   27.530     1916
   27.560     1802
   27.590     1848
   27.620     1914
   27.650     1774
   27.680     1975
   27.710     1844
   27.740     1966
   27.770     1842
   27.800     1970
   27.830     1919
   27.860     1886
   27.890     1893
   27.920     1869
   27.950     1762
   27.980     1810
   28.010     1821
   28.040     1811
   28.070     1849
   28.100     1865
   28.130     1746
   28.160     1776
   28.190     1769
   28.220     1796
   28.250     1701
   28.280     1840
   28.310     1753
   28.340     1850
   28.370     1866
   28.400     1770
   28.430     1798
   28.460     1797
   28.490     1801
   28.520     1782
   28.550     1768
   28.580     1720
   28.610     1718
   28.640     1771
   28.670     1724
   28.700     1749
   28.730     1724
   28.760     1710
   28.790     1688
   28.820     1719
   28.850     1621
   28.880     1690
   28.910     1698
   28.940     1727
   28.970     1716
   29.000     1680
   29.030     1610
   29.060     1670
   29.090     1682
   29.120     1662
   29.150     1759
   29.180     1675
   29.210     1763
   29.240     1566
   29.270     1727
   29.300     1692
   29.330     1736
   29.360     1676
   29.390     1701
   29.420     1561
   29.450     1656
   29.480     1609
   29.510     1659
   29.540     1730
   29.570     1651
   29.600     1583
   29.630     1518
   29.660     1560
   29.690     1623
   29.720     1771
   29.750     1619
   29.780     1584
   29.810     1580
   29.840     1626
   29.870     1634
   29.900     1573
   29.930     1578
   29.960     1484
   29.990     1624
   30.020     1599
   30.050     1543
   30.080     1467
   30.110     1546
   30.140     1529
   30.170     1523
   30.200     1552
   30.230     1578
   30.260     1477
   30.290     1487
   30.320     1527
   30.350     1461
   30.380     1563
   30.410     1587
   30.440     1470
   30.470     1491
   30.500     1551
   30.530     1478
   30.560     1499
   30.590     1538
   30.620     1549
   30.650     1549
   30.680     1585
   30.710     1589
   30.740     1575
   30.770     1599
   30.800     1626
   30.830     1558
   30.860     1507
   30.890     1546
   30.920     1609
   30.950     1531
   30.980     1517
   31.010     1434
   31.040     1521
   31.070     1472
   31.100     1517
   31.130     1548
   31.160     1389
   31.190     1497
   31.220     1496
   31.250     1391
   31.280     1517
   31.310     1358
   31.340     1464
   31.370     1505
   31.400     1508
   31.430     1374
   31.460     1481
   31.490     1482
   31.520     1391
   31.550     1394
   31.580     1482
   31.610     1510
   31.640     1295
   31.670     1434
   31.700     1356
   31.730     1336
   31.760     1494
   31.790     1339
   31.820     1409
   31.850     1388
   31.880     1314
   31.910     1367
   31.940     1367
   31.970     1368
   32.000     1395
   32.030     1444
   32.060     1439
   32.090     1372
   32.120     1361
   32.150     1459
   32.180     1355
   32.210     1375
   32.240     1464
   32.270     1340
   32.300     1341
   32.330     1394
   32.360     1408
   32.390     1443
   32.420     1472
   32.450     1446
   32.480     1468
   32.510     1424
   32.540     1493
   32.570     1483
   32.600     1465
   32.630     1431
   32.660     1433
   32.690     1429
   32.720     1449
   32.750     1312
   32.780     1343
   32.810     1378
   32.840     1352
   32.870     1370
   32.900     1422
   32.930     1358
   32.960     1428
   32.990     1347
   33.020     1410
   33.050     1386
   33.080     1358
   33.110     1329
   33.140     1254
   33.170     1315
   33.200     1332
   33.230     1285
   33.260     1340
   33.290     1280
   33.320     1291
   33.350     1393
   33.380     1314
   33.410     1264
   33.440     1409
   33.470     1278
   33.500     1373
   33.530     1316
   33.560     1286
   33.590     1330
   33.620     1332
   33.650     1293
   33.680     1326
   33.710     1213
   33.740     1362
   33.770     1217
   33.800     1338
   33.830     1307
   33.860     1284
   33.890     1287
   33.920     1300
   33.950     1341
   33.980     1239
   34.010     1404
   34.040     1285
   34.070     1273
   34.100     1331
   34.130     1243
   34.160     1258
   34.190     1216
   34.220     1273
   34.250     1235
   34.280     1312
   34.310     1244
   34.340     1320
   34.370     1317
   34.400     1231
   34.430     1347
   34.460     1352
   34.490     1277
   34.520     1251
   34.550     1209
   34.580     1249
   34.610     1251
   34.640     1225
   34.670     1171
   34.700     1212
   34.730     1192
   34.760     1182
   34.790     1139
   34.820     1259
   34.850     1181
   34.880     1210
   34.910     1197
   34.940     1223
   34.970     1182
   35.000     1275
   35.030     1172
   35.060     1206
   35.090     1229
   35.120     1199
   35.150     1190
   35.180     1167
   35.210     1229
   35.240     1202
   35.270     1254
   35.300     1231
   35.330     1201
   35.360     1215
   35.390     1244
   35.420     1168
   35.450     1161
   35.480     1084
   35.510     1159
   35.540     1167
   35.570     1151
   35.600     1127
   35.630     1148
   35.660     1159
   35.690     1190
   35.720     1230
   35.750     1165
   35.780     1145
   35.810     1139
   35.840     1103
   35.870     1156
   35.900     1142
   35.930     1122
   35.960     1113
   35.990     1162
   36.020     1147
   36.050     1079
   36.080     1113
   36.110     1105
   36.140     1076
   36.170     1143
   36.200     1159
   36.230     1122
   36.260     1107
   36.290     1105
   36.320     1122
   36.350     1115
   36.380     1147
   36.410     1144
   36.440     1137
   36.470     1161
   36.500     1059
   36.530     1141
   36.560     1083
   36.590     1118
   36.620     1089
   36.650     1089
   36.680     1093
   36.710     1099
   36.740     1117
   36.770     1144
   36.800     1197
   36.830     1117
   36.860     1089
   36.890     1162
   36.920     1105
   36.950     1102
   36.980     1065
   37.010     1103
   37.040     1113
   37.070     1155
   37.100     1155
   37.130     1141
   37.160     1105
   37.190     1110
   37.220     1115
   37.250     1103
   37.280     1112
   37.310     1044
   37.340     1060
   37.370     1135
   37.400     1088
   37.430     1135
   37.460     1074
   37.490     1096
   37.520     1037
   37.550     1067
   37.580     1114
   37.610     1101
   37.640     1065
   37.670     1099
   37.700     1115
   37.730     1066
   37.760     1148
   37.790     1009
   37.820     1088
   37.850     1058
   37.880     1058
   37.910     1070
   37.940     1034
   37.970     1138
   38.000     1058
   38.030     1083
   38.060     1068
   38.090     1043
   38.120     1059
   38.150     1084
   38.180     1059
   38.210     1077
   38.240     1105
   38.270     1079
   38.300     1082
   38.330     1023
   38.360     1054
   38.390     1059
   38.420     1111
   38.450     1057
   38.480     1043
   38.510     1077
   38.540     1029
   38.570     1075
   38.600     1026
   38.630      991
   38.660     1053
   38.690     1036
   38.720     1100
   38.750      999
   38.780     1037
   38.810     1072
   38.840     1046
   38.870     1063
   38.900     1045
   38.930     1007
   38.960     1001
   38.990      961
   39.020      999
   39.050     1018
   39.080     1033
   39.110      978
   39.140      997
   39.170     1058
   39.200     1121
   39.230     1040
   39.260     1078
   39.290     1098
   39.320     1023
   39.350     1044
   39.380      967
   39.410     1000
   39.440     1019
   39.470     1028
   39.500      992
   39.530     1049
   39.560      960
   39.590      964
   39.620     1044
   39.650      974
   39.680     1031
   39.710      977
   39.740     1082
   39.770     1018
   39.800     1057
   39.830     1080
   39.860      990
   39.890     1095
   39.920     1047
   39.950     1042
   39.980     1055
   40.010     1086
   40.040     1032
   40.070     1019
   40.100     1088
   40.130     1023
   40.160     1042
   40.190     1069
   40.220     1058
   40.250     1027
   40.280     1067
   40.310     1014
   40.340     1002
   40.370     1070
   40.400     1001
   40.430     1065
   40.460     1044
   40.490     1070
   40.520     1059
   40.550     1127
   40.580     1080
   40.610     1073
   40.640     1126
   40.670     1088
   40.700     1053
   40.730     1094
   40.760     1046
   40.790     1032
   40.820     1011
   40.850      989
   40.880     1010
   40.910     1058
   40.940     1064
   40.970     1069
   41.000     1062
   41.030     1062
   41.060     1045
   41.090     1111
   41.120     1111
   41.150     1103
   41.180     1036
   41.210     1058
   41.240     1043
   41.270     1059
   41.300     1031
   41.330     1038
   41.360     1065
   41.390     1127
   41.420     1110
   41.450     1093
   41.480     1021
   41.510     1042
   41.540     1062
   41.570     1033
   41.600     1014
   41.630      983
   41.660     1002
   41.690      967
   41.720     1065
   41.750      999
   41.780     1024
   41.810      982
   41.840     1004
   41.870     1066
   41.900     1007
   41.930     1062
   41.960      977
   41.990     1003
   42.020     1028
   42.050      995
   42.080     1014
   42.110     1010
   42.140     1024
   42.170     1080
   42.200     1043
   42.230      991
   42.260      999
   42.290     1019
   42.320     1021
   42.350      994
   42.380      983
   42.410     1029
   42.440     1057
   42.470     1034
   42.500      997
   42.530      972
   42.560     1039
   42.590     1036
   42.620      984
   42.650      970
   42.680      981
   42.710      992
   42.740     1012
   42.770     1030
   42.800     1047
   42.830     1026
   42.860      964
   42.890     1049
   42.920      984
   42.950      952
   42.980     1013
   43.010     1068
   43.040     1047
   43.070     1079
   43.100     1123
   43.130     1073
   43.160      901
   43.190      999
   43.220      940
   43.250     1034
   43.280     1054
   43.310      981
   43.340      956
   43.370      983
   43.400      967
   43.430      966
   43.460      958
   43.490     1048
   43.520      999
   43.550     1058
   43.580     1043
   43.610     1022
   43.640      969
   43.670     1024
   43.700     1054
   43.730      957
   43.760     1029
   43.790      941
   43.820     1034
   43.850     1092
   43.880      951
   43.910      980
   43.940      943
   43.970     1013
   43.985     1012