File: data/MIL-88B_101/PXRD/PXRD_MIL-88B-Water_Cu-Kα1_capillary-0.7mm.xyd
    2.000      567
    2.030      603
    2.060      588
    2.090      610
    2.120      573
    2.150      593
    2.180      571
    2.210      593
    2.240      568
    2.270      559
    2.300      546
    2.330      562
    2.360      551
    2.390      543
    2.420      568
    2.450      546
    2.480      533
    2.510      556
    2.540      534
    2.570      590
    2.600      498
    2.630      529
    2.660      523
    2.690      533
    2.720      540
    2.750      527
    2.780      516
    2.810      519
    2.840      536
    2.870      497
    2.900      534
    2.930      504
    2.960      537
    2.990      462
    3.020      530
    3.050      525
    3.080      529
    3.110      515
    3.140      495
    3.170      512
    3.200      533
    3.230      539
    3.260      532
    3.290      514
    3.320      523
    3.350      539
    3.380      479
    3.410      461
    3.440      502
    3.470      510
    3.500      549
    3.530      503
    3.560      481
    3.590      493
    3.620      481
    3.650      555
    3.680      541
    3.710      468
    3.740      497
    3.770      477
    3.800      507
    3.830      527
    3.860      511
    3.890      497
    3.920      476
    3.950      482
    3.980      470
    4.010      501
    4.040      520
    4.070      497
    4.100      500
    4.130      482
    4.160      490
    4.190      456
    4.220      498
    4.250      477
    4.280      525
    4.310      499
    4.340      486
    4.370      511
    4.400      475
    4.430      497
    4.460      489
    4.490      487
    4.520      484
    4.550      505
    4.580      500
    4.610      458
    4.640      486
    4.670      465
    4.700      476
    4.730      488
    4.760      492
    4.790      476
    4.820      497
    4.850      482
    4.880      459
    4.910      513
    4.940      495
    4.970      482
    5.000      490
    5.030      487
    5.060      468
    5.090      476
    5.120      489
    5.150      496
    5.180      474
    5.210      541
    5.240      504
    5.270      511
    5.300      545
    5.330      530
    5.360      539
    5.390      595
    5.420      545
    5.450      577
    5.480      546
    5.510      586
    5.540      619
    5.570      649
    5.600      619
    5.630      638
    5.660      673
    5.690      725
    5.720      832
    5.750      892
    5.780      925
    5.810     1181
    5.840     1332
    5.870     1342
    5.900      956
    5.930      630
    5.960      555
    5.990      561
    6.020      520
    6.050      478
    6.080      542
    6.110      466
    6.140      464
    6.170      467
    6.200      505
    6.230      487
    6.260      460
    6.290      474
    6.320      464
    6.350      452
    6.380      476
    6.410      505
    6.440      448
    6.470      462
    6.500      457
    6.530      456
    6.560      432
    6.590      467
    6.620      483
    6.650      493
    6.680      463
    6.710      485
    6.740      484
    6.770      477
    6.800      509
    6.830      489
    6.860      443
    6.890      467
    6.920      461
    6.950      443
    6.980      481
    7.010      491
    7.040      434
    7.070      470
    7.100      466
    7.130      540
    7.160      458
    7.190      457
    7.220      477
    7.250      482
    7.280      482
    7.310      461
    7.340      465
    7.370      464
    7.400      455
    7.430      460
    7.460      464
    7.490      470
    7.520      448
    7.550      467
    7.580      504
    7.610      468
    7.640      451
    7.670      449
    7.700      443
    7.730      494
    7.760      518
    7.790      487
    7.820      498
    7.850      520
    7.880      527
    7.910      530
    7.940      529
    7.970      540
    8.000      562
    8.030      596
    8.060      615
    8.090      628
    8.120      663
    8.150      727
    8.180      723
    8.210      815
    8.240      861
    8.270      929
    8.300     1028
    8.330     1194
    8.360     1453
    8.390     1703
    8.420     2136
    8.450     2632
    8.480     3155
    8.510     2711
    8.540     1707
    8.570      916
    8.600      609
    8.630      536
    8.660      517
    8.690      490
    8.720      522
    8.750      487
    8.780      472
    8.810      502
    8.840      501
    8.870      492
    8.900      488
    8.930      479
    8.960      471
    8.990      471
    9.020      502
    9.050      481
    9.080      526
    9.110      498
    9.140      481
    9.170      500
    9.200      533
    9.230      469
    9.260      489
    9.290      468
    9.320      526
    9.350      510
    9.380      519
    9.410      480
    9.440      504
    9.470      482
    9.500      524
    9.530      475
    9.560      490
    9.590      453
    9.620      499
    9.650      447
    9.680      491
    9.710      505
    9.740      484
    9.770      498
    9.800      526
    9.830      511
    9.860      494
    9.890      507
    9.920      529
    9.950      552
    9.980      531
   10.010      553
   10.040      570
   10.070      551
   10.100      591
   10.130      609
   10.160      691
   10.190      728
   10.220      817
   10.250      719
   10.280      680
   10.310      521
   10.340      529
   10.370      511
   10.400      486
   10.430      504
   10.460      502
   10.490      500
   10.520      531
   10.550      490
   10.580      495
   10.610      486
   10.640      508
   10.670      450
   10.700      491
   10.730      487
   10.760      497
   10.790      482
   10.820      470
   10.850      474
   10.880      489
   10.910      520
   10.940      523
   10.970      505
   11.000      479
   11.030      478
   11.060      501
   11.090      521
   11.120      445
   11.150      486
   11.180      491
   11.210      525
   11.240      476
   11.270      498
   11.300      499
   11.330      484
   11.360      462
   11.390      512
   11.420      523
   11.450      504
   11.480      470
   11.510      487
   11.540      480
   11.570      465
   11.600      526
   11.630      438
   11.660      495
   11.690      476
   11.720      555
   11.750      491
   11.780      486
   11.810      476
   11.840      471
   11.870      483
   11.900      482
   11.930      529
   11.960      467
   11.990      514
   12.020      565
   12.050      523
   12.080      504
   12.110      529
   12.140      491
   12.170      510
   12.200      557
   12.230      582
   12.260      568
   12.290      611
   12.320      539
   12.350      534
   12.380      553
   12.410      493
   12.440      494
   12.470      507
   12.500      477
   12.530      488
   12.560      491
   12.590      494
   12.620      509
   12.650      480
   12.680      507
   12.710      529
   12.740      539
   12.770      534
   12.800      537
   12.830      545
   12.860      517
   12.890      565
   12.920      510
   12.950      486
   12.980      503
   13.010      537
   13.040      544
   13.070      506
   13.100      507
   13.130      565
   13.160      493
   13.190      537
   13.220      557
   13.250      561
   13.280      609
   13.310      611
   13.340      614
   13.370      609
   13.400      537
   13.430      530
   13.460      525
   13.490      565
   13.520      560
   13.550      589
   13.580      550
   13.610      599
   13.640      555
   13.670      540
   13.700      553
   13.730      499
   13.760      585
   13.790      496
   13.820      535
   13.850      539
   13.880      503
   13.910      512
   13.940      536
   13.970      540
   14.000      520
   14.030      510
   14.060      544
   14.090      544
   14.120      536
   14.150      531
   14.180      551
   14.210      519
   14.240      559
   14.270      548
   14.300      524
   14.330      537
   14.360      523
   14.390      524
   14.420      534
   14.450      521
   14.480      519
   14.510      530
   14.540      508
   14.570      565
   14.600      513
   14.630      531
   14.660      507
   14.690      562
   14.720      521
   14.750      538
   14.780      535
   14.810      574
   14.840      528
   14.870      573
   14.900      539
   14.930      522
   14.960      558
   14.990      535
   15.020      538
   15.050      540
   15.080      567
   15.110      541
   15.140      539
   15.170      518
   15.200      571
   15.230      511
   15.260      564
   15.290      575
   15.320      579
   15.350      607
   15.380      569
   15.410      532
   15.440      598
   15.470      538
   15.500      591
   15.530      541
   15.560      542
   15.590      516
   15.620      592
   15.650      588
   15.680      591
   15.710      568
   15.740      586
   15.770      566
   15.800      574
   15.830      606
   15.860      620
   15.890      628
   15.920      680
   15.950      728
   15.980      743
   16.010      826
   16.040      852
   16.070      789
   16.100      725
   16.130      585
   16.160      626
   16.190      563
   16.220      571
   16.250      572
   16.280      612
   16.310      544
   16.340      600
   16.370      616
   16.400      583
   16.430      618
   16.460      603
   16.490      585
   16.520      603
   16.550      612
   16.580      566
   16.610      573
   16.640      605
   16.670      578
   16.700      561
   16.730      601
   16.760      637
   16.790      595
   16.820      644
   16.850      575
   16.880      678
   16.910      688
   16.940      733
   16.970      727
   17.000      747
   17.030      817
   17.060      860
   17.090      975
   17.120      884
   17.150      861
   17.180      736
   17.210      706
   17.240      627
   17.270      636
   17.300      649
   17.330      655
   17.360      627
   17.390      692
   17.420      647
   17.450      677
   17.480      655
   17.510      633
   17.540      674
   17.570      650
   17.600      616
   17.630      635
   17.660      670
   17.690      708
   17.720      690
   17.750      776
   17.780      693
   17.810      724
   17.840      757
   17.870      699
   17.900      658
   17.930      676
   17.960      651
   17.990      677
   18.020      691
   18.050      668
   18.080      704
   18.110      647
   18.140      653
   18.170      676
   18.200      704
   18.230      698
   18.260      672
   18.290      704
   18.320      666
   18.350      652
   18.380      734
   18.410      701
   18.440      660
   18.470      710
   18.500      667
   18.530      713
   18.560      706
   18.590      714
   18.620      707
   18.650      720
   18.680      706
   18.710      723
   18.740      760
   18.770      701
   18.800      782
   18.830      774
   18.860      768
   18.890      785
   18.920      812
   18.950      763
   18.980      757
   19.010      723
   19.040      749
   19.070      770
   19.100      820
   19.130      844
   19.160      699
   19.190      741
   19.220      796
   19.250      761
   19.280      766
   19.310      757
   19.340      758
   19.370      834
   19.400      778
   19.430      870
   19.460      895
   19.490      823
   19.520      831
   19.550      837
   19.580      782
   19.610      809
   19.640      818
   19.670      800
   19.700      770
   19.730      796
   19.760      877
   19.790      762
   19.820      793
   19.850      880
   19.880      829
   19.910      861
   19.940      881
   19.970      896
   20.000      902
   20.030      992
   20.060      871
   20.090      894
   20.120      835
   20.150      860
   20.180      801
   20.210      861
   20.240      837
   20.270      845
   20.300      886
   20.330      836
   20.360      841
   20.390      863
   20.420      888
   20.450      853
   20.480      848
   20.510      863
   20.540      883
   20.570      948
   20.600      827
   20.630      870
   20.660      861
   20.690      898
   20.720      890
   20.750      829
   20.780      822
   20.810      913
   20.840      898
   20.870      893
   20.900      934
   20.930      839
   20.960      945
   20.990      852
   21.020      899
   21.050      891
   21.080      997
   21.110      923
   21.140      893
   21.170      938
   21.200      955
   21.230      889
   21.260      966
   21.290      889
   21.320      958
   21.350      924
   21.380      879
   21.410      892
   21.440      936
   21.470      934
   21.500      971
   21.530      887
   21.560      901
   21.590      958
   21.620      973
   21.650      956
   21.680     1033
   21.710      911
   21.740      965
   21.770      913
   21.800      940
   21.830      960
   21.860      953
   21.890      961
   21.920      937
   21.950      978
   21.980      927
   22.010      963
   22.040      967
   22.070     1011
   22.100     1042
   22.130      956
   22.160      968
   22.190      935
   22.220      993
   22.250      974
   22.280     1071
   22.310      959
   22.340     1037
   22.370     1017
   22.400      980
   22.430     1020
   22.460      982
   22.490     1011
   22.520      988
   22.550     1012
   22.580      960
   22.610      954
   22.640     1037
   22.670      939
   22.700      901
   22.730     1027
   22.760     1014
   22.790      965
   22.820     1009
   22.850      953
   22.880      978
   22.910      993
   22.940     1024
   22.970      999
   23.000      988
   23.030     1013
   23.060     1005
   23.090      946
   23.120      938
   23.150     1026
   23.180     1011
   23.210     1039
   23.240     1034
   23.270     1043
   23.300     1027
   23.330      981
   23.360     1028
   23.390     1112
   23.420     1002
   23.450     1014
   23.480     1021
   23.510     1028
   23.540     1020
   23.570     1051
   23.600     1005
   23.630     1000
   23.660     1038
   23.690     1032
   23.720     1149
   23.750     1152
   23.780     1093
   23.810     1160
   23.840     1166
   23.870     1171
   23.900     1085
   23.930     1184
   23.960     1082
   23.990     1119
   24.020     1259
   24.050     1297
   24.080     1382
   24.110     1287
   24.140     1179
   24.170     1173
   24.200     1102
   24.230     1110
   24.260     1147
   24.290     1192
   24.320     1313
   24.350     1354
   24.380     1438
   24.410     1444
   24.440     1239
   24.470     1184
   24.500     1111
   24.530     1088
   24.560     1089
   24.590     1138
   24.620     1184
   24.650     1147
   24.680     1201
   24.710     1173
   24.740     1134
   24.770     1124
   24.800     1163
   24.830     1181
   24.860     1135
   24.890     1229
   24.920     1115
   24.950     1122
   24.980     1165
   25.010     1117
   25.040     1083
   25.070     1131
   25.100     1108
   25.130     1197
   25.160     1077
   25.190     1162
   25.220     1089
   25.250     1070
   25.280     1144
   25.310     1097
   25.340     1085
   25.370     1118
   25.400     1098
   25.430     1176
   25.460     1185
   25.490     1072
   25.520     1150
   25.550     1208
   25.580     1152
   25.610     1193
   25.640     1160
   25.670     1176
   25.700     1245
   25.730     1263
   25.760     1461
   25.790     1454
   25.820     1585
   25.850     1637
   25.880     1379
   25.910     1267
   25.940     1236
   25.970     1175
   26.000     1153
   26.030     1201
   26.060     1146
   26.090     1220
   26.120     1158
   26.150     1262
   26.180     1139
   26.210     1196
   26.240     1151
   26.270     1185
   26.300     1147
   26.330     1193
   26.360     1158
   26.390     1202
   26.420     1246
   26.450     1205
   26.480     1179
   26.510     1156
   26.540     1161
   26.570     1192
   26.600     1165
   26.630     1172
   26.660     1161
   26.690     1224
   26.720     1253
   26.750     1148
   26.780     1135
   26.810     1195
   26.840     1181
   26.870     1241
   26.900     1178
   26.930     1195
   26.960     1228
   26.990     1206
   27.020     1249
   27.050     1257
   27.080     1286
   27.110     1184
   27.140     1178
   27.170     1167
   27.200     1201
   27.230     1206
   27.260     1347
   27.290     1244
   27.320     1198
   27.350     1219
   27.380     1204
   27.410     1231
   27.440     1262
   27.470     1175
   27.500     1221
   27.530     1201
   27.560     1165
   27.590     1176
   27.620     1298
   27.650     1193
   27.680     1289
   27.710     1243
   27.740     1202
   27.770     1115
   27.800     1240
   27.830     1224
   27.860     1163
   27.890     1198
   27.920     1203
   27.950     1225
   27.980     1178
   28.010     1235
   28.040     1222
   28.070     1176
   28.100     1307
   28.130     1184
   28.160     1192
   28.190     1196
   28.220     1271
   28.250     1193
   28.280     1216
   28.310     1179
   28.340     1243
   28.370     1233
   28.400     1207
   28.430     1270
   28.460     1251
   28.490     1293
   28.520     1254
   28.550     1310
   28.580     1224
   28.610     1207
   28.640     1221
   28.670     1144
   28.700     1202
   28.730     1170
   28.760     1220
   28.790     1155
   28.820     1206
   28.850     1148
   28.880     1209
   28.910     1198
   28.940     1210
   28.970     1174
   29.000     1203
   29.030     1146
   29.060     1201
   29.090     1158
   29.120     1116
   29.150     1207
   29.180     1162
   29.210     1188
   29.240     1131
   29.270     1230
   29.300     1217
   29.330     1193
   29.360     1180
   29.390     1235
   29.420     1117
   29.450     1145
   29.480     1114
   29.510     1155
   29.540     1197
   29.570     1150
   29.600     1137
   29.630     1149
   29.660     1132
   29.690     1095
   29.720     1209
   29.750     1168
   29.780     1151
   29.810     1157
   29.840     1186
   29.870     1146
   29.900     1110
   29.930     1137
   29.960     1112
   29.990     1167
   30.020     1189
   30.050     1121
   30.080     1125
   30.110     1131
   30.140     1114
   30.170     1155
   30.200     1091
   30.230     1192
   30.260     1078
   30.290     1144
   30.320     1072
   30.350     1061
   30.380     1125
   30.410     1090
   30.440     1100
   30.470     1095
   30.500     1127
   30.530     1102
   30.560     1127
   30.590     1156
   30.620     1219
   30.650     1165
   30.680     1201
   30.710     1174
   30.740     1164
   30.770     1156
   30.800     1115
   30.830     1086
   30.860     1129
   30.890     1112
   30.920     1107
   30.950     1132
   30.980     1122
   31.010     1165
   31.040     1076
   31.070     1101
   31.100     1108
   31.130     1109
   31.160      994
   31.190     1143
   31.220     1051
   31.250     1066
   31.280     1024
   31.310      939
   31.340      998
   31.370     1109
   31.400     1062
   31.430     1059
   31.460     1135
   31.490      996
   31.520     1076
   31.550     1074
   31.580     1069
   31.610     1064
   31.640     1026
   31.670     1117
   31.700     1133
   31.730     1061
   31.760     1173
   31.790     1079
   31.820     1146
   31.850     1076
   31.880      992
   31.910     1014
   31.940     1028
   31.970     1021
   32.000     1069
   32.030     1057
   32.060     1013
   32.090     1029
   32.120      956
   32.150     1032
   32.180     1000
   32.210     1035
   32.240      998
   32.270     1014
   32.300      932
   32.330     1006
   32.360     1087
   32.390     1077
   32.420     1084
   32.450     1135
   32.480     1111
   32.510     1072
   32.540     1074
   32.570     1101
   32.600      956
   32.630      980
   32.660      998
   32.690      988
   32.720      998
   32.750      942
   32.780      916
   32.810      982
   32.840      999
   32.870      989
   32.900     1002
   32.930      958
   32.960     1058
   32.990      982
   33.020     1015
   33.050     1079
   33.080     1060
   33.110     1019
   33.140      964
   33.170     1028
   33.200     1017
   33.230      957
   33.260     1051
   33.290     1002
   33.320     1058
   33.350      991
   33.380      917
   33.410      918
   33.440     1039
   33.470      937
   33.500     1030
   33.530      946
   33.560      927
   33.590      899
   33.620      930
   33.650      920
   33.680      961
   33.710      929
   33.740      916
   33.770      880
   33.800      913
   33.830      974
   33.860      957
   33.890      941
   33.920      913
   33.950      942
   33.980      911
   34.010      927
   34.040      893
   34.070      917
   34.100      978
   34.130      861
   34.160      927
   34.190      848
   34.220      906
   34.250      901
   34.280      937
   34.310      846
   34.340      931
   34.370      882
   34.400      908
   34.430      936
   34.460      937
   34.490      927
   34.520      910
   34.550      912
   34.580      884
   34.610      863
   34.640      907
   34.670      846
   34.700      903
   34.730      885
   34.760      894
   34.790      836
   34.820      937
   34.850      872
   34.880      884
   34.910      900
   34.940      894
   34.970      857
   35.000      908
   35.030      896
   35.060      868
   35.090      866
   35.120      840
   35.150      877
   35.180      845
   35.210      885
   35.240      859
   35.270      833
   35.300      844
   35.330      840
   35.360      859
   35.390      932
   35.420      855
   35.450      878
   35.480      841
   35.510      961
   35.540      912
   35.570      866
   35.600      876
   35.630      838
   35.660      850
   35.690      826
   35.720      934
   35.750      913
   35.780      848
   35.810      871
   35.840      896
   35.870      862
   35.900      864
   35.930      831
   35.960      855
   35.990      829
   36.020      890
   36.050      795
   36.080      830
   36.110      818
   36.140      835
   36.170      824
   36.200      845
   36.230      852
   36.260      803
   36.290      802
   36.320      824
   36.350      778
   36.380      821
   36.410      826
   36.440      776
   36.470      809
   36.500      782
   36.530      828
   36.560      780
   36.590      797
   36.620      810
   36.650      790
   36.680      844
   36.710      787
   36.740      873
   36.770      830
   36.800      884
   36.830      839
   36.860      827
   36.890      843
   36.920      855
   36.950      828
   36.980      836
   37.010      805
   37.040      841
   37.070      834
   37.100      826
   37.130      855
   37.160      755
   37.190      827
   37.220      781
   37.250      828
   37.280      844
   37.310      801
   37.340      770
   37.370      794
   37.400      779
   37.430      793
   37.460      792
   37.490      797
   37.520      799
   37.550      858
   37.580      855
   37.610      822
   37.640      793
   37.670      770
   37.700      803
   37.730      736
   37.760      794
   37.790      737
   37.820      849
   37.850      834
   37.880      785
   37.910      830
   37.940      811
   37.970      769
   38.000      809
   38.030      822
   38.060      817
   38.090      803
   38.120      822
   38.150      807
   38.180      815
   38.210      823
   38.240      780
   38.270      802
   38.300      802
   38.330      812
   38.360      828
   38.390      830
   38.420      828
   38.450      784
   38.480      793
   38.510      759
   38.540      776
   38.570      810
   38.600      717
   38.630      789
   38.660      746
   38.690      800
   38.720      787
   38.750      760
   38.780      725
   38.810      795
   38.840      780
   38.870      846
   38.900      806
   38.930      803
   38.960      775
   38.990      711
   39.020      759
   39.050      846
   39.080      782
   39.110      773
   39.140      750
   39.170      793
   39.200      814
   39.230      754
   39.260      834
   39.290      785
   39.320      822
   39.350      832
   39.380      737
   39.410      759
   39.440      846
   39.470      765
   39.500      818
   39.530      767
   39.560      702
   39.590      777
   39.620      851
   39.650      733
   39.680      860
   39.710      791
   39.740      820
   39.770      727
   39.800      787
   39.830      786
   39.860      786
   39.890      815
   39.920      766
   39.950      774
   39.980      755
   40.010      778
   40.040      762
   40.070      805
   40.100      784
   40.130      757
   40.160      759
   40.190      763
   40.220      765
   40.250      757
   40.280      841
   40.310      737
   40.340      748
   40.370      798
   40.400      750
   40.430      806
   40.460      740
   40.490      752
   40.520      761
   40.550      765
   40.580      794
   40.610      759
   40.640      757
   40.670      780
   40.700      789
   40.730      822
   40.760      835
   40.790      791
   40.820      786
   40.850      767
   40.880      785
   40.910      808
   40.940      808
   40.970      797
   41.000      758
   41.030      791
   41.060      810
   41.090      748
   41.120      714
   41.150      804
   41.180      773
   41.210      792
   41.240      728
   41.270      779
   41.300      761
   41.330      750
   41.360      755
   41.390      798
   41.420      739
   41.450      765
   41.480      689
   41.510      731
   41.540      770
   41.570      758
   41.600      712
   41.630      710
   41.660      720
   41.690      727
   41.720      804
   41.750      768
   41.780      721
   41.810      730
   41.840      704
   41.870      795
   41.900      709
   41.930      775
   41.960      789
   41.990      810
   42.020      810
   42.050      787
   42.080      767
   42.110      752
   42.140      758
   42.170      765
   42.200      790
   42.230      762
   42.260      719
   42.290      726
   42.320      719
   42.350      726
   42.380      780
   42.410      768
   42.440      722
   42.470      749
   42.500      720
   42.530      698
   42.560      717
   42.590      697
   42.620      711
   42.650      726
   42.680      673
   42.710      698
   42.740      677
   42.770      741
   42.800      712
   42.830      763
   42.860      750
   42.890      753
   42.920      756
   42.950      786
   42.980      761
   43.010      739
   43.040      694
   43.070      722
   43.100      740
   43.130      728
   43.160      650
   43.190      721
   43.220      726
   43.250      709
   43.280      702
   43.310      641
   43.340      654
   43.370      676
   43.400      658
   43.430      728
   43.460      703
   43.490      659
   43.520      710
   43.550      719
   43.580      685
   43.610      686
   43.640      667
   43.670      689
   43.700      731
   43.730      697
   43.760      821
   43.790      657
   43.820      759
   43.850      751
   43.880      686
   43.910      724
   43.940      698
   43.970      677
   43.985      641