File: data/MIL-88B_101/PXRD/PXRD_MIL-53-Water_Cu-Kα1_capillary-0.7mm.xyd
    2.000       76
    2.030       62
    2.060       90
    2.090       73
    2.120       74
    2.150       80
    2.180       64
    2.210       61
    2.240       67
    2.270       72
    2.300       79
    2.330       64
    2.360       68
    2.390       61
    2.420       71
    2.450       69
    2.480       72
    2.510       74
    2.540       70
    2.570       72
    2.600       63
    2.630       77
    2.660       67
    2.690       80
    2.720       62
    2.750       72
    2.780       56
    2.810       80
    2.840       74
    2.870       63
    2.900       66
    2.930       79
    2.960       61
    2.990       72
    3.020       80
    3.050       70
    3.080       64
    3.110       66
    3.140       71
    3.170       71
    3.200       75
    3.230       79
    3.260       84
    3.290       65
    3.320       80
    3.350       61
    3.380       77
    3.410       63
    3.440       79
    3.470       56
    3.500       71
    3.530       67
    3.560       68
    3.590       57
    3.620       72
    3.650       72
    3.680       75
    3.710       79
    3.740       69
    3.770       61
    3.800       67
    3.830       76
    3.860       68
    3.890       65
    3.920       67
    3.950       55
    3.980       80
    4.010       79
    4.040       60
    4.070       65
    4.100       71
    4.130       62
    4.160       86
    4.190       67
    4.220       72
    4.250       68
    4.280       68
    4.310       67
    4.340       75
    4.370       55
    4.400       77
    4.430       68
    4.460       66
    4.490       60
    4.520       69
    4.550       63
    4.580       74
    4.610       70
    4.640       82
    4.670       65
    4.700       76
    4.730       72
    4.760       82
    4.790       69
    4.820       74
    4.850       61
    4.880       66
    4.910       75
    4.940       60
    4.970       73
    5.000       60
    5.030       66
    5.060       62
    5.090       70
    5.120       73
    5.150       61
    5.180       57
    5.210       74
    5.240       63
    5.270       58
    5.300       54
    5.330       67
    5.360       73
    5.390       78
    5.420       67
    5.450       70
    5.480       67
    5.510       72
    5.540       69
    5.570       76
    5.600       58
    5.630       60
    5.660       77
    5.690       55
    5.720       75
    5.750       67
    5.780       70
    5.810       72
    5.840       75
    5.870       63
    5.900       60
    5.930       60
    5.960       68
    5.990       78
    6.020       64
    6.050       65
    6.080       69
    6.110       68
    6.140       65
    6.170       54
    6.200       62
    6.230       68
    6.260       59
    6.290       69
    6.320       67
    6.350       64
    6.380       58
    6.410       71
    6.440       65
    6.470       49
    6.500       62
    6.530       66
    6.560       60
    6.590       65
    6.620       71
    6.650       69
    6.680       52
    6.710       71
    6.740       56
    6.770       73
    6.800       64
    6.830       69
    6.860       61
    6.890       76
    6.920       74
    6.950       61
    6.980       64
    7.010       60
    7.040       65
    7.070       70
    7.100       72
    7.130       58
    7.160       64
    7.190       72
    7.220       55
    7.250       56
    7.280       63
    7.310       63
    7.340       65
    7.370       69
    7.400       64
    7.430       62
    7.460       63
    7.490       64
    7.520       63
    7.550       57
    7.580       59
    7.610       73
    7.640       68
    7.670       69
    7.700       76
    7.730       64
    7.760       62
    7.790       57
    7.820       58
    7.850       63
    7.880       62
    7.910       71
    7.940       71
    7.970       66
    8.000       66
    8.030       77
    8.060       72
    8.090       51
    8.120       75
    8.150       66
    8.180       62
    8.210       70
    8.240       67
    8.270       65
    8.300       70
    8.330       65
    8.360       71
    8.390       56
    8.420       74
    8.450       70
    8.480       67
    8.510       58
    8.540       61
    8.570       75
    8.600       79
    8.630       69
    8.660       75
    8.690       73
    8.720       65
    8.750       56
    8.780       72
    8.810       75
    8.840       84
    8.870       79
    8.900       95
    8.930       93
    8.960       98
    8.990      123
    9.020      154
    9.050      205
    9.080      262
    9.110      437
    9.140      466
    9.170      287
    9.200       91
    9.230       68
    9.260       70
    9.290       84
    9.320       76
    9.350       59
    9.380       51
    9.410       73
    9.440       65
    9.470       72
    9.500       61
    9.530       94
    9.560       66
    9.590       67
    9.620       73
    9.650       68
    9.680       74
    9.710       74
    9.740       83
    9.770       53
    9.800       53
    9.830       71
    9.860       77
    9.890       62
    9.920       71
    9.950       59
    9.980       61
   10.010       69
   10.040       77
   10.070       62
   10.100       54
   10.130       58
   10.160       57
   10.190       60
   10.220       78
   10.250       63
   10.280       73
   10.310       68
   10.340       74
   10.370       54
   10.400       68
   10.430       70
   10.460       66
   10.490       67
   10.520       53
   10.550       71
   10.580       69
   10.610       76
   10.640       64
   10.670       71
   10.700       65
   10.730       66
   10.760       59
   10.790       62
   10.820       55
   10.850       57
   10.880       64
   10.910       67
   10.940       70
   10.970       70
   11.000       67
   11.030       73
   11.060       76
   11.090       71
   11.120       56
   11.150       57
   11.180       59
   11.210       63
   11.240       62
   11.270       67
   11.300       66
   11.330       66
   11.360       64
   11.390       72
   11.420       57
   11.450       82
   11.480       56
   11.510       64
   11.540       71
   11.570       53
   11.600       58
   11.630       65
   11.660       80
   11.690       80
   11.720       81
   11.750       77
   11.780       77
   11.810       73
   11.840       90
   11.870      103
   11.900       86
   11.930      105
   11.960      116
   11.990      137
   12.020      155
   12.050      190
   12.080      260
   12.110      298
   12.140      278
   12.170      259
   12.200      213
   12.230      165
   12.260      121
   12.290      122
   12.320      107
   12.350       91
   12.380      105
   12.410       97
   12.440       86
   12.470       85
   12.500       77
   12.530       75
   12.560       81
   12.590       80
   12.620       77
   12.650       70
   12.680       67
   12.710       61
   12.740       58
   12.770       78
   12.800       72
   12.830       70
   12.860       59
   12.890       69
   12.920       67
   12.950       63
   12.980       62
   13.010       66
   13.040       72
   13.070       63
   13.100       68
   13.130       80
   13.160       48
   13.190       68
   13.220       58
   13.250       62
   13.280       72
   13.310       53
   13.340       54
   13.370       62
   13.400       73
   13.430       60
   13.460       78
   13.490       57
   13.520       53
   13.550       72
   13.580       63
   13.610       58
   13.640       65
   13.670       58
   13.700       54
   13.730       54
   13.760       79
   13.790       59
   13.820       57
   13.850       61
   13.880       55
   13.910       63
   13.940       60
   13.970       62
   14.000       69
   14.030       63
   14.060       75
   14.090       50
   14.120       65
   14.150       68
   14.180       47
   14.210       64
   14.240       60
   14.270       47
   14.300       60
   14.330       59
   14.360       60
   14.390       72
   14.420       67
   14.450       56
   14.480       65
   14.510       61
   14.540       63
   14.570       81
   14.600       67
   14.630       63
   14.660       58
   14.690       85
   14.720       56
   14.750       63
   14.780       52
   14.810       64
   14.840       63
   14.870       64
   14.900       64
   14.930       72
   14.960       58
   14.990       60
   15.020       61
   15.050       83
   15.080       69
   15.110       63
   15.140       60
   15.170       64
   15.200       68
   15.230       72
   15.260       69
   15.290       59
   15.320       71
   15.350       56
   15.380       58
   15.410       57
   15.440       84
   15.470       66
   15.500       71
   15.530       61
   15.560       77
   15.590       73
   15.620       78
   15.650       62
   15.680       73
   15.710       55
   15.740       74
   15.770       69
   15.800       61
   15.830       61
   15.860       60
   15.890       66
   15.920       58
   15.950       78
   15.980       64
   16.010       61
   16.040       60
   16.070       58
   16.100       78
   16.130       67
   16.160       68
   16.190       69
   16.220       54
   16.250       71
   16.280       68
   16.310       59
   16.340       65
   16.370       70
   16.400       62
   16.430       74
   16.460       70
   16.490       79
   16.520       65
   16.550       73
   16.580       66
   16.610       69
   16.640       80
   16.670       61
   16.700       72
   16.730       75
   16.760       68
   16.790       68
   16.820       79
   16.850       72
   16.880       82
   16.910       77
   16.940       84
   16.970       88
   17.000       89
   17.030       98
   17.060      113
   17.090      127
   17.120      132
   17.150      147
   17.180      144
   17.210      149
   17.240      130
   17.270      110
   17.300       97
   17.330       89
   17.360       95
   17.390      104
   17.420       77
   17.450       79
   17.480       71
   17.510       68
   17.540       61
   17.570       78
   17.600       80
   17.630       64
   17.660       62
   17.690       69
   17.720       81
   17.750       83
   17.780       94
   17.810       98
   17.840      106
   17.870       91
   17.900      103
   17.930       97
   17.960       86
   17.990       86
   18.020       80
   18.050       70
   18.080       73
   18.110       79
   18.140       76
   18.170       84
   18.200       62
   18.230       73
   18.260       65
   18.290       73
   18.320       86
   18.350      109
   18.380      127
   18.410      144
   18.440      108
   18.470       81
   18.500       84
   18.530       78
   18.560       81
   18.590       70
   18.620       83
   18.650       73
   18.680       65
   18.710       62
   18.740       67
   18.770       76
   18.800       78
   18.830       80
   18.860       84
   18.890       84
   18.920       79
   18.950       82
   18.980       85
   19.010       84
   19.040       68
   19.070       81
   19.100       83
   19.130       74
   19.160       68
   19.190       72
   19.220       64
   19.250       75
   19.280       81
   19.310       86
   19.340       80
   19.370       88
   19.400       83
   19.430       64
   19.460       71
   19.490       75
   19.520       74
   19.550       65
   19.580       82
   19.610       80
   19.640       68
   19.670       85
   19.700       75
   19.730       77
   19.760       85
   19.790       71
   19.820       80
   19.850       85
   19.880       75
   19.910       70
   19.940       86
   19.970       89
   20.000       99
   20.030       96
   20.060       78
   20.090       89
   20.120       92
   20.150      102
   20.180       76
   20.210       77
   20.240       86
   20.270       74
   20.300       88
   20.330       83
   20.360       83
   20.390       78
   20.420       78
   20.450       85
   20.480       84
   20.510       81
   20.540       76
   20.570       81
   20.600       80
   20.630       87
   20.660       86
   20.690       79
   20.720       82
   20.750       81
   20.780       74
   20.810       79
   20.840       79
   20.870       80
   20.900       75
   20.930       76
   20.960       78
   20.990       81
   21.020       79
   21.050       84
   21.080       99
   21.110       88
   21.140       68
   21.170       75
   21.200       77
   21.230       79
   21.260       95
   21.290       97
   21.320       83
   21.350       99
   21.380       75
   21.410       83
   21.440       88
   21.470       88
   21.500       73
   21.530       94
   21.560       99
   21.590       81
   21.620       88
   21.650       91
   21.680       86
   21.710       93
   21.740       87
   21.770       76
   21.800       87
   21.830       92
   21.860       87
   21.890      107
   21.920       84
   21.950       81
   21.980       85
   22.010      108
   22.040       83
   22.070       80
   22.100       87
   22.130      100
   22.160       80
   22.190       97
   22.220       77
   22.250      100
   22.280      106
   22.310       98
   22.340       89
   22.370       92
   22.400       84
   22.430       90
   22.460       91
   22.490       93
   22.520       94
   22.550       88
   22.580       87
   22.610       88
   22.640       93
   22.670       87
   22.700       95
   22.730       94
   22.760       80
   22.790       92
   22.820       97
   22.850       99
   22.880       95
   22.910       98
   22.940      112
   22.970       90
   23.000       95
   23.030      101
   23.060       95
   23.090      103
   23.120       92
   23.150       91
   23.180       96
   23.210      108
   23.240      101
   23.270      102
   23.300      108
   23.330       97
   23.360      106
   23.390      100
   23.420      109
   23.450       92
   23.480      103
   23.510       99
   23.540       96
   23.570      104
   23.600      108
   23.630       98
   23.660       98
   23.690       92
   23.720      111
   23.750      121
   23.780      111
   23.810      132
   23.840      102
   23.870      118
   23.900       98
   23.930       93
   23.960      109
   23.990      117
   24.020      121
   24.050       97
   24.080      105
   24.110      114
   24.140       97
   24.170       99
   24.200      107
   24.230      108
   24.260      105
   24.290      120
   24.320      131
   24.350      113
   24.380      125
   24.410      134
   24.440      132
   24.470      141
   24.500      127
   24.530      118
   24.560      128
   24.590      129
   24.620      125
   24.650      116
   24.680      117
   24.710      127
   24.740      103
   24.770      124
   24.800      135
   24.830      132
   24.860      125
   24.890      125
   24.920      129
   24.950      114
   24.980       99
   25.010      105
   25.040      125
   25.070      138
   25.100      132
   25.130       97
   25.160      129
   25.190      119
   25.220      101
   25.250      111
   25.280      140
   25.310      103
   25.340      117
   25.370      116
   25.400      118
   25.430      117
   25.460      126
   25.490      114
   25.520      115
   25.550      113
   25.580      125
   25.610      105
   25.640      115
   25.670      108
   25.700      122
   25.730      117
   25.760      136
   25.790      118
   25.820      132
   25.850      113
   25.880      111
   25.910      110
   25.940      113
   25.970      128
   26.000      128
   26.030      132
   26.060      117
   26.090      135
   26.120      128
   26.150      114
   26.180      105
   26.210      122
   26.240      138
   26.270      149
   26.300      127
   26.330      127
   26.360      135
   26.390      146
   26.420      113
   26.450      132
   26.480      137
   26.510      122
   26.540      121
   26.570      116
   26.600      116
   26.630      117
   26.660      120
   26.690      136
   26.720      120
   26.750      132
   26.780      132
   26.810      111
   26.840      117
   26.870      130
   26.900      117
   26.930      127
   26.960      139
   26.990      122
   27.020      128
   27.050      134
   27.080      147
   27.110      134
   27.140      125
   27.170      105
   27.200      113
   27.230      119
   27.260      138
   27.290      123
   27.320      121
   27.350      139
   27.380      134
   27.410      126
   27.440      112
   27.470      121
   27.500      133
   27.530      113
   27.560      107
   27.590      116
   27.620      131
   27.650      124
   27.680      140
   27.710      117
   27.740      117
   27.770      136
   27.800      117
   27.830      133
   27.860      127
   27.890      140
   27.920      123
   27.950      109
   27.980      140
   28.010      153
   28.040      132
   28.070      124
   28.100      130
   28.130      122
   28.160      113
   28.190      112
   28.220      130
   28.250      122
   28.280      123
   28.310      123
   28.340      136
   28.370      132
   28.400      139
   28.430      148
   28.460      135
   28.490      137
   28.520      129
   28.550      144
   28.580      134
   28.610      128
   28.640      134
   28.670      124
   28.700      119
   28.730      128
   28.760      128
   28.790      105
   28.820      122
   28.850      141
   28.880      123
   28.910      131
   28.940      141
   28.970      122
   29.000      129
   29.030      130
   29.060      120
   29.090      126
   29.120      118
   29.150      113
   29.180      124
   29.210      127
   29.240      127
   29.270      143
   29.300      132
   29.330      149
   29.360      141
   29.390      143
   29.420      125
   29.450      126
   29.480      125
   29.510      127
   29.540      137
   29.570      147
   29.600      124
   29.630      107
   29.660      116
   29.690      117
   29.720      116
   29.750      150
   29.780      115
   29.810      136
   29.840      126
   29.870      121
   29.900      121
   29.930      117
   29.960      121
   29.990      115
   30.020      119
   30.050      110
   30.080      109
   30.110      122
   30.140      121
   30.170      116
   30.200      113
   30.230      116
   30.260      110
   30.290      136
   30.320      119
   30.350      113
   30.380      131
   30.410      112
   30.440      106
   30.470      118
   30.500      137
   30.530      135
   30.560      119
   30.590      132
   30.620      146
   30.650      115
   30.680      108
   30.710      125
   30.740      105
   30.770      127
   30.800      122
   30.830       96
   30.860      132
   30.890      123
   30.920      111
   30.950      126
   30.980      105
   31.010      108
   31.040      119
   31.070      117
   31.100      119
   31.130      116
   31.160      112
   31.190      130
   31.220       93
   31.250      114
   31.280      133
   31.310      118
   31.340      114
   31.370      123
   31.400      114
   31.430      131
   31.460      102
   31.490       99
   31.520      113
   31.550      134
   31.580      118
   31.610       98
   31.640       94
   31.670      134
   31.700      138
   31.730      121
   31.760      123
   31.790      120
   31.820      113
   31.850      101
   31.880       98
   31.910      108
   31.940      102
   31.970      111
   32.000      107
   32.030      106
   32.060      114
   32.090      102
   32.120       95
   32.150      102
   32.180      100
   32.210      110
   32.240      127
   32.270      104
   32.300      122
   32.330       98
   32.360      112
   32.390      104
   32.420      116
   32.450      114
   32.480      100
   32.510       95
   32.540       94
   32.570      115
   32.600      100
   32.630      104
   32.660       99
   32.690      116
   32.720       99
   32.750      106
   32.780      117
   32.810      115
   32.840      130
   32.870      110
   32.900      108
   32.930      127
   32.960      109
   32.990      102
   33.020      114
   33.050      109
   33.080      108
   33.110      128
   33.140      101
   33.170      115
   33.200      109
   33.230      104
   33.260      105
   33.290      118
   33.320       92
   33.350      110
   33.380       88
   33.410       85
   33.440       84
   33.470      107
   33.500       94
   33.530       98
   33.560       93
   33.590       98
   33.620      107
   33.650       95
   33.680      113
   33.710      101
   33.740      108
   33.770      105
   33.800      108
   33.830      102
   33.860       90
   33.890       86
   33.920       86
   33.950       93
   33.980       92
   34.010       99
   34.040       91
   34.070       99
   34.100      120
   34.130       91
   34.160       92
   34.190      100
   34.220       88
   34.250       95
   34.280      107
   34.310      114
   34.340      102
   34.370      106
   34.400      102
   34.430      128
   34.460      106
   34.490       99
   34.520      102
   34.550      114
   34.580       96
   34.610       97
   34.640       99
   34.670       97
   34.700      112
   34.730      108
   34.760       92
   34.790      107
   34.820       94
   34.850      100
   34.880      114
   34.910      100
   34.940      100
   34.970      111
   35.000      100
   35.030      109
   35.060       99
   35.090       94
   35.120       97
   35.150       96
   35.180       93
   35.210      102
   35.240       81
   35.270       89
   35.300      106
   35.330      114
   35.360       94
   35.390       89
   35.420       88
   35.450      102
   35.480       92
   35.510       93
   35.540       97
   35.570       96
   35.600       92
   35.630       88
   35.660       87
   35.690       99
   35.720       95
   35.750       83
   35.780       86
   35.810       93
   35.840      106
   35.870       85
   35.900       98
   35.930       80
   35.960       86
   35.990      100
   36.020       90
   36.050       90
   36.080       88
   36.110       99
   36.140       99
   36.170       97
   36.200      102
   36.230       98
   36.260       91
   36.290      100
   36.320       96
   36.350       97
   36.380      105
   36.410       90
   36.440       85
   36.470       97
   36.500       97
   36.530       94
   36.560      113
   36.590      101
   36.620       88
   36.650       84
   36.680       91
   36.710       94
   36.740       89
   36.770       94
   36.800      100
   36.830       95
   36.860       96
   36.890       96
   36.920       88
   36.950       94
   36.980       92
   37.010       97
   37.040       93
   37.070       98
   37.100       92
   37.130       98
   37.160       82
   37.190       86
   37.220       86
   37.250       84
   37.280      110
   37.310       97
   37.340       90
   37.370       85
   37.400       86
   37.430      108
   37.460       97
   37.490       86
   37.520       91
   37.550       91
   37.580       98
   37.610       95
   37.640       96
   37.670       85
   37.700      103
   37.730       90
   37.760      100
   37.790       81
   37.820       95
   37.850       79
   37.880       92
   37.910       92
   37.940       92
   37.970       97
   38.000      101
   38.030       85
   38.060       79
   38.090       87
   38.120       80
   38.150       90
   38.180       82
   38.210       98
   38.240       82
   38.270       81
   38.300       88
   38.330       77
   38.360       81
   38.390       84
   38.420       91
   38.450       85
   38.480       86
   38.510       79
   38.540       97
   38.570       81
   38.600       99
   38.630       99
   38.660       81
   38.690       76
   38.720       78
   38.750       83
   38.780       77
   38.810       70
   38.840       90
   38.870       84
   38.900       87
   38.930       85
   38.960       84
   38.990       93
   39.020       95
   39.050       83
   39.080       90
   39.110       71
   39.140       75
   39.170       88
   39.200       97
   39.230       87
   39.260       85
   39.290       84
   39.320       83
   39.350       83
   39.380       87
   39.410       81
   39.440       78
   39.470       80
   39.500       91
   39.530       60
   39.560       91
   39.590       90
   39.620       92
   39.650       75
   39.680       89
   39.710       81
   39.740       96
   39.770       90
   39.800       86
   39.830       77
   39.860       88
   39.890       82
   39.920       95
   39.950       97
   39.980       79
   40.010       84
   40.040       78
   40.070       79
   40.100      123
   40.130       95
   40.160       91
   40.190       92
   40.220       95
   40.250       92
   40.280       91
   40.310       80
   40.340       89
   40.370      108
   40.400       79
   40.430       86
   40.460       77
   40.490      101
   40.520       82
   40.550       85
   40.580       86
   40.610       97
   40.640       93
   40.670       84
   40.700       83
   40.730       84
   40.760       91
   40.790       77
   40.820       91
   40.850       83
   40.880       84
   40.910       81
   40.940       86
   40.970       80
   41.000      104
   41.030       83
   41.060      101
   41.090       99
   41.120       84
   41.150       88
   41.180       82
   41.210       96
   41.240       88
   41.270       87
   41.300       89
   41.330      102
   41.360       78
   41.390       96
   41.420       89
   41.450       96
   41.480       66
   41.510       90
   41.540       84
   41.570       81
   41.600       77
   41.630       99
   41.660       66
   41.690       88
   41.720      101
   41.750      103
   41.780       89
   41.810       88
   41.840       87
   41.870       71
   41.900       90
   41.930       86
   41.960       84
   41.990       86
   42.020       99
   42.050       84
   42.080       90
   42.110       88
   42.140       76
   42.170       88
   42.200       82
   42.230       81
   42.260       91
   42.290       85
   42.320       74
   42.350       91
   42.380       86
   42.410       73
   42.440       78
   42.470       77
   42.500       78
   42.530       82
   42.560       86
   42.590       89
   42.620       89
   42.650       64
   42.680       69
   42.710       77
   42.740       82
   42.770       84
   42.800       75
   42.830       73
   42.860       82
   42.890       90
   42.920       96
   42.950       71
   42.980      104
   43.010       72
   43.040       82
   43.070       88
   43.100       80
   43.130       75
   43.160       71
   43.190       79
   43.220       81
   43.250       83
   43.280       85
   43.310       85
   43.340       79
   43.370       87
   43.400       79
   43.430       92
   43.460       81
   43.490       75
   43.520       81
   43.550       70
   43.580       72
   43.610       83
   43.640       83
   43.670       79
   43.700       82
   43.730       83
   43.760       79
   43.790       86
   43.820       99
   43.850      102
   43.880       90
   43.910       94
   43.940       89
   43.970       88
   43.985       97