File: data/MIL-88B_101/PXRD/PXRD_S-16_Cu-Kα1_capillary-0.7mm.xyd
    2.000     1220
    2.030     1325
    2.060     1264
    2.090     1268
    2.120     1264
    2.150     1340
    2.180     1265
    2.210     1316
    2.240     1350
    2.270     1305
    2.300     1299
    2.330     1388
    2.360     1371
    2.390     1427
    2.420     1450
    2.450     1479
    2.480     1402
    2.510     1421
    2.540     1499
    2.570     1531
    2.600     1574
    2.630     1644
    2.660     1795
    2.690     1941
    2.720     1935
    2.750     1609
    2.780     1454
    2.810     1489
    2.840     1416
    2.870     1493
    2.900     1554
    2.930     1542
    2.960     1611
    2.990     1662
    3.020     1765
    3.050     1844
    3.080     1931
    3.110     2152
    3.140     2340
    3.170     2655
    3.200     2557
    3.230     1931
    3.260     1689
    3.290     1700
    3.320     1791
    3.350     1631
    3.380     1331
    3.410     1139
    3.440     1258
    3.470     1190
    3.500     1267
    3.530     1244
    3.560     1206
    3.590     1169
    3.620     1188
    3.650     1210
    3.680     1289
    3.710     1192
    3.740     1283
    3.770     1200
    3.800     1385
    3.830     1410
    3.860     1359
    3.890     1360
    3.920     1218
    3.950     1170
    3.980     1229
    4.010     1292
    4.040     1207
    4.070     1204
    4.100     1265
    4.130     1214
    4.160     1272
    4.190     1280
    4.220     1328
    4.250     1275
    4.280     1211
    4.310     1126
    4.340     1240
    4.370     1201
    4.400     1182
    4.430     1217
    4.460     1222
    4.490     1245
    4.520     1254
    4.550     1226
    4.580     1280
    4.610     1268
    4.640     1319
    4.670     1319
    4.700     1345
    4.730     1478
    4.760     1444
    4.790     1306
    4.820     1272
    4.850     1322
    4.880     1345
    4.910     1444
    4.940     1507
    4.970     1576
    5.000     1678
    5.030     1738
    5.060     1568
    5.090     1272
    5.120     1141
    5.150     1226
    5.180     1245
    5.210     1288
    5.240     1191
    5.270     1251
    5.300     1280
    5.330     1208
    5.360     1271
    5.390     1345
    5.420     1312
    5.450     1382
    5.480     1308
    5.510     1389
    5.540     1377
    5.570     1250
    5.600     1269
    5.630     1309
    5.660     1337
    5.690     1361
    5.720     1596
    5.750     1539
    5.780     1326
    5.810     1215
    5.840     1238
    5.870     1201
    5.900     1137
    5.930     1143
    5.960     1126
    5.990     1159
    6.020     1238
    6.050     1137
    6.080     1168
    6.110     1135
    6.140     1139
    6.170     1122
    6.200     1204
    6.230     1169
    6.260     1169
    6.290     1220
    6.320     1164
    6.350     1158
    6.380     1207
    6.410     1239
    6.440     1195
    6.470     1235
    6.500     1163
    6.530     1153
    6.560     1184
    6.590     1184
    6.620     1192
    6.650     1151
    6.680     1161
    6.710     1141
    6.740     1160
    6.770     1220
    6.800     1213
    6.830     1196
    6.860     1216
    6.890     1211
    6.920     1128
    6.950     1130
    6.980     1193
    7.010     1178
    7.040     1210
    7.070     1164
    7.100     1219
    7.130     1251
    7.160     1135
    7.190     1283
    7.220     1183
    7.250     1173
    7.280     1257
    7.310     1182
    7.340     1219
    7.370     1246
    7.400     1221
    7.430     1196
    7.460     1191
    7.490     1184
    7.520     1194
    7.550     1245
    7.580     1216
    7.610     1162
    7.640     1229
    7.670     1238
    7.700     1274
    7.730     1181
    7.760     1275
    7.790     1242
    7.820     1354
    7.850     1352
    7.880     1272
    7.910     1444
    7.940     1360
    7.970     1456
    8.000     1348
    8.030     1416
    8.060     1283
    8.090     1312
    8.120     1357
    8.150     1442
    8.180     1425
    8.210     1590
    8.240     1708
    8.270     1861
    8.300     1818
    8.330     1609
    8.360     1431
    8.390     1486
    8.420     1687
    8.450     1644
    8.480     1568
    8.510     1518
    8.540     1481
    8.570     1555
    8.600     1556
    8.630     1647
    8.660     1854
    8.690     2118
    8.720     2323
    8.750     2198
    8.780     2073
    8.810     2193
    8.840     2501
    8.870     3057
    8.900     3214
    8.930     2791
    8.960     2449
    8.990     2125
    9.020     2140
    9.050     2313
    9.080     2716
    9.110     3153
    9.140     3528
    9.170     4493
    9.200     5418
    9.230     6868
    9.260     8162
    9.290     6102
    9.320     3217
    9.350     1722
    9.380     1605
    9.410     1606
    9.440     1864
    9.470     1904
    9.500     2396
    9.530     2787
    9.560     3000
    9.590     2407
    9.620     1824
    9.650     1558
    9.680     1807
    9.710     1708
    9.740     1688
    9.770     1387
    9.800     1392
    9.830     1428
    9.860     1397
    9.890     1465
    9.920     1469
    9.950     1484
    9.980     1506
   10.010     1533
   10.040     1497
   10.070     1491
   10.100     1690
   10.130     1704
   10.160     1758
   10.190     1584
   10.220     1345
   10.250     1300
   10.280     1325
   10.310     1280
   10.340     1301
   10.370     1389
   10.400     1388
   10.430     1412
   10.460     1366
   10.490     1376
   10.520     1356
   10.550     1358
   10.580     1362
   10.610     1360
   10.640     1362
   10.670     1372
   10.700     1441
   10.730     1411
   10.760     1365
   10.790     1357
   10.820     1343
   10.850     1317
   10.880     1416
   10.910     1406
   10.940     1424
   10.970     1401
   11.000     1367
   11.030     1479
   11.060     1483
   11.090     1470
   11.120     1439
   11.150     1422
   11.180     1422
   11.210     1504
   11.240     1473
   11.270     1421
   11.300     1386
   11.330     1306
   11.360     1327
   11.390     1404
   11.420     1383
   11.450     1443
   11.480     1400
   11.510     1460
   11.540     1547
   11.570     1477
   11.600     1388
   11.630     1380
   11.660     1357
   11.690     1344
   11.720     1442
   11.750     1443
   11.780     1466
   11.810     1419
   11.840     1458
   11.870     1462
   11.900     1411
   11.930     1423
   11.960     1419
   11.990     1386
   12.020     1514
   12.050     1450
   12.080     1418
   12.110     1439
   12.140     1381
   12.170     1470
   12.200     1482
   12.230     1568
   12.260     1508
   12.290     1682
   12.320     1742
   12.350     1828
   12.380     2180
   12.410     2610
   12.440     2954
   12.470     2906
   12.500     2214
   12.530     1668
   12.560     1530
   12.590     1491
   12.620     1416
   12.650     1368
   12.680     1419
   12.710     1502
   12.740     1513
   12.770     1514
   12.800     1550
   12.830     1474
   12.860     1565
   12.890     1526
   12.920     1505
   12.950     1478
   12.980     1550
   13.010     1553
   13.040     1601
   13.070     1598
   13.100     1543
   13.130     1621
   13.160     1410
   13.190     1572
   13.220     1498
   13.250     1520
   13.280     1496
   13.310     1500
   13.340     1542
   13.370     1560
   13.400     1530
   13.430     1544
   13.460     1559
   13.490     1584
   13.520     1581
   13.550     1599
   13.580     1590
   13.610     1648
   13.640     1679
   13.670     1739
   13.700     1900
   13.730     1918
   13.760     2288
   13.790     2151
   13.820     2172
   13.850     1926
   13.880     1656
   13.910     1654
   13.940     1665
   13.970     1715
   14.000     1599
   14.030     1725
   14.060     1668
   14.090     1606
   14.120     1612
   14.150     1670
   14.180     1540
   14.210     1706
   14.240     1657
   14.270     1689
   14.300     1693
   14.330     1691
   14.360     1690
   14.390     1735
   14.420     1761
   14.450     1737
   14.480     1695
   14.510     1657
   14.540     1692
   14.570     1868
   14.600     1665
   14.630     1716
   14.660     1753
   14.690     1789
   14.720     1848
   14.750     1770
   14.780     1705
   14.810     1778
   14.840     1786
   14.870     1788
   14.900     1853
   14.930     1782
   14.960     1943
   14.990     1806
   15.020     1913
   15.050     1932
   15.080     1931
   15.110     1857
   15.140     1766
   15.170     1939
   15.200     1874
   15.230     1828
   15.260     1983
   15.290     1906
   15.320     1938
   15.350     2008
   15.380     1935
   15.410     1824
   15.440     1941
   15.470     1892
   15.500     2068
   15.530     1901
   15.560     1953
   15.590     1965
   15.620     2003
   15.650     1932
   15.680     2078
   15.710     1977
   15.740     2064
   15.770     1998
   15.800     2218
   15.830     2152
   15.860     2151
   15.890     2420
   15.920     2577
   15.950     2682
   15.980     2642
   16.010     2616
   16.040     2359
   16.070     2229
   16.100     2215
   16.130     2184
   16.160     2225
   16.190     2251
   16.220     2372
   16.250     2444
   16.280     2614
   16.310     2483
   16.340     2523
   16.370     2606
   16.400     2637
   16.430     3089
   16.460     3374
   16.490     3288
   16.520     2971
   16.550     2609
   16.580     2419
   16.610     2370
   16.640     2413
   16.670     2394
   16.700     2467
   16.730     2476
   16.760     2587
   16.790     2675
   16.820     2705
   16.850     2789
   16.880     2644
   16.910     2602
   16.940     2508
   16.970     2401
   17.000     2503
   17.030     2526
   17.060     2458
   17.090     2430
   17.120     2385
   17.150     2576
   17.180     2456
   17.210     2693
   17.240     2550
   17.270     2582
   17.300     2553
   17.330     2571
   17.360     2570
   17.390     2626
   17.420     2623
   17.450     2700
   17.480     2549
   17.510     2715
   17.540     2832
   17.570     2741
   17.600     2687
   17.630     2676
   17.660     2809
   17.690     2798
   17.720     3003
   17.750     2939
   17.780     2608
   17.810     2831
   17.840     2773
   17.870     2788
   17.900     2689
   17.930     2827
   17.960     2743
   17.990     2768
   18.020     2952
   18.050     2653
   18.080     2809
   18.110     2788
   18.140     2696
   18.170     2817
   18.200     2757
   18.230     2864
   18.260     2836
   18.290     2942
   18.320     2872
   18.350     2833
   18.380     3168
   18.410     3163
   18.440     3150
   18.470     3482
   18.500     3515
   18.530     3735
   18.560     4022
   18.590     4713
   18.620     5750
   18.650     6164
   18.680     6104
   18.710     5147
   18.740     4099
   18.770     3317
   18.800     3204
   18.830     3026
   18.860     3023
   18.890     3080
   18.920     3082
   18.950     2936
   18.980     3139
   19.010     2918
   19.040     3068
   19.070     3120
   19.100     3144
   19.130     3196
   19.160     3111
   19.190     3450
   19.220     3508
   19.250     3744
   19.280     3618
   19.310     3268
   19.340     3219
   19.370     3155
   19.400     3028
   19.430     3042
   19.460     3104
   19.490     2962
   19.520     3022
   19.550     3055
   19.580     2958
   19.610     3068
   19.640     2893
   19.670     2998
   19.700     3012
   19.730     2859
   19.760     3098
   19.790     2803
   19.820     3063
   19.850     3030
   19.880     2873
   19.910     2997
   19.940     2866
   19.970     3014
   20.000     2889
   20.030     3077
   20.060     2948
   20.090     3022
   20.120     2963
   20.150     2950
   20.180     2800
   20.210     2986
   20.240     2889
   20.270     2829
   20.300     2952
   20.330     2965
   20.360     2992
   20.390     2931
   20.420     3040
   20.450     3007
   20.480     2877
   20.510     2785
   20.540     2898
   20.570     2933
   20.600     2795
   20.630     2818
   20.660     2857
   20.690     2968
   20.720     2972
   20.750     2850
   20.780     2814
   20.810     2938
   20.840     3067
   20.870     3175
   20.900     3230
   20.930     2948
   20.960     2905
   20.990     2810
   21.020     2903
   21.050     3015
   21.080     3004
   21.110     2996
   21.140     2950
   21.170     3126
   21.200     3210
   21.230     3053
   21.260     3110
   21.290     2909
   21.320     2733
   21.350     2837
   21.380     2702
   21.410     2625
   21.440     2931
   21.470     2744
   21.500     3023
   21.530     2916
   21.560     2753
   21.590     2940
   21.620     3252
   21.650     3438
   21.680     4017
   21.710     4151
   21.740     4384
   21.770     4003
   21.800     3682
   21.830     3301
   21.860     2730
   21.890     2770
   21.920     2696
   21.950     2663
   21.980     2628
   22.010     2690
   22.040     2644
   22.070     2699
   22.100     2811
   22.130     2571
   22.160     2682
   22.190     2520
   22.220     2626
   22.250     2625
   22.280     2631
   22.310     2388
   22.340     2688
   22.370     2684
   22.400     2501
   22.430     2684
   22.460     2571
   22.490     2614
   22.520     2604
   22.550     2573
   22.580     2591
   22.610     2514
   22.640     2534
   22.670     2374
   22.700     2463
   22.730     2570
   22.760     2603
   22.790     2502
   22.820     2399
   22.850     2415
   22.880     2506
   22.910     2576
   22.940     2554
   22.970     2501
   23.000     2356
   23.030     2426
   23.060     2482
   23.090     2406
   23.120     2357
   23.150     2457
   23.180     2381
   23.210     2589
   23.240     2419
   23.270     2570
   23.300     2607
   23.330     2571
   23.360     2593
   23.390     2587
   23.420     2543
   23.450     2441
   23.480     2407
   23.510     2459
   23.540     2463
   23.570     2433
   23.600     2382
   23.630     2378
   23.660     2350
   23.690     2299
   23.720     2469
   23.750     2592
   23.780     2527
   23.810     2636
   23.840     2502
   23.870     2468
   23.900     2392
   23.930     2305
   23.960     2355
   23.990     2324
   24.020     2479
   24.050     2225
   24.080     2304
   24.110     2291
   24.140     2288
   24.170     2229
   24.200     2261
   24.230     2322
   24.260     2205
   24.290     2302
   24.320     2209
   24.350     2264
   24.380     2357
   24.410     2437
   24.440     2383
   24.470     2382
   24.500     2355
   24.530     2392
   24.560     2346
   24.590     2533
   24.620     2452
   24.650     2295
   24.680     2208
   24.710     2184
   24.740     2272
   24.770     2268
   24.800     2309
   24.830     2251
   24.860     2223
   24.890     2293
   24.920     2213
   24.950     2251
   24.980     2200
   25.010     2238
   25.040     2274
   25.070     2327
   25.100     2427
   25.130     2342
   25.160     2231
   25.190     2413
   25.220     2230
   25.250     2170
   25.280     2164
   25.310     2066
   25.340     2274
   25.370     2272
   25.400     2238
   25.430     2241
   25.460     2330
   25.490     2164
   25.520     2146
   25.550     2271
   25.580     2102
   25.610     2270
   25.640     2243
   25.670     2347
   25.700     2544
   25.730     2596
   25.760     2801
   25.790     2394
   25.820     2472
   25.850     2311
   25.880     2192
   25.910     2364
   25.940     2453
   25.970     2646
   26.000     2559
   26.030     2607
   26.060     2388
   26.090     2209
   26.120     2103
   26.150     2106
   26.180     1988
   26.210     2047
   26.240     2088
   26.270     2033
   26.300     2089
   26.330     2053
   26.360     2124
   26.390     2015
   26.420     2165
   26.450     2017
   26.480     1956
   26.510     1991
   26.540     2026
   26.570     2106
   26.600     2008
   26.630     2000
   26.660     2060
   26.690     2010
   26.720     2084
   26.750     2003
   26.780     1967
   26.810     2053
   26.840     1996
   26.870     2039
   26.900     2043
   26.930     1957
   26.960     2027
   26.990     1929
   27.020     2001
   27.050     2064
   27.080     2075
   27.110     2021
   27.140     1935
   27.170     2107
   27.200     2089
   27.230     2006
   27.260     2118
   27.290     2088
   27.320     1981
   27.350     2052
   27.380     2029
   27.410     1902
   27.440     2025
   27.470     1884
   27.500     2072
   27.530     1964
   27.560     1984
   27.590     1974
   27.620     2001
   27.650     1928
   27.680     2116
   27.710     1974
   27.740     2053
   27.770     1999
   27.800     2205
   27.830     2196
   27.860     2134
   27.890     2249
   27.920     2167
   27.950     2028
   27.980     2034
   28.010     2097
   28.040     2089
   28.070     2072
   28.100     2295
   28.130     2290
   28.160     2475
   28.190     2422
   28.220     2488
   28.250     2303
   28.280     2326
   28.310     1982
   28.340     1962
   28.370     2045
   28.400     1911
   28.430     1985
   28.460     1973
   28.490     1917
   28.520     1946
   28.550     1902
   28.580     1916
   28.610     1902
   28.640     1887
   28.670     1856
   28.700     1892
   28.730     1962
   28.760     1979
   28.790     1878
   28.820     1931
   28.850     1894
   28.880     1947
   28.910     1957
   28.940     1944
   28.970     1900
   29.000     1848
   29.030     1896
   29.060     1937
   29.090     1821
   29.120     1771
   29.150     1932
   29.180     1844
   29.210     1890
   29.240     1795
   29.270     1922
   29.300     1894
   29.330     1789
   29.360     1865
   29.390     1985
   29.420     1919
   29.450     1870
   29.480     1916
   29.510     1992
   29.540     2021
   29.570     1952
   29.600     1906
   29.630     1859
   29.660     1889
   29.690     1757
   29.720     1866
   29.750     1833
   29.780     1780
   29.810     1750
   29.840     1790
   29.870     1786
   29.900     1741
   29.930     1819
   29.960     1702
   29.990     1755
   30.020     1847
   30.050     1786
   30.080     1777
   30.110     1739
   30.140     1733
   30.170     1695
   30.200     1757
   30.230     1789
   30.260     1717
   30.290     1834
   30.320     1753
   30.350     1705
   30.380     1825
   30.410     1844
   30.440     1621
   30.470     1805
   30.500     1700
   30.530     1747
   30.560     1773
   30.590     1786
   30.620     1859
   30.650     1842
   30.680     1855
   30.710     1808
   30.740     1836
   30.770     1764
   30.800     1763
   30.830     1680
   30.860     1686
   30.890     1660
   30.920     1722
   30.950     1667
   30.980     1748
   31.010     1752
   31.040     1712
   31.070     1723
   31.100     1714
   31.130     1690
   31.160     1593
   31.190     1756
   31.220     1650
   31.250     1545
   31.280     1625
   31.310     1580
   31.340     1721
   31.370     1681
   31.400     1691
   31.430     1728
   31.460     1692
   31.490     1648
   31.520     1660
   31.550     1682
   31.580     1617
   31.610     1766
   31.640     1650
   31.670     1645
   31.700     1632
   31.730     1570
   31.760     1603
   31.790     1484
   31.820     1657
   31.850     1631
   31.880     1529
   31.910     1552
   31.940     1612
   31.970     1632
   32.000     1560
   32.030     1711
   32.060     1525
   32.090     1542
   32.120     1561
   32.150     1606
   32.180     1602
   32.210     1672
   32.240     1640
   32.270     1679
   32.300     1763
   32.330     1893
   32.360     1969
   32.390     1948
   32.420     1956
   32.450     1865
   32.480     1720
   32.510     1680
   32.540     1791
   32.570     1856
   32.600     1737
   32.630     1690
   32.660     1680
   32.690     1688
   32.720     1666
   32.750     1531
   32.780     1522
   32.810     1615
   32.840     1517
   32.870     1596
   32.900     1523
   32.930     1512
   32.960     1663
   32.990     1463
   33.020     1534
   33.050     1552
   33.080     1568
   33.110     1606
   33.140     1520
   33.170     1542
   33.200     1573
   33.230     1514
   33.260     1640
   33.290     1553
   33.320     1609
   33.350     1812
   33.380     1661
   33.410     1615
   33.440     1701
   33.470     1638
   33.500     1572
   33.530     1529
   33.560     1487
   33.590     1558
   33.620     1466
   33.650     1441
   33.680     1593
   33.710     1445
   33.740     1502
   33.770     1484
   33.800     1654
   33.830     1615
   33.860     1540
   33.890     1556
   33.920     1481
   33.950     1450
   33.980     1476
   34.010     1539
   34.040     1499
   34.070     1604
   34.100     1695
   34.130     1617
   34.160     1662
   34.190     1595
   34.220     1608
   34.250     1535
   34.280     1560
   34.310     1499
   34.340     1505
   34.370     1657
   34.400     1614
   34.430     1599
   34.460     1602
   34.490     1512
   34.520     1514
   34.550     1386
   34.580     1425
   34.610     1355
   34.640     1390
   34.670     1369
   34.700     1409
   34.730     1416
   34.760     1337
   34.790     1460
   34.820     1377
   34.850     1316
   34.880     1382
   34.910     1454
   34.940     1454
   34.970     1431
   35.000     1418
   35.030     1401
   35.060     1480
   35.090     1449
   35.120     1436
   35.150     1470
   35.180     1400
   35.210     1497
   35.240     1387
   35.270     1452
   35.300     1462
   35.330     1392
   35.360     1440
   35.390     1428
   35.420     1422
   35.450     1460
   35.480     1350
   35.510     1354
   35.540     1374
   35.570     1461
   35.600     1314
   35.630     1361
   35.660     1311
   35.690     1401
   35.720     1431
   35.750     1385
   35.780     1355
   35.810     1386
   35.840     1339
   35.870     1414
   35.900     1310
   35.930     1353
   35.960     1315
   35.990     1333
   36.020     1388
   36.050     1336
   36.080     1321
   36.110     1283
   36.140     1258
   36.170     1317
   36.200     1325
   36.230     1263
   36.260     1298
   36.290     1321
   36.320     1323
   36.350     1305
   36.380     1322
   36.410     1332
   36.440     1271
   36.470     1316
   36.500     1274
   36.530     1331
   36.560     1414
   36.590     1357
   36.620     1401
   36.650     1461
   36.680     1424
   36.710     1385
   36.740     1438
   36.770     1365
   36.800     1412
   36.830     1306
   36.860     1325
   36.890     1370
   36.920     1290
   36.950     1236
   36.980     1299
   37.010     1289
   37.040     1333
   37.070     1309
   37.100     1292
   37.130     1369
   37.160     1305
   37.190     1370
   37.220     1266
   37.250     1305
   37.280     1324
   37.310     1232
   37.340     1282
   37.370     1346
   37.400     1389
   37.430     1344
   37.460     1383
   37.490     1380
   37.520     1344
   37.550     1389
   37.580     1430
   37.610     1400
   37.640     1352
   37.670     1366
   37.700     1319
   37.730     1310
   37.760     1324
   37.790     1194
   37.820     1359
   37.850     1329
   37.880     1399
   37.910     1432
   37.940     1477
   37.970     1525
   38.000     1421
   38.030     1409
   38.060     1401
   38.090     1319
   38.120     1324
   38.150     1299
   38.180     1243
   38.210     1314
   38.240     1296
   38.270     1279
   38.300     1295
   38.330     1306
   38.360     1329
   38.390     1312
   38.420     1381
   38.450     1285
   38.480     1314
   38.510     1254
   38.540     1257
   38.570     1303
   38.600     1240
   38.630     1246
   38.660     1258
   38.690     1271
   38.720     1317
   38.750     1265
   38.780     1229
   38.810     1281
   38.840     1246
   38.870     1290
   38.900     1288
   38.930     1210
   38.960     1258
   38.990     1260
   39.020     1314
   39.050     1301
   39.080     1306
   39.110     1289
   39.140     1213
   39.170     1267
   39.200     1296
   39.230     1283
   39.260     1338
   39.290     1241
   39.320     1256
   39.350     1275
   39.380     1279
   39.410     1186
   39.440     1281
   39.470     1201
   39.500     1277
   39.530     1225
   39.560     1237
   39.590     1146
   39.620     1208
   39.650     1204
   39.680     1297
   39.710     1226
   39.740     1201
   39.770     1200
   39.800     1303
   39.830     1269
   39.860     1281
   39.890     1308
   39.920     1242
   39.950     1275
   39.980     1316
   40.010     1318
   40.040     1334
   40.070     1340
   40.100     1301
   40.130     1292
   40.160     1314
   40.190     1242
   40.220     1251
   40.250     1234
   40.280     1290
   40.310     1195
   40.340     1242
   40.370     1287
   40.400     1248
   40.430     1285
   40.460     1374
   40.490     1459
   40.520     1493
   40.550     1526
   40.580     1507
   40.610     1470
   40.640     1392
   40.670     1388
   40.700     1339
   40.730     1328
   40.760     1282
   40.790     1303
   40.820     1306
   40.850     1198
   40.880     1284
   40.910     1260
   40.940     1344
   40.970     1267
   41.000     1255
   41.030     1253
   41.060     1296
   41.090     1268
   41.120     1195
   41.150     1296
   41.180     1257
   41.210     1347
   41.240     1275
   41.270     1306
   41.300     1236
   41.330     1310
   41.360     1289
   41.390     1370
   41.420     1278
   41.450     1325
   41.480     1280
   41.510     1284
   41.540     1401
   41.570     1415
   41.600     1448
   41.630     1448
   41.660     1474
   41.690     1523
   41.720     1528
   41.750     1448
   41.780     1378
   41.810     1345
   41.840     1304
   41.870     1375
   41.900     1342
   41.930     1346
   41.960     1327
   41.990     1420
   42.020     1453
   42.050     1328
   42.080     1321
   42.110     1277
   42.140     1314
   42.170     1288
   42.200     1345
   42.230     1332
   42.260     1320
   42.290     1367
   42.320     1273
   42.350     1323
   42.380     1290
   42.410     1331
   42.440     1304
   42.470     1295
   42.500     1288
   42.530     1240
   42.560     1319
   42.590     1308
   42.620     1350
   42.650     1236
   42.680     1199
   42.710     1245
   42.740     1324
   42.770     1232
   42.800     1256
   42.830     1233
   42.860     1260
   42.890     1236
   42.920     1238
   42.950     1267
   42.980     1257
   43.010     1266
   43.040     1294
   43.070     1300
   43.100     1261
   43.130     1313
   43.160     1223
   43.190     1302
   43.220     1217
   43.250     1280
   43.280     1311
   43.310     1209
   43.340     1266
   43.370     1374
   43.400     1291
   43.430     1201
   43.460     1286
   43.490     1238
   43.520     1192
   43.550     1303
   43.580     1281
   43.610     1259
   43.640     1237
   43.670     1212
   43.700     1228
   43.730     1206
   43.760     1275
   43.790     1171
   43.820     1257
   43.850     1238
   43.880     1160
   43.910     1183
   43.940     1213
   43.970     1290
   43.985     1211