File: data/MIL-88B_101/PXRD/PXRD_MIL-53-DMF_Cu-Kα1_capillary-0.7mm.xyd
    2.000       74
    2.030       95
    2.060       93
    2.090       79
    2.120       79
    2.150       84
    2.180       71
    2.210       75
    2.240       79
    2.270       79
    2.300       80
    2.330       75
    2.360       76
    2.390       76
    2.420       89
    2.450       76
    2.480       75
    2.510       80
    2.540       83
    2.570       77
    2.600       77
    2.630       84
    2.660       75
    2.690       86
    2.720       72
    2.750       77
    2.780       88
    2.810       92
    2.840       74
    2.870       90
    2.900       89
    2.930       60
    2.960       85
    2.990       78
    3.020       81
    3.050       90
    3.080       76
    3.110       82
    3.140       79
    3.170       71
    3.200       77
    3.230       71
    3.260       87
    3.290       79
    3.320       89
    3.350       83
    3.380       79
    3.410       94
    3.440       71
    3.470       92
    3.500       74
    3.530       69
    3.560       83
    3.590       76
    3.620       97
    3.650       76
    3.680       78
    3.710       72
    3.740       86
    3.770       69
    3.800       73
    3.830       98
    3.860       75
    3.890       86
    3.920       80
    3.950       76
    3.980       71
    4.010       88
    4.040       72
    4.070       76
    4.100       81
    4.130       78
    4.160       70
    4.190       71
    4.220       86
    4.250       74
    4.280       77
    4.310       77
    4.340       78
    4.370       58
    4.400       78
    4.430       71
    4.460       85
    4.490       82
    4.520       78
    4.550       61
    4.580       74
    4.610       79
    4.640       81
    4.670       75
    4.700       79
    4.730       85
    4.760       74
    4.790       77
    4.820       86
    4.850       77
    4.880       83
    4.910       78
    4.940       88
    4.970       78
    5.000       82
    5.030       81
    5.060       82
    5.090       83
    5.120       75
    5.150       69
    5.180       90
    5.210       80
    5.240       82
    5.270       78
    5.300       81
    5.330       86
    5.360       71
    5.390       67
    5.420       84
    5.450       61
    5.480       76
    5.510       82
    5.540       77
    5.570       76
    5.600       80
    5.630       78
    5.660       72
    5.690       94
    5.720       78
    5.750       81
    5.780       76
    5.810       71
    5.840       78
    5.870       70
    5.900       76
    5.930       71
    5.960       79
    5.990       85
    6.020       72
    6.050       80
    6.080       77
    6.110       71
    6.140       65
    6.170       71
    6.200       92
    6.230       89
    6.260       83
    6.290       64
    6.320       79
    6.350       81
    6.380       78
    6.410       88
    6.440       87
    6.470       84
    6.500       76
    6.530       74
    6.560       79
    6.590       79
    6.620       79
    6.650       76
    6.680       72
    6.710       82
    6.740       71
    6.770       80
    6.800       81
    6.830       86
    6.860       84
    6.890       95
    6.920       54
    6.950       77
    6.980      101
    7.010       71
    7.040       90
    7.070       80
    7.100       75
    7.130       77
    7.160       68
    7.190       87
    7.220       79
    7.250       62
    7.280       90
    7.310       69
    7.340       67
    7.370       73
    7.400       89
    7.430       72
    7.460       67
    7.490       85
    7.520       92
    7.550       62
    7.580       67
    7.610       80
    7.640       56
    7.670       73
    7.700       77
    7.730       79
    7.760       83
    7.790       58
    7.820       92
    7.850       81
    7.880       62
    7.910       71
    7.940       74
    7.970       89
    8.000       88
    8.030       95
    8.060       73
    8.090       80
    8.120       76
    8.150       91
    8.180       77
    8.210       68
    8.240       71
    8.270       80
    8.300       89
    8.330       90
    8.360       66
    8.390       94
    8.420       87
    8.450       85
    8.480       83
    8.510       91
    8.540       73
    8.570       79
    8.600       87
    8.630       96
    8.660       92
    8.690       98
    8.720      118
    8.750      112
    8.780      122
    8.810      145
    8.840      179
    8.870      228
    8.900      286
    8.930      387
    8.960      559
    8.990      691
    9.020      840
    9.050      814
    9.080      716
    9.110      497
    9.140      323
    9.170      203
    9.200      137
    9.230      107
    9.260       99
    9.290       84
    9.320       78
    9.350       88
    9.380       94
    9.410       75
    9.440       91
    9.470       95
    9.500      102
    9.530       94
    9.560      110
    9.590      128
    9.620      143
    9.650      215
    9.680      286
    9.710      379
    9.740      500
    9.770      457
    9.800      384
    9.830      247
    9.860      126
    9.890      132
    9.920       91
    9.950       87
    9.980       97
   10.010       82
   10.040       78
   10.070       82
   10.100       76
   10.130       81
   10.160       82
   10.190       88
   10.220       71
   10.250       80
   10.280       81
   10.310       73
   10.340       95
   10.370       75
   10.400       84
   10.430       91
   10.460       85
   10.490       71
   10.520       77
   10.550       79
   10.580       80
   10.610       75
   10.640       82
   10.670       79
   10.700       84
   10.730       80
   10.760       84
   10.790       80
   10.820       84
   10.850       71
   10.880       92
   10.910       82
   10.940       94
   10.970       73
   11.000       84
   11.030       73
   11.060       85
   11.090       75
   11.120       63
   11.150       72
   11.180       75
   11.210       85
   11.240       67
   11.270       75
   11.300       75
   11.330       69
   11.360       71
   11.390       88
   11.420       75
   11.450       88
   11.480       93
   11.510       81
   11.540       89
   11.570       82
   11.600       84
   11.630       78
   11.660       69
   11.690       73
   11.720       87
   11.750       81
   11.780       78
   11.810       89
   11.840       64
   11.870       87
   11.900       70
   11.930       77
   11.960       80
   11.990       82
   12.020       59
   12.050       74
   12.080       75
   12.110       72
   12.140       81
   12.170       83
   12.200       89
   12.230       79
   12.260       83
   12.290       79
   12.320       80
   12.350       71
   12.380       80
   12.410       73
   12.440       88
   12.470       90
   12.500       77
   12.530       69
   12.560       81
   12.590       81
   12.620       97
   12.650       93
   12.680       79
   12.710       73
   12.740       78
   12.770       77
   12.800       83
   12.830       78
   12.860       76
   12.890       93
   12.920       80
   12.950       75
   12.980       77
   13.010       84
   13.040       82
   13.070       78
   13.100       92
   13.130       72
   13.160       76
   13.190       82
   13.220       74
   13.250       75
   13.280      106
   13.310       66
   13.340       78
   13.370       80
   13.400       74
   13.430       74
   13.460       83
   13.490       71
   13.520       76
   13.550       79
   13.580       88
   13.610       85
   13.640       90
   13.670       71
   13.700       77
   13.730       73
   13.760       72
   13.790       65
   13.820       87
   13.850       84
   13.880       73
   13.910       78
   13.940       88
   13.970       73
   14.000       78
   14.030       89
   14.060       84
   14.090       84
   14.120       72
   14.150       76
   14.180       79
   14.210       90
   14.240       84
   14.270       85
   14.300       80
   14.330       82
   14.360       77
   14.390       81
   14.420       84
   14.450       88
   14.480       75
   14.510       83
   14.540       85
   14.570       84
   14.600       98
   14.630       86
   14.660       95
   14.690       88
   14.720       94
   14.750      103
   14.780      116
   14.810      112
   14.840      140
   14.870      186
   14.900      210
   14.930      205
   14.960      174
   14.990      147
   15.020      119
   15.050      114
   15.080       95
   15.110       95
   15.140       79
   15.170      111
   15.200       97
   15.230      105
   15.260      103
   15.290       88
   15.320       90
   15.350       92
   15.380       86
   15.410       69
   15.440      105
   15.470       89
   15.500       90
   15.530       84
   15.560       96
   15.590       96
   15.620       97
   15.650       90
   15.680      100
   15.710       91
   15.740       94
   15.770       97
   15.800       94
   15.830       98
   15.860       83
   15.890       98
   15.920       97
   15.950       82
   15.980       79
   16.010       86
   16.040       93
   16.070       86
   16.100       96
   16.130       94
   16.160       76
   16.190       86
   16.220       93
   16.250       84
   16.280      102
   16.310       95
   16.340       90
   16.370       74
   16.400       92
   16.430       92
   16.460       94
   16.490      105
   16.520      119
   16.550      133
   16.580      171
   16.610      172
   16.640      160
   16.670      128
   16.700      117
   16.730      118
   16.760       89
   16.790       98
   16.820       97
   16.850       99
   16.880       91
   16.910       99
   16.940       91
   16.970      103
   17.000       95
   17.030      100
   17.060       99
   17.090      105
   17.120      101
   17.150       91
   17.180       98
   17.210      100
   17.240      110
   17.270      106
   17.300       89
   17.330      100
   17.360      100
   17.390       92
   17.420      115
   17.450      112
   17.480      100
   17.510       98
   17.540      108
   17.570      118
   17.600      156
   17.630      146
   17.660      126
   17.690      112
   17.720       97
   17.750       99
   17.780       87
   17.810      111
   17.840      112
   17.870      106
   17.900      120
   17.930      108
   17.960      113
   17.990      126
   18.020      155
   18.050      156
   18.080      216
   18.110      274
   18.140      310
   18.170      375
   18.200      355
   18.230      327
   18.260      306
   18.290      278
   18.320      271
   18.350      236
   18.380      230
   18.410      183
   18.440      144
   18.470      143
   18.500      119
   18.530      119
   18.560      111
   18.590      109
   18.620      110
   18.650      105
   18.680       93
   18.710      104
   18.740      109
   18.770       92
   18.800      101
   18.830       99
   18.860      126
   18.890      107
   18.920      113
   18.950       92
   18.980      109
   19.010      115
   19.040      107
   19.070      111
   19.100      111
   19.130      115
   19.160       91
   19.190      116
   19.220      103
   19.250      108
   19.280      116
   19.310       98
   19.340       89
   19.370      127
   19.400      116
   19.430       97
   19.460      104
   19.490       94
   19.520      105
   19.550      129
   19.580      121
   19.610      120
   19.640      109
   19.670      121
   19.700      127
   19.730      102
   19.760       94
   19.790      110
   19.820       87
   19.850      107
   19.880      104
   19.910       87
   19.940       95
   19.970       94
   20.000       91
   20.030      113
   20.060       89
   20.090      106
   20.120      105
   20.150      114
   20.180       96
   20.210      109
   20.240      102
   20.270      100
   20.300      102
   20.330       99
   20.360      110
   20.390      106
   20.420      129
   20.450      147
   20.480      121
   20.510      133
   20.540      124
   20.570      132
   20.600      148
   20.630      130
   20.660      136
   20.690      146
   20.720      145
   20.750      134
   20.780      117
   20.810      125
   20.840      115
   20.870      123
   20.900      117
   20.930      127
   20.960      125
   20.990      118
   21.020       96
   21.050      101
   21.080      119
   21.110       95
   21.140      108
   21.170      116
   21.200      104
   21.230      106
   21.260      105
   21.290       95
   21.320      100
   21.350      104
   21.380      105
   21.410       93
   21.440      113
   21.470       90
   21.500      122
   21.530      107
   21.560       94
   21.590      104
   21.620       96
   21.650      108
   21.680       90
   21.710      112
   21.740      107
   21.770      111
   21.800      106
   21.830      110
   21.860      104
   21.890       98
   21.920       96
   21.950      112
   21.980       94
   22.010      106
   22.040      105
   22.070      108
   22.100      119
   22.130      101
   22.160      105
   22.190       94
   22.220      102
   22.250      104
   22.280      121
   22.310       94
   22.340      106
   22.370      108
   22.400      106
   22.430      101
   22.460      101
   22.490      106
   22.520      102
   22.550       90
   22.580      118
   22.610       98
   22.640       93
   22.670      107
   22.700      100
   22.730       99
   22.760      102
   22.790      101
   22.820       87
   22.850      126
   22.880      110
   22.910       88
   22.940      112
   22.970       95
   23.000      104
   23.030       97
   23.060      102
   23.090      103
   23.120       98
   23.150      105
   23.180      108
   23.210      101
   23.240       94
   23.270       92
   23.300       84
   23.330      109
   23.360       90
   23.390       97
   23.420      101
   23.450      100
   23.480       93
   23.510      100
   23.540       87
   23.570       91
   23.600       87
   23.630       88
   23.660       84
   23.690       99
   23.720       90
   23.750      108
   23.780       94
   23.810      104
   23.840      105
   23.870       90
   23.900      106
   23.930       92
   23.960       92
   23.990       95
   24.020      108
   24.050       93
   24.080       92
   24.110      105
   24.140       99
   24.170       79
   24.200      103
   24.230       86
   24.260       93
   24.290      104
   24.320       96
   24.350       99
   24.380      107
   24.410       97
   24.440       92
   24.470      101
   24.500       91
   24.530      101
   24.560      103
   24.590      118
   24.620      102
   24.650       96
   24.680      105
   24.710      117
   24.740      110
   24.770       97
   24.800       93
   24.830      100
   24.860       88
   24.890      106
   24.920       88
   24.950       63
   24.980      109
   25.010       88
   25.040       94
   25.070       90
   25.100       91
   25.130      108
   25.160      129
   25.190      102
   25.220       95
   25.250      117
   25.280      134
   25.310       94
   25.340       96
   25.370      131
   25.400       93
   25.430       89
   25.460       93
   25.490       89
   25.520       97
   25.550       97
   25.580      105
   25.610       86
   25.640       93
   25.670       76
   25.700       78
   25.730       94
   25.760      106
   25.790       89
   25.820      105
   25.850      111
   25.880      101
   25.910       96
   25.940      103
   25.970      104
   26.000       97
   26.030       90
   26.060       93
   26.090       79
   26.120       91
   26.150       83
   26.180       79
   26.210       97
   26.240       89
   26.270       82
   26.300       85
   26.330      110
   26.360       82
   26.390       92
   26.420       95
   26.450       89
   26.480       98
   26.510       92
   26.540       95
   26.570       98
   26.600       83
   26.630       88
   26.660       88
   26.690       94
   26.720       95
   26.750       94
   26.780       89
   26.810       94
   26.840       99
   26.870       93
   26.900       97
   26.930       91
   26.960       93
   26.990       93
   27.020      101
   27.050       89
   27.080       85
   27.110      100
   27.140       84
   27.170      116
   27.200      143
   27.230      139
   27.260      144
   27.290      150
   27.320      116
   27.350      122
   27.380      124
   27.410      140
   27.440      123
   27.470      150
   27.500      154
   27.530      155
   27.560      172
   27.590      183
   27.620      170
   27.650      159
   27.680      139
   27.710      133
   27.740      115
   27.770      111
   27.800      109
   27.830      107
   27.860      102
   27.890      114
   27.920       96
   27.950       89
   27.980      101
   28.010      105
   28.040       83
   28.070      103
   28.100       99
   28.130       91
   28.160       82
   28.190       94
   28.220       97
   28.250       90
   28.280      104
   28.310       89
   28.340      101
   28.370       87
   28.400       99
   28.430       90
   28.460       88
   28.490       91
   28.520       89
   28.550       83
   28.580       99
   28.610       78
   28.640       85
   28.670       89
   28.700       89
   28.730       87
   28.760       82
   28.790       86
   28.820       73
   28.850       96
   28.880       98
   28.910       79
   28.940       96
   28.970       80
   29.000       94
   29.030       86
   29.060       96
   29.090       85
   29.120       75
   29.150       94
   29.180       95
   29.210       99
   29.240       86
   29.270       86
   29.300       85
   29.330       86
   29.360       79
   29.390       98
   29.420      105
   29.450       96
   29.480      101
   29.510       83
   29.540       89
   29.570       89
   29.600       99
   29.630       82
   29.660       93
   29.690       89
   29.720       94
   29.750       86
   29.780       84
   29.810       94
   29.840       71
   29.870       90
   29.900       86
   29.930       74
   29.960       96
   29.990       95
   30.020       94
   30.050       84
   30.080      108
   30.110       96
   30.140       85
   30.170       86
   30.200       91
   30.230       93
   30.260       94
   30.290      105
   30.320       89
   30.350      114
   30.380      105
   30.410      113
   30.440       98
   30.470       87
   30.500       71
   30.530       83
   30.560       78
   30.590       89
   30.620       86
   30.650       86
   30.680       86
   30.710       79
   30.740       85
   30.770       80
   30.800       90
   30.830       77
   30.860       95
   30.890       72
   30.920      101
   30.950       91
   30.980       94
   31.010       79
   31.040       75
   31.070       72
   31.100       83
   31.130      101
   31.160       96
   31.190       95
   31.220       96
   31.250       91
   31.280       84
   31.310       93
   31.340       96
   31.370      132
   31.400      128
   31.430       97
   31.460      110
   31.490      100
   31.520      103
   31.550       83
   31.580       93
   31.610      107
   31.640       98
   31.670      114
   31.700       96
   31.730       78
   31.760       79
   31.790       83
   31.820       75
   31.850       89
   31.880       72
   31.910       73
   31.940       73
   31.970      102
   32.000      107
   32.030      123
   32.060       87
   32.090       93
   32.120       99
   32.150      108
   32.180      100
   32.210       93
   32.240      108
   32.270      102
   32.300       87
   32.330       83
   32.360       89
   32.390       97
   32.420      101
   32.450       94
   32.480       73
   32.510       83
   32.540       88
   32.570       86
   32.600       82
   32.630       92
   32.660       81
   32.690       90
   32.720       95
   32.750       89
   32.780       93
   32.810       99
   32.840       71
   32.870      104
   32.900      101
   32.930      103
   32.960       94
   32.990       92
   33.020       95
   33.050      106
   33.080       93
   33.110       88
   33.140       81
   33.170       77
   33.200       82
   33.230       76
   33.260       97
   33.290       82
   33.320       75
   33.350       97
   33.380       92
   33.410      102
   33.440       94
   33.470       95
   33.500       91
   33.530       98
   33.560       94
   33.590       96
   33.620      108
   33.650       81
   33.680       98
   33.710       91
   33.740      112
   33.770       88
   33.800       80
   33.830       89
   33.860       88
   33.890       77
   33.920       95
   33.950       84
   33.980       95
   34.010       86
   34.040      101
   34.070       88
   34.100       86
   34.130       93
   34.160      111
   34.190       89
   34.220       84
   34.250       93
   34.280       91
   34.310       91
   34.340       99
   34.370       94
   34.400       80
   34.430       86
   34.460       88
   34.490       85
   34.520       77
   34.550       87
   34.580       78
   34.610       89
   34.640       85
   34.670       78
   34.700       85
   34.730       72
   34.760       84
   34.790       87
   34.820       76
   34.850       86
   34.880       73
   34.910       81
   34.940       82
   34.970       78
   35.000       90
   35.030      102
   35.060       81
   35.090       96
   35.120       73
   35.150       84
   35.180       86
   35.210      104
   35.240       93
   35.270       87
   35.300       92
   35.330       87
   35.360       96
   35.390       99
   35.420       97
   35.450       85
   35.480       84
   35.510       85
   35.540       87
   35.570       79
   35.600       72
   35.630       74
   35.660       86
   35.690       86
   35.720       76
   35.750       80
   35.780       76
   35.810       91
   35.840       90
   35.870       78
   35.900       81
   35.930       80
   35.960       81
   35.990       71
   36.020       74
   36.050       85
   36.080       79
   36.110       78
   36.140       82
   36.170       86
   36.200       80
   36.230       83
   36.260       98
   36.290       97
   36.320       79
   36.350       83
   36.380       80
   36.410       89
   36.440       70
   36.470       86
   36.500       69
   36.530       70
   36.560       81
   36.590       86
   36.620       87
   36.650       67
   36.680       79
   36.710       79
   36.740       78
   36.770       81
   36.800       81
   36.830       78
   36.860       90
   36.890       89
   36.920       70
   36.950       91
   36.980       97
   37.010       97
   37.040       87
   37.070       86
   37.100       83
   37.130       88
   37.160       86
   37.190       83
   37.220       94
   37.250       75
   37.280       86
   37.310       86
   37.340       74
   37.370       83
   37.400       89
   37.430       97
   37.460       74
   37.490       86
   37.520       75
   37.550       82
   37.580       71
   37.610       81
   37.640       66
   37.670       77
   37.700       70
   37.730       78
   37.760       64
   37.790       81
   37.820       92
   37.850       80
   37.880       77
   37.910       84
   37.940       72
   37.970       86
   38.000       77
   38.030       60
   38.060       65
   38.090       77
   38.120       81
   38.150       90
   38.180       67
   38.210       73
   38.240       83
   38.270       56
   38.300       65
   38.330       84
   38.360       81
   38.390       76
   38.420       89
   38.450       69
   38.480       77
   38.510       70
   38.540       70
   38.570       75
   38.600       70
   38.630       80
   38.660       88
   38.690       86
   38.720       76
   38.750       81
   38.780       74
   38.810       74
   38.840       86
   38.870       81
   38.900       93
   38.930       87
   38.960       78
   38.990       74
   39.020       81
   39.050       92
   39.080       73
   39.110       84
   39.140       66
   39.170       79
   39.200       68
   39.230       81
   39.260       76
   39.290       80
   39.320       86
   39.350       90
   39.380       66
   39.410       92
   39.440      103
   39.470       94
   39.500       95
   39.530       73
   39.560       90
   39.590       78
   39.620       64
   39.650       78
   39.680       67
   39.710       81
   39.740       84
   39.770       83
   39.800      102
   39.830       85
   39.860       86
   39.890      107
   39.920       91
   39.950      104
   39.980       99
   40.010      119
   40.040      111
   40.070      101
   40.100      104
   40.130       91
   40.160       91
   40.190       79
   40.220       96
   40.250       87
   40.280       76
   40.310       77
   40.340       87
   40.370       83
   40.400       81
   40.430       81
   40.460       78
   40.490       80
   40.520       76
   40.550       77
   40.580       85
   40.610       88
   40.640       74
   40.670       73
   40.700       78
   40.730       88
   40.760       81
   40.790       84
   40.820       83
   40.850       74
   40.880       78
   40.910       87
   40.940       96
   40.970       74
   41.000       89
   41.030       86
   41.060       83
   41.090       80
   41.120       62
   41.150       75
   41.180       80
   41.210       83
   41.240       69
   41.270       81
   41.300       77
   41.330       83
   41.360       64
   41.390       77
   41.420       89
   41.450       76
   41.480       87
   41.510       85
   41.540       85
   41.570       88
   41.600       83
   41.630       77
   41.660       88
   41.690       73
   41.720       90
   41.750       83
   41.780       74
   41.810       82
   41.840       74
   41.870       80
   41.900       73
   41.930       74
   41.960       72
   41.990       83
   42.020       83
   42.050       84
   42.080       85
   42.110       81
   42.140       92
   42.170       86
   42.200       92
   42.230       88
   42.260       86
   42.290      106
   42.320      103
   42.350      115
   42.380      117
   42.410      108
   42.440       93
   42.470       87
   42.500       80
   42.530       80
   42.560       92
   42.590       92
   42.620       83
   42.650       86
   42.680       91
   42.710       94
   42.740       86
   42.770       69
   42.800       96
   42.830       81
   42.860       80
   42.890       87
   42.920       86
   42.950       75
   42.980       85
   43.010       80
   43.040       88
   43.070       80
   43.100       93
   43.130      106
   43.160       85
   43.190       97
   43.220       97
   43.250       86
   43.280       91
   43.310       88
   43.340       73
   43.370       99
   43.400       86
   43.430       82
   43.460       82
   43.490       89
   43.520       87
   43.550       98
   43.580       92
   43.610       92
   43.640       95
   43.670      100
   43.700       87
   43.730       97
   43.760       99
   43.790       74
   43.820       89
   43.850       80
   43.880       74
   43.910       89
   43.940       80
   43.970       84
   43.985       86