File: data/MIL-88B_101/PXRD/PXRD_S-14_Cu-Kα1_capillary-0.7mm.xyd
    2.000      638
    2.030      641
    2.060      585
    2.090      636
    2.120      611
    2.150      674
    2.180      646
    2.210      640
    2.240      683
    2.270      650
    2.300      685
    2.330      655
    2.360      669
    2.390      746
    2.420      769
    2.450      718
    2.480      723
    2.510      752
    2.540      773
    2.570      850
    2.600      872
    2.630      964
    2.660     1094
    2.690     1327
    2.720     1218
    2.750      893
    2.780      734
    2.810      765
    2.840      782
    2.870      778
    2.900      821
    2.930      835
    2.960      926
    2.990      914
    3.020     1005
    3.050     1096
    3.080     1226
    3.110     1365
    3.140     1606
    3.170     2043
    3.200     1791
    3.230     1216
    3.260     1058
    3.290     1091
    3.320     1225
    3.350     1038
    3.380      761
    3.410      599
    3.440      666
    3.470      623
    3.500      640
    3.530      634
    3.560      582
    3.590      619
    3.620      589
    3.650      613
    3.680      691
    3.710      663
    3.740      703
    3.770      676
    3.800      754
    3.830      798
    3.860      748
    3.890      699
    3.920      611
    3.950      626
    3.980      640
    4.010      667
    4.040      619
    4.070      685
    4.100      711
    4.130      648
    4.160      717
    4.190      733
    4.220      768
    4.250      669
    4.280      646
    4.310      604
    4.340      666
    4.370      651
    4.400      611
    4.430      648
    4.460      642
    4.490      642
    4.520      636
    4.550      646
    4.580      636
    4.610      714
    4.640      727
    4.670      720
    4.700      735
    4.730      873
    4.760      807
    4.790      756
    4.820      701
    4.850      680
    4.880      763
    4.910      820
    4.940      802
    4.970      934
    5.000     1060
    5.030     1122
    5.060      941
    5.090      675
    5.120      624
    5.150      657
    5.180      630
    5.210      608
    5.240      594
    5.270      642
    5.300      658
    5.330      630
    5.360      731
    5.390      702
    5.420      719
    5.450      799
    5.480      719
    5.510      743
    5.540      718
    5.570      709
    5.600      673
    5.630      708
    5.660      757
    5.690      904
    5.720     1057
    5.750      976
    5.780      785
    5.810      695
    5.840      661
    5.870      641
    5.900      588
    5.930      660
    5.960      606
    5.990      617
    6.020      614
    6.050      611
    6.080      657
    6.110      639
    6.140      634
    6.170      628
    6.200      608
    6.230      628
    6.260      606
    6.290      634
    6.320      576
    6.350      626
    6.380      680
    6.410      611
    6.440      625
    6.470      654
    6.500      588
    6.530      619
    6.560      582
    6.590      609
    6.620      641
    6.650      605
    6.680      641
    6.710      600
    6.740      630
    6.770      640
    6.800      682
    6.830      654
    6.860      658
    6.890      625
    6.920      598
    6.950      670
    6.980      618
    7.010      672
    7.040      651
    7.070      624
    7.100      695
    7.130      657
    7.160      572
    7.190      695
    7.220      638
    7.250      698
    7.280      729
    7.310      667
    7.340      653
    7.370      672
    7.400      612
    7.430      616
    7.460      665
    7.490      631
    7.520      666
    7.550      631
    7.580      642
    7.610      605
    7.640      614
    7.670      643
    7.700      729
    7.730      630
    7.760      657
    7.790      608
    7.820      705
    7.850      667
    7.880      617
    7.910      673
    7.940      689
    7.970      733
    8.000      720
    8.030      716
    8.060      694
    8.090      670
    8.120      702
    8.150      819
    8.180      775
    8.210      854
    8.240     1046
    8.270     1182
    8.300     1076
    8.330      898
    8.360      769
    8.390      795
    8.420      997
    8.450      996
    8.480      923
    8.510      758
    8.540      752
    8.570      748
    8.600      778
    8.630      826
    8.660      954
    8.690     1167
    8.720     1465
    8.750     1249
    8.780     1141
    8.810     1168
    8.840     1429
    8.870     2037
    8.900     2187
    8.930     1784
    8.960     1252
    8.990      884
    9.020      717
    9.050      706
    9.080      721
    9.110      676
    9.140      672
    9.170      670
    9.200      678
    9.230      668
    9.260      764
    9.290      709
    9.320      714
    9.350      708
    9.380      663
    9.410      690
    9.440      743
    9.470      716
    9.500      748
    9.530      761
    9.560      787
    9.590      772
    9.620      740
    9.650      678
    9.680      809
    9.710      793
    9.740      823
    9.770      714
    9.800      735
    9.830      732
    9.860      720
    9.890      778
    9.920      809
    9.950      817
    9.980      803
   10.010      818
   10.040      778
   10.070      792
   10.100      912
   10.130      997
   10.160     1137
   10.190      981
   10.220      787
   10.250      703
   10.280      717
   10.310      686
   10.340      739
   10.370      735
   10.400      718
   10.430      717
   10.460      751
   10.490      767
   10.520      721
   10.550      737
   10.580      710
   10.610      725
   10.640      770
   10.670      703
   10.700      774
   10.730      827
   10.760      753
   10.790      728
   10.820      727
   10.850      673
   10.880      735
   10.910      763
   10.940      746
   10.970      753
   11.000      813
   11.030      835
   11.060      874
   11.090      846
   11.120      769
   11.150      801
   11.180      747
   11.210      858
   11.240      808
   11.270      771
   11.300      786
   11.330      717
   11.360      745
   11.390      778
   11.420      723
   11.450      729
   11.480      732
   11.510      794
   11.540      795
   11.570      772
   11.600      789
   11.630      683
   11.660      726
   11.690      720
   11.720      814
   11.750      803
   11.780      756
   11.810      738
   11.840      738
   11.870      782
   11.900      709
   11.930      810
   11.960      729
   11.990      792
   12.020      788
   12.050      692
   12.080      725
   12.110      753
   12.140      735
   12.170      754
   12.200      765
   12.230      787
   12.260      741
   12.290      794
   12.320      779
   12.350      757
   12.380      806
   12.410      796
   12.440      752
   12.470      793
   12.500      746
   12.530      781
   12.560      770
   12.590      812
   12.620      792
   12.650      748
   12.680      801
   12.710      841
   12.740      793
   12.770      805
   12.800      852
   12.830      804
   12.860      841
   12.890      858
   12.920      819
   12.950      835
   12.980      811
   13.010      811
   13.040      801
   13.070      810
   13.100      863
   13.130      902
   13.160      789
   13.190      879
   13.220      796
   13.250      767
   13.280      916
   13.310      829
   13.340      836
   13.370      868
   13.400      899
   13.430      904
   13.460      879
   13.490      854
   13.520      855
   13.550      868
   13.580      859
   13.610      902
   13.640      845
   13.670      853
   13.700      890
   13.730      847
   13.760      892
   13.790      869
   13.820      912
   13.850      987
   13.880      886
   13.910      867
   13.940      864
   13.970      887
   14.000      888
   14.030      905
   14.060      936
   14.090      954
   14.120      933
   14.150     1006
   14.180      917
   14.210      931
   14.240      954
   14.270      932
   14.300      927
   14.330      926
   14.360      958
   14.390      944
   14.420      987
   14.450      976
   14.480      980
   14.510      941
   14.540      943
   14.570      999
   14.600      950
   14.630      943
   14.660      937
   14.690     1001
   14.720     1039
   14.750      939
   14.780      957
   14.810     1011
   14.840     1006
   14.870     1017
   14.900     1030
   14.930     1007
   14.960     1061
   14.990      935
   15.020     1082
   15.050     1117
   15.080     1064
   15.110     1062
   15.140     1025
   15.170     1070
   15.200     1117
   15.230     1044
   15.260     1124
   15.290     1117
   15.320     1103
   15.350     1161
   15.380     1085
   15.410     1089
   15.440     1127
   15.470     1104
   15.500     1133
   15.530     1048
   15.560     1072
   15.590     1115
   15.620     1148
   15.650     1117
   15.680     1234
   15.710     1114
   15.740     1178
   15.770     1131
   15.800     1225
   15.830     1206
   15.860     1158
   15.890     1232
   15.920     1235
   15.950     1244
   15.980     1283
   16.010     1258
   16.040     1277
   16.070     1293
   16.100     1289
   16.130     1281
   16.160     1264
   16.190     1264
   16.220     1366
   16.250     1419
   16.280     1620
   16.310     1476
   16.340     1481
   16.370     1336
   16.400     1223
   16.430     1287
   16.460     1293
   16.490     1301
   16.520     1320
   16.550     1334
   16.580     1277
   16.610     1335
   16.640     1409
   16.670     1416
   16.700     1363
   16.730     1411
   16.760     1388
   16.790     1329
   16.820     1394
   16.850     1312
   16.880     1458
   16.910     1481
   16.940     1467
   16.970     1493
   17.000     1479
   17.030     1539
   17.060     1418
   17.090     1391
   17.120     1419
   17.150     1517
   17.180     1453
   17.210     1647
   17.240     1559
   17.270     1527
   17.300     1528
   17.330     1495
   17.360     1492
   17.390     1594
   17.420     1588
   17.450     1613
   17.480     1536
   17.510     1576
   17.540     1591
   17.570     1588
   17.600     1692
   17.630     1636
   17.660     1646
   17.690     1745
   17.720     1812
   17.750     1732
   17.780     1665
   17.810     1655
   17.840     1670
   17.870     1668
   17.900     1544
   17.930     1661
   17.960     1665
   17.990     1641
   18.020     1699
   18.050     1546
   18.080     1664
   18.110     1677
   18.140     1601
   18.170     1685
   18.200     1630
   18.230     1669
   18.260     1667
   18.290     1684
   18.320     1670
   18.350     1679
   18.380     1734
   18.410     1725
   18.440     1667
   18.470     1767
   18.500     1731
   18.530     1863
   18.560     1824
   18.590     1898
   18.620     1880
   18.650     1818
   18.680     1821
   18.710     1871
   18.740     1859
   18.770     1920
   18.800     1983
   18.830     1770
   18.860     1865
   18.890     1933
   18.920     1765
   18.950     1874
   18.980     1913
   19.010     1713
   19.040     1798
   19.070     1842
   19.100     1789
   19.130     1953
   19.160     1765
   19.190     1828
   19.220     1747
   19.250     1840
   19.280     1753
   19.310     1665
   19.340     1794
   19.370     1909
   19.400     1756
   19.430     1788
   19.460     1899
   19.490     1730
   19.520     1787
   19.550     1820
   19.580     1755
   19.610     1907
   19.640     1776
   19.670     1815
   19.700     1851
   19.730     1715
   19.760     1863
   19.790     1767
   19.820     1878
   19.850     1856
   19.880     1708
   19.910     1818
   19.940     1814
   19.970     1776
   20.000     1794
   20.030     1858
   20.060     1756
   20.090     1740
   20.120     1744
   20.150     1828
   20.180     1696
   20.210     1813
   20.240     1796
   20.270     1778
   20.300     1757
   20.330     1707
   20.360     1804
   20.390     1741
   20.420     1834
   20.450     1764
   20.480     1759
   20.510     1743
   20.540     1690
   20.570     1739
   20.600     1611
   20.630     1674
   20.660     1662
   20.690     1722
   20.720     1762
   20.750     1634
   20.780     1651
   20.810     1704
   20.840     1698
   20.870     1720
   20.900     1737
   20.930     1681
   20.960     1719
   20.990     1645
   21.020     1726
   21.050     1656
   21.080     1724
   21.110     1702
   21.140     1653
   21.170     1694
   21.200     1740
   21.230     1655
   21.260     1796
   21.290     1696
   21.320     1679
   21.350     1731
   21.380     1582
   21.410     1601
   21.440     1618
   21.470     1669
   21.500     1733
   21.530     1582
   21.560     1565
   21.590     1558
   21.620     1646
   21.650     1568
   21.680     1730
   21.710     1539
   21.740     1610
   21.770     1515
   21.800     1586
   21.830     1710
   21.860     1556
   21.890     1614
   21.920     1571
   21.950     1529
   21.980     1523
   22.010     1639
   22.040     1510
   22.070     1557
   22.100     1673
   22.130     1435
   22.160     1508
   22.190     1511
   22.220     1563
   22.250     1524
   22.280     1607
   22.310     1519
   22.340     1542
   22.370     1555
   22.400     1500
   22.430     1508
   22.460     1567
   22.490     1537
   22.520     1554
   22.550     1563
   22.580     1535
   22.610     1513
   22.640     1510
   22.670     1433
   22.700     1453
   22.730     1469
   22.760     1523
   22.790     1486
   22.820     1482
   22.850     1403
   22.880     1483
   22.910     1461
   22.940     1498
   22.970     1459
   23.000     1411
   23.030     1375
   23.060     1462
   23.090     1379
   23.120     1390
   23.150     1437
   23.180     1350
   23.210     1526
   23.240     1417
   23.270     1428
   23.300     1432
   23.330     1450
   23.360     1412
   23.390     1507
   23.420     1484
   23.450     1517
   23.480     1397
   23.510     1432
   23.540     1473
   23.570     1442
   23.600     1435
   23.630     1348
   23.660     1364
   23.690     1337
   23.720     1447
   23.750     1413
   23.780     1397
   23.810     1381
   23.840     1475
   23.870     1425
   23.900     1371
   23.930     1427
   23.960     1328
   23.990     1379
   24.020     1465
   24.050     1310
   24.080     1310
   24.110     1322
   24.140     1262
   24.170     1360
   24.200     1284
   24.230     1378
   24.260     1272
   24.290     1337
   24.320     1251
   24.350     1344
   24.380     1387
   24.410     1426
   24.440     1335
   24.470     1377
   24.500     1323
   24.530     1343
   24.560     1289
   24.590     1313
   24.620     1324
   24.650     1255
   24.680     1299
   24.710     1320
   24.740     1322
   24.770     1332
   24.800     1325
   24.830     1288
   24.860     1259
   24.890     1303
   24.920     1306
   24.950     1305
   24.980     1277
   25.010     1245
   25.040     1315
   25.070     1345
   25.100     1319
   25.130     1358
   25.160     1295
   25.190     1268
   25.220     1244
   25.250     1267
   25.280     1239
   25.310     1224
   25.340     1310
   25.370     1312
   25.400     1246
   25.430     1260
   25.460     1199
   25.490     1190
   25.520     1200
   25.550     1191
   25.580     1211
   25.610     1252
   25.640     1137
   25.670     1205
   25.700     1213
   25.730     1079
   25.760     1211
   25.790     1227
   25.820     1225
   25.850     1207
   25.880     1135
   25.910     1224
   25.940     1178
   25.970     1170
   26.000     1208
   26.030     1277
   26.060     1211
   26.090     1275
   26.120     1135
   26.150     1224
   26.180     1161
   26.210     1199
   26.240     1230
   26.270     1140
   26.300     1139
   26.330     1162
   26.360     1216
   26.390     1161
   26.420     1206
   26.450     1170
   26.480     1135
   26.510     1122
   26.540     1146
   26.570     1177
   26.600     1086
   26.630     1160
   26.660     1140
   26.690     1137
   26.720     1196
   26.750     1123
   26.780     1092
   26.810     1105
   26.840     1150
   26.870     1127
   26.900     1124
   26.930     1144
   26.960     1175
   26.990     1069
   27.020     1108
   27.050     1130
   27.080     1191
   27.110     1085
   27.140     1064
   27.170     1143
   27.200     1134
   27.230     1079
   27.260     1170
   27.290     1101
   27.320     1143
   27.350     1167
   27.380     1107
   27.410     1073
   27.440     1128
   27.470     1126
   27.500     1135
   27.530     1109
   27.560     1041
   27.590     1126
   27.620     1146
   27.650     1036
   27.680     1182
   27.710     1097
   27.740     1126
   27.770     1067
   27.800     1098
   27.830     1129
   27.860     1087
   27.890     1105
   27.920     1038
   27.950     1106
   27.980     1036
   28.010     1136
   28.040     1078
   28.070     1119
   28.100     1132
   28.130     1080
   28.160      981
   28.190      984
   28.220     1075
   28.250     1017
   28.280     1109
   28.310     1043
   28.340     1093
   28.370     1111
   28.400     1077
   28.430     1106
   28.460     1107
   28.490     1052
   28.520     1053
   28.550     1017
   28.580     1038
   28.610     1019
   28.640     1058
   28.670     1015
   28.700     1021
   28.730     1068
   28.760     1051
   28.790     1033
   28.820     1021
   28.850      997
   28.880     1061
   28.910     1016
   28.940     1028
   28.970     1039
   29.000     1049
   29.030      989
   29.060     1001
   29.090      993
   29.120     1005
   29.150      978
   29.180      939
   29.210     1007
   29.240      952
   29.270     1002
   29.300     1022
   29.330     1024
   29.360      984
   29.390     1018
   29.420     1039
   29.450      965
   29.480      956
   29.510     1033
   29.540      952
   29.570      954
   29.600      976
   29.630      942
   29.660     1009
   29.690      965
   29.720      993
   29.750     1025
   29.780      973
   29.810      985
   29.840      974
   29.870      993
   29.900      891
   29.930      972
   29.960      910
   29.990      949
   30.020      972
   30.050      908
   30.080      932
   30.110      897
   30.140      905
   30.170      928
   30.200      922
   30.230      947
   30.260      876
   30.290      916
   30.320      872
   30.350      912
   30.380      932
   30.410      957
   30.440      912
   30.470      914
   30.500      846
   30.530      868
   30.560      898
   30.590      919
   30.620      945
   30.650      857
   30.680      916
   30.710      912
   30.740      935
   30.770      951
   30.800      967
   30.830      886
   30.860      907
   30.890      929
   30.920      964
   30.950      904
   30.980      924
   31.010      891
   31.040      850
   31.070      925
   31.100      946
   31.130      928
   31.160      833
   31.190      849
   31.220      848
   31.250      915
   31.280      865
   31.310      850
   31.340      889
   31.370      877
   31.400      861
   31.430      879
   31.460      911
   31.490      865
   31.520      837
   31.550      873
   31.580      893
   31.610      909
   31.640      834
   31.670      875
   31.700      848
   31.730      827
   31.760      863
   31.790      784
   31.820      863
   31.850      824
   31.880      810
   31.910      852
   31.940      832
   31.970      853
   32.000      850
   32.030      881
   32.060      823
   32.090      793
   32.120      848
   32.150      872
   32.180      828
   32.210      851
   32.240      830
   32.270      804
   32.300      808
   32.330      824
   32.360      843
   32.390      836
   32.420      873
   32.450      827
   32.480      830
   32.510      800
   32.540      826
   32.570      902
   32.600      806
   32.630      850
   32.660      795
   32.690      784
   32.720      814
   32.750      740
   32.780      768
   32.810      776
   32.840      778
   32.870      804
   32.900      784
   32.930      778
   32.960      802
   32.990      764
   33.020      780
   33.050      828
   33.080      792
   33.110      761
   33.140      741
   33.170      769
   33.200      769
   33.230      750
   33.260      795
   33.290      790
   33.320      731
   33.350      793
   33.380      729
   33.410      733
   33.440      761
   33.470      727
   33.500      767
   33.530      720
   33.560      733
   33.590      755
   33.620      722
   33.650      740
   33.680      786
   33.710      703
   33.740      745
   33.770      755
   33.800      750
   33.830      745
   33.860      713
   33.890      762
   33.920      748
   33.950      725
   33.980      750
   34.010      734
   34.040      704
   34.070      666
   34.100      758
   34.130      716
   34.160      727
   34.190      661
   34.220      708
   34.250      688
   34.280      748
   34.310      708
   34.340      759
   34.370      708
   34.400      711
   34.430      745
   34.460      712
   34.490      721
   34.520      712
   34.550      695
   34.580      706
   34.610      695
   34.640      669
   34.670      666
   34.700      675
   34.730      683
   34.760      688
   34.790      647
   34.820      678
   34.850      648
   34.880      677
   34.910      682
   34.940      678
   34.970      674
   35.000      686
   35.030      651
   35.060      717
   35.090      666
   35.120      657
   35.150      680
   35.180      632
   35.210      739
   35.240      672
   35.270      692
   35.300      661
   35.330      647
   35.360      682
   35.390      642
   35.420      653
   35.450      656
   35.480      648
   35.510      670
   35.540      651
   35.570      687
   35.600      660
   35.630      616
   35.660      632
   35.690      645
   35.720      662
   35.750      613
   35.780      622
   35.810      621
   35.840      621
   35.870      643
   35.900      634
   35.930      595
   35.960      594
   35.990      634
   36.020      645
   36.050      577
   36.080      645
   36.110      596
   36.140      570
   36.170      604
   36.200      609
   36.230      596
   36.260      577
   36.290      612
   36.320      636
   36.350      590
   36.380      609
   36.410      641
   36.440      573
   36.470      596
   36.500      577
   36.530      583
   36.560      557
   36.590      607
   36.620      640
   36.650      567
   36.680      607
   36.710      621
   36.740      620
   36.770      617
   36.800      649
   36.830      595
   36.860      636
   36.890      632
   36.920      609
   36.950      576
   36.980      620
   37.010      617
   37.040      591
   37.070      641
   37.100      663
   37.130      631
   37.160      582
   37.190      567
   37.220      595
   37.250      618
   37.280      587
   37.310      572
   37.340      593
   37.370      623
   37.400      580
   37.430      578
   37.460      604
   37.490      553
   37.520      559
   37.550      561
   37.580      629
   37.610      564
   37.640      564
   37.670      596
   37.700      590
   37.730      544
   37.760      601
   37.790      537
   37.820      593
   37.850      578
   37.880      565
   37.910      547
   37.940      566
   37.970      584
   38.000      558
   38.030      577
   38.060      539
   38.090      558
   38.120      544
   38.150      570
   38.180      519
   38.210      581
   38.240      594
   38.270      569
   38.300      570
   38.330      552
   38.360      586
   38.390      556
   38.420      563
   38.450      553
   38.480      576
   38.510      572
   38.540      559
   38.570      550
   38.600      524
   38.630      572
   38.660      524
   38.690      570
   38.720      578
   38.750      542
   38.780      515
   38.810      548
   38.840      560
   38.870      543
   38.900      562
   38.930      523
   38.960      556
   38.990      543
   39.020      565
   39.050      563
   39.080      566
   39.110      537
   39.140      510
   39.170      534
   39.200      543
   39.230      535
   39.260      565
   39.290      541
   39.320      593
   39.350      570
   39.380      550
   39.410      514
   39.440      599
   39.470      528
   39.500      518
   39.530      493
   39.560      550
   39.590      532
   39.620      543
   39.650      539
   39.680      563
   39.710      499
   39.740      524
   39.770      541
   39.800      521
   39.830      576
   39.860      569
   39.890      570
   39.920      523
   39.950      546
   39.980      520
   40.010      585
   40.040      569
   40.070      547
   40.100      609
   40.130      526
   40.160      550
   40.190      498
   40.220      581
   40.250      550
   40.280      567
   40.310      525
   40.340      573
   40.370      538
   40.400      539
   40.430      561
   40.460      529
   40.490      593
   40.520      539
   40.550      539
   40.580      521
   40.610      576
   40.640      591
   40.670      543
   40.700      547
   40.730      573
   40.760      550
   40.790      516
   40.820      523
   40.850      528
   40.880      554
   40.910      546
   40.940      527
   40.970      547
   41.000      523
   41.030      546
   41.060      571
   41.090      559
   41.120      542
   41.150      587
   41.180      540
   41.210      580
   41.240      532
   41.270      591
   41.300      551
   41.330      569
   41.360      563
   41.390      592
   41.420      575
   41.450      584
   41.480      536
   41.510      546
   41.540      561
   41.570      564
   41.600      530
   41.630      496
   41.660      541
   41.690      535
   41.720      509
   41.750      521
   41.780      493
   41.810      532
   41.840      527
   41.870      577
   41.900      508
   41.930      542
   41.960      542
   41.990      536
   42.020      576
   42.050      500
   42.080      515
   42.110      542
   42.140      502
   42.170      507
   42.200      538
   42.230      541
   42.260      523
   42.290      495
   42.320      509
   42.350      496
   42.380      523
   42.410      539
   42.440      513
   42.470      526
   42.500      515
   42.530      520
   42.560      526
   42.590      509
   42.620      530
   42.650      499
   42.680      521
   42.710      494
   42.740      512
   42.770      532
   42.800      525
   42.830      501
   42.860      541
   42.890      564
   42.920      509
   42.950      526
   42.980      527
   43.010      497
   43.040      473
   43.070      516
   43.100      575
   43.130      560
   43.160      539
   43.190      491
   43.220      521
   43.250      526
   43.280      562
   43.310      467
   43.340      548
   43.370      508
   43.400      476
   43.430      475
   43.460      524
   43.490      493
   43.520      509
   43.550      542
   43.580      520
   43.610      556
   43.640      523
   43.670      532
   43.700      548
   43.730      528
   43.760      520
   43.790      488
   43.820      526
   43.850      523
   43.880      484
   43.910      480
   43.940      481
   43.970      485
   43.985      482