File: data/MIL-88B_101/PXRD/PXRD_S-15_Cu-Kα1_capillary-0.7mm.xyd
    2.000     2031
    2.030     2052
    2.060     2060
    2.090     1929
    2.120     2012
    2.150     2124
    2.180     2031
    2.210     2039
    2.240     2143
    2.270     2097
    2.300     2156
    2.330     2129
    2.360     2239
    2.390     2282
    2.420     2294
    2.450     2327
    2.480     2422
    2.510     2324
    2.540     2447
    2.570     2597
    2.600     2607
    2.630     2774
    2.660     3065
    2.690     3324
    2.720     3209
    2.750     2645
    2.780     2310
    2.810     2395
    2.840     2362
    2.870     2519
    2.900     2681
    2.930     2539
    2.960     2766
    2.990     2751
    3.020     2873
    3.050     3018
    3.080     3286
    3.110     3694
    3.140     4099
    3.170     4745
    3.200     4421
    3.230     3342
    3.260     2779
    3.290     2810
    3.320     3085
    3.350     2791
    3.380     2188
    3.410     1915
    3.440     1889
    3.470     1851
    3.500     1956
    3.530     1854
    3.560     1876
    3.590     1909
    3.620     1909
    3.650     1902
    3.680     2034
    3.710     1942
    3.740     1950
    3.770     2048
    3.800     2125
    3.830     2256
    3.860     2176
    3.890     2165
    3.920     1928
    3.950     1895
    3.980     1910
    4.010     2038
    4.040     1989
    4.070     1926
    4.100     2032
    4.130     1954
    4.160     2071
    4.190     2048
    4.220     2066
    4.250     2030
    4.280     1973
    4.310     1796
    4.340     1883
    4.370     1865
    4.400     1899
    4.430     1915
    4.460     1962
    4.490     1952
    4.520     1947
    4.550     1994
    4.580     2044
    4.610     2002
    4.640     2107
    4.670     2194
    4.700     2226
    4.730     2387
    4.760     2327
    4.790     2184
    4.820     2070
    4.850     2103
    4.880     2186
    4.910     2264
    4.940     2415
    4.970     2557
    5.000     2788
    5.030     2902
    5.060     2582
    5.090     2106
    5.120     1839
    5.150     1945
    5.180     1920
    5.210     1937
    5.240     1928
    5.270     1959
    5.300     1986
    5.330     1889
    5.360     2021
    5.390     2132
    5.420     2138
    5.450     2153
    5.480     2151
    5.510     2209
    5.540     2152
    5.570     1998
    5.600     2034
    5.630     2108
    5.660     2246
    5.690     2335
    5.720     2690
    5.750     2603
    5.780     2159
    5.810     1987
    5.840     1876
    5.870     1855
    5.900     1786
    5.930     1855
    5.960     1828
    5.990     1823
    6.020     1905
    6.050     1854
    6.080     1817
    6.110     1848
    6.140     1854
    6.170     1831
    6.200     1845
    6.230     1811
    6.260     1860
    6.290     1837
    6.320     1822
    6.350     1812
    6.380     1913
    6.410     1945
    6.440     1813
    6.470     1864
    6.500     1847
    6.530     1772
    6.560     1853
    6.590     1822
    6.620     1856
    6.650     1757
    6.680     1736
    6.710     1875
    6.740     1840
    6.770     1907
    6.800     1928
    6.830     1894
    6.860     1875
    6.890     1853
    6.920     1820
    6.950     1844
    6.980     1942
    7.010     1900
    7.040     1981
    7.070     1893
    7.100     1907
    7.130     1903
    7.160     1849
    7.190     1898
    7.220     1930
    7.250     1851
    7.280     2010
    7.310     1835
    7.340     1842
    7.370     1926
    7.400     1915
    7.430     1892
    7.460     1887
    7.490     1881
    7.520     1849
    7.550     1928
    7.580     1907
    7.610     1881
    7.640     1937
    7.670     1884
    7.700     1954
    7.730     1917
    7.760     2074
    7.790     1969
    7.820     2108
    7.850     2153
    7.880     2202
    7.910     2261
    7.940     2201
    7.970     2273
    8.000     2096
    8.030     2213
    8.060     2094
    8.090     2108
    8.120     2188
    8.150     2344
    8.180     2276
    8.210     2628
    8.240     2865
    8.270     3074
    8.300     2953
    8.330     2484
    8.360     2381
    8.390     2457
    8.420     2717
    8.450     2795
    8.480     2598
    8.510     2425
    8.540     2396
    8.570     2555
    8.600     2544
    8.630     2763
    8.660     3094
    8.690     3562
    8.720     4009
    8.750     3715
    8.780     3493
    8.810     3677
    8.840     4306
    8.870     5403
    8.900     5707
    8.930     4967
    8.960     4171
    8.990     3607
    9.020     3561
    9.050     3820
    9.080     4368
    9.110     4910
    9.140     5599
    9.170     6843
    9.200     8862
    9.230    11206
    9.260    13393
    9.290     9817
    9.320     5217
    9.350     2924
    9.380     2558
    9.410     2584
    9.440     2832
    9.470     3008
    9.500     3648
    9.530     4418
    9.560     4692
    9.590     3928
    9.620     2900
    9.650     2427
    9.680     2646
    9.710     2609
    9.740     2630
    9.770     2131
    9.800     2179
    9.830     2128
    9.860     2212
    9.890     2374
    9.920     2260
    9.950     2354
    9.980     2431
   10.010     2448
   10.040     2312
   10.070     2302
   10.100     2672
   10.130     2849
   10.160     2899
   10.190     2568
   10.220     2230
   10.250     2050
   10.280     2180
   10.310     1939
   10.340     2054
   10.370     2069
   10.400     2072
   10.430     2119
   10.460     2147
   10.490     2252
   10.520     2170
   10.550     2070
   10.580     2136
   10.610     2079
   10.640     2131
   10.670     2141
   10.700     2208
   10.730     2262
   10.760     2210
   10.790     2090
   10.820     2120
   10.850     2067
   10.880     2111
   10.910     2276
   10.940     2301
   10.970     2161
   11.000     2257
   11.030     2315
   11.060     2398
   11.090     2314
   11.120     2222
   11.150     2227
   11.180     2240
   11.210     2324
   11.240     2223
   11.270     2274
   11.300     2173
   11.330     2128
   11.360     2277
   11.390     2230
   11.420     2180
   11.450     2151
   11.480     2173
   11.510     2260
   11.540     2303
   11.570     2220
   11.600     2216
   11.630     2062
   11.660     2161
   11.690     2153
   11.720     2311
   11.750     2184
   11.780     2202
   11.810     2172
   11.840     2157
   11.870     2273
   11.900     2261
   11.930     2232
   11.960     2131
   11.990     2152
   12.020     2165
   12.050     2203
   12.080     2194
   12.110     2205
   12.140     2205
   12.170     2277
   12.200     2368
   12.230     2394
   12.260     2519
   12.290     2518
   12.320     2774
   12.350     2900
   12.380     3448
   12.410     4072
   12.440     4621
   12.470     4522
   12.500     3519
   12.530     2554
   12.560     2329
   12.590     2261
   12.620     2299
   12.650     2202
   12.680     2206
   12.710     2302
   12.740     2348
   12.770     2278
   12.800     2335
   12.830     2325
   12.860     2314
   12.890     2396
   12.920     2289
   12.950     2253
   12.980     2337
   13.010     2289
   13.040     2377
   13.070     2397
   13.100     2422
   13.130     2329
   13.160     2233
   13.190     2411
   13.220     2321
   13.250     2264
   13.280     2302
   13.310     2274
   13.340     2385
   13.370     2443
   13.400     2402
   13.430     2382
   13.460     2366
   13.490     2258
   13.520     2328
   13.550     2532
   13.580     2510
   13.610     2518
   13.640     2498
   13.670     2642
   13.700     2797
   13.730     3043
   13.760     3406
   13.790     3314
   13.820     3347
   13.850     2947
   13.880     2590
   13.910     2438
   13.940     2408
   13.970     2536
   14.000     2430
   14.030     2519
   14.060     2493
   14.090     2420
   14.120     2470
   14.150     2627
   14.180     2358
   14.210     2466
   14.240     2467
   14.270     2436
   14.300     2552
   14.330     2591
   14.360     2592
   14.390     2627
   14.420     2676
   14.450     2661
   14.480     2568
   14.510     2596
   14.540     2639
   14.570     2675
   14.600     2539
   14.630     2662
   14.660     2614
   14.690     2640
   14.720     2737
   14.750     2591
   14.780     2688
   14.810     2769
   14.840     2731
   14.870     2789
   14.900     2851
   14.930     2747
   14.960     2921
   14.990     2794
   15.020     2914
   15.050     2965
   15.080     2899
   15.110     2889
   15.140     2756
   15.170     2856
   15.200     2874
   15.230     2775
   15.260     2967
   15.290     2872
   15.320     2887
   15.350     2898
   15.380     2851
   15.410     2746
   15.440     2951
   15.470     2913
   15.500     3102
   15.530     2782
   15.560     2918
   15.590     2886
   15.620     3006
   15.650     2924
   15.680     3037
   15.710     2954
   15.740     3077
   15.770     3028
   15.800     3211
   15.830     3442
   15.860     3418
   15.890     3771
   15.920     3899
   15.950     3967
   15.980     3942
   16.010     3840
   16.040     3492
   16.070     3348
   16.100     3341
   16.130     3151
   16.160     3402
   16.190     3425
   16.220     3598
   16.250     3640
   16.280     3993
   16.310     3741
   16.340     3844
   16.370     3924
   16.400     3982
   16.430     4575
   16.460     5051
   16.490     5062
   16.520     4515
   16.550     3994
   16.580     3519
   16.610     3472
   16.640     3672
   16.670     3607
   16.700     3731
   16.730     3808
   16.760     3852
   16.790     3994
   16.820     4142
   16.850     4132
   16.880     4061
   16.910     3873
   16.940     3774
   16.970     3704
   17.000     3677
   17.030     3706
   17.060     3718
   17.090     3545
   17.120     3550
   17.150     3749
   17.180     3695
   17.210     3912
   17.240     3711
   17.270     3826
   17.300     3776
   17.330     3710
   17.360     3642
   17.390     3975
   17.420     3973
   17.450     3963
   17.480     3917
   17.510     4007
   17.540     4015
   17.570     3940
   17.600     4153
   17.630     4067
   17.660     4255
   17.690     4153
   17.720     4495
   17.750     4353
   17.780     3982
   17.810     4139
   17.840     4139
   17.870     4202
   17.900     3978
   17.930     4023
   17.960     3955
   17.990     4017
   18.020     4101
   18.050     4102
   18.080     4086
   18.110     4032
   18.140     3971
   18.170     4114
   18.200     4062
   18.230     4119
   18.260     4141
   18.290     4316
   18.320     4289
   18.350     4210
   18.380     4602
   18.410     4728
   18.440     4734
   18.470     5154
   18.500     5344
   18.530     5706
   18.560     6121
   18.590     7291
   18.620     9011
   18.650     9611
   18.680     9390
   18.710     7825
   18.740     6120
   18.770     5024
   18.800     4697
   18.830     4548
   18.860     4204
   18.890     4314
   18.920     4424
   18.950     4401
   18.980     4381
   19.010     4334
   19.040     4453
   19.070     4578
   19.100     4714
   19.130     4588
   19.160     4508
   19.190     5073
   19.220     5362
   19.250     5532
   19.280     5494
   19.310     4913
   19.340     4670
   19.370     4493
   19.400     4297
   19.430     4330
   19.460     4394
   19.490     4251
   19.520     4309
   19.550     4366
   19.580     4416
   19.610     4473
   19.640     4134
   19.670     4337
   19.700     4289
   19.730     4255
   19.760     4597
   19.790     4202
   19.820     4404
   19.850     4412
   19.880     4143
   19.910     4327
   19.940     4361
   19.970     4335
   20.000     4152
   20.030     4388
   20.060     4273
   20.090     4305
   20.120     4316
   20.150     4285
   20.180     4141
   20.210     4272
   20.240     4151
   20.270     4151
   20.300     4240
   20.330     4200
   20.360     4296
   20.390     4297
   20.420     4324
   20.450     4281
   20.480     4170
   20.510     4160
   20.540     4183
   20.570     4275
   20.600     4061
   20.630     4137
   20.660     4210
   20.690     4238
   20.720     4290
   20.750     4128
   20.780     4225
   20.810     4488
   20.840     4542
   20.870     4695
   20.900     4628
   20.930     4466
   20.960     4368
   20.990     4130
   21.020     4408
   21.050     4321
   21.080     4298
   21.110     4529
   21.140     4421
   21.170     4731
   21.200     4797
   21.230     4386
   21.260     4667
   21.290     4364
   21.320     4190
   21.350     4152
   21.380     4056
   21.410     3994
   21.440     4232
   21.470     4129
   21.500     4385
   21.530     4197
   21.560     4271
   21.590     4381
   21.620     4843
   21.650     5125
   21.680     6171
   21.710     6126
   21.740     6751
   21.770     5956
   21.800     5503
   21.830     4933
   21.860     4093
   21.890     4060
   21.920     3972
   21.950     3784
   21.980     3760
   22.010     3984
   22.040     3896
   22.070     3849
   22.100     4059
   22.130     3774
   22.160     3777
   22.190     3731
   22.220     4018
   22.250     3700
   22.280     3955
   22.310     3623
   22.340     3728
   22.370     3886
   22.400     3768
   22.430     3820
   22.460     3802
   22.490     3844
   22.520     3823
   22.550     3820
   22.580     3864
   22.610     3721
   22.640     3819
   22.670     3681
   22.700     3628
   22.730     3798
   22.760     3662
   22.790     3731
   22.820     3551
   22.850     3504
   22.880     3731
   22.910     3685
   22.940     3770
   22.970     3592
   23.000     3588
   23.030     3511
   23.060     3631
   23.090     3547
   23.120     3421
   23.150     3613
   23.180     3587
   23.210     3724
   23.240     3672
   23.270     3886
   23.300     3808
   23.330     3764
   23.360     3886
   23.390     3980
   23.420     3783
   23.450     3730
   23.480     3475
   23.510     3526
   23.540     3712
   23.570     3532
   23.600     3628
   23.630     3466
   23.660     3529
   23.690     3604
   23.720     3801
   23.750     3782
   23.780     3778
   23.810     3773
   23.840     3844
   23.870     3727
   23.900     3588
   23.930     3627
   23.960     3451
   23.990     3428
   24.020     3682
   24.050     3442
   24.080     3443
   24.110     3469
   24.140     3388
   24.170     3445
   24.200     3476
   24.230     3462
   24.260     3335
   24.290     3351
   24.320     3359
   24.350     3462
   24.380     3620
   24.410     3676
   24.440     3503
   24.470     3610
   24.500     3560
   24.530     3614
   24.560     3691
   24.590     3611
   24.620     3617
   24.650     3467
   24.680     3373
   24.710     3190
   24.740     3496
   24.770     3355
   24.800     3552
   24.830     3404
   24.860     3218
   24.890     3357
   24.920     3305
   24.950     3144
   24.980     3312
   25.010     3283
   25.040     3383
   25.070     3551
   25.100     3684
   25.130     3446
   25.160     3386
   25.190     3602
   25.220     3347
   25.250     3325
   25.280     3311
   25.310     3143
   25.340     3297
   25.370     3379
   25.400     3328
   25.430     3447
   25.460     3349
   25.490     3266
   25.520     3249
   25.550     3351
   25.580     3328
   25.610     3428
   25.640     3221
   25.670     3645
   25.700     3876
   25.730     3806
   25.760     4076
   25.790     3591
   25.820     3739
   25.850     3528
   25.880     3276
   25.910     3659
   25.940     3890
   25.970     3930
   26.000     3823
   26.030     3918
   26.060     3552
   26.090     3303
   26.120     3187
   26.150     3139
   26.180     3019
   26.210     3068
   26.240     3081
   26.270     2988
   26.300     3113
   26.330     3118
   26.360     3142
   26.390     3121
   26.420     3134
   26.450     3028
   26.480     3050
   26.510     3072
   26.540     3005
   26.570     3242
   26.600     3095
   26.630     3113
   26.660     3107
   26.690     3025
   26.720     3211
   26.750     3034
   26.780     2970
   26.810     3032
   26.840     2948
   26.870     3109
   26.900     2979
   26.930     2961
   26.960     3103
   26.990     2914
   27.020     3062
   27.050     3076
   27.080     3086
   27.110     3091
   27.140     2976
   27.170     3027
   27.200     3100
   27.230     2970
   27.260     3290
   27.290     3132
   27.320     2968
   27.350     3104
   27.380     2946
   27.410     2886
   27.440     3023
   27.470     2837
   27.500     3155
   27.530     2964
   27.560     2904
   27.590     2915
   27.620     3013
   27.650     2967
   27.680     3126
   27.710     2939
   27.740     3228
   27.770     3105
   27.800     3247
   27.830     3459
   27.860     3285
   27.890     3386
   27.920     3270
   27.950     3187
   27.980     3136
   28.010     3163
   28.040     3086
   28.070     3152
   28.100     3450
   28.130     3461
   28.160     3715
   28.190     3792
   28.220     3941
   28.250     3455
   28.280     3346
   28.310     3013
   28.340     3008
   28.370     3005
   28.400     2891
   28.430     2968
   28.460     2951
   28.490     2874
   28.520     2891
   28.550     2822
   28.580     2875
   28.610     2840
   28.640     2875
   28.670     2854
   28.700     2909
   28.730     3016
   28.760     3019
   28.790     2995
   28.820     2978
   28.850     2819
   28.880     2896
   28.910     2979
   28.940     2976
   28.970     2878
   29.000     2825
   29.030     2748
   29.060     2964
   29.090     2894
   29.120     2777
   29.150     2915
   29.180     2774
   29.210     2881
   29.240     2708
   29.270     2884
   29.300     2831
   29.330     2753
   29.360     2827
   29.390     2941
   29.420     2917
   29.450     3023
   29.480     2996
   29.510     2999
   29.540     3042
   29.570     2869
   29.600     3007
   29.630     2844
   29.660     2827
   29.690     2646
   29.720     2913
   29.750     2755
   29.780     2709
   29.810     2715
   29.840     2750
   29.870     2826
   29.900     2687
   29.930     2700
   29.960     2580
   29.990     2619
   30.020     2752
   30.050     2635
   30.080     2625
   30.110     2688
   30.140     2612
   30.170     2606
   30.200     2717
   30.230     2720
   30.260     2599
   30.290     2649
   30.320     2682
   30.350     2629
   30.380     2686
   30.410     2699
   30.440     2672
   30.470     2774
   30.500     2662
   30.530     2636
   30.560     2745
   30.590     2814
   30.620     2911
   30.650     2750
   30.680     2839
   30.710     2817
   30.740     2838
   30.770     2766
   30.800     2681
   30.830     2608
   30.860     2591
   30.890     2729
   30.920     2546
   30.950     2525
   30.980     2635
   31.010     2573
   31.040     2598
   31.070     2759
   31.100     2800
   31.130     2560
   31.160     2503
   31.190     2638
   31.220     2461
   31.250     2437
   31.280     2534
   31.310     2492
   31.340     2581
   31.370     2578
   31.400     2495
   31.430     2537
   31.460     2584
   31.490     2467
   31.520     2433
   31.550     2554
   31.580     2626
   31.610     2540
   31.640     2435
   31.670     2431
   31.700     2490
   31.730     2404
   31.760     2520
   31.790     2342
   31.820     2511
   31.850     2479
   31.880     2336
   31.910     2419
   31.940     2460
   31.970     2515
   32.000     2348
   32.030     2570
   32.060     2447
   32.090     2367
   32.120     2444
   32.150     2469
   32.180     2416
   32.210     2439
   32.240     2461
   32.270     2472
   32.300     2760
   32.330     2863
   32.360     3027
   32.390     3089
   32.420     2991
   32.450     2962
   32.480     2707
   32.510     2688
   32.540     2733
   32.570     2841
   32.600     2732
   32.630     2690
   32.660     2645
   32.690     2591
   32.720     2569
   32.750     2460
   32.780     2450
   32.810     2450
   32.840     2424
   32.870     2472
   32.900     2476
   32.930     2364
   32.960     2510
   32.990     2390
   33.020     2451
   33.050     2532
   33.080     2446
   33.110     2450
   33.140     2272
   33.170     2378
   33.200     2400
   33.230     2354
   33.260     2535
   33.290     2451
   33.320     2527
   33.350     2659
   33.380     2751
   33.410     2622
   33.440     2694
   33.470     2465
   33.500     2619
   33.530     2358
   33.560     2345
   33.590     2297
   33.620     2386
   33.650     2428
   33.680     2505
   33.710     2354
   33.740     2443
   33.770     2341
   33.800     2480
   33.830     2451
   33.860     2384
   33.890     2484
   33.920     2391
   33.950     2251
   33.980     2325
   34.010     2445
   34.040     2439
   34.070     2439
   34.100     2717
   34.130     2569
   34.160     2608
   34.190     2515
   34.220     2598
   34.250     2444
   34.280     2481
   34.310     2206
   34.340     2403
   34.370     2604
   34.400     2443
   34.430     2601
   34.460     2486
   34.490     2411
   34.520     2362
   34.550     2240
   34.580     2294
   34.610     2216
   34.640     2153
   34.670     2171
   34.700     2154
   34.730     2286
   34.760     2181
   34.790     2203
   34.820     2189
   34.850     2142
   34.880     2082
   34.910     2271
   34.940     2235
   34.970     2208
   35.000     2270
   35.030     2236
   35.060     2296
   35.090     2315
   35.120     2232
   35.150     2331
   35.180     2240
   35.210     2241
   35.240     2148
   35.270     2400
   35.300     2225
   35.330     2173
   35.360     2202
   35.390     2192
   35.420     2213
   35.450     2185
   35.480     2174
   35.510     2160
   35.540     2204
   35.570     2113
   35.600     2201
   35.630     2131
   35.660     2201
   35.690     2229
   35.720     2317
   35.750     2232
   35.780     2149
   35.810     2162
   35.840     2123
   35.870     2181
   35.900     2063
   35.930     2151
   35.960     2053
   35.990     2090
   36.020     2134
   36.050     2046
   36.080     2063
   36.110     2046
   36.140     2036
   36.170     2061
   36.200     2132
   36.230     2041
   36.260     2101
   36.290     2160
   36.320     2046
   36.350     2085
   36.380     2141
   36.410     2164
   36.440     2073
   36.470     2126
   36.500     2066
   36.530     2083
   36.560     2124
   36.590     2240
   36.620     2246
   36.650     2185
   36.680     2164
   36.710     2260
   36.740     2296
   36.770     2240
   36.800     2218
   36.830     2123
   36.860     2112
   36.890     2112
   36.920     2068
   36.950     1977
   36.980     2127
   37.010     2067
   37.040     1977
   37.070     2053
   37.100     2071
   37.130     2126
   37.160     2036
   37.190     2139
   37.220     2102
   37.250     2116
   37.280     2089
   37.310     2037
   37.340     2039
   37.370     2264
   37.400     2140
   37.430     2081
   37.460     2100
   37.490     2190
   37.520     2194
   37.550     2298
   37.580     2229
   37.610     2239
   37.640     2130
   37.670     2046
   37.700     2062
   37.730     2024
   37.760     2122
   37.790     2048
   37.820     2156
   37.850     2242
   37.880     2164
   37.910     2318
   37.940     2302
   37.970     2340
   38.000     2150
   38.030     2287
   38.060     2142
   38.090     2077
   38.120     1971
   38.150     2106
   38.180     1965
   38.210     2126
   38.240     2092
   38.270     1989
   38.300     2000
   38.330     2084
   38.360     2041
   38.390     2105
   38.420     2055
   38.450     2119
   38.480     2050
   38.510     1980
   38.540     1995
   38.570     2045
   38.600     2024
   38.630     1971
   38.660     1973
   38.690     2063
   38.720     2000
   38.750     2005
   38.780     2036
   38.810     2058
   38.840     1986
   38.870     2043
   38.900     1977
   38.930     1986
   38.960     2045
   38.990     1983
   39.020     2033
   39.050     2088
   39.080     2043
   39.110     2016
   39.140     1959
   39.170     2072
   39.200     2055
   39.230     2022
   39.260     2167
   39.290     2112
   39.320     2008
   39.350     2065
   39.380     2059
   39.410     1908
   39.440     1983
   39.470     1940
   39.500     2080
   39.530     1862
   39.560     1966
   39.590     1922
   39.620     1974
   39.650     1939
   39.680     2061
   39.710     1900
   39.740     2007
   39.770     1980
   39.800     2109
   39.830     2026
   39.860     2037
   39.890     2058
   39.920     2046
   39.950     1981
   39.980     2060
   40.010     2110
   40.040     2078
   40.070     2075
   40.100     2176
   40.130     2050
   40.160     2090
   40.190     1980
   40.220     1979
   40.250     2077
   40.280     2045
   40.310     1934
   40.340     2024
   40.370     2075
   40.400     1977
   40.430     2122
   40.460     2261
   40.490     2292
   40.520     2362
   40.550     2442
   40.580     2419
   40.610     2298
   40.640     2287
   40.670     2136
   40.700     2075
   40.730     2194
   40.760     2107
   40.790     2058
   40.820     2027
   40.850     2004
   40.880     2056
   40.910     2088
   40.940     2075
   40.970     2028
   41.000     2014
   41.030     2043
   41.060     2039
   41.090     2074
   41.120     2064
   41.150     2098
   41.180     2014
   41.210     2123
   41.240     1974
   41.270     2092
   41.300     2031
   41.330     2013
   41.360     2014
   41.390     2067
   41.420     2049
   41.450     2101
   41.480     2034
   41.510     2155
   41.540     2310
   41.570     2310
   41.600     2318
   41.630     2301
   41.660     2348
   41.690     2383
   41.720     2511
   41.750     2282
   41.780     2182
   41.810     2174
   41.840     2171
   41.870     2215
   41.900     2230
   41.930     2211
   41.960     2169
   41.990     2157
   42.020     2260
   42.050     2210
   42.080     2157
   42.110     2061
   42.140     2093
   42.170     2069
   42.200     2180
   42.230     2145
   42.260     2117
   42.290     2115
   42.320     2174
   42.350     2073
   42.380     2095
   42.410     2166
   42.440     2123
   42.470     2151
   42.500     2121
   42.530     2081
   42.560     2156
   42.590     2112
   42.620     2128
   42.650     2018
   42.680     1975
   42.710     2017
   42.740     1996
   42.770     2078
   42.800     2106
   42.830     1922
   42.860     2017
   42.890     2004
   42.920     1936
   42.950     1902
   42.980     2051
   43.010     1998
   43.040     2043
   43.070     2086
   43.100     2074
   43.130     2002
   43.160     1978
   43.190     2121
   43.220     2037
   43.250     2069
   43.280     2117
   43.310     2028
   43.340     2101
   43.370     2152
   43.400     2009
   43.430     1928
   43.460     1955
   43.490     2060
   43.520     1957
   43.550     2130
   43.580     2063
   43.610     2024
   43.640     2013
   43.670     1994
   43.700     1948
   43.730     1934
   43.760     1956
   43.790     1826
   43.820     1919
   43.850     1944
   43.880     1963
   43.910     1930
   43.940     1898
   43.970     2015
   43.985     1979