File: data/MIL-88B_101/PXRD/PXRD_S-18_Cu-Kα1_capillary-0.7mm_MIL-101-Dry.xyd
    2.000     1201
    2.030     1237
    2.060     1241
    2.090     1157
    2.120     1128
    2.150     1181
    2.180     1106
    2.210     1155
    2.240     1122
    2.270     1119
    2.300     1101
    2.330     1110
    2.360     1128
    2.390     1041
    2.420     1170
    2.450     1087
    2.480     1049
    2.510     1065
    2.540     1089
    2.570     1096
    2.600     1029
    2.630     1077
    2.660     1109
    2.690     1094
    2.720     1082
    2.750     1032
    2.780     1081
    2.810     1093
    2.840     1106
    2.870     1157
    2.900     1120
    2.930     1137
    2.960     1197
    2.990     1217
    3.020     1283
    3.050     1315
    3.080     1402
    3.110     1508
    3.140     1619
    3.170     1936
    3.200     1906
    3.230     1507
    3.260     1277
    3.290     1238
    3.320     1346
    3.350     1303
    3.380     1012
    3.410      879
    3.440      971
    3.470      884
    3.500      949
    3.530      913
    3.560      967
    3.590      915
    3.620      962
    3.650      927
    3.680     1003
    3.710      983
    3.740     1080
    3.770      942
    3.800     1068
    3.830     1212
    3.860     1147
    3.890     1131
    3.920      924
    3.950      864
    3.980      909
    4.010      948
    4.040      976
    4.070      990
    4.100      976
    4.130     1004
    4.160     1122
    4.190     1162
    4.220     1201
    4.250     1014
    4.280      876
    4.310      819
    4.340      799
    4.370      841
    4.400      824
    4.430      871
    4.460      838
    4.490      838
    4.520      839
    4.550      897
    4.580      906
    4.610      928
    4.640      921
    4.670     1047
    4.700     1062
    4.730     1191
    4.760     1101
    4.790     1019
    4.820      961
    4.850      922
    4.880      964
    4.910      990
    4.940     1073
    4.970     1184
    5.000     1353
    5.030     1510
    5.060     1416
    5.090     1105
    5.120      864
    5.150      846
    5.180      830
    5.210      853
    5.240      868
    5.270      844
    5.300      920
    5.330      950
    5.360      899
    5.390      954
    5.420     1041
    5.450     1111
    5.480     1197
    5.510     1218
    5.540     1097
    5.570      934
    5.600      989
    5.630     1035
    5.660     1093
    5.690     1183
    5.720     1494
    5.750     1673
    5.780     1343
    5.810     1051
    5.840      892
    5.870      850
    5.900      810
    5.930      869
    5.960      827
    5.990      857
    6.020      885
    6.050      891
    6.080      909
    6.110      920
    6.140      976
    6.170      938
    6.200      913
    6.230      861
    6.260      815
    6.290      897
    6.320      873
    6.350      906
    6.380      932
    6.410      907
    6.440      891
    6.470      850
    6.500      849
    6.530      832
    6.560      858
    6.590      896
    6.620      878
    6.650      852
    6.680      891
    6.710      845
    6.740      915
    6.770      850
    6.800      876
    6.830      832
    6.860      865
    6.890      893
    6.920      862
    6.950      895
    6.980      897
    7.010      866
    7.040      908
    7.070      962
    7.100     1036
    7.130      963
    7.160      845
    7.190      907
    7.220      894
    7.250      878
    7.280      933
    7.310      889
    7.340      908
    7.370      918
    7.400      928
    7.430      846
    7.460      923
    7.490      967
    7.520      866
    7.550      904
    7.580      918
    7.610      847
    7.640      855
    7.670      843
    7.700      900
    7.730      889
    7.760      968
    7.790      914
    7.820      961
    7.850      937
    7.880      862
    7.910      952
    7.940      979
    7.970      957
    8.000     1049
    8.030      999
    8.060      958
    8.090      981
    8.120     1026
    8.150     1155
    8.180     1058
    8.210     1215
    8.240     1465
    8.270     1785
    8.300     1922
    8.330     1584
    8.360     1301
    8.390     1296
    8.420     1582
    8.450     1868
    8.480     1756
    8.510     1430
    8.540     1216
    8.570     1233
    8.600     1196
    8.630     1332
    8.660     1683
    8.690     2182
    8.720     2904
    8.750     3010
    8.780     2497
    8.810     2172
    8.840     2446
    8.870     3491
    8.900     4703
    8.930     4513
    8.960     3525
    8.990     2031
    9.020     1387
    9.050     1064
    9.080     1055
    9.110      983
    9.140     1025
    9.170     1132
    9.200     1265
    9.230     1469
    9.260     1781
    9.290     1538
    9.320     1284
    9.350     1187
    9.380      942
    9.410      907
    9.440      995
    9.470      983
    9.500     1074
    9.530     1155
    9.560     1165
    9.590     1310
    9.620     1141
    9.650     1074
    9.680     1083
    9.710     1219
    9.740     1389
    9.770     1169
    9.800      936
    9.830      913
    9.860      929
    9.890      949
    9.920      990
    9.950     1114
    9.980     1200
   10.010     1229
   10.040     1150
   10.070     1088
   10.100     1218
   10.130     1427
   10.160     1715
   10.190     1583
   10.220     1284
   10.250      961
   10.280      847
   10.310      829
   10.340      861
   10.370      835
   10.400      838
   10.430      877
   10.460      851
   10.490      915
   10.520      873
   10.550      905
   10.580      843
   10.610      847
   10.640      856
   10.670      900
   10.700      937
   10.730      968
   10.760      933
   10.790      869
   10.820      828
   10.850      807
   10.880      845
   10.910      849
   10.940      831
   10.970      882
   11.000      886
   11.030      942
   11.060      973
   11.090     1088
   11.120      969
   11.150      885
   11.180      810
   11.210      973
   11.240      932
   11.270      938
   11.300      873
   11.330      776
   11.360      810
   11.390      837
   11.420      823
   11.450      819
   11.480      784
   11.510      820
   11.540      858
   11.570      842
   11.600      841
   11.630      812
   11.660      786
   11.690      771
   11.720      751
   11.750      735
   11.780      770
   11.810      745
   11.840      785
   11.870      766
   11.900      726
   11.930      787
   11.960      721
   11.990      795
   12.020      796
   12.050      770
   12.080      746
   12.110      754
   12.140      768
   12.170      764
   12.200      774
   12.230      751
   12.260      721
   12.290      776
   12.320      792
   12.350      838
   12.380      817
   12.410      907
   12.440      947
   12.470      915
   12.500      828
   12.530      725
   12.560      783
   12.590      775
   12.620      760
   12.650      714
   12.680      783
   12.710      719
   12.740      778
   12.770      748
   12.800      799
   12.830      713
   12.860      761
   12.890      775
   12.920      728
   12.950      777
   12.980      808
   13.010      806
   13.040      830
   13.070      768
   13.100      833
   13.130      778
   13.160      719
   13.190      799
   13.220      748
   13.250      759
   13.280      773
   13.310      695
   13.340      729
   13.370      814
   13.400      778
   13.430      758
   13.460      717
   13.490      758
   13.520      745
   13.550      744
   13.580      745
   13.610      799
   13.640      731
   13.670      733
   13.700      733
   13.730      741
   13.760      759
   13.790      757
   13.820      853
   13.850      823
   13.880      787
   13.910      782
   13.940      754
   13.970      756
   14.000      803
   14.030      787
   14.060      794
   14.090      699
   14.120      714
   14.150      772
   14.180      724
   14.210      716
   14.240      770
   14.270      755
   14.300      761
   14.330      793
   14.360      760
   14.390      761
   14.420      769
   14.450      755
   14.480      736
   14.510      750
   14.540      745
   14.570      769
   14.600      735
   14.630      775
   14.660      778
   14.690      772
   14.720      728
   14.750      770
   14.780      792
   14.810      770
   14.840      754
   14.870      781
   14.900      814
   14.930      776
   14.960      758
   14.990      737
   15.020      804
   15.050      832
   15.080      796
   15.110      770
   15.140      782
   15.170      761
   15.200      781
   15.230      807
   15.260      788
   15.290      783
   15.320      854
   15.350      859
   15.380      766
   15.410      756
   15.440      812
   15.470      809
   15.500      853
   15.530      797
   15.560      847
   15.590      823
   15.620      808
   15.650      802
   15.680      862
   15.710      835
   15.740      833
   15.770      817
   15.800      847
   15.830      882
   15.860      856
   15.890      799
   15.920      904
   15.950      908
   15.980     1036
   16.010     1095
   16.040     1014
   16.070      965
   16.100      969
   16.130      917
   16.160      866
   16.190      907
   16.220      977
   16.250     1158
   16.280     1297
   16.310     1489
   16.340     1560
   16.370     1331
   16.400     1034
   16.430      931
   16.460      958
   16.490      994
   16.520      974
   16.550      927
   16.580      876
   16.610      877
   16.640      891
   16.670      967
   16.700     1014
   16.730     1024
   16.760      931
   16.790      961
   16.820      882
   16.850      912
   16.880      891
   16.910      928
   16.940      956
   16.970      920
   17.000      990
   17.030      949
   17.060     1007
   17.090      931
   17.120      856
   17.150      885
   17.180      913
   17.210      955
   17.240      925
   17.270     1030
   17.300      952
   17.330      899
   17.360      839
   17.390      823
   17.420      914
   17.450     1017
   17.480     1021
   17.510     1071
   17.540      967
   17.570      972
   17.600      995
   17.630      963
   17.660     1008
   17.690     1067
   17.720     1287
   17.750     1213
   17.780     1057
   17.810      954
   17.840      929
   17.870      961
   17.900      936
   17.930      995
   17.960      965
   17.990      914
   18.020      890
   18.050      795
   18.080      882
   18.110      832
   18.140      898
   18.170      859
   18.200      907
   18.230      881
   18.260      888
   18.290      874
   18.320      998
   18.350      942
   18.380      949
   18.410      932
   18.440      895
   18.470      976
   18.500      957
   18.530     1040
   18.560     1155
   18.590     1324
   18.620     1312
   18.650     1311
   18.680     1381
   18.710     1283
   18.740     1214
   18.770     1159
   18.800     1178
   18.830     1049
   18.860      963
   18.890      914
   18.920      878
   18.950      926
   18.980      919
   19.010      950
   19.040      885
   19.070      930
   19.100      899
   19.130      903
   19.160      841
   19.190      969
   19.220      958
   19.250     1006
   19.280      943
   19.310      883
   19.340      931
   19.370      980
   19.400      951
   19.430      908
   19.460      903
   19.490      868
   19.520      877
   19.550      868
   19.580      902
   19.610      966
   19.640      907
   19.670      873
   19.700      873
   19.730      838
   19.760      932
   19.790      865
   19.820      966
   19.850      891
   19.880      859
   19.910      825
   19.940      914
   19.970      889
   20.000      925
   20.030      884
   20.060      956
   20.090      817
   20.120      792
   20.150      901
   20.180      847
   20.210      809
   20.240      870
   20.270      894
   20.300      844
   20.330      877
   20.360      877
   20.390      847
   20.420      883
   20.450      884
   20.480      875
   20.510      880
   20.540      875
   20.570      891
   20.600      819
   20.630      873
   20.660      843
   20.690      905
   20.720      838
   20.750      877
   20.780      864
   20.810      863
   20.840      879
   20.870      904
   20.900      909
   20.930      881
   20.960      995
   20.990      889
   21.020      955
   21.050      944
   21.080      924
   21.110      866
   21.140      856
   21.170      928
   21.200      974
   21.230      944
   21.260     1026
   21.290      931
   21.320      930
   21.350      908
   21.380      888
   21.410      880
   21.440      895
   21.470      859
   21.500     1033
   21.530      989
   21.560      919
   21.590      900
   21.620      914
   21.650      884
   21.680      936
   21.710      933
   21.740     1033
   21.770     1013
   21.800     1058
   21.830     1003
   21.860      867
   21.890      926
   21.920      884
   21.950      864
   21.980      896
   22.010      891
   22.040      877
   22.070      920
   22.100      885
   22.130      862
   22.160      910
   22.190      863
   22.220      893
   22.250      885
   22.280      901
   22.310      871
   22.340      896
   22.370      880
   22.400      911
   22.430      944
   22.460      944
   22.490      973
   22.520      908
   22.550      946
   22.580      908
   22.610     1002
   22.640      942
   22.670      930
   22.700      904
   22.730      901
   22.760      895
   22.790      883
   22.820      865
   22.850      872
   22.880      870
   22.910      890
   22.940      920
   22.970      936
   23.000      906
   23.030      854
   23.060      890
   23.090      854
   23.120      849
   23.150      869
   23.180      829
   23.210      885
   23.240      848
   23.270      890
   23.300      933
   23.330      907
   23.360      888
   23.390      953
   23.420      997
   23.450     1063
   23.480     1110
   23.510     1111
   23.540      989
   23.570      912
   23.600      903
   23.630      904
   23.660      947
   23.690      862
   23.720      911
   23.750      929
   23.780      960
   23.810      909
   23.840      963
   23.870      944
   23.900      981
   23.930     1030
   23.960     1008
   23.990     1038
   24.020      951
   24.050      876
   24.080      899
   24.110      896
   24.140      974
   24.170      997
   24.200      966
   24.230      989
   24.260      983
   24.290      943
   24.320      871
   24.350      868
   24.380      926
   24.410      945
   24.440     1008
   24.470     1116
   24.500     1062
   24.530      969
   24.560      981
   24.590     1041
   24.620     1053
   24.650      943
   24.680      945
   24.710      884
   24.740      910
   24.770      905
   24.800      950
   24.830      881
   24.860      905
   24.890      909
   24.920      885
   24.950      841
   24.980      915
   25.010      847
   25.040      883
   25.070      926
   25.100     1027
   25.130      963
   25.160      966
   25.190      993
   25.220      916
   25.250      977
   25.280      934
   25.310      867
   25.340      885
   25.370      926
   25.400      978
   25.430      958
   25.460     1001
   25.490      930
   25.520      819
   25.550      801
   25.580      827
   25.610      884
   25.640      797
   25.670      868
   25.700      843
   25.730      827
   25.760      932
   25.790      848
   25.820      883
   25.850      837
   25.880      835
   25.910      841
   25.940      866
   25.970      838
   26.000      841
   26.030      907
   26.060      959
   26.090      917
   26.120      862
   26.150      888
   26.180      781
   26.210      817
   26.240      877
   26.270      830
   26.300      857
   26.330      859
   26.360      897
   26.390      846
   26.420      865
   26.450      888
   26.480      862
   26.510      887
   26.540      849
   26.570      863
   26.600      826
   26.630      857
   26.660      894
   26.690      948
   26.720      901
   26.750      868
   26.780      864
   26.810      888
   26.840      894
   26.870      880
   26.900      821
   26.930      778
   26.960      882
   26.990      804
   27.020      868
   27.050      835
   27.080      882
   27.110      851
   27.140      829
   27.170      863
   27.200      865
   27.230      850
   27.260      922
   27.290      862
   27.320      835
   27.350      837
   27.380      818
   27.410      725
   27.440      818
   27.470      815
   27.500      849
   27.530      834
   27.560      836
   27.590      808
   27.620      901
   27.650      815
   27.680      903
   27.710      860
   27.740      924
   27.770      852
   27.800      932
   27.830      984
   27.860      850
   27.890      946
   27.920      867
   27.950      818
   27.980      825
   28.010      868
   28.040      837
   28.070      871
   28.100      785
   28.130      864
   28.160      885
   28.190      839
   28.220      927
   28.250      910
   28.280      887
   28.310      836
   28.340      843
   28.370      800
   28.400      854
   28.430      884
   28.460      889
   28.490      913
   28.520      843
   28.550      872
   28.580      805
   28.610      843
   28.640      797
   28.670      809
   28.700      800
   28.730      870
   28.760      844
   28.790      859
   28.820      815
   28.850      885
   28.880      859
   28.910      843
   28.940      807
   28.970      850
   29.000      806
   29.030      774
   29.060      827
   29.090      828
   29.120      815
   29.150      811
   29.180      782
   29.210      781
   29.240      795
   29.270      832
   29.300      846
   29.330      801
   29.360      825
   29.390      779
   29.420      823
   29.450      811
   29.480      836
   29.510      795
   29.540      775
   29.570      798
   29.600      760
   29.630      745
   29.660      816
   29.690      731
   29.720      813
   29.750      793
   29.780      761
   29.810      827
   29.840      823
   29.870      828
   29.900      782
   29.930      748
   29.960      759
   29.990      815
   30.020      814
   30.050      787
   30.080      759
   30.110      761
   30.140      738
   30.170      809
   30.200      892
   30.230      856
   30.260      804
   30.290      794
   30.320      793
   30.350      785
   30.380      768
   30.410      776
   30.440      787
   30.470      821
   30.500      721
   30.530      724
   30.560      743
   30.590      731
   30.620      755
   30.650      786
   30.680      781
   30.710      740
   30.740      770
   30.770      764
   30.800      743
   30.830      711
   30.860      782
   30.890      772
   30.920      699
   30.950      740
   30.980      784
   31.010      764
   31.040      825
   31.070      812
   31.100      883
   31.130      804
   31.160      757
   31.190      780
   31.220      781
   31.250      790
   31.280      763
   31.310      742
   31.340      783
   31.370      816
   31.400      765
   31.430      762
   31.460      774
   31.490      786
   31.520      765
   31.550      752
   31.580      768
   31.610      785
   31.640      747
   31.670      769
   31.700      760
   31.730      714
   31.760      747
   31.790      722
   31.820      753
   31.850      725
   31.880      703
   31.910      742
   31.940      745
   31.970      749
   32.000      744
   32.030      755
   32.060      766
   32.090      706
   32.120      722
   32.150      792
   32.180      723
   32.210      729
   32.240      738
   32.270      724
   32.300      770
   32.330      798
   32.360      765
   32.390      764
   32.420      781
   32.450      795
   32.480      757
   32.510      780
   32.540      853
   32.570      853
   32.600      827
   32.630      837
   32.660      816
   32.690      853
   32.720      830
   32.750      828
   32.780      742
   32.810      781
   32.840      751
   32.870      771
   32.900      808
   32.930      796
   32.960      802
   32.990      753
   33.020      791
   33.050      795
   33.080      749
   33.110      769
   33.140      746
   33.170      795
   33.200      799
   33.230      727
   33.260      783
   33.290      756
   33.320      714
   33.350      737
   33.380      748
   33.410      746
   33.440      787
   33.470      754
   33.500      799
   33.530      745
   33.560      722
   33.590      718
   33.620      772
   33.650      728
   33.680      839
   33.710      797
   33.740      814
   33.770      766
   33.800      772
   33.830      782
   33.860      726
   33.890      794
   33.920      734
   33.950      742
   33.980      820
   34.010      789
   34.040      722
   34.070      767
   34.100      715
   34.130      742
   34.160      720
   34.190      701
   34.220      724
   34.250      723
   34.280      686
   34.310      718
   34.340      716
   34.370      763
   34.400      764
   34.430      786
   34.460      787
   34.490      753
   34.520      748
   34.550      770
   34.580      716
   34.610      714
   34.640      694
   34.670      700
   34.700      708
   34.730      733
   34.760      713
   34.790      707
   34.820      683
   34.850      699
   34.880      704
   34.910      728
   34.940      731
   34.970      739
   35.000      728
   35.030      712
   35.060      709
   35.090      695
   35.120      676
   35.150      730
   35.180      673
   35.210      687
   35.240      668
   35.270      711
   35.300      703
   35.330      664
   35.360      698
   35.390      734
   35.420      690
   35.450      735
   35.480      680
   35.510      664
   35.540      664
   35.570      658
   35.600      681
   35.630      690
   35.660      736
   35.690      690
   35.720      701
   35.750      709
   35.780      693
   35.810      693
   35.840      671
   35.870      685
   35.900      650
   35.930      702
   35.960      665
   35.990      687
   36.020      710
   36.050      661
   36.080      636
   36.110      637
   36.140      619
   36.170      704
   36.200      662
   36.230      645
   36.260      677
   36.290      682
   36.320      668
   36.350      676
   36.380      664
   36.410      695
   36.440      679
   36.470      672
   36.500      679
   36.530      656
   36.560      682
   36.590      684
   36.620      646
   36.650      604
   36.680      625
   36.710      668
   36.740      692
   36.770      675
   36.800      711
   36.830      657
   36.860      647
   36.890      655
   36.920      587
   36.950      660
   36.980      663
   37.010      594
   37.040      624
   37.070      657
   37.100      666
   37.130      679
   37.160      615
   37.190      655
   37.220      624
   37.250      671
   37.280      647
   37.310      651
   37.340      634
   37.370      685
   37.400      651
   37.430      650
   37.460      664
   37.490      675
   37.520      635
   37.550      642
   37.580      641
   37.610      639
   37.640      622
   37.670      650
   37.700      671
   37.730      624
   37.760      638
   37.790      644
   37.820      689
   37.850      645
   37.880      634
   37.910      655
   37.940      681
   37.970      648
   38.000      669
   38.030      644
   38.060      678
   38.090      625
   38.120      611
   38.150      654
   38.180      615
   38.210      638
   38.240      675
   38.270      580
   38.300      648
   38.330      710
   38.360      675
   38.390      614
   38.420      667
   38.450      640
   38.480      650
   38.510      611
   38.540      640
   38.570      642
   38.600      631
   38.630      635
   38.660      599
   38.690      644
   38.720      623
   38.750      663
   38.780      656
   38.810      677
   38.840      664
   38.870      651
   38.900      635
   38.930      651
   38.960      649
   38.990      588
   39.020      654
   39.050      666
   39.080      636
   39.110      668
   39.140      635
   39.170      652
   39.200      645
   39.230      680
   39.260      636
   39.290      651
   39.320      652
   39.350      672
   39.380      615
   39.410      608
   39.440      669
   39.470      634
   39.500      704
   39.530      631
   39.560      658
   39.590      637
   39.620      666
   39.650      641
   39.680      659
   39.710      627
   39.740      671
   39.770      587
   39.800      686
   39.830      672
   39.860      691
   39.890      695
   39.920      672
   39.950      660
   39.980      700
   40.010      686
   40.040      640
   40.070      675
   40.100      630
   40.130      679
   40.160      675
   40.190      662
   40.220      683
   40.250      690
   40.280      654
   40.310      687
   40.340      705
   40.370      673
   40.400      686
   40.430      661
   40.460      653
   40.490      681
   40.520      679
   40.550      696
   40.580      667
   40.610      713
   40.640      724
   40.670      735
   40.700      718
   40.730      762
   40.760      713
   40.790      711
   40.820      656
   40.850      638
   40.880      687
   40.910      667
   40.940      641
   40.970      682
   41.000      685
   41.030      650
   41.060      693
   41.090      726
   41.120      660
   41.150      709
   41.180      709
   41.210      702
   41.240      713
   41.270      739
   41.300      668
   41.330      661
   41.360      626
   41.390      725
   41.420      706
   41.450      743
   41.480      721
   41.510      714
   41.540      717
   41.570      681
   41.600      725
   41.630      708
   41.660      749
   41.690      663
   41.720      713
   41.750      654
   41.780      625
   41.810      613
   41.840      636
   41.870      678
   41.900      623
   41.930      708
   41.960      655
   41.990      690
   42.020      692
   42.050      623
   42.080      683
   42.110      596
   42.140      685
   42.170      715
   42.200      737
   42.230      663
   42.260      696
   42.290      688
   42.320      676
   42.350      688
   42.380      690
   42.410      676
   42.440      658
   42.470      686
   42.500      690
   42.530      655
   42.560      697
   42.590      723
   42.620      656
   42.650      634
   42.680      621
   42.710      661
   42.740      632
   42.770      688
   42.800      683
   42.830      631
   42.860      637
   42.890      674
   42.920      614
   42.950      662
   42.980      707
   43.010      633
   43.040      585
   43.070      681
   43.100      760
   43.130      718
   43.160      699
   43.190      715
   43.220      700
   43.250      690
   43.280      657
   43.310      648
   43.340      659
   43.370      697
   43.400      656
   43.430      643
   43.460      663
   43.490      647
   43.520      671
   43.550      671
   43.580      682
   43.610      687
   43.640      659
   43.670      665
   43.700      639
   43.730      656
   43.760      668
   43.790      608
   43.820      676
   43.850      698
   43.880      654
   43.910      624
   43.940      664
   43.970      632
   43.985      615