File: data/MIL-88B_101/PXRD/PXRD_S-17_Cu-Kα1_capillary-0.7mm.xyd
    2.000       87
    2.030       99
    2.060      101
    2.090       90
    2.120       81
    2.150       95
    2.180       97
    2.210      114
    2.240      101
    2.270       97
    2.300       96
    2.330      102
    2.360      107
    2.390      113
    2.420      100
    2.450       88
    2.480       98
    2.510      108
    2.540      104
    2.570      100
    2.600       99
    2.630      127
    2.660      122
    2.690      138
    2.720      137
    2.750      107
    2.780      125
    2.810      110
    2.840      109
    2.870      111
    2.900      125
    2.930      114
    2.960      120
    2.990      108
    3.020      137
    3.050      139
    3.080      124
    3.110      141
    3.140      122
    3.170      150
    3.200      153
    3.230      122
    3.260      124
    3.290      107
    3.320      112
    3.350      120
    3.380      109
    3.410       90
    3.440       94
    3.470       96
    3.500      107
    3.530       89
    3.560      100
    3.590      103
    3.620       97
    3.650       94
    3.680      100
    3.710       94
    3.740      102
    3.770       96
    3.800      110
    3.830      101
    3.860      105
    3.890      120
    3.920      108
    3.950       97
    3.980       95
    4.010       94
    4.040      100
    4.070      104
    4.100       88
    4.130       91
    4.160       87
    4.190       98
    4.220      100
    4.250      106
    4.280       89
    4.310       91
    4.340      104
    4.370       82
    4.400      104
    4.430      101
    4.460      100
    4.490      106
    4.520       99
    4.550      104
    4.580      105
    4.610      105
    4.640       99
    4.670       96
    4.700      100
    4.730      104
    4.760      106
    4.790       97
    4.820       91
    4.850      107
    4.880      122
    4.910      105
    4.940       97
    4.970      112
    5.000      116
    5.030      102
    5.060       95
    5.090      110
    5.120       92
    5.150       91
    5.180       97
    5.210      119
    5.240      120
    5.270      118
    5.300       82
    5.330      100
    5.360      111
    5.390      103
    5.420       92
    5.450      103
    5.480      103
    5.510      108
    5.540      127
    5.570       98
    5.600       82
    5.630       94
    5.660      110
    5.690       94
    5.720       97
    5.750      104
    5.780      107
    5.810      103
    5.840       86
    5.870       90
    5.900       95
    5.930       77
    5.960       93
    5.990       84
    6.020       91
    6.050       97
    6.080       92
    6.110      101
    6.140       88
    6.170       95
    6.200       89
    6.230      103
    6.260       93
    6.290       90
    6.320      100
    6.350       95
    6.380      100
    6.410       95
    6.440       98
    6.470       97
    6.500       88
    6.530       85
    6.560       90
    6.590       94
    6.620       98
    6.650       62
    6.680       96
    6.710       70
    6.740       95
    6.770       91
    6.800      104
    6.830       96
    6.860      109
    6.890       85
    6.920       99
    6.950      113
    6.980       96
    7.010       93
    7.040      104
    7.070       83
    7.100      101
    7.130      111
    7.160       90
    7.190       92
    7.220       95
    7.250       80
    7.280       85
    7.310       86
    7.340       84
    7.370      100
    7.400      102
    7.430       86
    7.460      100
    7.490      113
    7.520      100
    7.550       92
    7.580       96
    7.610      118
    7.640       97
    7.670      102
    7.700       87
    7.730      109
    7.760      113
    7.790      103
    7.820      115
    7.850      102
    7.880       99
    7.910      107
    7.940      104
    7.970       95
    8.000       90
    8.030      115
    8.060      106
    8.090       95
    8.120       93
    8.150      110
    8.180       86
    8.210      111
    8.240      122
    8.270      121
    8.300      110
    8.330       97
    8.360      123
    8.390      112
    8.420      130
    8.450      108
    8.480      133
    8.510      106
    8.540      107
    8.570      129
    8.600      131
    8.630      133
    8.660      120
    8.690      139
    8.720      169
    8.750      159
    8.780      164
    8.810      167
    8.840      171
    8.870      207
    8.900      211
    8.930      209
    8.960      207
    8.990      181
    9.020      218
    9.050      232
    9.080      257
    9.110      284
    9.140      303
    9.170      413
    9.200      499
    9.230      710
    9.260      955
    9.290      674
    9.320      388
    9.350      173
    9.380      124
    9.410      141
    9.440      143
    9.470      160
    9.500      224
    9.530      263
    9.560      247
    9.590      172
    9.620      146
    9.650      111
    9.680      124
    9.710      105
    9.740      105
    9.770      100
    9.800      112
    9.830      101
    9.860      109
    9.890      107
    9.920      109
    9.950      104
    9.980      117
   10.010      115
   10.040       97
   10.070      111
   10.100      123
   10.130      115
   10.160      117
   10.190      114
   10.220      106
   10.250      104
   10.280       98
   10.310      108
   10.340      112
   10.370      114
   10.400      100
   10.430      101
   10.460      115
   10.490      110
   10.520      104
   10.550       99
   10.580      102
   10.610      113
   10.640      103
   10.670      106
   10.700       99
   10.730      111
   10.760      102
   10.790      110
   10.820       97
   10.850      105
   10.880      114
   10.910      105
   10.940      110
   10.970      119
   11.000      126
   11.030      106
   11.060      123
   11.090      105
   11.120      110
   11.150      116
   11.180      114
   11.210      107
   11.240      115
   11.270      107
   11.300       99
   11.330       95
   11.360       98
   11.390      116
   11.420      107
   11.450      105
   11.480      102
   11.510      101
   11.540      114
   11.570      126
   11.600      102
   11.630      104
   11.660      107
   11.690       87
   11.720       93
   11.750       90
   11.780      100
   11.810      105
   11.840      101
   11.870       98
   11.900       93
   11.930      102
   11.960       87
   11.990       94
   12.020      105
   12.050      102
   12.080      120
   12.110      118
   12.140      110
   12.170      130
   12.200      130
   12.230      102
   12.260      138
   12.290      153
   12.320      137
   12.350      184
   12.380      213
   12.410      242
   12.440      299
   12.470      290
   12.500      202
   12.530      134
   12.560      113
   12.590      105
   12.620      110
   12.650      121
   12.680      100
   12.710      117
   12.740      109
   12.770      106
   12.800      108
   12.830      116
   12.860      114
   12.890      116
   12.920       93
   12.950      106
   12.980      125
   13.010      114
   13.040      101
   13.070      113
   13.100      126
   13.130      114
   13.160      111
   13.190      116
   13.220      133
   13.250      129
   13.280      119
   13.310       98
   13.340      133
   13.370      125
   13.400      118
   13.430      125
   13.460      104
   13.490      113
   13.520      111
   13.550      107
   13.580      117
   13.610      126
   13.640      118
   13.670      123
   13.700      134
   13.730      154
   13.760      163
   13.790      178
   13.820      211
   13.850      158
   13.880      136
   13.910      107
   13.940      119
   13.970      115
   14.000      120
   14.030      108
   14.060      120
   14.090      118
   14.120      114
   14.150      112
   14.180      108
   14.210      125
   14.240      108
   14.270      120
   14.300      119
   14.330      120
   14.360      125
   14.390      114
   14.420      126
   14.450      118
   14.480      103
   14.510      111
   14.540      126
   14.570      110
   14.600      126
   14.630      125
   14.660      119
   14.690      125
   14.720      116
   14.750      121
   14.780      121
   14.810      122
   14.840      111
   14.870      134
   14.900      125
   14.930      119
   14.960      115
   14.990      114
   15.020      110
   15.050      128
   15.080      148
   15.110      112
   15.140      108
   15.170      121
   15.200      133
   15.230      128
   15.260      135
   15.290      137
   15.320      122
   15.350      134
   15.380      122
   15.410      123
   15.440      117
   15.470      123
   15.500      142
   15.530      129
   15.560      127
   15.590      123
   15.620      125
   15.650      121
   15.680      142
   15.710      156
   15.740      122
   15.770      133
   15.800      154
   15.830      143
   15.860      152
   15.890      159
   15.920      185
   15.950      196
   15.980      210
   16.010      201
   16.040      161
   16.070      158
   16.100      138
   16.130      131
   16.160      155
   16.190      128
   16.220      138
   16.250      150
   16.280      159
   16.310      160
   16.340      160
   16.370      175
   16.400      200
   16.430      253
   16.460      275
   16.490      262
   16.520      200
   16.550      179
   16.580      147
   16.610      129
   16.640      167
   16.670      149
   16.700      147
   16.730      142
   16.760      159
   16.790      174
   16.820      198
   16.850      177
   16.880      195
   16.910      158
   16.940      152
   16.970      145
   17.000      132
   17.030      142
   17.060      138
   17.090      149
   17.120      146
   17.150      160
   17.180      157
   17.210      149
   17.240      167
   17.270      148
   17.300      159
   17.330      131
   17.360      144
   17.390      135
   17.420      155
   17.450      163
   17.480      138
   17.510      156
   17.540      160
   17.570      157
   17.600      140
   17.630      164
   17.660      150
   17.690      169
   17.720      131
   17.750      165
   17.780      143
   17.810      160
   17.840      143
   17.870      171
   17.900      141
   17.930      132
   17.960      156
   17.990      162
   18.020      168
   18.050      154
   18.080      155
   18.110      145
   18.140      159
   18.170      149
   18.200      162
   18.230      156
   18.260      149
   18.290      177
   18.320      163
   18.350      157
   18.380      159
   18.410      183
   18.440      178
   18.470      176
   18.500      206
   18.530      227
   18.560      270
   18.590      338
   18.620      433
   18.650      532
   18.680      573
   18.710      465
   18.740      293
   18.770      209
   18.800      183
   18.830      182
   18.860      173
   18.890      139
   18.920      162
   18.950      148
   18.980      160
   19.010      160
   19.040      157
   19.070      172
   19.100      187
   19.130      185
   19.160      183
   19.190      239
   19.220      255
   19.250      263
   19.280      256
   19.310      176
   19.340      177
   19.370      176
   19.400      173
   19.430      159
   19.460      165
   19.490      171
   19.520      144
   19.550      153
   19.580      171
   19.610      167
   19.640      164
   19.670      162
   19.700      167
   19.730      139
   19.760      171
   19.790      142
   19.820      158
   19.850      148
   19.880      172
   19.910      156
   19.940      181
   19.970      165
   20.000      146
   20.030      169
   20.060      163
   20.090      159
   20.120      155
   20.150      165
   20.180      147
   20.210      172
   20.240      145
   20.270      140
   20.300      144
   20.330      149
   20.360      169
   20.390      150
   20.420      178
   20.450      147
   20.480      164
   20.510      134
   20.540      160
   20.570      167
   20.600      148
   20.630      165
   20.660      160
   20.690      145
   20.720      174
   20.750      177
   20.780      181
   20.810      171
   20.840      176
   20.870      199
   20.900      184
   20.930      183
   20.960      167
   20.990      143
   21.020      154
   21.050      162
   21.080      152
   21.110      168
   21.140      187
   21.170      197
   21.200      219
   21.230      202
   21.260      190
   21.290      169
   21.320      169
   21.350      155
   21.380      157
   21.410      145
   21.440      161
   21.470      149
   21.500      168
   21.530      182
   21.560      164
   21.590      175
   21.620      215
   21.650      204
   21.680      253
   21.710      299
   21.740      376
   21.770      375
   21.800      320
   21.830      286
   21.860      182
   21.890      156
   21.920      162
   21.950      172
   21.980      140
   22.010      173
   22.040      160
   22.070      139
   22.100      168
   22.130      139
   22.160      167
   22.190      143
   22.220      145
   22.250      146
   22.280      158
   22.310      158
   22.340      146
   22.370      141
   22.400      146
   22.430      174
   22.460      164
   22.490      148
   22.520      135
   22.550      156
   22.580      144
   22.610      149
   22.640      148
   22.670      145
   22.700      158
   22.730      163
   22.760      132
   22.790      144
   22.820      132
   22.850      164
   22.880      143
   22.910      160
   22.940      142
   22.970      147
   23.000      155
   23.030      147
   23.060      148
   23.090      143
   23.120      127
   23.150      156
   23.180      136
   23.210      139
   23.240      153
   23.270      170
   23.300      178
   23.330      178
   23.360      182
   23.390      167
   23.420      155
   23.450      153
   23.480      177
   23.510      148
   23.540      151
   23.570      132
   23.600      142
   23.630      161
   23.660      141
   23.690      154
   23.720      161
   23.750      152
   23.780      184
   23.810      178
   23.840      164
   23.870      153
   23.900      176
   23.930      155
   23.960      129
   23.990      149
   24.020      145
   24.050      156
   24.080      137
   24.110      142
   24.140      137
   24.170      140
   24.200      148
   24.230      158
   24.260      136
   24.290      132
   24.320      131
   24.350      115
   24.380      144
   24.410      157
   24.440      150
   24.470      143
   24.500      155
   24.530      142
   24.560      168
   24.590      149
   24.620      150
   24.650      144
   24.680      152
   24.710      131
   24.740      149
   24.770      137
   24.800      142
   24.830      131
   24.860      143
   24.890      138
   24.920      148
   24.950      134
   24.980      130
   25.010      137
   25.040      152
   25.070      130
   25.100      145
   25.130      157
   25.160      136
   25.190      154
   25.220      150
   25.250      140
   25.280      144
   25.310      130
   25.340      142
   25.370      158
   25.400      139
   25.430      143
   25.460      144
   25.490      140
   25.520      144
   25.550      142
   25.580      140
   25.610      146
   25.640      142
   25.670      179
   25.700      176
   25.730      180
   25.760      213
   25.790      189
   25.820      191
   25.850      154
   25.880      144
   25.910      149
   25.940      173
   25.970      197
   26.000      184
   26.030      207
   26.060      162
   26.090      126
   26.120      134
   26.150      149
   26.180      122
   26.210      117
   26.240      137
   26.270      126
   26.300      134
   26.330      150
   26.360      138
   26.390      137
   26.420      119
   26.450      142
   26.480      136
   26.510      136
   26.540      138
   26.570      146
   26.600      138
   26.630      129
   26.660      145
   26.690      133
   26.720      143
   26.750      124
   26.780      123
   26.810      150
   26.840      142
   26.870      131
   26.900      135
   26.930      139
   26.960      136
   26.990      136
   27.020      118
   27.050      163
   27.080      131
   27.110      120
   27.140      123
   27.170      139
   27.200      152
   27.230      135
   27.260      142
   27.290      123
   27.320      133
   27.350      119
   27.380      129
   27.410      116
   27.440      121
   27.470      142
   27.500      134
   27.530      123
   27.560      129
   27.590      132
   27.620      132
   27.650      128
   27.680      136
   27.710      147
   27.740      139
   27.770      130
   27.800      131
   27.830      153
   27.860      150
   27.890      159
   27.920      149
   27.950      148
   27.980      151
   28.010      144
   28.040      143
   28.070      164
   28.100      155
   28.130      138
   28.160      176
   28.190      164
   28.220      203
   28.250      175
   28.280      177
   28.310      146
   28.340      140
   28.370      138
   28.400      126
   28.430      143
   28.460      131
   28.490      137
   28.520      118
   28.550      133
   28.580      120
   28.610      120
   28.640      139
   28.670      116
   28.700      130
   28.730      138
   28.760      157
   28.790      132
   28.820      142
   28.850      135
   28.880      141
   28.910      130
   28.940      137
   28.970      124
   29.000      120
   29.030      128
   29.060      116
   29.090      134
   29.120      123
   29.150      131
   29.180      128
   29.210      123
   29.240      142
   29.270      118
   29.300      122
   29.330      143
   29.360      108
   29.390      145
   29.420      148
   29.450      150
   29.480      148
   29.510      144
   29.540      151
   29.570      139
   29.600      133
   29.630      133
   29.660      141
   29.690      132
   29.720      123
   29.750      124
   29.780      133
   29.810      110
   29.840      136
   29.870      112
   29.900      120
   29.930      120
   29.960      114
   29.990      108
   30.020      132
   30.050      117
   30.080      127
   30.110      131
   30.140      124
   30.170      124
   30.200      134
   30.230      136
   30.260      120
   30.290      115
   30.320      134
   30.350      135
   30.380      133
   30.410      142
   30.440      124
   30.470      132
   30.500      136
   30.530      130
   30.560      132
   30.590      147
   30.620      127
   30.650      132
   30.680      155
   30.710      156
   30.740      152
   30.770      145
   30.800      134
   30.830      119
   30.860      120
   30.890      130
   30.920      114
   30.950      129
   30.980      125
   31.010      125
   31.040      126
   31.070      133
   31.100      149
   31.130      118
   31.160      112
   31.190      124
   31.220      126
   31.250      110
   31.280      116
   31.310      105
   31.340      118
   31.370      127
   31.400      132
   31.430      137
   31.460      114
   31.490      114
   31.520       95
   31.550      125
   31.580      118
   31.610      147
   31.640      119
   31.670      115
   31.700      119
   31.730      124
   31.760      125
   31.790      114
   31.820      114
   31.850      115
   31.880      107
   31.910      104
   31.940      113
   31.970      110
   32.000      133
   32.030      116
   32.060      124
   32.090      122
   32.120      118
   32.150      119
   32.180      121
   32.210      106
   32.240      108
   32.270      136
   32.300      118
   32.330      146
   32.360      140
   32.390      167
   32.420      155
   32.450      148
   32.480      137
   32.510      128
   32.540      119
   32.570      137
   32.600      154
   32.630      155
   32.660      148
   32.690      134
   32.720      123
   32.750      129
   32.780      101
   32.810      118
   32.840      118
   32.870      119
   32.900      111
   32.930      119
   32.960      112
   32.990      107
   33.020      120
   33.050      124
   33.080      117
   33.110      121
   33.140      106
   33.170      115
   33.200      118
   33.230      121
   33.260      117
   33.290      116
   33.320      127
   33.350      147
   33.380      131
   33.410      140
   33.440      157
   33.470      125
   33.500      112
   33.530      121
   33.560      120
   33.590      126
   33.620      109
   33.650      102
   33.680      127
   33.710      115
   33.740      107
   33.770      135
   33.800      118
   33.830      104
   33.860      113
   33.890      121
   33.920      123
   33.950      125
   33.980      112
   34.010      114
   34.040      126
   34.070      115
   34.100      136
   34.130      136
   34.160      136
   34.190      153
   34.220      131
   34.250      107
   34.280      127
   34.310      130
   34.340      137
   34.370      130
   34.400      131
   34.430      122
   34.460      125
   34.490      137
   34.520      129
   34.550      116
   34.580      108
   34.610      109
   34.640      116
   34.670      109
   34.700      103
   34.730      106
   34.760      120
   34.790      116
   34.820      130
   34.850      106
   34.880      120
   34.910       95
   34.940      123
   34.970       97
   35.000      104
   35.030      107
   35.060      115
   35.090      108
   35.120      111
   35.150      106
   35.180      118
   35.210      106
   35.240      107
   35.270      123
   35.300      105
   35.330      117
   35.360      102
   35.390      116
   35.420      108
   35.450      133
   35.480      121
   35.510      114
   35.540      121
   35.570      103
   35.600      111
   35.630      108
   35.660      106
   35.690      118
   35.720      130
   35.750       98
   35.780      111
   35.810      118
   35.840      113
   35.870      101
   35.900      111
   35.930      110
   35.960       97
   35.990      112
   36.020      106
   36.050      109
   36.080       96
   36.110       94
   36.140       97
   36.170       97
   36.200      111
   36.230      104
   36.260       96
   36.290      124
   36.320      115
   36.350      109
   36.380      114
   36.410      110
   36.440       93
   36.470      112
   36.500       93
   36.530      112
   36.560      106
   36.590      112
   36.620      114
   36.650      115
   36.680      115
   36.710      130
   36.740      115
   36.770      129
   36.800      114
   36.830      115
   36.860      106
   36.890      126
   36.920       96
   36.950       90
   36.980       97
   37.010       92
   37.040       84
   37.070       98
   37.100      131
   37.130      101
   37.160      112
   37.190      110
   37.220      115
   37.250       89
   37.280      114
   37.310      107
   37.340      116
   37.370      100
   37.400       96
   37.430      111
   37.460      112
   37.490      122
   37.520      126
   37.550      110
   37.580      124
   37.610      121
   37.640      135
   37.670      134
   37.700      107
   37.730      105
   37.760      111
   37.790      103
   37.820      107
   37.850      110
   37.880      122
   37.910      121
   37.940      120
   37.970      155
   38.000      134
   38.030      141
   38.060      134
   38.090      112
   38.120      114
   38.150      114
   38.180      107
   38.210      126
   38.240      103
   38.270       97
   38.300       99
   38.330      109
   38.360      105
   38.390      107
   38.420      111
   38.450       95
   38.480      112
   38.510       95
   38.540      119
   38.570      106
   38.600      114
   38.630      114
   38.660       99
   38.690      112
   38.720      115
   38.750      111
   38.780      105
   38.810       95
   38.840      111
   38.870      112
   38.900      114
   38.930      119
   38.960      106
   38.990      101
   39.020       89
   39.050      100
   39.080      109
   39.110       90
   39.140      107
   39.170      100
   39.200      105
   39.230      104
   39.260      108
   39.290       96
   39.320       98
   39.350      123
   39.380      116
   39.410      111
   39.440      110
   39.470       98
   39.500       99
   39.530      101
   39.560      111
   39.590      103
   39.620      112
   39.650      117
   39.680       91
   39.710       99
   39.740      110
   39.770       94
   39.800       94
   39.830       98
   39.860       95
   39.890      111
   39.920      103
   39.950      106
   39.980       95
   40.010      123
   40.040      118
   40.070       98
   40.100      109
   40.130      109
   40.160      100
   40.190      102
   40.220       98
   40.250      107
   40.280      100
   40.310       92
   40.340      124
   40.370      108
   40.400      105
   40.430      115
   40.460      116
   40.490      124
   40.520      125
   40.550      121
   40.580      138
   40.610      140
   40.640      129
   40.670      124
   40.700      110
   40.730      114
   40.760      103
   40.790      107
   40.820      112
   40.850      120
   40.880      124
   40.910      101
   40.940      108
   40.970       98
   41.000      130
   41.030      110
   41.060      108
   41.090      103
   41.120       97
   41.150      105
   41.180      100
   41.210      118
   41.240      105
   41.270      106
   41.300      109
   41.330      113
   41.360      116
   41.390       95
   41.420      132
   41.450      114
   41.480      106
   41.510      108
   41.540      110
   41.570      129
   41.600      133
   41.630      135
   41.660      139
   41.690      129
   41.720      130
   41.750      118
   41.780      117
   41.810      100
   41.840      116
   41.870      112
   41.900       97
   41.930      112
   41.960      106
   41.990      121
   42.020      110
   42.050      129
   42.080      130
   42.110      130
   42.140       95
   42.170      111
   42.200      119
   42.230      113
   42.260      118
   42.290      105
   42.320      102
   42.350      101
   42.380      109
   42.410      120
   42.440      131
   42.470      136
   42.500      116
   42.530      134
   42.560      111
   42.590      129
   42.620      115
   42.650       93
   42.680      110
   42.710      115
   42.740      106
   42.770       92
   42.800      100
   42.830       97
   42.860      114
   42.890      111
   42.920      118
   42.950      110
   42.980      112
   43.010       91
   43.040       94
   43.070      102
   43.100      130
   43.130      144
   43.160      114
   43.190      111
   43.220      115
   43.250      105
   43.280      114
   43.310      117
   43.340       98
   43.370      126
   43.400      113
   43.430      100
   43.460       98
   43.490      107
   43.520       99
   43.550      114
   43.580      114
   43.610      113
   43.640       98
   43.670      126
   43.700      115
   43.730      127
   43.760       99
   43.790       94
   43.820      102
   43.850      103
   43.880       93
   43.910      102
   43.940      108
   43.970      110
   43.985      106