File: data/MIL-88B_101/PXRD/PXRD_MIL-53-Dry_Cu-Kα1_capillary-0.7mm.xyd
    2.000      225
    2.030      229
    2.060      240
    2.090      236
    2.120      278
    2.150      258
    2.180      222
    2.210      234
    2.240      234
    2.270      218
    2.300      245
    2.330      226
    2.360      242
    2.390      230
    2.420      257
    2.450      242
    2.480      250
    2.510      231
    2.540      255
    2.570      249
    2.600      240
    2.630      240
    2.660      238
    2.690      241
    2.720      233
    2.750      239
    2.780      250
    2.810      260
    2.840      226
    2.870      239
    2.900      256
    2.930      243
    2.960      238
    2.990      241
    3.020      244
    3.050      247
    3.080      219
    3.110      243
    3.140      224
    3.170      251
    3.200      248
    3.230      245
    3.260      236
    3.290      245
    3.320      220
    3.350      224
    3.380      238
    3.410      224
    3.440      234
    3.470      231
    3.500      239
    3.530      213
    3.560      239
    3.590      224
    3.620      244
    3.650      251
    3.680      228
    3.710      228
    3.740      242
    3.770      223
    3.800      238
    3.830      226
    3.860      246
    3.890      231
    3.920      217
    3.950      227
    3.980      261
    4.010      235
    4.040      239
    4.070      226
    4.100      250
    4.130      224
    4.160      235
    4.190      230
    4.220      235
    4.250      230
    4.280      220
    4.310      244
    4.340      247
    4.370      231
    4.400      224
    4.430      225
    4.460      251
    4.490      248
    4.520      243
    4.550      242
    4.580      222
    4.610      250
    4.640      212
    4.670      241
    4.700      247
    4.730      234
    4.760      230
    4.790      243
    4.820      237
    4.850      241
    4.880      247
    4.910      243
    4.940      256
    4.970      253
    5.000      252
    5.030      259
    5.060      220
    5.090      246
    5.120      233
    5.150      241
    5.180      259
    5.210      256
    5.240      246
    5.270      218
    5.300      243
    5.330      253
    5.360      247
    5.390      258
    5.420      241
    5.450      242
    5.480      238
    5.510      260
    5.540      216
    5.570      260
    5.600      262
    5.630      238
    5.660      251
    5.690      246
    5.720      242
    5.750      214
    5.780      253
    5.810      219
    5.840      239
    5.870      240
    5.900      237
    5.930      222
    5.960      253
    5.990      239
    6.020      236
    6.050      279
    6.080      254
    6.110      251
    6.140      257
    6.170      258
    6.200      273
    6.230      267
    6.260      261
    6.290      282
    6.320      280
    6.350      259
    6.380      292
    6.410      286
    6.440      263
    6.470      292
    6.500      297
    6.530      319
    6.560      300
    6.590      316
    6.620      358
    6.650      324
    6.680      378
    6.710      368
    6.740      356
    6.770      348
    6.800      321
    6.830      341
    6.860      348
    6.890      348
    6.920      304
    6.950      274
    6.980      259
    7.010      265
    7.040      255
    7.070      251
    7.100      285
    7.130      293
    7.160      257
    7.190      268
    7.220      270
    7.250      235
    7.280      251
    7.310      254
    7.340      218
    7.370      267
    7.400      258
    7.430      228
    7.460      225
    7.490      233
    7.520      237
    7.550      228
    7.580      255
    7.610      252
    7.640      247
    7.670      252
    7.700      235
    7.730      234
    7.760      257
    7.790      243
    7.820      275
    7.850      218
    7.880      237
    7.910      223
    7.940      233
    7.970      268
    8.000      244
    8.030      243
    8.060      232
    8.090      225
    8.120      259
    8.150      249
    8.180      214
    8.210      221
    8.240      248
    8.270      231
    8.300      240
    8.330      255
    8.360      237
    8.390      239
    8.420      282
    8.450      233
    8.480      244
    8.510      241
    8.540      265
    8.570      250
    8.600      261
    8.630      275
    8.660      277
    8.690      274
    8.720      289
    8.750      288
    8.780      328
    8.810      318
    8.840      299
    8.870      379
    8.900      378
    8.930      382
    8.960      439
    8.990      461
    9.020      544
    9.050      690
    9.080      847
    9.110     1146
    9.140     1154
    9.170      754
    9.200      449
    9.230      359
    9.260      335
    9.290      351
    9.320      330
    9.350      309
    9.380      278
    9.410      250
    9.440      266
    9.470      258
    9.500      260
    9.530      241
    9.560      276
    9.590      243
    9.620      288
    9.650      247
    9.680      247
    9.710      266
    9.740      262
    9.770      229
    9.800      246
    9.830      251
    9.860      285
    9.890      251
    9.920      239
    9.950      204
    9.980      253
   10.010      291
   10.040      252
   10.070      226
   10.100      242
   10.130      224
   10.160      260
   10.190      230
   10.220      225
   10.250      252
   10.280      230
   10.310      238
   10.340      258
   10.370      235
   10.400      239
   10.430      245
   10.460      247
   10.490      250
   10.520      234
   10.550      239
   10.580      251
   10.610      246
   10.640      235
   10.670      231
   10.700      227
   10.730      255
   10.760      234
   10.790      227
   10.820      240
   10.850      236
   10.880      242
   10.910      249
   10.940      239
   10.970      226
   11.000      246
   11.030      252
   11.060      267
   11.090      267
   11.120      225
   11.150      220
   11.180      239
   11.210      246
   11.240      240
   11.270      258
   11.300      250
   11.330      253
   11.360      227
   11.390      233
   11.420      245
   11.450      239
   11.480      265
   11.510      254
   11.540      235
   11.570      236
   11.600      221
   11.630      254
   11.660      245
   11.690      246
   11.720      254
   11.750      222
   11.780      266
   11.810      239
   11.840      218
   11.870      258
   11.900      231
   11.930      222
   11.960      247
   11.990      268
   12.020      244
   12.050      263
   12.080      233
   12.110      212
   12.140      254
   12.170      229
   12.200      224
   12.230      220
   12.260      267
   12.290      233
   12.320      257
   12.350      241
   12.380      217
   12.410      233
   12.440      250
   12.470      239
   12.500      243
   12.530      241
   12.560      247
   12.590      234
   12.620      261
   12.650      219
   12.680      224
   12.710      254
   12.740      254
   12.770      230
   12.800      240
   12.830      260
   12.860      281
   12.890      281
   12.920      270
   12.950      250
   12.980      259
   13.010      254
   13.040      255
   13.070      270
   13.100      313
   13.130      279
   13.160      271
   13.190      280
   13.220      238
   13.250      272
   13.280      272
   13.310      287
   13.340      357
   13.370      385
   13.400      369
   13.430      438
   13.460      461
   13.490      492
   13.520      601
   13.550      569
   13.580      551
   13.610      614
   13.640      533
   13.670      530
   13.700      465
   13.730      406
   13.760      406
   13.790      337
   13.820      348
   13.850      334
   13.880      298
   13.910      284
   13.940      282
   13.970      281
   14.000      280
   14.030      285
   14.060      280
   14.090      244
   14.120      256
   14.150      241
   14.180      234
   14.210      248
   14.240      241
   14.270      262
   14.300      265
   14.330      265
   14.360      248
   14.390      245
   14.420      267
   14.450      274
   14.480      271
   14.510      249
   14.540      252
   14.570      238
   14.600      259
   14.630      243
   14.660      249
   14.690      261
   14.720      253
   14.750      251
   14.780      239
   14.810      264
   14.840      233
   14.870      246
   14.900      249
   14.930      247
   14.960      250
   14.990      247
   15.020      255
   15.050      239
   15.080      240
   15.110      240
   15.140      230
   15.170      238
   15.200      232
   15.230      251
   15.260      255
   15.290      231
   15.320      252
   15.350      224
   15.380      239
   15.410      239
   15.440      224
   15.470      219
   15.500      250
   15.530      252
   15.560      257
   15.590      244
   15.620      243
   15.650      241
   15.680      258
   15.710      265
   15.740      254
   15.770      238
   15.800      231
   15.830      261
   15.860      256
   15.890      254
   15.920      239
   15.950      234
   15.980      249
   16.010      261
   16.040      240
   16.070      233
   16.100      238
   16.130      227
   16.160      251
   16.190      234
   16.220      242
   16.250      232
   16.280      248
   16.310      221
   16.340      218
   16.370      240
   16.400      255
   16.430      226
   16.460      246
   16.490      253
   16.520      217
   16.550      233
   16.580      247
   16.610      214
   16.640      243
   16.670      231
   16.700      234
   16.730      244
   16.760      226
   16.790      240
   16.820      246
   16.850      254
   16.880      222
   16.910      240
   16.940      253
   16.970      256
   17.000      261
   17.030      237
   17.060      267
   17.090      253
   17.120      258
   17.150      242
   17.180      242
   17.210      238
   17.240      257
   17.270      247
   17.300      253
   17.330      242
   17.360      260
   17.390      256
   17.420      272
   17.450      260
   17.480      271
   17.510      267
   17.540      279
   17.570      270
   17.600      266
   17.630      268
   17.660      271
   17.690      293
   17.720      320
   17.750      309
   17.780      346
   17.810      377
   17.840      375
   17.870      354
   17.900      401
   17.930      360
   17.960      332
   17.990      316
   18.020      300
   18.050      312
   18.080      291
   18.110      273
   18.140      290
   18.170      277
   18.200      310
   18.230      282
   18.260      315
   18.290      314
   18.320      378
   18.350      405
   18.380      497
   18.410      480
   18.440      490
   18.470      410
   18.500      374
   18.530      331
   18.560      317
   18.590      334
   18.620      292
   18.650      285
   18.680      311
   18.710      292
   18.740      305
   18.770      289
   18.800      317
   18.830      284
   18.860      313
   18.890      279
   18.920      292
   18.950      312
   18.980      309
   19.010      309
   19.040      306
   19.070      280
   19.100      286
   19.130      256
   19.160      245
   19.190      277
   19.220      245
   19.250      247
   19.280      260
   19.310      221
   19.340      227
   19.370      278
   19.400      252
   19.430      254
   19.460      260
   19.490      273
   19.520      257
   19.550      257
   19.580      253
   19.610      254
   19.640      252
   19.670      252
   19.700      236
   19.730      222
   19.760      263
   19.790      246
   19.820      259
   19.850      237
   19.880      211
   19.910      266
   19.940      283
   19.970      253
   20.000      256
   20.030      243
   20.060      251
   20.090      216
   20.120      258
   20.150      235
   20.180      219
   20.210      234
   20.240      257
   20.270      247
   20.300      248
   20.330      221
   20.360      248
   20.390      244
   20.420      256
   20.450      268
   20.480      253
   20.510      242
   20.540      263
   20.570      256
   20.600      272
   20.630      244
   20.660      265
   20.690      281
   20.720      260
   20.750      271
   20.780      265
   20.810      253
   20.840      270
   20.870      262
   20.900      266
   20.930      235
   20.960      252
   20.990      241
   21.020      263
   21.050      241
   21.080      245
   21.110      245
   21.140      250
   21.170      254
   21.200      234
   21.230      275
   21.260      280
   21.290      257
   21.320      280
   21.350      271
   21.380      229
   21.410      254
   21.440      237
   21.470      254
   21.500      278
   21.530      228
   21.560      258
   21.590      237
   21.620      257
   21.650      264
   21.680      257
   21.710      280
   21.740      257
   21.770      244
   21.800      261
   21.830      249
   21.860      236
   21.890      267
   21.920      242
   21.950      218
   21.980      255
   22.010      254
   22.040      252
   22.070      217
   22.100      237
   22.130      251
   22.160      253
   22.190      235
   22.220      262
   22.250      271
   22.280      217
   22.310      234
   22.340      273
   22.370      235
   22.400      271
   22.430      252
   22.460      265
   22.490      270
   22.520      263
   22.550      250
   22.580      242
   22.610      244
   22.640      249
   22.670      253
   22.700      244
   22.730      253
   22.760      256
   22.790      230
   22.820      241
   22.850      268
   22.880      273
   22.910      243
   22.940      268
   22.970      269
   23.000      259
   23.030      248
   23.060      232
   23.090      256
   23.120      234
   23.150      227
   23.180      234
   23.210      229
   23.240      278
   23.270      245
   23.300      264
   23.330      236
   23.360      212
   23.390      253
   23.420      236
   23.450      247
   23.480      213
   23.510      257
   23.540      262
   23.570      249
   23.600      247
   23.630      227
   23.660      237
   23.690      214
   23.720      237
   23.750      255
   23.780      266
   23.810      267
   23.840      274
   23.870      263
   23.900      232
   23.930      251
   23.960      239
   23.990      241
   24.020      236
   24.050      250
   24.080      242
   24.110      229
   24.140      272
   24.170      270
   24.200      257
   24.230      219
   24.260      236
   24.290      243
   24.320      252
   24.350      228
   24.380      240
   24.410      238
   24.440      247
   24.470      239
   24.500      212
   24.530      209
   24.560      248
   24.590      260
   24.620      235
   24.650      213
   24.680      232
   24.710      238
   24.740      254
   24.770      225
   24.800      248
   24.830      218
   24.860      255
   24.890      271
   24.920      238
   24.950      230
   24.980      284
   25.010      219
   25.040      219
   25.070      266
   25.100      254
   25.130      248
   25.160      216
   25.190      248
   25.220      234
   25.250      256
   25.280      265
   25.310      222
   25.340      217
   25.370      270
   25.400      265
   25.430      252
   25.460      258
   25.490      270
   25.520      244
   25.550      235
   25.580      237
   25.610      239
   25.640      247
   25.670      262
   25.700      237
   25.730      226
   25.760      256
   25.790      239
   25.820      275
   25.850      268
   25.880      283
   25.910      271
   25.940      266
   25.970      268
   26.000      255
   26.030      266
   26.060      241
   26.090      229
   26.120      258
   26.150      269
   26.180      221
   26.210      239
   26.240      274
   26.270      242
   26.300      240
   26.330      269
   26.360      246
   26.390      255
   26.420      265
   26.450      272
   26.480      244
   26.510      232
   26.540      264
   26.570      290
   26.600      256
   26.630      269
   26.660      284
   26.690      271
   26.720      279
   26.750      273
   26.780      274
   26.810      266
   26.840      237
   26.870      256
   26.900      286
   26.930      250
   26.960      257
   26.990      248
   27.020      265
   27.050      248
   27.080      253
   27.110      253
   27.140      258
   27.170      263
   27.200      261
   27.230      289
   27.260      300
   27.290      281
   27.320      270
   27.350      270
   27.380      263
   27.410      244
   27.440      255
   27.470      239
   27.500      266
   27.530      233
   27.560      256
   27.590      278
   27.620      253
   27.650      246
   27.680      270
   27.710      245
   27.740      243
   27.770      235
   27.800      253
   27.830      254
   27.860      264
   27.890      286
   27.920      253
   27.950      230
   27.980      228
   28.010      285
   28.040      235
   28.070      246
   28.100      239
   28.130      254
   28.160      242
   28.190      265
   28.220      263
   28.250      248
   28.280      247
   28.310      241
   28.340      247
   28.370      260
   28.400      257
   28.430      265
   28.460      270
   28.490      267
   28.520      277
   28.550      270
   28.580      259
   28.610      282
   28.640      252
   28.670      253
   28.700      257
   28.730      249
   28.760      268
   28.790      222
   28.820      246
   28.850      263
   28.880      239
   28.910      259
   28.940      245
   28.970      261
   29.000      265
   29.030      240
   29.060      268
   29.090      264
   29.120      257
   29.150      250
   29.180      251
   29.210      256
   29.240      261
   29.270      265
   29.300      251
   29.330      256
   29.360      281
   29.390      295
   29.420      226
   29.450      270
   29.480      251
   29.510      259
   29.540      272
   29.570      268
   29.600      273
   29.630      227
   29.660      264
   29.690      246
   29.720      261
   29.750      238
   29.780      237
   29.810      249
   29.840      219
   29.870      245
   29.900      223
   29.930      255
   29.960      253
   29.990      245
   30.020      278
   30.050      279
   30.080      265
   30.110      254
   30.140      265
   30.170      239
   30.200      269
   30.230      254
   30.260      275
   30.290      263
   30.320      283
   30.350      272
   30.380      268
   30.410      294
   30.440      282
   30.470      270
   30.500      251
   30.530      254
   30.560      257
   30.590      247
   30.620      249
   30.650      235
   30.680      269
   30.710      256
   30.740      264
   30.770      250
   30.800      241
   30.830      224
   30.860      279
   30.890      229
   30.920      259
   30.950      218
   30.980      262
   31.010      243
   31.040      222
   31.070      233
   31.100      268
   31.130      270
   31.160      221
   31.190      261
   31.220      214
   31.250      235
   31.280      259
   31.310      222
   31.340      225
   31.370      264
   31.400      243
   31.430      224
   31.460      241
   31.490      237
   31.520      241
   31.550      227
   31.580      214
   31.610      246
   31.640      217
   31.670      258
   31.700      215
   31.730      227
   31.760      239
   31.790      224
   31.820      230
   31.850      241
   31.880      237
   31.910      211
   31.940      238
   31.970      242
   32.000      238
   32.030      214
   32.060      242
   32.090      223
   32.120      247
   32.150      237
   32.180      233
   32.210      271
   32.240      262
   32.270      298
   32.300      277
   32.330      300
   32.360      280
   32.390      258
   32.420      269
   32.450      256
   32.480      257
   32.510      247
   32.540      252
   32.570      231
   32.600      261
   32.630      256
   32.660      250
   32.690      256
   32.720      252
   32.750      263
   32.780      279
   32.810      276
   32.840      247
   32.870      254
   32.900      280
   32.930      262
   32.960      244
   32.990      240
   33.020      304
   33.050      260
   33.080      264
   33.110      267
   33.140      270
   33.170      264
   33.200      265
   33.230      249
   33.260      244
   33.290      225
   33.320      241
   33.350      257
   33.380      240
   33.410      227
   33.440      269
   33.470      263
   33.500      264
   33.530      227
   33.560      255
   33.590      251
   33.620      296
   33.650      251
   33.680      246
   33.710      262
   33.740      257
   33.770      258
   33.800      241
   33.830      252
   33.860      252
   33.890      264
   33.920      247
   33.950      233
   33.980      275
   34.010      262
   34.040      257
   34.070      222
   34.100      238
   34.130      229
   34.160      273
   34.190      237
   34.220      273
   34.250      239
   34.280      238
   34.310      217
   34.340      250
   34.370      241
   34.400      255
   34.430      242
   34.460      255
   34.490      250
   34.520      261
   34.550      261
   34.580      251
   34.610      242
   34.640      226
   34.670      226
   34.700      249
   34.730      248
   34.760      257
   34.790      263
   34.820      263
   34.850      235
   34.880      259
   34.910      244
   34.940      267
   34.970      270
   35.000      251
   35.030      261
   35.060      250
   35.090      248
   35.120      229
   35.150      243
   35.180      260
   35.210      240
   35.240      280
   35.270      260
   35.300      262
   35.330      258
   35.360      248
   35.390      256
   35.420      260
   35.450      272
   35.480      251
   35.510      266
   35.540      250
   35.570      224
   35.600      251
   35.630      251
   35.660      269
   35.690      223
   35.720      234
   35.750      264
   35.780      256
   35.810      222
   35.840      216
   35.870      246
   35.900      236
   35.930      234
   35.960      235
   35.990      257
   36.020      237
   36.050      231
   36.080      236
   36.110      212
   36.140      232
   36.170      228
   36.200      266
   36.230      221
   36.260      258
   36.290      231
   36.320      239
   36.350      243
   36.380      251
   36.410      257
   36.440      255
   36.470      234
   36.500      234
   36.530      231
   36.560      245
   36.590      234
   36.620      264
   36.650      250
   36.680      233
   36.710      244
   36.740      251
   36.770      268
   36.800      233
   36.830      243
   36.860      244
   36.890      257
   36.920      239
   36.950      226
   36.980      260
   37.010      206
   37.040      281
   37.070      238
   37.100      279
   37.130      212
   37.160      224
   37.190      244
   37.220      251
   37.250      228
   37.280      257
   37.310      223
   37.340      202
   37.370      264
   37.400      248
   37.430      227
   37.460      210
   37.490      238
   37.520      215
   37.550      225
   37.580      253
   37.610      241
   37.640      217
   37.670      236
   37.700      212
   37.730      237
   37.760      240
   37.790      225
   37.820      231
   37.850      246
   37.880      236
   37.910      214
   37.940      241
   37.970      240
   38.000      233
   38.030      244
   38.060      256
   38.090      228
   38.120      247
   38.150      248
   38.180      231
   38.210      240
   38.240      220
   38.270      249
   38.300      248
   38.330      218
   38.360      232
   38.390      242
   38.420      259
   38.450      225
   38.480      235
   38.510      244
   38.540      236
   38.570      245
   38.600      256
   38.630      242
   38.660      234
   38.690      252
   38.720      246
   38.750      236
   38.780      275
   38.810      238
   38.840      250
   38.870      274
   38.900      233
   38.930      236
   38.960      237
   38.990      252
   39.020      256
   39.050      257
   39.080      243
   39.110      238
   39.140      251
   39.170      242
   39.200      258
   39.230      260
   39.260      258
   39.290      243
   39.320      250
   39.350      280
   39.380      244
   39.410      241
   39.440      231
   39.470      235
   39.500      240
   39.530      215
   39.560      269
   39.590      214
   39.620      257
   39.650      252
   39.680      261
   39.710      237
   39.740      247
   39.770      232
   39.800      257
   39.830      263
   39.860      256
   39.890      240
   39.920      252
   39.950      210
   39.980      260
   40.010      258
   40.040      219
   40.070      265
   40.100      217
   40.130      238
   40.160      240
   40.190      235
   40.220      249
   40.250      235
   40.280      220
   40.310      237
   40.340      229
   40.370      260
   40.400      227
   40.430      249
   40.460      263
   40.490      289
   40.520      251
   40.550      254
   40.580      270
   40.610      285
   40.640      291
   40.670      269
   40.700      292
   40.730      276
   40.760      258
   40.790      266
   40.820      245
   40.850      240
   40.880      258
   40.910      257
   40.940      235
   40.970      246
   41.000      271
   41.030      277
   41.060      270
   41.090      279
   41.120      248
   41.150      252
   41.180      290
   41.210      263
   41.240      272
   41.270      261
   41.300      279
   41.330      284
   41.360      268
   41.390      272
   41.420      294
   41.450      252
   41.480      243
   41.510      240
   41.540      252
   41.570      245
   41.600      236
   41.630      254
   41.660      244
   41.690      244
   41.720      253
   41.750      233
   41.780      238
   41.810      257
   41.840      226
   41.870      225
   41.900      243
   41.930      250
   41.960      259
   41.990      265
   42.020      246
   42.050      262
   42.080      248
   42.110      227
   42.140      261
   42.170      256
   42.200      286
   42.230      236
   42.260      263
   42.290      236
   42.320      241
   42.350      254
   42.380      238
   42.410      272
   42.440      239
   42.470      248
   42.500      238
   42.530      245
   42.560      251
   42.590      232
   42.620      238
   42.650      226
   42.680      238
   42.710      241
   42.740      259
   42.770      231
   42.800      230
   42.830      216
   42.860      257
   42.890      241
   42.920      233
   42.950      247
   42.980      270
   43.010      241
   43.040      240
   43.070      229
   43.100      276
   43.130      278
   43.160      252
   43.190      278
   43.220      242
   43.250      213
   43.280      260
   43.310      232
   43.340      250
   43.370      288
   43.400      259
   43.430      254
   43.460      265
   43.490      249
   43.520      263
   43.550      280
   43.580      260
   43.610      240
   43.640      264
   43.670      265
   43.700      211
   43.730      241
   43.760      270
   43.790      246
   43.820      261
   43.850      252
   43.880      241
   43.910      225
   43.940      221
   43.970      247
   43.985      242