File: data/MIL-88B_101/PXRD/PXRD_MIL-88B-DMF_Cu-Kα1_capillary-0.7mm.xyd
    2.000     1566
    2.030     1685
    2.060     1585
    2.090     1611
    2.120     1590
    2.150     1578
    2.180     1551
    2.210     1547
    2.240     1502
    2.270     1467
    2.300     1437
    2.330     1385
    2.360     1444
    2.390     1399
    2.420     1460
    2.450     1440
    2.480     1309
    2.510     1350
    2.540     1366
    2.570     1407
    2.600     1370
    2.630     1291
    2.660     1324
    2.690     1330
    2.720     1359
    2.750     1229
    2.780     1269
    2.810     1341
    2.840     1271
    2.870     1294
    2.900     1311
    2.930     1269
    2.960     1306
    2.990     1299
    3.020     1277
    3.050     1285
    3.080     1300
    3.110     1235
    3.140     1229
    3.170     1246
    3.200     1294
    3.230     1227
    3.260     1313
    3.290     1287
    3.320     1252
    3.350     1278
    3.380     1274
    3.410     1222
    3.440     1318
    3.470     1276
    3.500     1318
    3.530     1150
    3.560     1204
    3.590     1220
    3.620     1280
    3.650     1207
    3.680     1257
    3.710     1214
    3.740     1185
    3.770     1173
    3.800     1236
    3.830     1246
    3.860     1195
    3.890     1244
    3.920     1238
    3.950     1175
    3.980     1202
    4.010     1270
    4.040     1204
    4.070     1272
    4.100     1282
    4.130     1204
    4.160     1191
    4.190     1186
    4.220     1279
    4.250     1168
    4.280     1299
    4.310     1159
    4.340     1249
    4.370     1313
    4.400     1180
    4.430     1262
    4.460     1220
    4.490     1264
    4.520     1217
    4.550     1198
    4.580     1187
    4.610     1215
    4.640     1204
    4.670     1202
    4.700     1176
    4.730     1226
    4.760     1200
    4.790     1231
    4.820     1240
    4.850     1147
    4.880     1201
    4.910     1204
    4.940     1286
    4.970     1207
    5.000     1258
    5.030     1173
    5.060     1185
    5.090     1203
    5.120     1178
    5.150     1244
    5.180     1206
    5.210     1311
    5.240     1186
    5.270     1211
    5.300     1223
    5.330     1190
    5.360     1210
    5.390     1227
    5.420     1229
    5.450     1255
    5.480     1157
    5.510     1186
    5.540     1235
    5.570     1214
    5.600     1195
    5.630     1198
    5.660     1144
    5.690     1230
    5.720     1236
    5.750     1334
    5.780     1170
    5.810     1138
    5.840     1239
    5.870     1258
    5.900     1167
    5.930     1202
    5.960     1177
    5.990     1212
    6.020     1224
    6.050     1182
    6.080     1120
    6.110     1182
    6.140     1161
    6.170     1193
    6.200     1196
    6.230     1205
    6.260     1124
    6.290     1201
    6.320     1158
    6.350     1135
    6.380     1263
    6.410     1216
    6.440     1151
    6.470     1227
    6.500     1172
    6.530     1209
    6.560     1198
    6.590     1200
    6.620     1237
    6.650     1172
    6.680     1198
    6.710     1167
    6.740     1233
    6.770     1198
    6.800     1258
    6.830     1235
    6.860     1169
    6.890     1269
    6.920     1219
    6.950     1270
    6.980     1210
    7.010     1216
    7.040     1227
    7.070     1235
    7.100     1255
    7.130     1289
    7.160     1161
    7.190     1269
    7.220     1153
    7.250     1269
    7.280     1139
    7.310     1148
    7.340     1196
    7.370     1200
    7.400     1173
    7.430     1262
    7.460     1258
    7.490     1214
    7.520     1215
    7.550     1227
    7.580     1183
    7.610     1320
    7.640     1218
    7.670     1256
    7.700     1242
    7.730     1195
    7.760     1314
    7.790     1171
    7.820     1270
    7.850     1290
    7.880     1226
    7.910     1233
    7.940     1265
    7.970     1259
    8.000     1214
    8.030     1277
    8.060     1240
    8.090     1249
    8.120     1225
    8.150     1248
    8.180     1187
    8.210     1228
    8.240     1225
    8.270     1266
    8.300     1231
    8.330     1320
    8.360     1290
    8.390     1275
    8.420     1336
    8.450     1217
    8.480     1284
    8.510     1236
    8.540     1245
    8.570     1274
    8.600     1177
    8.630     1231
    8.660     1246
    8.690     1271
    8.720     1280
    8.750     1192
    8.780     1189
    8.810     1259
    8.840     1281
    8.870     1270
    8.900     1297
    8.930     1277
    8.960     1285
    8.990     1244
    9.020     1344
    9.050     1425
    9.080     1480
    9.110     1547
    9.140     1609
    9.170     1908
    9.200     2321
    9.230     2758
    9.260     3385
    9.290     2967
    9.320     2064
    9.350     1530
    9.380     1312
    9.410     1369
    9.440     1451
    9.470     1444
    9.500     1538
    9.530     1614
    9.560     1610
    9.590     1579
    9.620     1458
    9.650     1305
    9.680     1342
    9.710     1282
    9.740     1330
    9.770     1255
    9.800     1315
    9.830     1300
    9.860     1247
    9.890     1305
    9.920     1336
    9.950     1243
    9.980     1287
   10.010     1271
   10.040     1295
   10.070     1329
   10.100     1353
   10.130     1239
   10.160     1279
   10.190     1304
   10.220     1374
   10.250     1293
   10.280     1376
   10.310     1274
   10.340     1324
   10.370     1391
   10.400     1349
   10.430     1353
   10.460     1343
   10.490     1290
   10.520     1320
   10.550     1329
   10.580     1363
   10.610     1341
   10.640     1349
   10.670     1268
   10.700     1296
   10.730     1391
   10.760     1355
   10.790     1314
   10.820     1319
   10.850     1320
   10.880     1341
   10.910     1352
   10.940     1350
   10.970     1398
   11.000     1358
   11.030     1426
   11.060     1331
   11.090     1355
   11.120     1386
   11.150     1342
   11.180     1302
   11.210     1360
   11.240     1331
   11.270     1372
   11.300     1340
   11.330     1357
   11.360     1428
   11.390     1431
   11.420     1373
   11.450     1395
   11.480     1308
   11.510     1392
   11.540     1400
   11.570     1344
   11.600     1396
   11.630     1397
   11.660     1329
   11.690     1380
   11.720     1501
   11.750     1457
   11.780     1390
   11.810     1380
   11.840     1404
   11.870     1457
   11.900     1381
   11.930     1376
   11.960     1384
   11.990     1446
   12.020     1436
   12.050     1370
   12.080     1354
   12.110     1435
   12.140     1319
   12.170     1384
   12.200     1440
   12.230     1440
   12.260     1356
   12.290     1415
   12.320     1445
   12.350     1469
   12.380     1652
   12.410     1773
   12.440     1845
   12.470     1967
   12.500     1760
   12.530     1531
   12.560     1442
   12.590     1434
   12.620     1519
   12.650     1499
   12.680     1460
   12.710     1502
   12.740     1478
   12.770     1525
   12.800     1593
   12.830     1530
   12.860     1495
   12.890     1582
   12.920     1574
   12.950     1527
   12.980     1543
   13.010     1538
   13.040     1546
   13.070     1556
   13.100     1569
   13.130     1650
   13.160     1515
   13.190     1647
   13.220     1499
   13.250     1515
   13.280     1634
   13.310     1407
   13.340     1510
   13.370     1528
   13.400     1465
   13.430     1577
   13.460     1612
   13.490     1486
   13.520     1535
   13.550     1593
   13.580     1589
   13.610     1575
   13.640     1599
   13.670     1640
   13.700     1649
   13.730     1678
   13.760     1861
   13.790     1720
   13.820     1873
   13.850     1829
   13.880     1582
   13.910     1629
   13.940     1624
   13.970     1612
   14.000     1601
   14.030     1722
   14.060     1706
   14.090     1637
   14.120     1678
   14.150     1683
   14.180     1634
   14.210     1688
   14.240     1689
   14.270     1664
   14.300     1717
   14.330     1703
   14.360     1816
   14.390     1787
   14.420     1773
   14.450     1700
   14.480     1689
   14.510     1718
   14.540     1697
   14.570     1802
   14.600     1707
   14.630     1715
   14.660     1785
   14.690     1814
   14.720     1839
   14.750     1721
   14.780     1658
   14.810     1791
   14.840     1788
   14.870     1804
   14.900     1868
   14.930     1781
   14.960     1840
   14.990     1759
   15.020     1836
   15.050     1817
   15.080     1926
   15.110     1921
   15.140     1771
   15.170     1842
   15.200     1928
   15.230     1828
   15.260     1944
   15.290     1914
   15.320     1900
   15.350     1975
   15.380     1849
   15.410     1839
   15.440     1991
   15.470     1863
   15.500     2052
   15.530     1889
   15.560     1870
   15.590     1958
   15.620     2055
   15.650     1939
   15.680     2178
   15.710     2036
   15.740     2045
   15.770     1971
   15.800     2196
   15.830     2198
   15.860     2086
   15.890     2272
   15.920     2318
   15.950     2241
   15.980     2313
   16.010     2278
   16.040     2199
   16.070     2160
   16.100     2297
   16.130     2132
   16.160     2140
   16.190     2135
   16.220     2225
   16.250     2223
   16.280     2317
   16.310     2241
   16.340     2299
   16.370     2376
   16.400     2349
   16.430     2542
   16.460     2650
   16.490     2642
   16.520     2543
   16.550     2398
   16.580     2402
   16.610     2308
   16.640     2438
   16.670     2236
   16.700     2316
   16.730     2455
   16.760     2516
   16.790     2465
   16.820     2529
   16.850     2526
   16.880     2564
   16.910     2565
   16.940     2562
   16.970     2519
   17.000     2511
   17.030     2495
   17.060     2574
   17.090     2462
   17.120     2437
   17.150     2608
   17.180     2530
   17.210     2636
   17.240     2493
   17.270     2612
   17.300     2667
   17.330     2661
   17.360     2772
   17.390     2769
   17.420     2627
   17.450     2872
   17.480     2583
   17.510     2775
   17.540     2719
   17.570     2661
   17.600     2695
   17.630     2679
   17.660     2800
   17.690     2795
   17.720     2941
   17.750     2875
   17.780     2759
   17.810     2824
   17.840     2852
   17.870     2901
   17.900     2849
   17.930     2823
   17.960     2824
   17.990     2911
   18.020     2950
   18.050     2892
   18.080     2850
   18.110     2826
   18.140     2830
   18.170     2933
   18.200     2921
   18.230     2998
   18.260     2920
   18.290     2956
   18.320     2932
   18.350     2807
   18.380     3177
   18.410     3037
   18.440     2889
   18.470     3087
   18.500     3075
   18.530     3157
   18.560     3089
   18.590     3445
   18.620     3818
   18.650     4078
   18.680     4266
   18.710     3740
   18.740     3366
   18.770     3203
   18.800     3167
   18.830     3272
   18.860     3236
   18.890     3297
   18.920     3346
   18.950     3202
   18.980     3203
   19.010     3126
   19.040     3301
   19.070     3266
   19.100     3334
   19.130     3484
   19.160     3075
   19.190     3380
   19.220     3442
   19.250     3371
   19.280     3413
   19.310     3097
   19.340     3259
   19.370     3148
   19.400     3165
   19.430     3436
   19.460     3319
   19.490     3043
   19.520     3178
   19.550     3207
   19.580     3181
   19.610     3275
   19.640     3160
   19.670     3265
   19.700     3208
   19.730     3097
   19.760     3495
   19.790     3147
   19.820     3405
   19.850     3341
   19.880     3101
   19.910     3201
   19.940     3144
   19.970     3122
   20.000     3176
   20.030     3312
   20.060     3201
   20.090     3192
   20.120     3091
   20.150     3155
   20.180     3117
   20.210     3194
   20.240     3087
   20.270     3172
   20.300     3142
   20.330     3079
   20.360     3165
   20.390     3160
   20.420     3207
   20.450     3106
   20.480     3102
   20.510     3030
   20.540     3057
   20.570     3299
   20.600     2980
   20.630     2991
   20.660     3003
   20.690     3026
   20.720     3204
   20.750     2929
   20.780     2860
   20.810     3080
   20.840     3057
   20.870     3226
   20.900     3149
   20.930     3041
   20.960     3102
   20.990     2880
   21.020     2991
   21.050     2987
   21.080     3121
   21.110     3035
   21.140     2948
   21.170     3088
   21.200     3201
   21.230     3018
   21.260     3169
   21.290     2958
   21.320     2955
   21.350     2925
   21.380     2824
   21.410     2802
   21.440     2954
   21.470     2891
   21.500     3075
   21.530     2919
   21.560     2712
   21.590     2810
   21.620     3011
   21.650     2943
   21.680     3269
   21.710     3252
   21.740     3448
   21.770     3232
   21.800     3183
   21.830     3024
   21.860     2705
   21.890     2920
   21.920     2786
   21.950     2783
   21.980     2694
   22.010     2816
   22.040     2686
   22.070     2796
   22.100     2971
   22.130     2601
   22.160     2799
   22.190     2672
   22.220     2816
   22.250     2680
   22.280     2891
   22.310     2677
   22.340     2711
   22.370     2766
   22.400     2560
   22.430     2685
   22.460     2683
   22.490     2667
   22.520     2665
   22.550     2599
   22.580     2582
   22.610     2532
   22.640     2736
   22.670     2488
   22.700     2549
   22.730     2572
   22.760     2573
   22.790     2574
   22.820     2555
   22.850     2481
   22.880     2569
   22.910     2563
   22.940     2645
   22.970     2532
   23.000     2499
   23.030     2483
   23.060     2515
   23.090     2451
   23.120     2416
   23.150     2527
   23.180     2463
   23.210     2512
   23.240     2365
   23.270     2465
   23.300     2456
   23.330     2450
   23.360     2389
   23.390     2569
   23.420     2422
   23.450     2474
   23.480     2309
   23.510     2382
   23.540     2414
   23.570     2372
   23.600     2319
   23.630     2334
   23.660     2352
   23.690     2342
   23.720     2462
   23.750     2379
   23.780     2380
   23.810     2459
   23.840     2412
   23.870     2351
   23.900     2263
   23.930     2331
   23.960     2286
   23.990     2268
   24.020     2350
   24.050     2128
   24.080     2152
   24.110     2233
   24.140     2125
   24.170     2218
   24.200     2141
   24.230     2169
   24.260     2064
   24.290     2161
   24.320     2160
   24.350     2144
   24.380     2281
   24.410     2209
   24.440     2077
   24.470     2131
   24.500     2123
   24.530     2160
   24.560     2131
   24.590     2188
   24.620     2272
   24.650     2135
   24.680     2155
   24.710     2171
   24.740     2093
   24.770     2076
   24.800     2213
   24.830     2168
   24.860     2135
   24.890     2141
   24.920     2209
   24.950     2181
   24.980     2139
   25.010     2072
   25.040     2068
   25.070     2223
   25.100     2183
   25.130     2288
   25.160     2084
   25.190     2099
   25.220     2010
   25.250     2103
   25.280     2071
   25.310     1927
   25.340     1971
   25.370     2084
   25.400     2012
   25.430     2050
   25.460     2150
   25.490     2006
   25.520     2104
   25.550     2038
   25.580     1937
   25.610     2037
   25.640     1923
   25.670     2057
   25.700     2073
   25.730     2061
   25.760     2328
   25.790     1934
   25.820     2081
   25.850     2032
   25.880     1905
   25.910     2009
   25.940     2055
   25.970     2083
   26.000     2101
   26.030     2123
   26.060     1994
   26.090     2017
   26.120     1868
   26.150     1924
   26.180     1882
   26.210     1955
   26.240     1900
   26.270     1960
   26.300     1959
   26.330     1878
   26.360     1957
   26.390     1888
   26.420     1866
   26.450     1911
   26.480     1880
   26.510     1876
   26.540     1845
   26.570     1910
   26.600     1839
   26.630     1783
   26.660     1832
   26.690     1875
   26.720     1852
   26.750     1750
   26.780     1763
   26.810     1820
   26.840     1857
   26.870     1856
   26.900     1800
   26.930     1771
   26.960     1865
   26.990     1768
   27.020     1777
   27.050     1824
   27.080     1853
   27.110     1782
   27.140     1767
   27.170     1851
   27.200     1820
   27.230     1651
   27.260     1868
   27.290     1764
   27.320     1768
   27.350     1805
   27.380     1730
   27.410     1769
   27.440     1839
   27.470     1723
   27.500     1752
   27.530     1776
   27.560     1597
   27.590     1684
   27.620     1767
   27.650     1667
   27.680     1849
   27.710     1643
   27.740     1722
   27.770     1664
   27.800     1788
   27.830     1806
   27.860     1712
   27.890     1835
   27.920     1786
   27.950     1680
   27.980     1697
   28.010     1702
   28.040     1730
   28.070     1678
   28.100     1820
   28.130     1691
   28.160     1731
   28.190     1758
   28.220     1879
   28.250     1783
   28.280     1742
   28.310     1605
   28.340     1656
   28.370     1706
   28.400     1654
   28.430     1704
   28.460     1638
   28.490     1633
   28.520     1622
   28.550     1650
   28.580     1652
   28.610     1615
   28.640     1617
   28.670     1596
   28.700     1578
   28.730     1666
   28.760     1620
   28.790     1545
   28.820     1591
   28.850     1593
   28.880     1634
   28.910     1604
   28.940     1593
   28.970     1622
   29.000     1550
   29.030     1544
   29.060     1590
   29.090     1540
   29.120     1519
   29.150     1625
   29.180     1565
   29.210     1573
   29.240     1482
   29.270     1551
   29.300     1527
   29.330     1564
   29.360     1538
   29.390     1563
   29.420     1532
   29.450     1594
   29.480     1473
   29.510     1529
   29.540     1545
   29.570     1555
   29.600     1554
   29.630     1526
   29.660     1502
   29.690     1428
   29.720     1556
   29.750     1573
   29.780     1509
   29.810     1499
   29.840     1500
   29.870     1496
   29.900     1468
   29.930     1543
   29.960     1354
   29.990     1508
   30.020     1473
   30.050     1371
   30.080     1388
   30.110     1411
   30.140     1354
   30.170     1410
   30.200     1412
   30.230     1442
   30.260     1405
   30.290     1409
   30.320     1391
   30.350     1364
   30.380     1469
   30.410     1397
   30.440     1391
   30.470     1411
   30.500     1353
   30.530     1416
   30.560     1331
   30.590     1464
   30.620     1507
   30.650     1504
   30.680     1557
   30.710     1504
   30.740     1477
   30.770     1505
   30.800     1496
   30.830     1436
   30.860     1413
   30.890     1453
   30.920     1385
   30.950     1444
   30.980     1407
   31.010     1314
   31.040     1434
   31.070     1379
   31.100     1409
   31.130     1406
   31.160     1306
   31.190     1369
   31.220     1307
   31.250     1316
   31.280     1346
   31.310     1225
   31.340     1332
   31.370     1375
   31.400     1285
   31.430     1271
   31.460     1343
   31.490     1300
   31.520     1320
   31.550     1210
   31.580     1336
   31.610     1427
   31.640     1272
   31.670     1312
   31.700     1260
   31.730     1217
   31.760     1341
   31.790     1242
   31.820     1317
   31.850     1278
   31.880     1212
   31.910     1291
   31.940     1244
   31.970     1183
   32.000     1237
   32.030     1325
   32.060     1239
   32.090     1245
   32.120     1208
   32.150     1260
   32.180     1219
   32.210     1226
   32.240     1230
   32.270     1317
   32.300     1268
   32.330     1344
   32.360     1351
   32.390     1353
   32.420     1381
   32.450     1270
   32.480     1184
   32.510     1181
   32.540     1235
   32.570     1313
   32.600     1209
   32.630     1232
   32.660     1186
   32.690     1238
   32.720     1268
   32.750     1107
   32.780     1117
   32.810     1197
   32.840     1129
   32.870     1200
   32.900     1203
   32.930     1156
   32.960     1198
   32.990     1123
   33.020     1162
   33.050     1156
   33.080     1175
   33.110     1150
   33.140     1100
   33.170     1144
   33.200     1184
   33.230     1150
   33.260     1147
   33.290     1171
   33.320     1116
   33.350     1271
   33.380     1207
   33.410     1159
   33.440     1223
   33.470     1203
   33.500     1169
   33.530     1098
   33.560     1110
   33.590     1116
   33.620     1108
   33.650     1057
   33.680     1171
   33.710     1043
   33.740     1125
   33.770     1095
   33.800     1126
   33.830     1130
   33.860     1071
   33.890     1156
   33.920     1091
   33.950     1070
   33.980     1079
   34.010     1168
   34.040     1057
   34.070     1101
   34.100     1174
   34.130     1143
   34.160     1149
   34.190     1130
   34.220     1149
   34.250     1090
   34.280     1095
   34.310     1028
   34.340     1094
   34.370     1159
   34.400     1130
   34.430     1136
   34.460     1065
   34.490     1036
   34.520     1102
   34.550     1090
   34.580     1076
   34.610     1026
   34.640     1031
   34.670     1052
   34.700     1034
   34.730     1048
   34.760     1040
   34.790     1050
   34.820     1006
   34.850      997
   34.880     1059
   34.910     1043
   34.940     1043
   34.970     1079
   35.000     1018
   35.030     1043
   35.060     1013
   35.090     1000
   35.120     1016
   35.150     1042
   35.180      974
   35.210     1061
   35.240      955
   35.270     1030
   35.300     1003
   35.330     1026
   35.360     1057
   35.390     1073
   35.420     1001
   35.450      998
   35.480      963
   35.510      983
   35.540     1044
   35.570     1029
   35.600      943
   35.630      972
   35.660     1044
   35.690     1022
   35.720     1017
   35.750     1066
   35.780      932
   35.810      955
   35.840      981
   35.870      983
   35.900      942
   35.930      984
   35.960      972
   35.990      995
   36.020      999
   36.050      897
   36.080      912
   36.110      985
   36.140      919
   36.170      946
   36.200      938
   36.230      930
   36.260      934
   36.290      939
   36.320      923
   36.350      887
   36.380      952
   36.410      953
   36.440      897
   36.470      932
   36.500      857
   36.530      877
   36.560      925
   36.590      936
   36.620      992
   36.650      914
   36.680      946
   36.710      990
   36.740      984
   36.770      971
   36.800     1011
   36.830      954
   36.860      925
   36.890      960
   36.920      943
   36.950      932
   36.980      930
   37.010      918
   37.040      911
   37.070      971
   37.100      986
   37.130      998
   37.160      881
   37.190      939
   37.220      931
   37.250      919
   37.280      940
   37.310      908
   37.340      894
   37.370      923
   37.400      847
   37.430      921
   37.460      958
   37.490      929
   37.520      906
   37.550      948
   37.580      971
   37.610      909
   37.640      870
   37.670      931
   37.700      843
   37.730      859
   37.760      963
   37.790      847
   37.820      975
   37.850      970
   37.880      892
   37.910      957
   37.940      956
   37.970      957
   38.000      939
   38.030      911
   38.060      862
   38.090      924
   38.120      847
   38.150      942
   38.180      917
   38.210      914
   38.240      901
   38.270      864
   38.300      875
   38.330      914
   38.360      947
   38.390      894
   38.420      903
   38.450      870
   38.480      862
   38.510      883
   38.540      867
   38.570      936
   38.600      829
   38.630      867
   38.660      902
   38.690      885
   38.720      897
   38.750      852
   38.780      839
   38.810      889
   38.840      847
   38.870      886
   38.900      874
   38.930      833
   38.960      861
   38.990      861
   39.020      838
   39.050      848
   39.080      910
   39.110      886
   39.140      852
   39.170      899
   39.200      881
   39.230      826
   39.260      898
   39.290      853
   39.320      852
   39.350      864
   39.380      825
   39.410      871
   39.440      890
   39.470      890
   39.500      865
   39.530      842
   39.560      841
   39.590      869
   39.620      902
   39.650      800
   39.680      923
   39.710      829
   39.740      833
   39.770      858
   39.800      904
   39.830      845
   39.860      813
   39.890      914
   39.920      879
   39.950      856
   39.980      829
   40.010      918
   40.040      834
   40.070      863
   40.100      905
   40.130      819
   40.160      852
   40.190      841
   40.220      889
   40.250      816
   40.280      874
   40.310      824
   40.340      831
   40.370      865
   40.400      833
   40.430      879
   40.460      890
   40.490      917
   40.520      921
   40.550      891
   40.580      901
   40.610      919
   40.640      864
   40.670      828
   40.700      852
   40.730      866
   40.760      833
   40.790      842
   40.820      828
   40.850      816
   40.880      819
   40.910      848
   40.940      870
   40.970      857
   41.000      819
   41.030      828
   41.060      867
   41.090      827
   41.120      791
   41.150      815
   41.180      858
   41.210      890
   41.240      835
   41.270      836
   41.300      813
   41.330      795
   41.360      835
   41.390      824
   41.420      830
   41.450      861
   41.480      753
   41.510      840
   41.540      893
   41.570      850
   41.600      896
   41.630      896
   41.660      923
   41.690      859
   41.720      864
   41.750      923
   41.780      804
   41.810      807
   41.840      843
   41.870      869
   41.900      820
   41.930      837
   41.960      845
   41.990      887
   42.020      861
   42.050      837
   42.080      811
   42.110      772
   42.140      778
   42.170      866
   42.200      880
   42.230      815
   42.260      817
   42.290      830
   42.320      829
   42.350      790
   42.380      882
   42.410      846
   42.440      786
   42.470      856
   42.500      813
   42.530      809
   42.560      810
   42.590      824
   42.620      871
   42.650      810
   42.680      806
   42.710      813
   42.740      803
   42.770      810
   42.800      867
   42.830      820
   42.860      822
   42.890      848
   42.920      852
   42.950      837
   42.980      801
   43.010      785
   43.040      781
   43.070      854
   43.100      855
   43.130      812
   43.160      809
   43.190      830
   43.220      781
   43.250      824
   43.280      854
   43.310      772
   43.340      798
   43.370      815
   43.400      782
   43.430      818
   43.460      825
   43.490      791
   43.520      794
   43.550      824
   43.580      790
   43.610      820
   43.640      779
   43.670      859
   43.700      800
   43.730      749
   43.760      854
   43.790      759
   43.820      811
   43.850      813
   43.880      765
   43.910      793
   43.940      774
   43.970      819
   43.985      751