File: data/MIL-88B_101/PXRD/PXRD_S-1_Cu-Kα1_capillary-0.7mm.xyd
    2.000      638
    2.030      693
    2.060      653
    2.090      675
    2.120      638
    2.150      705
    2.180      655
    2.210      666
    2.240      642
    2.270      685
    2.300      645
    2.330      645
    2.360      699
    2.390      656
    2.420      700
    2.450      704
    2.480      683
    2.510      656
    2.540      681
    2.570      675
    2.600      630
    2.630      686
    2.660      668
    2.690      675
    2.720      664
    2.750      654
    2.780      618
    2.810      684
    2.840      683
    2.870      667
    2.900      711
    2.930      666
    2.960      660
    2.990      640
    3.020      668
    3.050      671
    3.080      680
    3.110      675
    3.140      649
    3.170      684
    3.200      711
    3.230      668
    3.260      693
    3.290      656
    3.320      713
    3.350      743
    3.380      665
    3.410      587
    3.440      707
    3.470      682
    3.500      700
    3.530      614
    3.560      656
    3.590      625
    3.620      736
    3.650      697
    3.680      692
    3.710      656
    3.740      698
    3.770      642
    3.800      672
    3.830      687
    3.860      675
    3.890      689
    3.920      678
    3.950      665
    3.980      651
    4.010      659
    4.040      667
    4.070      686
    4.100      697
    4.130      667
    4.160      636
    4.190      651
    4.220      655
    4.250      669
    4.280      687
    4.310      664
    4.340      663
    4.370      675
    4.400      684
    4.430      694
    4.460      652
    4.490      647
    4.520      639
    4.550      672
    4.580      720
    4.610      652
    4.640      656
    4.670      653
    4.700      657
    4.730      651
    4.760      715
    4.790      623
    4.820      640
    4.850      646
    4.880      651
    4.910      671
    4.940      681
    4.970      684
    5.000      648
    5.030      634
    5.060      660
    5.090      687
    5.120      631
    5.150      665
    5.180      630
    5.210      664
    5.240      652
    5.270      691
    5.300      670
    5.330      638
    5.360      700
    5.390      700
    5.420      701
    5.450      662
    5.480      622
    5.510      647
    5.540      675
    5.570      669
    5.600      684
    5.630      640
    5.660      680
    5.690      643
    5.720      693
    5.750      672
    5.780      645
    5.810      633
    5.840      660
    5.870      656
    5.900      638
    5.930      710
    5.960      662
    5.990      652
    6.020      669
    6.050      626
    6.080      688
    6.110      676
    6.140      626
    6.170      658
    6.200      666
    6.230      673
    6.260      608
    6.290      651
    6.320      662
    6.350      606
    6.380      676
    6.410      681
    6.440      650
    6.470      653
    6.500      669
    6.530      666
    6.560      677
    6.590      679
    6.620      685
    6.650      665
    6.680      674
    6.710      680
    6.740      659
    6.770      689
    6.800      703
    6.830      681
    6.860      657
    6.890      679
    6.920      688
    6.950      695
    6.980      685
    7.010      683
    7.040      652
    7.070      769
    7.100      729
    7.130      765
    7.160      666
    7.190      682
    7.220      604
    7.250      692
    7.280      704
    7.310      626
    7.340      661
    7.370      679
    7.400      636
    7.430      675
    7.460      700
    7.490      689
    7.520      697
    7.550      643
    7.580      669
    7.610      677
    7.640      646
    7.670      671
    7.700      707
    7.730      639
    7.760      700
    7.790      632
    7.820      725
    7.850      660
    7.880      673
    7.910      671
    7.940      634
    7.970      704
    8.000      684
    8.030      660
    8.060      646
    8.090      676
    8.120      691
    8.150      706
    8.180      691
    8.210      694
    8.240      715
    8.270      713
    8.300      674
    8.330      663
    8.360      731
    8.390      676
    8.420      719
    8.450      703
    8.480      682
    8.510      653
    8.540      693
    8.570      702
    8.600      653
    8.630      686
    8.660      698
    8.690      713
    8.720      725
    8.750      645
    8.780      687
    8.810      708
    8.840      709
    8.870      730
    8.900      716
    8.930      694
    8.960      755
    8.990      723
    9.020      741
    9.050      740
    9.080      794
    9.110      777
    9.140      817
    9.170      954
    9.200     1150
    9.230     1283
    9.260     1393
    9.290     1096
    9.320      847
    9.350      780
    9.380      746
    9.410      732
    9.440      790
    9.470      728
    9.500      796
    9.530      823
    9.560      802
    9.590      786
    9.620      739
    9.650      702
    9.680      754
    9.710      667
    9.740      750
    9.770      688
    9.800      704
    9.830      752
    9.860      684
    9.890      740
    9.920      747
    9.950      698
    9.980      682
   10.010      732
   10.040      698
   10.070      749
   10.100      807
   10.130      702
   10.160      718
   10.190      684
   10.220      694
   10.250      728
   10.280      760
   10.310      718
   10.340      708
   10.370      743
   10.400      729
   10.430      795
   10.460      735
   10.490      737
   10.520      725
   10.550      720
   10.580      745
   10.610      749
   10.640      778
   10.670      700
   10.700      684
   10.730      741
   10.760      751
   10.790      763
   10.820      728
   10.850      715
   10.880      763
   10.910      803
   10.940      760
   10.970      754
   11.000      703
   11.030      723
   11.060      765
   11.090      742
   11.120      735
   11.150      774
   11.180      739
   11.210      773
   11.240      766
   11.270      779
   11.300      817
   11.330      753
   11.360      758
   11.390      800
   11.420      738
   11.450      757
   11.480      712
   11.510      779
   11.540      800
   11.570      736
   11.600      700
   11.630      734
   11.660      782
   11.690      787
   11.720      793
   11.750      810
   11.780      756
   11.810      799
   11.840      714
   11.870      780
   11.900      790
   11.930      752
   11.960      710
   11.990      805
   12.020      817
   12.050      757
   12.080      791
   12.110      792
   12.140      763
   12.170      786
   12.200      777
   12.230      793
   12.260      767
   12.290      793
   12.320      827
   12.350      795
   12.380      873
   12.410      937
   12.440      974
   12.470      977
   12.500      796
   12.530      796
   12.560      805
   12.590      802
   12.620      843
   12.650      785
   12.680      794
   12.710      830
   12.740      824
   12.770      857
   12.800      823
   12.830      872
   12.860      872
   12.890      881
   12.920      849
   12.950      882
   12.980      895
   13.010      847
   13.040      908
   13.070      840
   13.100      902
   13.130      961
   13.160      905
   13.190      912
   13.220      880
   13.250      853
   13.280      907
   13.310      820
   13.340      886
   13.370      897
   13.400      847
   13.430      842
   13.460      912
   13.490      888
   13.520      902
   13.550      875
   13.580      898
   13.610      970
   13.640      878
   13.670      926
   13.700      953
   13.730      954
   13.760     1084
   13.790      953
   13.820     1009
   13.850     1007
   13.880      887
   13.910      932
   13.940      932
   13.970      919
   14.000      956
   14.030     1043
   14.060      993
   14.090      990
   14.120      931
   14.150     1012
   14.180      965
   14.210     1000
   14.240      989
   14.270      962
   14.300      967
   14.330      951
   14.360     1020
   14.390      983
   14.420     1045
   14.450     1013
   14.480     1012
   14.510      981
   14.540     1015
   14.570     1050
   14.600      973
   14.630     1035
   14.660     1035
   14.690     1051
   14.720     1054
   14.750      992
   14.780      961
   14.810     1058
   14.840     1044
   14.870     1081
   14.900     1032
   14.930     1038
   14.960     1094
   14.990     1016
   15.020     1063
   15.050     1095
   15.080     1116
   15.110     1104
   15.140     1084
   15.170     1094
   15.200     1086
   15.230     1061
   15.260     1124
   15.290     1090
   15.320     1130
   15.350     1187
   15.380     1138
   15.410     1077
   15.440     1252
   15.470     1102
   15.500     1197
   15.530     1151
   15.560     1092
   15.590     1139
   15.620     1167
   15.650     1220
   15.680     1244
   15.710     1190
   15.740     1204
   15.770     1152
   15.800     1243
   15.830     1269
   15.860     1205
   15.890     1307
   15.920     1288
   15.950     1232
   15.980     1275
   16.010     1349
   16.040     1264
   16.070     1327
   16.100     1356
   16.130     1282
   16.160     1234
   16.190     1306
   16.220     1370
   16.250     1275
   16.280     1368
   16.310     1259
   16.340     1328
   16.370     1293
   16.400     1321
   16.430     1455
   16.460     1482
   16.490     1417
   16.520     1449
   16.550     1398
   16.580     1372
   16.610     1357
   16.640     1433
   16.670     1340
   16.700     1417
   16.730     1408
   16.760     1446
   16.790     1431
   16.820     1483
   16.850     1419
   16.880     1477
   16.910     1459
   16.940     1520
   16.970     1488
   17.000     1493
   17.030     1513
   17.060     1480
   17.090     1472
   17.120     1490
   17.150     1581
   17.180     1431
   17.210     1602
   17.240     1507
   17.270     1544
   17.300     1552
   17.330     1550
   17.360     1536
   17.390     1655
   17.420     1568
   17.450     1585
   17.480     1501
   17.510     1628
   17.540     1700
   17.570     1692
   17.600     1674
   17.630     1530
   17.660     1650
   17.690     1565
   17.720     1708
   17.750     1684
   17.780     1622
   17.810     1719
   17.840     1735
   17.870     1707
   17.900     1681
   17.930     1753
   17.960     1666
   17.990     1777
   18.020     1833
   18.050     1648
   18.080     1637
   18.110     1692
   18.140     1639
   18.170     1739
   18.200     1770
   18.230     1758
   18.260     1683
   18.290     1806
   18.320     1774
   18.350     1733
   18.380     1815
   18.410     1835
   18.440     1798
   18.470     1851
   18.500     1769
   18.530     1863
   18.560     1841
   18.590     1987
   18.620     2149
   18.650     2131
   18.680     2112
   18.710     1936
   18.740     1946
   18.770     1836
   18.800     1967
   18.830     1949
   18.860     1890
   18.890     1975
   18.920     2008
   18.950     1958
   18.980     2012
   19.010     1909
   19.040     1896
   19.070     1973
   19.100     2064
   19.130     2071
   19.160     1925
   19.190     1910
   19.220     1978
   19.250     1938
   19.280     2021
   19.310     1832
   19.340     1876
   19.370     1883
   19.400     1885
   19.430     1917
   19.460     1948
   19.490     1826
   19.520     1894
   19.550     1865
   19.580     1944
   19.610     1928
   19.640     1828
   19.670     1894
   19.700     1853
   19.730     1897
   19.760     2070
   19.790     1774
   19.820     2030
   19.850     1949
   19.880     1818
   19.910     1876
   19.940     1925
   19.970     1936
   20.000     1839
   20.030     1931
   20.060     1890
   20.090     1924
   20.120     1887
   20.150     1985
   20.180     1831
   20.210     1900
   20.240     1929
   20.270     1842
   20.300     1870
   20.330     1833
   20.360     1947
   20.390     1902
   20.420     1911
   20.450     1849
   20.480     1834
   20.510     1747
   20.540     1851
   20.570     1923
   20.600     1784
   20.630     1790
   20.660     1782
   20.690     1770
   20.720     1871
   20.750     1685
   20.780     1782
   20.810     1801
   20.840     1763
   20.870     1844
   20.900     1778
   20.930     1690
   20.960     1799
   20.990     1643
   21.020     1791
   21.050     1824
   21.080     1813
   21.110     1791
   21.140     1786
   21.170     1773
   21.200     1798
   21.230     1664
   21.260     1905
   21.290     1718
   21.320     1773
   21.350     1785
   21.380     1690
   21.410     1634
   21.440     1771
   21.470     1576
   21.500     1739
   21.530     1641
   21.560     1649
   21.590     1708
   21.620     1717
   21.650     1630
   21.680     2001
   21.710     1793
   21.740     1880
   21.770     1682
   21.800     1740
   21.830     1730
   21.860     1567
   21.890     1727
   21.920     1680
   21.950     1623
   21.980     1509
   22.010     1645
   22.040     1664
   22.070     1640
   22.100     1692
   22.130     1599
   22.160     1606
   22.190     1549
   22.220     1636
   22.250     1587
   22.280     1642
   22.310     1551
   22.340     1552
   22.370     1658
   22.400     1518
   22.430     1652
   22.460     1609
   22.490     1553
   22.520     1636
   22.550     1546
   22.580     1477
   22.610     1512
   22.640     1571
   22.670     1498
   22.700     1518
   22.730     1500
   22.760     1483
   22.790     1538
   22.820     1546
   22.850     1459
   22.880     1531
   22.910     1539
   22.940     1539
   22.970     1446
   23.000     1528
   23.030     1491
   23.060     1519
   23.090     1436
   23.120     1392
   23.150     1490
   23.180     1433
   23.210     1531
   23.240     1409
   23.270     1481
   23.300     1495
   23.330     1464
   23.360     1498
   23.390     1472
   23.420     1504
   23.450     1412
   23.480     1370
   23.510     1456
   23.540     1452
   23.570     1418
   23.600     1361
   23.630     1346
   23.660     1362
   23.690     1369
   23.720     1480
   23.750     1465
   23.780     1358
   23.810     1431
   23.840     1455
   23.870     1358
   23.900     1387
   23.930     1387
   23.960     1276
   23.990     1400
   24.020     1410
   24.050     1304
   24.080     1311
   24.110     1329
   24.140     1260
   24.170     1309
   24.200     1348
   24.230     1383
   24.260     1217
   24.290     1305
   24.320     1284
   24.350     1240
   24.380     1363
   24.410     1381
   24.440     1286
   24.470     1325
   24.500     1304
   24.530     1317
   24.560     1345
   24.590     1310
   24.620     1260
   24.650     1288
   24.680     1312
   24.710     1308
   24.740     1316
   24.770     1318
   24.800     1352
   24.830     1353
   24.860     1332
   24.890     1339
   24.920     1307
   24.950     1326
   24.980     1342
   25.010     1276
   25.040     1350
   25.070     1347
   25.100     1335
   25.130     1408
   25.160     1203
   25.190     1337
   25.220     1302
   25.250     1249
   25.280     1290
   25.310     1233
   25.340     1247
   25.370     1261
   25.400     1236
   25.430     1263
   25.460     1257
   25.490     1246
   25.520     1198
   25.550     1261
   25.580     1206
   25.610     1297
   25.640     1195
   25.670     1214
   25.700     1320
   25.730     1262
   25.760     1342
   25.790     1215
   25.820     1288
   25.850     1279
   25.880     1255
   25.910     1207
   25.940     1252
   25.970     1284
   26.000     1249
   26.030     1267
   26.060     1213
   26.090     1261
   26.120     1231
   26.150     1232
   26.180     1211
   26.210     1219
   26.240     1168
   26.270     1163
   26.300     1233
   26.330     1178
   26.360     1195
   26.390     1206
   26.420     1181
   26.450     1163
   26.480     1113
   26.510     1192
   26.540     1175
   26.570     1240
   26.600     1130
   26.630     1161
   26.660     1203
   26.690     1158
   26.720     1129
   26.750     1120
   26.780     1144
   26.810     1130
   26.840     1218
   26.870     1139
   26.900     1155
   26.930     1118
   26.960     1162
   26.990     1150
   27.020     1151
   27.050     1179
   27.080     1166
   27.110     1162
   27.140     1124
   27.170     1147
   27.200     1174
   27.230     1071
   27.260     1218
   27.290     1181
   27.320     1125
   27.350     1165
   27.380     1084
   27.410     1098
   27.440     1137
   27.470     1106
   27.500     1192
   27.530     1096
   27.560     1028
   27.590     1083
   27.620     1081
   27.650     1101
   27.680     1127
   27.710     1092
   27.740     1132
   27.770     1050
   27.800     1152
   27.830     1211
   27.860     1081
   27.890     1159
   27.920     1141
   27.950     1079
   27.980     1078
   28.010     1088
   28.040     1094
   28.070     1097
   28.100     1131
   28.130     1081
   28.160     1121
   28.190     1091
   28.220     1166
   28.250     1093
   28.280     1110
   28.310     1082
   28.340     1085
   28.370     1056
   28.400     1082
   28.430     1067
   28.460     1025
   28.490     1067
   28.520     1027
   28.550     1086
   28.580     1055
   28.610     1027
   28.640     1068
   28.670      976
   28.700     1007
   28.730     1032
   28.760     1054
   28.790     1027
   28.820     1065
   28.850      989
   28.880     1027
   28.910     1025
   28.940     1087
   28.970     1013
   29.000     1021
   29.030     1065
   29.060      997
   29.090     1007
   29.120     1000
   29.150     1029
   29.180      943
   29.210     1037
   29.240      983
   29.270      975
   29.300     1005
   29.330      972
   29.360     1039
   29.390     1013
   29.420     1038
   29.450     1043
   29.480     1013
   29.510     1019
   29.540     1015
   29.570     1026
   29.600     1002
   29.630      937
   29.660      961
   29.690      960
   29.720      955
   29.750      998
   29.780      965
   29.810      978
   29.840      992
   29.870      983
   29.900      984
   29.930      997
   29.960      936
   29.990     1016
   30.020      955
   30.050      892
   30.080      903
   30.110      899
   30.140      896
   30.170      922
   30.200      914
   30.230      977
   30.260      889
   30.290      931
   30.320      917
   30.350      936
   30.380      980
   30.410      886
   30.440      896
   30.470      942
   30.500      923
   30.530      919
   30.560      916
   30.590      873
   30.620      947
   30.650      949
   30.680      936
   30.710      890
   30.740      924
   30.770      928
   30.800      970
   30.830      933
   30.860      914
   30.890      905
   30.920      914
   30.950      903
   30.980      970
   31.010      876
   31.040      907
   31.070      907
   31.100      949
   31.130      945
   31.160      834
   31.190      853
   31.220      862
   31.250      859
   31.280      910
   31.310      854
   31.340      822
   31.370      870
   31.400      812
   31.430      847
   31.460      866
   31.490      798
   31.520      884
   31.550      830
   31.580      842
   31.610      856
   31.640      816
   31.670      868
   31.700      848
   31.730      780
   31.760      877
   31.790      807
   31.820      863
   31.850      892
   31.880      795
   31.910      854
   31.940      826
   31.970      815
   32.000      822
   32.030      857
   32.060      815
   32.090      826
   32.120      829
   32.150      847
   32.180      782
   32.210      805
   32.240      838
   32.270      818
   32.300      844
   32.330      846
   32.360      882
   32.390      863
   32.420      854
   32.450      826
   32.480      796
   32.510      803
   32.540      794
   32.570      824
   32.600      808
   32.630      779
   32.660      725
   32.690      782
   32.720      792
   32.750      759
   32.780      725
   32.810      769
   32.840      780
   32.870      775
   32.900      793
   32.930      718
   32.960      776
   32.990      710
   33.020      752
   33.050      764
   33.080      821
   33.110      767
   33.140      760
   33.170      780
   33.200      779
   33.230      728
   33.260      791
   33.290      811
   33.320      827
   33.350      778
   33.380      753
   33.410      763
   33.440      814
   33.470      713
   33.500      741
   33.530      753
   33.560      689
   33.590      729
   33.620      738
   33.650      699
   33.680      768
   33.710      680
   33.740      782
   33.770      698
   33.800      676
   33.830      775
   33.860      699
   33.890      734
   33.920      696
   33.950      734
   33.980      674
   34.010      717
   34.040      692
   34.070      707
   34.100      790
   34.130      715
   34.160      713
   34.190      663
   34.220      713
   34.250      650
   34.280      676
   34.310      678
   34.340      687
   34.370      682
   34.400      678
   34.430      719
   34.460      759
   34.490      666
   34.520      687
   34.550      688
   34.580      698
   34.610      636
   34.640      672
   34.670      641
   34.700      659
   34.730      677
   34.760      687
   34.790      679
   34.820      709
   34.850      625
   34.880      629
   34.910      654
   34.940      648
   34.970      636
   35.000      649
   35.030      658
   35.060      668
   35.090      657
   35.120      629
   35.150      694
   35.180      603
   35.210      658
   35.240      630
   35.270      604
   35.300      614
   35.330      648
   35.360      634
   35.390      702
   35.420      634
   35.450      655
   35.480      667
   35.510      634
   35.540      657
   35.570      607
   35.600      617
   35.630      618
   35.660      595
   35.690      591
   35.720      681
   35.750      636
   35.780      590
   35.810      639
   35.840      619
   35.870      626
   35.900      594
   35.930      646
   35.960      553
   35.990      610
   36.020      643
   36.050      598
   36.080      600
   36.110      611
   36.140      610
   36.170      625
   36.200      606
   36.230      595
   36.260      591
   36.290      574
   36.320      598
   36.350      622
   36.380      602
   36.410      619
   36.440      579
   36.470      624
   36.500      564
   36.530      608
   36.560      580
   36.590      606
   36.620      599
   36.650      614
   36.680      600
   36.710      585
   36.740      606
   36.770      586
   36.800      647
   36.830      585
   36.860      569
   36.890      575
   36.920      590
   36.950      553
   36.980      577
   37.010      588
   37.040      599
   37.070      586
   37.100      617
   37.130      580
   37.160      579
   37.190      617
   37.220      600
   37.250      539
   37.280      606
   37.310      533
   37.340      588
   37.370      589
   37.400      577
   37.430      584
   37.460      543
   37.490      584
   37.520      577
   37.550      569
   37.580      562
   37.610      563
   37.640      552
   37.670      582
   37.700      579
   37.730      551
   37.760      600
   37.790      548
   37.820      597
   37.850      577
   37.880      551
   37.910      567
   37.940      522
   37.970      562
   38.000      564
   38.030      600
   38.060      534
   38.090      577
   38.120      568
   38.150      578
   38.180      556
   38.210      565
   38.240      602
   38.270      537
   38.300      577
   38.330      567
   38.360      572
   38.390      560
   38.420      587
   38.450      566
   38.480      550
   38.510      554
   38.540      543
   38.570      540
   38.600      524
   38.630      550
   38.660      537
   38.690      544
   38.720      555
   38.750      550
   38.780      526
   38.810      571
   38.840      537
   38.870      562
   38.900      542
   38.930      571
   38.960      597
   38.990      521
   39.020      575
   39.050      546
   39.080      564
   39.110      571
   39.140      534
   39.170      571
   39.200      579
   39.230      543
   39.260      565
   39.290      523
   39.320      573
   39.350      544
   39.380      520
   39.410      530
   39.440      551
   39.470      528
   39.500      575
   39.530      476
   39.560      504
   39.590      521
   39.620      585
   39.650      547
   39.680      537
   39.710      566
   39.740      537
   39.770      513
   39.800      543
   39.830      545
   39.860      512
   39.890      535
   39.920      527
   39.950      553
   39.980      545
   40.010      553
   40.040      515
   40.070      520
   40.100      570
   40.130      511
   40.160      557
   40.190      502
   40.220      533
   40.250      522
   40.280      551
   40.310      542
   40.340      540
   40.370      532
   40.400      516
   40.430      531
   40.460      551
   40.490      515
   40.520      564
   40.550      507
   40.580      546
   40.610      559
   40.640      529
   40.670      495
   40.700      524
   40.730      543
   40.760      545
   40.790      527
   40.820      541
   40.850      525
   40.880      506
   40.910      548
   40.940      548
   40.970      540
   41.000      567
   41.030      554
   41.060      545
   41.090      531
   41.120      507
   41.150      490
   41.180      480
   41.210      518
   41.240      507
   41.270      513
   41.300      529
   41.330      515
   41.360      536
   41.390      541
   41.420      499
   41.450      568
   41.480      478
   41.510      525
   41.540      506
   41.570      539
   41.600      539
   41.630      493
   41.660      541
   41.690      541
   41.720      539
   41.750      511
   41.780      514
   41.810      527
   41.840      515
   41.870      523
   41.900      517
   41.930      549
   41.960      514
   41.990      529
   42.020      531
   42.050      473
   42.080      507
   42.110      483
   42.140      488
   42.170      509
   42.200      546
   42.230      493
   42.260      520
   42.290      493
   42.320      493
   42.350      507
   42.380      513
   42.410      523
   42.440      462
   42.470      523
   42.500      482
   42.530      526
   42.560      505
   42.590      517
   42.620      490
   42.650      488
   42.680      486
   42.710      503
   42.740      502
   42.770      528
   42.800      508
   42.830      493
   42.860      483
   42.890      531
   42.920      497
   42.950      484
   42.980      513
   43.010      506
   43.040      480
   43.070      487
   43.100      553
   43.130      517
   43.160      470
   43.190      523
   43.220      481
   43.250      499
   43.280      503
   43.310      507
   43.340      518
   43.370      523
   43.400      472
   43.430      494
   43.460      492
   43.490      469
   43.520      528
   43.550      509
   43.580      506
   43.610      500
   43.640      496
   43.670      478
   43.700      534
   43.730      484
   43.760      500
   43.790      473
   43.820      496
   43.850      480
   43.880      437
   43.910      500
   43.940      459
   43.970      503
   43.985      467