File: data/MIL-88B_101/PXRD/PXRD_S-5_Cu-Kα1_capillary-0.7mm.xyd
    2.000     7150
    2.030     7119
    2.060     6609
    2.090     6310
    2.120     5774
    2.150     5857
    2.180     5275
    2.210     5228
    2.240     5103
    2.270     4871
    2.300     4675
    2.330     4637
    2.360     4520
    2.390     4453
    2.420     4320
    2.450     4137
    2.480     4102
    2.510     4060
    2.540     3822
    2.570     3939
    2.600     3636
    2.630     3765
    2.660     3738
    2.690     3668
    2.720     3674
    2.750     3599
    2.780     3645
    2.810     3475
    2.840     3383
    2.870     3607
    2.900     3581
    2.930     3345
    2.960     3476
    2.990     3290
    3.020     3432
    3.050     3462
    3.080     3325
    3.110     3270
    3.140     3147
    3.170     3312
    3.200     3286
    3.230     3235
    3.260     3331
    3.290     3260
    3.320     3141
    3.350     3050
    3.380     3148
    3.410     3014
    3.440     3196
    3.470     2967
    3.500     3271
    3.530     3008
    3.560     3138
    3.590     3001
    3.620     3000
    3.650     3010
    3.680     3069
    3.710     2965
    3.740     3073
    3.770     2948
    3.800     2994
    3.830     3141
    3.860     3033
    3.890     3004
    3.920     3016
    3.950     3055
    3.980     2968
    4.010     3106
    4.040     2943
    4.070     2998
    4.100     3111
    4.130     2978
    4.160     3009
    4.190     2869
    4.220     2843
    4.250     2958
    4.280     2881
    4.310     2821
    4.340     2916
    4.370     2898
    4.400     2908
    4.430     2864
    4.460     2955
    4.490     3010
    4.520     2918
    4.550     2953
    4.580     2979
    4.610     3090
    4.640     2849
    4.670     2922
    4.700     2928
    4.730     3027
    4.760     2900
    4.790     2980
    4.820     2831
    4.850     2821
    4.880     2915
    4.910     2956
    4.940     3092
    4.970     2993
    5.000     2874
    5.030     2850
    5.060     2967
    5.090     2981
    5.120     2787
    5.150     2887
    5.180     2726
    5.210     2873
    5.240     2851
    5.270     2879
    5.300     2897
    5.330     2765
    5.360     3006
    5.390     2838
    5.420     2908
    5.450     2921
    5.480     2875
    5.510     2876
    5.540     2901
    5.570     2838
    5.600     2900
    5.630     2742
    5.660     2895
    5.690     2879
    5.720     2850
    5.750     2875
    5.780     2754
    5.810     2808
    5.840     2736
    5.870     2882
    5.900     2786
    5.930     2782
    5.960     2745
    5.990     2870
    6.020     2842
    6.050     2834
    6.080     2832
    6.110     2758
    6.140     2718
    6.170     2850
    6.200     2870
    6.230     2797
    6.260     2819
    6.290     2662
    6.320     2792
    6.350     2769
    6.380     2865
    6.410     2926
    6.440     2878
    6.470     2923
    6.500     2820
    6.530     2682
    6.560     2891
    6.590     2854
    6.620     2831
    6.650     2757
    6.680     2683
    6.710     2784
    6.740     2813
    6.770     2827
    6.800     2872
    6.830     2799
    6.860     2889
    6.890     2865
    6.920     2822
    6.950     2773
    6.980     2816
    7.010     2741
    7.040     2844
    7.070     2759
    7.100     2837
    7.130     2792
    7.160     2729
    7.190     2799
    7.220     2861
    7.250     2755
    7.280     2813
    7.310     2635
    7.340     2689
    7.370     2870
    7.400     2884
    7.430     2749
    7.460     2734
    7.490     2793
    7.520     2779
    7.550     2851
    7.580     2755
    7.610     2805
    7.640     2698
    7.670     2742
    7.700     2781
    7.730     2754
    7.760     2794
    7.790     2631
    7.820     2821
    7.850     2772
    7.880     2695
    7.910     2783
    7.940     2783
    7.970     2959
    8.000     2792
    8.030     2892
    8.060     2869
    8.090     2733
    8.120     2704
    8.150     2765
    8.180     2601
    8.210     2762
    8.240     2863
    8.270     2734
    8.300     2771
    8.330     2833
    8.360     2835
    8.390     2851
    8.420     2844
    8.450     2788
    8.480     2868
    8.510     2827
    8.540     2972
    8.570     2922
    8.600     2835
    8.630     2940
    8.660     2988
    8.690     3106
    8.720     3264
    8.750     3292
    8.780     3344
    8.810     3574
    8.840     3669
    8.870     4094
    8.900     4316
    8.930     4433
    8.960     4992
    8.990     5042
    9.020     5781
    9.050     6702
    9.080     7545
    9.110     8612
    9.140     9690
    9.170    12074
    9.200    14793
    9.230    17352
    9.260    25048
    9.290    33671
    9.320    38540
    9.350    29018
    9.380    14294
    9.410     7082
    9.440     6262
    9.470     6373
    9.500     7724
    9.530     8018
    9.560     6609
    9.590     4474
    9.620     3323
    9.650     3097
    9.680     3016
    9.710     2917
    9.740     3017
    9.770     2811
    9.800     2876
    9.830     2898
    9.860     2941
    9.890     2831
    9.920     2853
    9.950     2774
    9.980     2805
   10.010     2914
   10.040     2742
   10.070     2812
   10.100     2839
   10.130     2748
   10.160     2916
   10.190     2697
   10.220     2712
   10.250     2744
   10.280     2757
   10.310     2656
   10.340     2785
   10.370     2798
   10.400     2710
   10.430     2822
   10.460     2787
   10.490     2750
   10.520     2774
   10.550     2729
   10.580     2792
   10.610     2838
   10.640     2663
   10.670     2763
   10.700     2829
   10.730     2918
   10.760     2735
   10.790     2825
   10.820     2685
   10.850     2717
   10.880     2745
   10.910     2778
   10.940     2918
   10.970     2824
   11.000     2805
   11.030     2676
   11.060     2754
   11.090     2799
   11.120     2709
   11.150     2658
   11.180     2731
   11.210     2702
   11.240     2613
   11.270     2701
   11.300     2858
   11.330     2723
   11.360     2757
   11.390     2731
   11.420     2698
   11.450     2657
   11.480     2731
   11.510     2716
   11.540     2804
   11.570     2763
   11.600     2802
   11.630     2611
   11.660     2784
   11.690     2694
   11.720     2675
   11.750     2807
   11.780     2665
   11.810     2697
   11.840     2619
   11.870     2820
   11.900     2631
   11.930     2706
   11.960     2627
   11.990     2688
   12.020     2749
   12.050     2769
   12.080     2758
   12.110     2720
   12.140     2709
   12.170     3025
   12.200     3167
   12.230     3153
   12.260     3320
   12.290     3484
   12.320     3876
   12.350     4138
   12.380     4985
   12.410     5867
   12.440     7244
   12.470     9373
   12.500     8593
   12.530     5980
   12.560     3740
   12.590     3048
   12.620     2926
   12.650     2714
   12.680     2695
   12.710     2631
   12.740     2739
   12.770     2699
   12.800     2764
   12.830     2641
   12.860     2758
   12.890     2743
   12.920     2751
   12.950     2532
   12.980     2649
   13.010     2734
   13.040     2742
   13.070     2737
   13.100     2666
   13.130     2707
   13.160     2586
   13.190     2596
   13.220     2670
   13.250     2559
   13.280     2809
   13.310     2649
   13.340     2672
   13.370     2700
   13.400     2728
   13.430     2705
   13.460     2527
   13.490     2648
   13.520     2552
   13.550     2732
   13.580     2664
   13.610     2616
   13.640     2591
   13.670     2623
   13.700     2743
   13.730     2692
   13.760     2806
   13.790     2633
   13.820     2793
   13.850     2835
   13.880     2874
   13.910     3160
   13.940     3116
   13.970     3040
   14.000     2650
   14.030     2722
   14.060     2690
   14.090     2578
   14.120     2561
   14.150     2674
   14.180     2478
   14.210     2545
   14.240     2655
   14.270     2562
   14.300     2552
   14.330     2650
   14.360     2713
   14.390     2660
   14.420     2685
   14.450     2635
   14.480     2658
   14.510     2661
   14.540     2691
   14.570     2670
   14.600     2681
   14.630     2701
   14.660     2676
   14.690     2656
   14.720     2747
   14.750     2687
   14.780     2796
   14.810     2762
   14.840     2644
   14.870     2750
   14.900     2858
   14.930     2681
   14.960     2732
   14.990     2637
   15.020     2782
   15.050     2800
   15.080     2707
   15.110     2629
   15.140     2725
   15.170     2753
   15.200     2674
   15.230     2752
   15.260     2785
   15.290     2693
   15.320     2717
   15.350     2599
   15.380     2735
   15.410     2600
   15.440     2678
   15.470     2599
   15.500     2782
   15.530     2699
   15.560     2682
   15.590     2697
   15.620     2624
   15.650     2665
   15.680     2661
   15.710     2693
   15.740     2767
   15.770     2594
   15.800     2755
   15.830     2761
   15.860     2934
   15.890     2966
   15.920     2949
   15.950     3098
   15.980     3312
   16.010     3799
   16.040     4105
   16.070     5048
   16.100     6119
   16.130     5297
   16.160     4393
   16.190     3297
   16.220     3007
   16.250     2934
   16.280     3043
   16.310     2891
   16.340     3183
   16.370     3279
   16.400     3604
   16.430     4243
   16.460     5033
   16.490     5204
   16.520     4558
   16.550     3409
   16.580     2975
   16.610     2843
   16.640     2797
   16.670     2875
   16.700     2857
   16.730     2969
   16.760     2902
   16.790     3109
   16.820     3107
   16.850     3185
   16.880     3665
   16.910     4155
   16.940     4456
   16.970     3985
   17.000     3266
   17.030     2777
   17.060     2792
   17.090     2793
   17.120     2746
   17.150     2679
   17.180     2792
   17.210     2764
   17.240     2696
   17.270     2687
   17.300     2778
   17.330     2667
   17.360     2793
   17.390     2782
   17.420     2826
   17.450     2757
   17.480     2644
   17.510     2631
   17.540     2771
   17.570     2661
   17.600     2739
   17.630     2648
   17.660     2817
   17.690     2768
   17.720     2649
   17.750     2697
   17.780     2813
   17.810     2729
   17.840     2708
   17.870     2774
   17.900     2689
   17.930     2652
   17.960     2591
   17.990     2769
   18.020     2660
   18.050     2581
   18.080     2733
   18.110     2658
   18.140     2649
   18.170     2718
   18.200     2842
   18.230     2643
   18.260     2682
   18.290     2722
   18.320     2791
   18.350     2708
   18.380     2813
   18.410     2928
   18.440     2917
   18.470     3039
   18.500     3027
   18.530     3052
   18.560     3477
   18.590     3911
   18.620     4462
   18.650     5142
   18.680     6438
   18.710     8743
   18.740    12849
   18.770    16797
   18.800    16310
   18.830    10707
   18.860     5586
   18.890     3754
   18.920     3265
   18.950     3092
   18.980     3111
   19.010     3118
   19.040     3177
   19.070     3436
   19.100     3605
   19.130     4058
   19.160     4709
   19.190     6012
   19.220     6062
   19.250     4900
   19.280     3758
   19.310     2959
   19.340     2812
   19.370     2885
   19.400     2819
   19.430     2734
   19.460     2660
   19.490     2698
   19.520     2704
   19.550     2788
   19.580     2675
   19.610     2787
   19.640     2692
   19.670     2658
   19.700     2680
   19.730     2622
   19.760     2706
   19.790     2562
   19.820     2692
   19.850     2739
   19.880     2610
   19.910     2657
   19.940     2644
   19.970     2768
   20.000     2654
   20.030     2721
   20.060     2747
   20.090     2674
   20.120     2615
   20.150     2787
   20.180     2552
   20.210     2653
   20.240     2750
   20.270     2742
   20.300     2658
   20.330     2757
   20.360     2851
   20.390     2682
   20.420     2808
   20.450     2752
   20.480     2749
   20.510     2763
   20.540     2756
   20.570     2804
   20.600     2676
   20.630     2796
   20.660     2794
   20.690     2790
   20.720     2958
   20.750     2961
   20.780     3083
   20.810     3267
   20.840     3374
   20.870     3777
   20.900     3495
   20.930     2999
   20.960     2980
   20.990     2875
   21.020     2839
   21.050     2924
   21.080     2898
   21.110     2880
   21.140     2809
   21.170     2903
   21.200     2851
   21.230     3015
   21.260     3215
   21.290     3320
   21.320     3457
   21.350     3995
   21.380     4461
   21.410     4270
   21.440     3967
   21.470     3123
   21.500     3063
   21.530     2826
   21.560     2893
   21.590     2735
   21.620     2926
   21.650     3019
   21.680     3138
   21.710     3078
   21.740     3351
   21.770     3403
   21.800     3717
   21.830     4383
   21.860     5202
   21.890     7008
   21.920     8908
   21.950     8850
   21.980     6694
   22.010     4605
   22.040     3382
   22.070     2979
   22.100     3071
   22.130     2839
   22.160     2947
   22.190     2765
   22.220     2781
   22.250     2856
   22.280     2846
   22.310     2770
   22.340     2735
   22.370     2874
   22.400     2695
   22.430     2833
   22.460     2823
   22.490     2841
   22.520     2809
   22.550     2784
   22.580     2858
   22.610     2870
   22.640     2751
   22.670     2887
   22.700     2765
   22.730     2951
   22.760     2852
   22.790     2853
   22.820     2799
   22.850     2789
   22.880     2802
   22.910     2825
   22.940     2939
   22.970     2938
   23.000     2953
   23.030     2711
   23.060     2852
   23.090     2793
   23.120     2779
   23.150     2792
   23.180     2784
   23.210     2864
   23.240     2782
   23.270     2833
   23.300     2895
   23.330     2832
   23.360     3016
   23.390     2984
   23.420     3061
   23.450     3362
   23.480     3454
   23.510     3415
   23.540     3318
   23.570     3018
   23.600     2870
   23.630     2773
   23.660     2929
   23.690     2825
   23.720     2970
   23.750     3093
   23.780     3128
   23.810     3590
   23.840     3691
   23.870     3681
   23.900     3095
   23.930     2934
   23.960     2772
   23.990     2785
   24.020     2770
   24.050     2709
   24.080     2754
   24.110     2745
   24.140     2694
   24.170     2799
   24.200     2938
   24.230     2722
   24.260     2889
   24.290     2894
   24.320     2954
   24.350     2865
   24.380     2875
   24.410     2902
   24.440     2832
   24.470     2865
   24.500     2763
   24.530     2705
   24.560     2842
   24.590     2901
   24.620     2847
   24.650     2824
   24.680     2776
   24.710     2919
   24.740     3067
   24.770     3215
   24.800     3324
   24.830     3086
   24.860     2936
   24.890     2887
   24.920     2729
   24.950     2616
   24.980     2700
   25.010     2813
   25.040     2916
   25.070     2974
   25.100     2976
   25.130     3048
   25.160     3143
   25.190     3457
   25.220     3516
   25.250     3017
   25.280     3065
   25.310     2700
   25.340     2876
   25.370     2936
   25.400     2898
   25.430     2910
   25.460     2999
   25.490     2983
   25.520     2827
   25.550     2798
   25.580     2719
   25.610     2734
   25.640     2760
   25.670     2698
   25.700     2779
   25.730     2769
   25.760     2940
   25.790     2942
   25.820     3445
   25.850     3951
   25.880     4432
   25.910     4390
   25.940     3801
   25.970     3300
   26.000     2900
   26.030     2988
   26.060     2996
   26.090     2996
   26.120     3449
   26.150     4177
   26.180     4562
   26.210     4614
   26.240     4041
   26.270     3348
   26.300     2906
   26.330     2909
   26.360     2841
   26.390     2870
   26.420     2855
   26.450     2728
   26.480     2766
   26.510     2823
   26.540     2727
   26.570     2794
   26.600     2775
   26.630     2708
   26.660     2756
   26.690     2721
   26.720     2850
   26.750     2817
   26.780     2943
   26.810     2775
   26.840     2762
   26.870     2853
   26.900     2935
   26.930     2707
   26.960     2776
   26.990     2760
   27.020     2785
   27.050     2837
   27.080     2811
   27.110     2935
   27.140     2725
   27.170     2862
   27.200     2881
   27.230     2815
   27.260     2769
   27.290     2821
   27.320     2712
   27.350     2698
   27.380     2790
   27.410     2568
   27.440     2695
   27.470     2641
   27.500     2873
   27.530     2667
   27.560     2812
   27.590     2648
   27.620     2823
   27.650     2677
   27.680     2701
   27.710     2758
   27.740     2778
   27.770     2637
   27.800     2773
   27.830     2801
   27.860     2801
   27.890     2906
   27.920     2776
   27.950     2807
   27.980     2874
   28.010     2970
   28.040     2871
   28.070     2981
   28.100     3364
   28.130     3527
   28.160     3760
   28.190     3364
   28.220     3213
   28.250     3143
   28.280     3274
   28.310     3526
   28.340     4308
   28.370     4973
   28.400     4688
   28.430     4035
   28.460     3262
   28.490     2876
   28.520     2894
   28.550     2831
   28.580     2747
   28.610     2856
   28.640     2739
   28.670     2791
   28.700     2754
   28.730     2885
   28.760     2747
   28.790     2863
   28.820     2804
   28.850     2815
   28.880     2948
   28.910     3040
   28.940     3271
   28.970     3136
   29.000     2907
   29.030     2811
   29.060     2831
   29.090     2764
   29.120     2678
   29.150     2754
   29.180     2707
   29.210     2782
   29.240     2781
   29.270     2851
   29.300     2937
   29.330     2909
   29.360     2975
   29.390     3014
   29.420     2841
   29.450     2825
   29.480     2750
   29.510     2745
   29.540     2795
   29.570     2739
   29.600     2806
   29.630     2845
   29.660     2967
   29.690     3087
   29.720     3467
   29.750     3527
   29.780     3431
   29.810     3348
   29.840     3133
   29.870     3073
   29.900     2838
   29.930     2758
   29.960     2587
   29.990     2745
   30.020     2714
   30.050     2648
   30.080     2659
   30.110     2650
   30.140     2818
   30.170     2936
   30.200     3037
   30.230     2729
   30.260     2671
   30.290     2643
   30.320     2725
   30.350     2647
   30.380     2736
   30.410     2773
   30.440     2812
   30.470     2818
   30.500     2738
   30.530     2636
   30.560     2782
   30.590     2834
   30.620     2865
   30.650     2733
   30.680     2786
   30.710     2892
   30.740     2860
   30.770     2836
   30.800     2993
   30.830     2845
   30.860     3048
   30.890     3388
   30.920     3554
   30.950     3286
   30.980     3305
   31.010     2862
   31.040     2815
   31.070     2738
   31.100     2813
   31.130     2767
   31.160     2721
   31.190     2942
   31.220     2860
   31.250     2717
   31.280     2851
   31.310     2553
   31.340     2543
   31.370     2853
   31.400     2767
   31.430     2651
   31.460     2539
   31.490     2653
   31.520     2599
   31.550     2654
   31.580     2706
   31.610     2760
   31.640     2606
   31.670     2597
   31.700     2618
   31.730     2565
   31.760     2670
   31.790     2533
   31.820     2600
   31.850     2591
   31.880     2559
   31.910     2633
   31.940     2553
   31.970     2660
   32.000     2531
   32.030     2596
   32.060     2649
   32.090     2535
   32.120     2496
   32.150     2620
   32.180     2519
   32.210     2556
   32.240     2643
   32.270     2554
   32.300     2738
   32.330     2847
   32.360     2932
   32.390     2957
   32.420     3362
   32.450     3370
   32.480     3558
   32.510     3454
   32.540     3257
   32.570     3041
   32.600     2992
   32.630     3103
   32.660     3178
   32.690     3012
   32.720     2912
   32.750     2985
   32.780     3321
   32.810     3567
   32.840     3645
   32.870     3623
   32.900     3225
   32.930     2784
   32.960     2772
   32.990     2623
   33.020     2665
   33.050     2692
   33.080     2653
   33.110     2619
   33.140     2560
   33.170     2695
   33.200     2657
   33.230     2701
   33.260     2716
   33.290     2744
   33.320     2797
   33.350     2938
   33.380     3410
   33.410     3440
   33.440     3549
   33.470     2972
   33.500     2977
   33.530     2553
   33.560     2672
   33.590     2525
   33.620     2589
   33.650     2503
   33.680     2509
   33.710     2523
   33.740     2597
   33.770     2499
   33.800     2610
   33.830     2608
   33.860     2575
   33.890     2635
   33.920     2578
   33.950     2627
   33.980     2527
   34.010     2703
   34.040     2730
   34.070     2706
   34.100     2932
   34.130     2805
   34.160     2780
   34.190     2613
   34.220     2662
   34.250     2724
   34.280     3000
   34.310     3266
   34.340     3707
   34.370     3639
   34.400     3152
   34.430     3034
   34.460     2976
   34.490     3138
   34.520     3283
   34.550     3276
   34.580     3027
   34.610     2828
   34.640     2578
   34.670     2570
   34.700     2549
   34.730     2652
   34.760     2604
   34.790     2580
   34.820     2510
   34.850     2538
   34.880     2476
   34.910     2593
   34.940     2639
   34.970     2650
   35.000     2640
   35.030     2446
   35.060     2578
   35.090     2571
   35.120     2425
   35.150     2464
   35.180     2480
   35.210     2548
   35.240     2571
   35.270     2695
   35.300     2794
   35.330     2756
   35.360     2874
   35.390     2805
   35.420     2623
   35.450     2517
   35.480     2504
   35.510     2529
   35.540     2613
   35.570     2529
   35.600     2679
   35.630     2644
   35.660     2707
   35.690     2746
   35.720     2572
   35.750     2558
   35.780     2572
   35.810     2480
   35.840     2424
   35.870     2602
   35.900     2536
   35.930     2572
   35.960     2563
   35.990     2893
   36.020     2877
   36.050     2704
   36.080     2614
   36.110     2439
   36.140     2406
   36.170     2451
   36.200     2588
   36.230     2360
   36.260     2455
   36.290     2379
   36.320     2450
   36.350     2451
   36.380     2496
   36.410     2484
   36.440     2421
   36.470     2551
   36.500     2419
   36.530     2375
   36.560     2511
   36.590     2508
   36.620     2489
   36.650     2428
   36.680     2365
   36.710     2438
   36.740     2419
   36.770     2519
   36.800     2581
   36.830     2443
   36.860     2481
   36.890     2519
   36.920     2575
   36.950     2551
   36.980     2891
   37.010     3173
   37.040     3196
   37.070     2898
   37.100     2695
   37.130     2519
   37.160     2344
   37.190     2527
   37.220     2482
   37.250     2296
   37.280     2449
   37.310     2358
   37.340     2388
   37.370     2449
   37.400     2465
   37.430     2380
   37.460     2353
   37.490     2481
   37.520     2423
   37.550     2625
   37.580     2584
   37.610     2527
   37.640     2440
   37.670     2408
   37.700     2346
   37.730     2416
   37.760     2439
   37.790     2425
   37.820     2736
   37.850     2848
   37.880     3097
   37.910     3144
   37.940     2964
   37.970     2758
   38.000     2521
   38.030     2601
   38.060     2567
   38.090     2524
   38.120     2785
   38.150     3317
   38.180     3325
   38.210     3402
   38.240     3193
   38.270     2733
   38.300     2505
   38.330     2635
   38.360     2597
   38.390     2554
   38.420     2495
   38.450     2441
   38.480     2406
   38.510     2479
   38.540     2487
   38.570     2458
   38.600     2531
   38.630     2560
   38.660     2647
   38.690     2612
   38.720     2590
   38.750     2483
   38.780     2533
   38.810     2528
   38.840     2403
   38.870     2571
   38.900     2622
   38.930     2449
   38.960     2497
   38.990     2366
   39.020     2526
   39.050     2530
   39.080     2567
   39.110     2511
   39.140     2420
   39.170     2499
   39.200     2371
   39.230     2482
   39.260     2465
   39.290     2480
   39.320     2361
   39.350     2316
   39.380     2375
   39.410     2256
   39.440     2419
   39.470     2304
   39.500     2558
   39.530     2424
   39.560     2473
   39.590     2384
   39.620     2411
   39.650     2392
   39.680     2442
   39.710     2352
   39.740     2417
   39.770     2345
   39.800     2339
   39.830     2465
   39.860     2449
   39.890     2500
   39.920     2471
   39.950     2458
   39.980     2438
   40.010     2490
   40.040     2416
   40.070     2367
   40.100     2517
   40.130     2345
   40.160     2496
   40.190     2344
   40.220     2337
   40.250     2305
   40.280     2474
   40.310     2359
   40.340     2421
   40.370     2499
   40.400     2515
   40.430     2630
   40.460     2685
   40.490     2718
   40.520     2983
   40.550     3135
   40.580     3314
   40.610     3225
   40.640     2829
   40.670     2612
   40.700     2484
   40.730     2699
   40.760     2612
   40.790     2627
   40.820     2779
   40.850     2845
   40.880     3009
   40.910     2869
   40.940     2763
   40.970     2762
   41.000     2601
   41.030     2461
   41.060     2546
   41.090     2451
   41.120     2522
   41.150     2491
   41.180     2429
   41.210     2478
   41.240     2362
   41.270     2427
   41.300     2476
   41.330     2370
   41.360     2530
   41.390     2426
   41.420     2489
   41.450     2449
   41.480     2464
   41.510     2392
   41.540     2581
   41.570     2497
   41.600     2526
   41.630     2615
   41.660     2911
   41.690     3093
   41.720     3423
   41.750     3778
   41.780     3630
   41.810     3537
   41.840     3071
   41.870     2879
   41.900     2533
   41.930     2372
   41.960     2357
   41.990     2371
   42.020     2390
   42.050     2377
   42.080     2370
   42.110     2416
   42.140     2468
   42.170     2496
   42.200     2706
   42.230     2701
   42.260     3012
   42.290     3192
   42.320     3605
   42.350     3648
   42.380     3454
   42.410     3139
   42.440     2808
   42.470     2750
   42.500     2684
   42.530     2659
   42.560     2914
   42.590     2820
   42.620     2675
   42.650     2418
   42.680     2459
   42.710     2408
   42.740     2456
   42.770     2633
   42.800     2682
   42.830     2695
   42.860     2807
   42.890     2670
   42.920     2512
   42.950     2331
   42.980     2335
   43.010     2449
   43.040     2521
   43.070     2479
   43.100     2433
   43.130     2341
   43.160     2357
   43.190     2432
   43.220     2361
   43.250     2321
   43.280     2540
   43.310     2370
   43.340     2452
   43.370     2484
   43.400     2399
   43.430     2382
   43.460     2560
   43.490     2588
   43.520     2597
   43.550     2797
   43.580     2751
   43.610     2708
   43.640     2509
   43.670     2388
   43.700     2336
   43.730     2372
   43.760     2419
   43.790     2350
   43.820     2336
   43.850     2407
   43.880     2397
   43.910     2459
   43.940     2496
   43.970     2660
   43.985     2612