File: data/Fe–terephthalate/PXRD/PXRD_S-7_Cu-Kα1_capillary-0.7mm.xyd
    2.000      631
    2.030      626
    2.060      614
    2.090      637
    2.120      643
    2.150      641
    2.180      607
    2.210      613
    2.240      650
    2.270      616
    2.300      617
    2.330      587
    2.360      627
    2.390      606
    2.420      647
    2.450      652
    2.480      617
    2.510      600
    2.540      617
    2.570      609
    2.600      596
    2.630      637
    2.660      613
    2.690      626
    2.720      644
    2.750      639
    2.780      592
    2.810      605
    2.840      650
    2.870      624
    2.900      648
    2.930      599
    2.960      665
    2.990      605
    3.020      655
    3.050      640
    3.080      615
    3.110      609
    3.140      578
    3.170      640
    3.200      640
    3.230      638
    3.260      648
    3.290      657
    3.320      633
    3.350      636
    3.380      630
    3.410      607
    3.440      644
    3.470      612
    3.500      618
    3.530      609
    3.560      661
    3.590      609
    3.620      621
    3.650      621
    3.680      649
    3.710      622
    3.740      652
    3.770      627
    3.800      631
    3.830      674
    3.860      640
    3.890      664
    3.920      609
    3.950      596
    3.980      617
    4.010      651
    4.040      684
    4.070      643
    4.100      618
    4.130      609
    4.160      634
    4.190      600
    4.220      603
    4.250      628
    4.280      615
    4.310      596
    4.340      648
    4.370      647
    4.400      612
    4.430      643
    4.460      626
    4.490      641
    4.520      593
    4.550      615
    4.580      630
    4.610      630
    4.640      657
    4.670      635
    4.700      603
    4.730      626
    4.760      628
    4.790      643
    4.820      601
    4.850      598
    4.880      660
    4.910      671
    4.940      660
    4.970      637
    5.000      655
    5.030      616
    5.060      623
    5.090      628
    5.120      615
    5.150      615
    5.180      622
    5.210      642
    5.240      596
    5.270      646
    5.300      644
    5.330      623
    5.360      676
    5.390      625
    5.420      634
    5.450      615
    5.480      631
    5.510      637
    5.540      624
    5.570      617
    5.600      591
    5.630      597
    5.660      646
    5.690      595
    5.720      613
    5.750      651
    5.780      637
    5.810      608
    5.840      624
    5.870      616
    5.900      600
    5.930      627
    5.960      580
    5.990      583
    6.020      606
    6.050      590
    6.080      591
    6.110      610
    6.140      596
    6.170      573
    6.200      637
    6.230      640
    6.260      629
    6.290      634
    6.320      622
    6.350      624
    6.380      625
    6.410      619
    6.440      608
    6.470      624
    6.500      632
    6.530      601
    6.560      619
    6.590      647
    6.620      658
    6.650      604
    6.680      630
    6.710      643
    6.740      640
    6.770      620
    6.800      652
    6.830      626
    6.860      579
    6.890      640
    6.920      637
    6.950      629
    6.980      669
    7.010      617
    7.040      626
    7.070      628
    7.100      666
    7.130      636
    7.160      611
    7.190      664
    7.220      647
    7.250      596
    7.280      649
    7.310      636
    7.340      631
    7.370      664
    7.400      643
    7.430      610
    7.460      627
    7.490      619
    7.520      630
    7.550      657
    7.580      646
    7.610      615
    7.640      639
    7.670      614
    7.700      638
    7.730      624
    7.760      672
    7.790      616
    7.820      697
    7.850      695
    7.880      661
    7.910      675
    7.940      654
    7.970      650
    8.000      592
    8.030      678
    8.060      666
    8.090      649
    8.120      623
    8.150      659
    8.180      612
    8.210      629
    8.240      635
    8.270      636
    8.300      665
    8.330      683
    8.360      640
    8.390      631
    8.420      659
    8.450      654
    8.480      624
    8.510      631
    8.540      653
    8.570      652
    8.600      634
    8.630      625
    8.660      643
    8.690      649
    8.720      660
    8.750      649
    8.780      646
    8.810      671
    8.840      687
    8.870      712
    8.900      681
    8.930      684
    8.960      708
    8.990      730
    9.020      836
    9.050      920
    9.080     1085
    9.110     1248
    9.140     1590
    9.170     2176
    9.200     3078
    9.230     4577
    9.260     6353
    9.290     4215
    9.320     1931
    9.350      843
    9.380      787
    9.410      826
    9.440      915
    9.470     1000
    9.500     1288
    9.530     1590
    9.560     1662
    9.590     1203
    9.620      801
    9.650      660
    9.680      708
    9.710      684
    9.740      695
    9.770      643
    9.800      662
    9.830      655
    9.860      620
    9.890      657
    9.920      676
    9.950      637
    9.980      635
   10.010      704
   10.040      663
   10.070      670
   10.100      637
   10.130      636
   10.160      644
   10.190      638
   10.220      685
   10.250      663
   10.280      693
   10.310      655
   10.340      710
   10.370      669
   10.400      646
   10.430      664
   10.460      691
   10.490      664
   10.520      671
   10.550      664
   10.580      692
   10.610      630
   10.640      664
   10.670      653
   10.700      667
   10.730      677
   10.760      678
   10.790      700
   10.820      667
   10.850      672
   10.880      703
   10.910      698
   10.940      698
   10.970      677
   11.000      717
   11.030      644
   11.060      684
   11.090      701
   11.120      627
   11.150      657
   11.180      651
   11.210      695
   11.240      697
   11.270      738
   11.300      686
   11.330      654
   11.360      679
   11.390      650
   11.420      692
   11.450      689
   11.480      667
   11.510      723
   11.540      721
   11.570      683
   11.600      669
   11.630      666
   11.660      636
   11.690      707
   11.720      688
   11.750      722
   11.780      691
   11.810      668
   11.840      706
   11.870      721
   11.900      705
   11.930      674
   11.960      657
   11.990      744
   12.020      714
   12.050      666
   12.080      654
   12.110      682
   12.140      686
   12.170      703
   12.200      720
   12.230      703
   12.260      695
   12.290      813
   12.320      811
   12.350      976
   12.380     1207
   12.410     1578
   12.440     2087
   12.470     1870
   12.500     1247
   12.530      762
   12.560      748
   12.590      692
   12.620      721
   12.650      699
   12.680      701
   12.710      727
   12.740      721
   12.770      714
   12.800      761
   12.830      773
   12.860      762
   12.890      768
   12.920      742
   12.950      737
   12.980      708
   13.010      776
   13.040      717
   13.070      793
   13.100      771
   13.130      795
   13.160      710
   13.190      784
   13.220      737
   13.250      731
   13.280      765
   13.310      758
   13.340      726
   13.370      763
   13.400      736
   13.430      729
   13.460      782
   13.490      740
   13.520      797
   13.550      754
   13.580      770
   13.610      798
   13.640      754
   13.670      837
   13.700      881
   13.730      939
   13.760     1257
   13.790     1250
   13.820     1267
   13.850     1066
   13.880      783
   13.910      777
   13.940      810
   13.970      761
   14.000      768
   14.030      836
   14.060      747
   14.090      749
   14.120      782
   14.150      847
   14.180      761
   14.210      839
   14.240      810
   14.270      804
   14.300      785
   14.330      831
   14.360      817
   14.390      808
   14.420      863
   14.450      840
   14.480      813
   14.510      784
   14.540      796
   14.570      901
   14.600      830
   14.630      867
   14.660      808
   14.690      791
   14.720      872
   14.750      826
   14.780      809
   14.810      857
   14.840      853
   14.870      855
   14.900      862
   14.930      865
   14.960      896
   14.990      806
   15.020      868
   15.050      898
   15.080      895
   15.110      870
   15.140      851
   15.170      891
   15.200      899
   15.230      872
   15.260      952
   15.290      892
   15.320      938
   15.350      902
   15.380      894
   15.410      878
   15.440      944
   15.470      939
   15.500      916
   15.530      927
   15.560      927
   15.590      938
   15.620      925
   15.650      836
   15.680      981
   15.710      873
   15.740      980
   15.770      914
   15.800      957
   15.830      999
   15.860      996
   15.890     1153
   15.920     1294
   15.950     1482
   15.980     1367
   16.010     1250
   16.040     1046
   16.070     1022
   16.100     1020
   16.130      972
   16.160      976
   16.190      901
   16.220     1017
   16.250      980
   16.280     1071
   16.310      989
   16.340     1067
   16.370     1142
   16.400     1217
   16.430     1545
   16.460     1902
   16.490     1859
   16.520     1466
   16.550     1123
   16.580     1106
   16.610     1045
   16.640     1047
   16.670     1064
   16.700     1066
   16.730     1122
   16.760     1174
   16.790     1248
   16.820     1305
   16.850     1393
   16.880     1278
   16.910     1130
   16.940     1130
   16.970     1113
   17.000     1109
   17.030     1102
   17.060     1141
   17.090     1048
   17.120     1074
   17.150     1130
   17.180     1019
   17.210     1142
   17.240     1163
   17.270     1119
   17.300     1146
   17.330     1113
   17.360     1163
   17.390     1191
   17.420     1165
   17.450     1156
   17.480     1139
   17.510     1105
   17.540     1241
   17.570     1174
   17.600     1193
   17.630     1166
   17.660     1220
   17.690     1165
   17.720     1232
   17.750     1190
   17.780     1192
   17.810     1218
   17.840     1215
   17.870     1180
   17.900     1184
   17.930     1258
   17.960     1227
   17.990     1253
   18.020     1268
   18.050     1214
   18.080     1208
   18.110     1227
   18.140     1159
   18.170     1215
   18.200     1239
   18.230     1244
   18.260     1224
   18.290     1280
   18.320     1233
   18.350     1237
   18.380     1351
   18.410     1322
   18.440     1309
   18.470     1336
   18.500     1260
   18.530     1423
   18.560     1625
   18.590     2047
   18.620     3037
   18.650     3862
   18.680     3768
   18.710     2829
   18.740     1796
   18.770     1370
   18.800     1415
   18.830     1346
   18.860     1358
   18.890     1343
   18.920     1322
   18.950     1321
   18.980     1386
   19.010     1293
   19.040     1387
   19.070     1327
   19.100     1388
   19.130     1483
   19.160     1344
   19.190     1637
   19.220     1767
   19.250     2042
   19.280     1810
   19.310     1503
   19.340     1390
   19.370     1328
   19.400     1312
   19.430     1328
   19.460     1341
   19.490     1306
   19.520     1339
   19.550     1349
   19.580     1351
   19.610     1362
   19.640     1237
   19.670     1315
   19.700     1301
   19.730     1259
   19.760     1455
   19.790     1280
   19.820     1382
   19.850     1316
   19.880     1297
   19.910     1341
   19.940     1283
   19.970     1285
   20.000     1329
   20.030     1365
   20.060     1324
   20.090     1306
   20.120     1287
   20.150     1305
   20.180     1254
   20.210     1279
   20.240     1317
   20.270     1309
   20.300     1292
   20.330     1320
   20.360     1336
   20.390     1305
   20.420     1346
   20.450     1350
   20.480     1261
   20.510     1285
   20.540     1250
   20.570     1323
   20.600     1231
   20.630     1249
   20.660     1236
   20.690     1269
   20.720     1279
   20.750     1191
   20.780     1244
   20.810     1333
   20.840     1432
   20.870     1573
   20.900     1524
   20.930     1318
   20.960     1289
   20.990     1220
   21.020     1282
   21.050     1268
   21.080     1246
   21.110     1317
   21.140     1410
   21.170     1558
   21.200     1570
   21.230     1446
   21.260     1417
   21.290     1289
   21.320     1264
   21.350     1275
   21.380     1209
   21.410     1219
   21.440     1278
   21.470     1252
   21.500     1308
   21.530     1259
   21.560     1307
   21.590     1321
   21.620     1419
   21.650     1381
   21.680     1837
   21.710     2203
   21.740     2673
   21.770     2356
   21.800     1910
   21.830     1415
   21.860     1244
   21.890     1236
   21.920     1205
   21.950     1168
   21.980     1172
   22.010     1231
   22.040     1193
   22.070     1245
   22.100     1163
   22.130     1149
   22.160     1152
   22.190     1142
   22.220     1152
   22.250     1151
   22.280     1187
   22.310     1114
   22.340     1128
   22.370     1210
   22.400     1123
   22.430     1175
   22.460     1147
   22.490     1153
   22.520     1157
   22.550     1171
   22.580     1132
   22.610     1104
   22.640     1153
   22.670     1115
   22.700     1134
   22.730     1087
   22.760     1140
   22.790     1144
   22.820     1079
   22.850     1048
   22.880     1097
   22.910     1122
   22.940     1120
   22.970     1173
   23.000     1126
   23.030     1084
   23.060     1073
   23.090     1114
   23.120     1066
   23.150     1132
   23.180     1070
   23.210     1130
   23.240     1108
   23.270     1186
   23.300     1195
   23.330     1226
   23.360     1167
   23.390     1164
   23.420     1136
   23.450     1131
   23.480     1027
   23.510     1070
   23.540     1146
   23.570     1038
   23.600     1039
   23.630     1001
   23.660     1040
   23.690     1070
   23.720     1155
   23.750     1144
   23.780     1173
   23.810     1189
   23.840     1095
   23.870     1044
   23.900      995
   23.930     1022
   23.960     1021
   23.990     1060
   24.020     1088
   24.050     1055
   24.080     1041
   24.110     1039
   24.140      982
   24.170      987
   24.200     1001
   24.230     1004
   24.260      985
   24.290     1031
   24.320      974
   24.350     1011
   24.380     1005
   24.410     1012
   24.440      996
   24.470     1050
   24.500     1065
   24.530     1078
   24.560     1110
   24.590     1156
   24.620     1080
   24.650     1014
   24.680     1029
   24.710     1000
   24.740     1001
   24.770      998
   24.800      999
   24.830     1045
   24.860     1003
   24.890     1005
   24.920     1044
   24.950      968
   24.980      948
   25.010      979
   25.040      993
   25.070     1038
   25.100     1085
   25.130     1166
   25.160     1039
   25.190     1084
   25.220      929
   25.250      952
   25.280      972
   25.310      873
   25.340     1002
   25.370     1015
   25.400      948
   25.430      986
   25.460     1063
   25.490      990
   25.520     1035
   25.550      991
   25.580      988
   25.610      969
   25.640      960
   25.670     1054
   25.700     1265
   25.730     1347
   25.760     1425
   25.790     1182
   25.820     1104
   25.850      988
   25.880      983
   25.910     1085
   25.940     1225
   25.970     1373
   26.000     1347
   26.030     1293
   26.060     1137
   26.090      993
   26.120      931
   26.150      951
   26.180      929
   26.210      929
   26.240      957
   26.270      906
   26.300      934
   26.330      887
   26.360      983
   26.390      922
   26.420      989
   26.450      941
   26.480      904
   26.510      923
   26.540      924
   26.570      903
   26.600      876
   26.630      894
   26.660      919
   26.690      924
   26.720      930
   26.750      862
   26.780      873
   26.810      926
   26.840      914
   26.870      930
   26.900      940
   26.930      898
   26.960      976
   26.990      877
   27.020      900
   27.050      928
   27.080      936
   27.110      891
   27.140      875
   27.170      899
   27.200      898
   27.230      907
   27.260      905
   27.290      871
   27.320      945
   27.350      904
   27.380      888
   27.410      874
   27.440      913
   27.470      852
   27.500      948
   27.530      914
   27.560      841
   27.590      837
   27.620      891
   27.650      824
   27.680      978
   27.710      854
   27.740      918
   27.770      846
   27.800      958
   27.830     1003
   27.860     1052
   27.890     1118
   27.920     1025
   27.950     1012
   27.980      873
   28.010      918
   28.040      853
   28.070      901
   28.100      990
   28.130     1015
   28.160     1165
   28.190     1323
   28.220     1394
   28.250     1132
   28.280     1012
   28.310      859
   28.340      883
   28.370      888
   28.400      867
   28.430      875
   28.460      877
   28.490      884
   28.520      850
   28.550      841
   28.580      859
   28.610      851
   28.640      868
   28.670      850
   28.700      853
   28.730      877
   28.760      847
   28.790      892
   28.820      920
   28.850      918
   28.880      909
   28.910      885
   28.940      882
   28.970      840
   29.000      868
   29.030      821
   29.060      903
   29.090      841
   29.120      838
   29.150      886
   29.180      853
   29.210      924
   29.240      829
   29.270      869
   29.300      865
   29.330      856
   29.360      817
   29.390      822
   29.420      893
   29.450      886
   29.480      901
   29.510      977
   29.540      975
   29.570      916
   29.600      947
   29.630      860
   29.660      912
   29.690      820
   29.720      830
   29.750      857
   29.780      817
   29.810      825
   29.840      827
   29.870      814
   29.900      767
   29.930      832
   29.960      752
   29.990      822
   30.020      823
   30.050      777
   30.080      806
   30.110      785
   30.140      751
   30.170      852
   30.200      817
   30.230      798
   30.260      794
   30.290      773
   30.320      790
   30.350      802
   30.380      817
   30.410      789
   30.440      780
   30.470      754
   30.500      775
   30.530      778
   30.560      787
   30.590      820
   30.620      852
   30.650      881
   30.680      947
   30.710      928
   30.740      876
   30.770      815
   30.800      800
   30.830      799
   30.860      741
   30.890      775
   30.920      762
   30.950      801
   30.980      850
   31.010      758
   31.040      859
   31.070      822
   31.100      896
   31.130      760
   31.160      759
   31.190      779
   31.220      737
   31.250      779
   31.280      732
   31.310      736
   31.340      752
   31.370      808
   31.400      795
   31.430      763
   31.460      788
   31.490      726
   31.520      742
   31.550      735
   31.580      718
   31.610      749
   31.640      681
   31.670      756
   31.700      723
   31.730      729
   31.760      742
   31.790      699
   31.820      739
   31.850      755
   31.880      705
   31.910      714
   31.940      707
   31.970      731
   32.000      709
   32.030      700
   32.060      748
   32.090      733
   32.120      696
   32.150      728
   32.180      666
   32.210      735
   32.240      703
   32.270      761
   32.300      829
   32.330      889
   32.360      939
   32.390      957
   32.420      904
   32.450      852
   32.480      735
   32.510      705
   32.540      784
   32.570      853
   32.600      847
   32.630      821
   32.660      840
   32.690      725
   32.720      748
   32.750      670
   32.780      676
   32.810      741
   32.840      679
   32.870      715
   32.900      668
   32.930      689
   32.960      694
   32.990      684
   33.020      663
   33.050      703
   33.080      707
   33.110      672
   33.140      682
   33.170      662
   33.200      722
   33.230      631
   33.260      749
   33.290      703
   33.320      744
   33.350      835
   33.380      878
   33.410      826
   33.440      798
   33.470      728
   33.500      716
   33.530      661
   33.560      670
   33.590      684
   33.620      650
   33.650      646
   33.680      708
   33.710      636
   33.740      718
   33.770      690
   33.800      714
   33.830      687
   33.860      709
   33.890      718
   33.920      652
   33.950      622
   33.980      657
   34.010      688
   34.040      652
   34.070      688
   34.100      759
   34.130      767
   34.160      838
   34.190      753
   34.220      716
   34.250      678
   34.280      639
   34.310      651
   34.340      695
   34.370      741
   34.400      793
   34.430      802
   34.460      738
   34.490      669
   34.520      642
   34.550      644
   34.580      615
   34.610      653
   34.640      646
   34.670      604
   34.700      619
   34.730      638
   34.760      603
   34.790      591
   34.820      621
   34.850      621
   34.880      637
   34.910      636
   34.940      649
   34.970      622
   35.000      636
   35.030      607
   35.060      637
   35.090      637
   35.120      630
   35.150      619
   35.180      613
   35.210      634
   35.240      556
   35.270      664
   35.300      650
   35.330      609
   35.360      617
   35.390      681
   35.420      632
   35.450      660
   35.480      578
   35.510      590
   35.540      626
   35.570      585
   35.600      629
   35.630      598
   35.660      638
   35.690      628
   35.720      705
   35.750      632
   35.780      614
   35.810      588
   35.840      595
   35.870      612
   35.900      573
   35.930      599
   35.960      577
   35.990      599
   36.020      597
   36.050      578
   36.080      568
   36.110      595
   36.140      567
   36.170      562
   36.200      596
   36.230      603
   36.260      550
   36.290      587
   36.320      603
   36.350      537
   36.380      621
   36.410      578
   36.440      572
   36.470      585
   36.500      564
   36.530      559
   36.560      549
   36.590      612
   36.620      654
   36.650      618
   36.680      665
   36.710      659
   36.740      677
   36.770      644
   36.800      556
   36.830      592
   36.860      630
   36.890      635
   36.920      582
   36.950      590
   36.980      557
   37.010      527
   37.040      558
   37.070      595
   37.100      575
   37.130      620
   37.160      582
   37.190      637
   37.220      577
   37.250      606
   37.280      611
   37.310      558
   37.340      544
   37.370      614
   37.400      590
   37.430      565
   37.460      569
   37.490      617
   37.520      641
   37.550      653
   37.580      661
   37.610      633
   37.640      553
   37.670      604
   37.700      579
   37.730      530
   37.760      551
   37.790      526
   37.820      589
   37.850      611
   37.880      604
   37.910      660
   37.940      708
   37.970      700
   38.000      638
   38.030      640
   38.060      541
   38.090      534
   38.120      575
   38.150      601
   38.180      559
   38.210      573
   38.240      583
   38.270      524
   38.300      587
   38.330      555
   38.360      575
   38.390      577
   38.420      587
   38.450      568
   38.480      555
   38.510      558
   38.540      538
   38.570      549
   38.600      549
   38.630      528
   38.660      569
   38.690      529
   38.720      547
   38.750      561
   38.780      536
   38.810      546
   38.840      545
   38.870      571
   38.900      570
   38.930      546
   38.960      542
   38.990      532
   39.020      576
   39.050      553
   39.080      539
   39.110      556
   39.140      514
   39.170      586
   39.200      539
   39.230      587
   39.260      547
   39.290      531
   39.320      538
   39.350      594
   39.380      511
   39.410      548
   39.440      566
   39.470      522
   39.500      556
   39.530      529
   39.560      539
   39.590      498
   39.620      521
   39.650      516
   39.680      509
   39.710      546
   39.740      547
   39.770      524
   39.800      564
   39.830      557
   39.860      531
   39.890      539
   39.920      521
   39.950      510
   39.980      527
   40.010      530
   40.040      516
   40.070      549
   40.100      566
   40.130      554
   40.160      555
   40.190      515
   40.220      522
   40.250      503
   40.280      548
   40.310      502
   40.340      545
   40.370      511
   40.400      531
   40.430      526
   40.460      593
   40.490      638
   40.520      708
   40.550      748
   40.580      661
   40.610      663
   40.640      582
   40.670      554
   40.700      557
   40.730      576
   40.760      556
   40.790      524
   40.820      552
   40.850      552
   40.880      528
   40.910      551
   40.940      517
   40.970      540
   41.000      563
   41.030      546
   41.060      545
   41.090      531
   41.120      521
   41.150      541
   41.180      518
   41.210      517
   41.240      540
   41.270      505
   41.300      522
   41.330      514
   41.360      535
   41.390      496
   41.420      544
   41.450      540
   41.480      505
   41.510      501
   41.540      560
   41.570      654
   41.600      668
   41.630      719
   41.660      754
   41.690      703
   41.720      685
   41.750      610
   41.780      592
   41.810      590
   41.840      578
   41.870      587
   41.900      578
   41.930      604
   41.960      672
   41.990      664
   42.020      640
   42.050      564
   42.080      568
   42.110      561
   42.140      513
   42.170      551
   42.200      586
   42.230      603
   42.260      574
   42.290      564
   42.320      583
   42.350      565
   42.380      617
   42.410      547
   42.440      558
   42.470      559
   42.500      552
   42.530      547
   42.560      568
   42.590      608
   42.620      544
   42.650      511
   42.680      535
   42.710      507
   42.740      532
   42.770      530
   42.800      506
   42.830      514
   42.860      525
   42.890      504
   42.920      502
   42.950      498
   42.980      514
   43.010      508
   43.040      521
   43.070      501
   43.100      542
   43.130      581
   43.160      528
   43.190      580
   43.220      532
   43.250      535
   43.280      569
   43.310      505
   43.340      548
   43.370      608
   43.400      558
   43.430      475
   43.460      545
   43.490      556
   43.520      526
   43.550      543
   43.580      535
   43.610      554
   43.640      534
   43.670      529
   43.700      494
   43.730      495
   43.760      520
   43.790      488
   43.820      523
   43.850      528
   43.880      508
   43.910      516
   43.940      493
   43.970      507
   43.985      532