File: data/Fe–terephthalate/PXRD/PXRD_S-6_Cu-Kα1_capillary-0.7mm.xyd
    2.000     1632
    2.030     1694
    2.060     1536
    2.090     1573
    2.120     1576
    2.150     1554
    2.180     1440
    2.210     1586
    2.240     1542
    2.270     1516
    2.300     1490
    2.330     1553
    2.360     1534
    2.390     1500
    2.420     1507
    2.450     1523
    2.480     1481
    2.510     1471
    2.540     1462
    2.570     1549
    2.600     1428
    2.630     1423
    2.660     1417
    2.690     1479
    2.720     1476
    2.750     1438
    2.780     1426
    2.810     1453
    2.840     1456
    2.870     1541
    2.900     1519
    2.930     1417
    2.960     1410
    2.990     1375
    3.020     1413
    3.050     1484
    3.080     1393
    3.110     1457
    3.140     1430
    3.170     1401
    3.200     1414
    3.230     1488
    3.260     1437
    3.290     1482
    3.320     1393
    3.350     1390
    3.380     1387
    3.410     1315
    3.440     1405
    3.470     1323
    3.500     1463
    3.530     1359
    3.560     1322
    3.590     1306
    3.620     1413
    3.650     1376
    3.680     1362
    3.710     1413
    3.740     1442
    3.770     1350
    3.800     1368
    3.830     1336
    3.860     1354
    3.890     1360
    3.920     1431
    3.950     1304
    3.980     1320
    4.010     1427
    4.040     1429
    4.070     1321
    4.100     1388
    4.130     1393
    4.160     1357
    4.190     1348
    4.220     1300
    4.250     1333
    4.280     1340
    4.310     1318
    4.340     1354
    4.370     1417
    4.400     1310
    4.430     1390
    4.460     1327
    4.490     1389
    4.520     1403
    4.550     1359
    4.580     1366
    4.610     1363
    4.640     1372
    4.670     1321
    4.700     1289
    4.730     1395
    4.760     1381
    4.790     1372
    4.820     1285
    4.850     1354
    4.880     1359
    4.910     1384
    4.940     1464
    4.970     1391
    5.000     1372
    5.030     1302
    5.060     1344
    5.090     1377
    5.120     1276
    5.150     1340
    5.180     1341
    5.210     1385
    5.240     1348
    5.270     1380
    5.300     1327
    5.330     1344
    5.360     1360
    5.390     1384
    5.420     1355
    5.450     1319
    5.480     1250
    5.510     1322
    5.540     1318
    5.570     1347
    5.600     1296
    5.630     1320
    5.660     1366
    5.690     1293
    5.720     1338
    5.750     1416
    5.780     1341
    5.810     1373
    5.840     1272
    5.870     1369
    5.900     1262
    5.930     1315
    5.960     1298
    5.990     1343
    6.020     1331
    6.050     1330
    6.080     1371
    6.110     1321
    6.140     1349
    6.170     1356
    6.200     1370
    6.230     1321
    6.260     1287
    6.290     1344
    6.320     1260
    6.350     1300
    6.380     1320
    6.410     1324
    6.440     1299
    6.470     1326
    6.500     1320
    6.530     1313
    6.560     1381
    6.590     1355
    6.620     1330
    6.650     1288
    6.680     1306
    6.710     1303
    6.740     1307
    6.770     1341
    6.800     1299
    6.830     1299
    6.860     1327
    6.890     1361
    6.920     1295
    6.950     1216
    6.980     1305
    7.010     1345
    7.040     1282
    7.070     1313
    7.100     1329
    7.130     1369
    7.160     1309
    7.190     1248
    7.220     1324
    7.250     1285
    7.280     1295
    7.310     1276
    7.340     1314
    7.370     1297
    7.400     1376
    7.430     1331
    7.460     1276
    7.490     1327
    7.520     1235
    7.550     1300
    7.580     1360
    7.610     1371
    7.640     1300
    7.670     1260
    7.700     1276
    7.730     1291
    7.760     1280
    7.790     1250
    7.820     1307
    7.850     1286
    7.880     1318
    7.910     1308
    7.940     1313
    7.970     1404
    8.000     1326
    8.030     1392
    8.060     1343
    8.090     1274
    8.120     1309
    8.150     1256
    8.180     1293
    8.210     1218
    8.240     1302
    8.270     1309
    8.300     1274
    8.330     1330
    8.360     1346
    8.390     1305
    8.420     1388
    8.450     1369
    8.480     1291
    8.510     1343
    8.540     1301
    8.570     1315
    8.600     1336
    8.630     1386
    8.660     1385
    8.690     1471
    8.720     1557
    8.750     1513
    8.780     1594
    8.810     1664
    8.840     1700
    8.870     1997
    8.900     1953
    8.930     2104
    8.960     2274
    8.990     2412
    9.020     2788
    9.050     3198
    9.080     3674
    9.110     4176
    9.140     4629
    9.170     5802
    9.200     7290
    9.230     8791
    9.260    12555
    9.290    17396
    9.320    18841
    9.350    13533
    9.380     6514
    9.410     3153
    9.440     2836
    9.470     2965
    9.500     3695
    9.530     3706
    9.560     2863
    9.590     1996
    9.620     1565
    9.650     1424
    9.680     1386
    9.710     1358
    9.740     1390
    9.770     1329
    9.800     1344
    9.830     1301
    9.860     1313
    9.890     1354
    9.920     1385
    9.950     1258
    9.980     1317
   10.010     1340
   10.040     1348
   10.070     1311
   10.100     1333
   10.130     1386
   10.160     1353
   10.190     1309
   10.220     1299
   10.250     1333
   10.280     1323
   10.310     1283
   10.340     1296
   10.370     1336
   10.400     1306
   10.430     1367
   10.460     1308
   10.490     1374
   10.520     1373
   10.550     1271
   10.580     1311
   10.610     1336
   10.640     1343
   10.670     1311
   10.700     1318
   10.730     1359
   10.760     1302
   10.790     1355
   10.820     1288
   10.850     1307
   10.880     1340
   10.910     1399
   10.940     1388
   10.970     1308
   11.000     1292
   11.030     1306
   11.060     1331
   11.090     1370
   11.120     1353
   11.150     1271
   11.180     1329
   11.210     1326
   11.240     1289
   11.270     1390
   11.300     1354
   11.330     1269
   11.360     1294
   11.390     1322
   11.420     1327
   11.450     1309
   11.480     1280
   11.510     1253
   11.540     1379
   11.570     1322
   11.600     1351
   11.630     1251
   11.660     1315
   11.690     1256
   11.720     1327
   11.750     1325
   11.780     1329
   11.810     1332
   11.840     1317
   11.870     1392
   11.900     1269
   11.930     1312
   11.960     1276
   11.990     1321
   12.020     1341
   12.050     1300
   12.080     1354
   12.110     1314
   12.140     1415
   12.170     1464
   12.200     1524
   12.230     1480
   12.260     1611
   12.290     1734
   12.320     1850
   12.350     2096
   12.380     2506
   12.410     2880
   12.440     3701
   12.470     4761
   12.500     4128
   12.530     2852
   12.560     1832
   12.590     1486
   12.620     1391
   12.650     1341
   12.680     1355
   12.710     1289
   12.740     1346
   12.770     1273
   12.800     1310
   12.830     1283
   12.860     1280
   12.890     1336
   12.920     1323
   12.950     1208
   12.980     1336
   13.010     1279
   13.040     1335
   13.070     1329
   13.100     1326
   13.130     1279
   13.160     1276
   13.190     1272
   13.220     1266
   13.250     1204
   13.280     1328
   13.310     1325
   13.340     1315
   13.370     1369
   13.400     1332
   13.430     1272
   13.460     1277
   13.490     1282
   13.520     1248
   13.550     1316
   13.580     1284
   13.610     1278
   13.640     1270
   13.670     1328
   13.700     1215
   13.730     1307
   13.760     1373
   13.790     1253
   13.820     1379
   13.850     1349
   13.880     1455
   13.910     1505
   13.940     1467
   13.970     1408
   14.000     1244
   14.030     1373
   14.060     1298
   14.090     1244
   14.120     1288
   14.150     1263
   14.180     1185
   14.210     1253
   14.240     1311
   14.270     1277
   14.300     1257
   14.330     1306
   14.360     1302
   14.390     1279
   14.420     1354
   14.450     1322
   14.480     1283
   14.510     1352
   14.540     1289
   14.570     1331
   14.600     1318
   14.630     1304
   14.660     1265
   14.690     1374
   14.720     1372
   14.750     1316
   14.780     1368
   14.810     1344
   14.840     1352
   14.870     1377
   14.900     1319
   14.930     1353
   14.960     1302
   14.990     1277
   15.020     1322
   15.050     1410
   15.080     1315
   15.110     1356
   15.140     1300
   15.170     1330
   15.200     1266
   15.230     1375
   15.260     1292
   15.290     1311
   15.320     1350
   15.350     1284
   15.380     1334
   15.410     1183
   15.440     1332
   15.470     1266
   15.500     1353
   15.530     1262
   15.560     1278
   15.590     1219
   15.620     1362
   15.650     1347
   15.680     1316
   15.710     1377
   15.740     1332
   15.770     1321
   15.800     1373
   15.830     1267
   15.860     1396
   15.890     1468
   15.920     1486
   15.950     1499
   15.980     1722
   16.010     1809
   16.040     2074
   16.070     2575
   16.100     3196
   16.130     2656
   16.160     2094
   16.190     1583
   16.220     1426
   16.250     1462
   16.280     1494
   16.310     1419
   16.340     1545
   16.370     1629
   16.400     1726
   16.430     2060
   16.460     2454
   16.490     2590
   16.520     2180
   16.550     1625
   16.580     1471
   16.610     1410
   16.640     1384
   16.670     1343
   16.700     1371
   16.730     1457
   16.760     1478
   16.790     1536
   16.820     1527
   16.850     1644
   16.880     1773
   16.910     2154
   16.940     2188
   16.970     1951
   17.000     1615
   17.030     1376
   17.060     1358
   17.090     1383
   17.120     1313
   17.150     1300
   17.180     1309
   17.210     1378
   17.240     1416
   17.270     1363
   17.300     1405
   17.330     1376
   17.360     1349
   17.390     1387
   17.420     1316
   17.450     1397
   17.480     1283
   17.510     1329
   17.540     1412
   17.570     1360
   17.600     1378
   17.630     1326
   17.660     1342
   17.690     1400
   17.720     1355
   17.750     1383
   17.780     1363
   17.810     1389
   17.840     1334
   17.870     1447
   17.900     1339
   17.930     1356
   17.960     1276
   17.990     1306
   18.020     1363
   18.050     1381
   18.080     1339
   18.110     1307
   18.140     1369
   18.170     1335
   18.200     1421
   18.230     1357
   18.260     1359
   18.290     1399
   18.320     1366
   18.350     1340
   18.380     1437
   18.410     1435
   18.440     1436
   18.470     1547
   18.500     1450
   18.530     1538
   18.560     1684
   18.590     1870
   18.620     2234
   18.650     2555
   18.680     3307
   18.710     4440
   18.740     6956
   18.770     8862
   18.800     7879
   18.830     5011
   18.860     2545
   18.890     1773
   18.920     1596
   18.950     1464
   18.980     1527
   19.010     1605
   19.040     1631
   19.070     1642
   19.100     1902
   19.130     2104
   19.160     2314
   19.190     3146
   19.220     3031
   19.250     2408
   19.280     1811
   19.310     1483
   19.340     1472
   19.370     1477
   19.400     1412
   19.430     1331
   19.460     1330
   19.490     1420
   19.520     1321
   19.550     1358
   19.580     1350
   19.610     1408
   19.640     1339
   19.670     1343
   19.700     1279
   19.730     1321
   19.760     1397
   19.790     1342
   19.820     1334
   19.850     1342
   19.880     1325
   19.910     1369
   19.940     1345
   19.970     1378
   20.000     1275
   20.030     1421
   20.060     1435
   20.090     1339
   20.120     1330
   20.150     1329
   20.180     1273
   20.210     1283
   20.240     1333
   20.270     1357
   20.300     1338
   20.330     1346
   20.360     1442
   20.390     1396
   20.420     1468
   20.450     1399
   20.480     1335
   20.510     1360
   20.540     1400
   20.570     1482
   20.600     1397
   20.630     1424
   20.660     1428
   20.690     1453
   20.720     1557
   20.750     1500
   20.780     1610
   20.810     1717
   20.840     1847
   20.870     1879
   20.900     1810
   20.930     1637
   20.960     1547
   20.990     1509
   21.020     1549
   21.050     1652
   21.080     1748
   21.110     1824
   21.140     1826
   21.170     2142
   21.200     2318
   21.230     2363
   21.260     2689
   21.290     2717
   21.320     2989
   21.350     3050
   21.380     3160
   21.410     2772
   21.440     2321
   21.470     1791
   21.500     1593
   21.530     1509
   21.560     1435
   21.590     1452
   21.620     1465
   21.650     1468
   21.680     1578
   21.710     1552
   21.740     1611
   21.770     1692
   21.800     1894
   21.830     2175
   21.860     2709
   21.890     3576
   21.920     4817
   21.950     4291
   21.980     3169
   22.010     2191
   22.040     1699
   22.070     1497
   22.100     1490
   22.130     1450
   22.160     1408
   22.190     1436
   22.220     1337
   22.250     1440
   22.280     1407
   22.310     1364
   22.340     1430
   22.370     1347
   22.400     1368
   22.430     1418
   22.460     1419
   22.490     1448
   22.520     1429
   22.550     1360
   22.580     1399
   22.610     1438
   22.640     1469
   22.670     1467
   22.700     1407
   22.730     1489
   22.760     1433
   22.790     1419
   22.820     1364
   22.850     1366
   22.880     1469
   22.910     1431
   22.940     1493
   22.970     1467
   23.000     1426
   23.030     1437
   23.060     1410
   23.090     1508
   23.120     1402
   23.150     1378
   23.180     1403
   23.210     1432
   23.240     1380
   23.270     1459
   23.300     1455
   23.330     1416
   23.360     1505
   23.390     1509
   23.420     1599
   23.450     1799
   23.480     1764
   23.510     1854
   23.540     1840
   23.570     1577
   23.600     1701
   23.630     1678
   23.660     1765
   23.690     1813
   23.720     1883
   23.750     1871
   23.780     1958
   23.810     1906
   23.840     1954
   23.870     1869
   23.900     1505
   23.930     1454
   23.960     1363
   23.990     1421
   24.020     1380
   24.050     1403
   24.080     1402
   24.110     1381
   24.140     1403
   24.170     1403
   24.200     1468
   24.230     1382
   24.260     1443
   24.290     1511
   24.320     1490
   24.350     1480
   24.380     1422
   24.410     1431
   24.440     1378
   24.470     1465
   24.500     1378
   24.530     1318
   24.560     1396
   24.590     1450
   24.620     1449
   24.650     1365
   24.680     1406
   24.710     1406
   24.740     1579
   24.770     1683
   24.800     1661
   24.830     1573
   24.860     1453
   24.890     1400
   24.920     1374
   24.950     1302
   24.980     1354
   25.010     1382
   25.040     1398
   25.070     1446
   25.100     1448
   25.130     1542
   25.160     1566
   25.190     1666
   25.220     1712
   25.250     1497
   25.280     1467
   25.310     1423
   25.340     1384
   25.370     1480
   25.400     1530
   25.430     1549
   25.460     1457
   25.490     1455
   25.520     1366
   25.550     1409
   25.580     1378
   25.610     1401
   25.640     1360
   25.670     1468
   25.700     1388
   25.730     1398
   25.760     1522
   25.790     1495
   25.820     1745
   25.850     2109
   25.880     2266
   25.910     2168
   25.940     1924
   25.970     1599
   26.000     1443
   26.030     1498
   26.060     1504
   26.090     1514
   26.120     1803
   26.150     2104
   26.180     2333
   26.210     2235
   26.240     1905
   26.270     1550
   26.300     1492
   26.330     1445
   26.360     1371
   26.390     1387
   26.420     1451
   26.450     1405
   26.480     1366
   26.510     1382
   26.540     1382
   26.570     1393
   26.600     1391
   26.630     1384
   26.660     1399
   26.690     1401
   26.720     1411
   26.750     1406
   26.780     1407
   26.810     1419
   26.840     1374
   26.870     1460
   26.900     1449
   26.930     1434
   26.960     1438
   26.990     1293
   27.020     1401
   27.050     1462
   27.080     1381
   27.110     1409
   27.140     1352
   27.170     1366
   27.200     1453
   27.230     1410
   27.260     1457
   27.290     1447
   27.320     1328
   27.350     1413
   27.380     1388
   27.410     1305
   27.440     1357
   27.470     1404
   27.500     1428
   27.530     1392
   27.560     1400
   27.590     1314
   27.620     1329
   27.650     1291
   27.680     1310
   27.710     1354
   27.740     1461
   27.770     1313
   27.800     1409
   27.830     1364
   27.860     1402
   27.890     1439
   27.920     1425
   27.950     1376
   27.980     1420
   28.010     1445
   28.040     1502
   28.070     1586
   28.100     1679
   28.130     1787
   28.160     1847
   28.190     1700
   28.220     1609
   28.250     1572
   28.280     1607
   28.310     1842
   28.340     2301
   28.370     2518
   28.400     2331
   28.430     1996
   28.460     1626
   28.490     1459
   28.520     1438
   28.550     1422
   28.580     1376
   28.610     1369
   28.640     1387
   28.670     1429
   28.700     1389
   28.730     1483
   28.760     1394
   28.790     1438
   28.820     1352
   28.850     1427
   28.880     1492
   28.910     1635
   28.940     1665
   28.970     1635
   29.000     1483
   29.030     1417
   29.060     1436
   29.090     1408
   29.120     1419
   29.150     1469
   29.180     1379
   29.210     1397
   29.240     1389
   29.270     1461
   29.300     1465
   29.330     1439
   29.360     1473
   29.390     1477
   29.420     1493
   29.450     1454
   29.480     1360
   29.510     1465
   29.540     1382
   29.570     1371
   29.600     1392
   29.630     1387
   29.660     1527
   29.690     1548
   29.720     1715
   29.750     1822
   29.780     1779
   29.810     1711
   29.840     1583
   29.870     1572
   29.900     1324
   29.930     1369
   29.960     1337
   29.990     1327
   30.020     1435
   30.050     1360
   30.080     1398
   30.110     1361
   30.140     1358
   30.170     1479
   30.200     1503
   30.230     1362
   30.260     1345
   30.290     1366
   30.320     1465
   30.350     1356
   30.380     1422
   30.410     1411
   30.440     1360
   30.470     1383
   30.500     1380
   30.530     1264
   30.560     1406
   30.590     1390
   30.620     1411
   30.650     1331
   30.680     1315
   30.710     1306
   30.740     1400
   30.770     1371
   30.800     1446
   30.830     1434
   30.860     1481
   30.890     1618
   30.920     1864
   30.950     1674
   30.980     1587
   31.010     1505
   31.040     1353
   31.070     1374
   31.100     1521
   31.130     1376
   31.160     1356
   31.190     1476
   31.220     1393
   31.250     1346
   31.280     1387
   31.310     1333
   31.340     1310
   31.370     1414
   31.400     1377
   31.430     1347
   31.460     1289
   31.490     1300
   31.520     1345
   31.550     1348
   31.580     1375
   31.610     1359
   31.640     1349
   31.670     1321
   31.700     1308
   31.730     1336
   31.760     1325
   31.790     1240
   31.820     1281
   31.850     1284
   31.880     1243
   31.910     1331
   31.940     1292
   31.970     1283
   32.000     1307
   32.030     1365
   32.060     1372
   32.090     1288
   32.120     1277
   32.150     1351
   32.180     1262
   32.210     1268
   32.240     1359
   32.270     1329
   32.300     1391
   32.330     1429
   32.360     1569
   32.390     1567
   32.420     1639
   32.450     1756
   32.480     1787
   32.510     1701
   32.540     1548
   32.570     1577
   32.600     1534
   32.630     1557
   32.660     1554
   32.690     1542
   32.720     1461
   32.750     1503
   32.780     1728
   32.810     1920
   32.840     1864
   32.870     1808
   32.900     1581
   32.930     1452
   32.960     1399
   32.990     1330
   33.020     1351
   33.050     1381
   33.080     1353
   33.110     1349
   33.140     1324
   33.170     1274
   33.200     1402
   33.230     1435
   33.260     1410
   33.290     1393
   33.320     1439
   33.350     1585
   33.380     1777
   33.410     1781
   33.440     1787
   33.470     1543
   33.500     1480
   33.530     1302
   33.560     1361
   33.590     1310
   33.620     1252
   33.650     1271
   33.680     1320
   33.710     1307
   33.740     1308
   33.770     1282
   33.800     1284
   33.830     1283
   33.860     1304
   33.890     1290
   33.920     1359
   33.950     1250
   33.980     1361
   34.010     1383
   34.040     1412
   34.070     1440
   34.100     1465
   34.130     1414
   34.160     1357
   34.190     1353
   34.220     1341
   34.250     1395
   34.280     1545
   34.310     1782
   34.340     1896
   34.370     1854
   34.400     1675
   34.430     1583
   34.460     1516
   34.490     1607
   34.520     1751
   34.550     1610
   34.580     1495
   34.610     1457
   34.640     1367
   34.670     1348
   34.700     1291
   34.730     1395
   34.760     1327
   34.790     1350
   34.820     1275
   34.850     1264
   34.880     1349
   34.910     1344
   34.940     1346
   34.970     1325
   35.000     1356
   35.030     1283
   35.060     1367
   35.090     1311
   35.120     1283
   35.150     1299
   35.180     1291
   35.210     1329
   35.240     1299
   35.270     1370
   35.300     1444
   35.330     1494
   35.360     1490
   35.390     1429
   35.420     1333
   35.450     1295
   35.480     1263
   35.510     1312
   35.540     1308
   35.570     1310
   35.600     1293
   35.630     1370
   35.660     1429
   35.690     1427
   35.720     1359
   35.750     1317
   35.780     1347
   35.810     1273
   35.840     1290
   35.870     1419
   35.900     1289
   35.930     1413
   35.960     1420
   35.990     1516
   36.020     1592
   36.050     1464
   36.080     1321
   36.110     1261
   36.140     1327
   36.170     1306
   36.200     1306
   36.230     1225
   36.260     1256
   36.290     1269
   36.320     1256
   36.350     1261
   36.380     1288
   36.410     1314
   36.440     1342
   36.470     1324
   36.500     1263
   36.530     1199
   36.560     1291
   36.590     1275
   36.620     1288
   36.650     1193
   36.680     1260
   36.710     1187
   36.740     1327
   36.770     1320
   36.800     1266
   36.830     1241
   36.860     1242
   36.890     1287
   36.920     1298
   36.950     1316
   36.980     1507
   37.010     1688
   37.040     1619
   37.070     1622
   37.100     1333
   37.130     1338
   37.160     1240
   37.190     1204
   37.220     1260
   37.250     1143
   37.280     1260
   37.310     1232
   37.340     1208
   37.370     1304
   37.400     1273
   37.430     1207
   37.460     1208
   37.490     1232
   37.520     1287
   37.550     1330
   37.580     1337
   37.610     1307
   37.640     1209
   37.670     1230
   37.700     1180
   37.730     1222
   37.760     1279
   37.790     1208
   37.820     1371
   37.850     1541
   37.880     1657
   37.910     1601
   37.940     1537
   37.970     1412
   38.000     1260
   38.030     1291
   38.060     1384
   38.090     1304
   38.120     1485
   38.150     1761
   38.180     1787
   38.210     1712
   38.240     1624
   38.270     1370
   38.300     1312
   38.330     1413
   38.360     1385
   38.390     1346
   38.420     1323
   38.450     1277
   38.480     1236
   38.510     1261
   38.540     1206
   38.570     1264
   38.600     1339
   38.630     1318
   38.660     1364
   38.690     1390
   38.720     1369
   38.750     1351
   38.780     1273
   38.810     1297
   38.840     1231
   38.870     1372
   38.900     1322
   38.930     1271
   38.960     1340
   38.990     1268
   39.020     1330
   39.050     1418
   39.080     1326
   39.110     1360
   39.140     1288
   39.170     1342
   39.200     1293
   39.230     1374
   39.260     1307
   39.290     1285
   39.320     1308
   39.350     1283
   39.380     1267
   39.410     1218
   39.440     1263
   39.470     1244
   39.500     1371
   39.530     1254
   39.560     1299
   39.590     1218
   39.620     1217
   39.650     1235
   39.680     1229
   39.710     1241
   39.740     1295
   39.770     1256
   39.800     1301
   39.830     1195
   39.860     1296
   39.890     1290
   39.920     1323
   39.950     1256
   39.980     1347
   40.010     1410
   40.040     1328
   40.070     1274
   40.100     1320
   40.130     1251
   40.160     1301
   40.190     1214
   40.220     1222
   40.250     1245
   40.280     1305
   40.310     1298
   40.340     1318
   40.370     1344
   40.400     1355
   40.430     1397
   40.460     1432
   40.490     1494
   40.520     1628
   40.550     1629
   40.580     1722
   40.610     1703
   40.640     1479
   40.670     1394
   40.700     1343
   40.730     1368
   40.760     1364
   40.790     1460
   40.820     1461
   40.850     1563
   40.880     1576
   40.910     1504
   40.940     1500
   40.970     1444
   41.000     1362
   41.030     1369
   41.060     1358
   41.090     1342
   41.120     1320
   41.150     1318
   41.180     1315
   41.210     1299
   41.240     1318
   41.270     1370
   41.300     1313
   41.330     1191
   41.360     1368
   41.390     1331
   41.420     1296
   41.450     1287
   41.480     1270
   41.510     1253
   41.540     1364
   41.570     1249
   41.600     1391
   41.630     1346
   41.660     1562
   41.690     1550
   41.720     1909
   41.750     2045
   41.780     2069
   41.810     1910
   41.840     1630
   41.870     1548
   41.900     1356
   41.930     1261
   41.960     1265
   41.990     1303
   42.020     1262
   42.050     1295
   42.080     1274
   42.110     1280
   42.140     1310
   42.170     1339
   42.200     1395
   42.230     1424
   42.260     1612
   42.290     1824
   42.320     1970
   42.350     1978
   42.380     1839
   42.410     1643
   42.440     1460
   42.470     1377
   42.500     1474
   42.530     1473
   42.560     1533
   42.590     1409
   42.620     1406
   42.650     1280
   42.680     1261
   42.710     1233
   42.740     1367
   42.770     1476
   42.800     1483
   42.830     1475
   42.860     1448
   42.890     1402
   42.920     1309
   42.950     1233
   42.980     1268
   43.010     1235
   43.040     1236
   43.070     1290
   43.100     1345
   43.130     1298
   43.160     1251
   43.190     1290
   43.220     1248
   43.250     1231
   43.280     1243
   43.310     1257
   43.340     1261
   43.370     1309
   43.400     1308
   43.430     1305
   43.460     1274
   43.490     1431
   43.520     1383
   43.550     1461
   43.580     1433
   43.610     1447
   43.640     1303
   43.670     1343
   43.700     1302
   43.730     1254
   43.760     1389
   43.790     1188
   43.820     1285
   43.850     1249
   43.880     1274
   43.910     1327
   43.940     1379
   43.970     1410
   43.985     1373