File: data/Fe–terephthalate/PXRD/PXRD_S-3_Cu-Kα1_capillary-0.7mm.xyd
    2.000      430
    2.030      478
    2.060      442
    2.090      433
    2.120      421
    2.150      502
    2.180      435
    2.210      423
    2.240      442
    2.270      433
    2.300      441
    2.330      438
    2.360      455
    2.390      473
    2.420      444
    2.450      429
    2.480      428
    2.510      429
    2.540      461
    2.570      416
    2.600      428
    2.630      458
    2.660      454
    2.690      420
    2.720      437
    2.750      439
    2.780      462
    2.810      447
    2.840      450
    2.870      469
    2.900      428
    2.930      411
    2.960      485
    2.990      451
    3.020      454
    3.050      435
    3.080      456
    3.110      465
    3.140      440
    3.170      471
    3.200      445
    3.230      472
    3.260      473
    3.290      449
    3.320      476
    3.350      486
    3.380      454
    3.410      431
    3.440      452
    3.470      451
    3.500      469
    3.530      447
    3.560      473
    3.590      445
    3.620      461
    3.650      461
    3.680      496
    3.710      444
    3.740      464
    3.770      434
    3.800      465
    3.830      472
    3.860      431
    3.890      459
    3.920      444
    3.950      404
    3.980      480
    4.010      454
    4.040      443
    4.070      451
    4.100      450
    4.130      477
    4.160      420
    4.190      442
    4.220      479
    4.250      473
    4.280      468
    4.310      448
    4.340      487
    4.370      466
    4.400      419
    4.430      461
    4.460      475
    4.490      458
    4.520      480
    4.550      474
    4.580      438
    4.610      462
    4.640      451
    4.670      430
    4.700      451
    4.730      466
    4.760      461
    4.790      468
    4.820      452
    4.850      423
    4.880      456
    4.910      453
    4.940      478
    4.970      501
    5.000      461
    5.030      447
    5.060      466
    5.090      480
    5.120      438
    5.150      441
    5.180      462
    5.210      479
    5.240      431
    5.270      469
    5.300      524
    5.330      440
    5.360      448
    5.390      458
    5.420      509
    5.450      489
    5.480      417
    5.510      424
    5.540      445
    5.570      451
    5.600      445
    5.630      420
    5.660      445
    5.690      466
    5.720      428
    5.750      429
    5.780      436
    5.810      448
    5.840      453
    5.870      422
    5.900      442
    5.930      445
    5.960      435
    5.990      476
    6.020      459
    6.050      420
    6.080      460
    6.110      432
    6.140      452
    6.170      445
    6.200      439
    6.230      445
    6.260      453
    6.290      475
    6.320      465
    6.350      492
    6.380      451
    6.410      449
    6.440      445
    6.470      480
    6.500      470
    6.530      454
    6.560      464
    6.590      464
    6.620      439
    6.650      451
    6.680      458
    6.710      464
    6.740      454
    6.770      446
    6.800      450
    6.830      459
    6.860      437
    6.890      480
    6.920      437
    6.950      438
    6.980      511
    7.010      472
    7.040      428
    7.070      462
    7.100      488
    7.130      479
    7.160      426
    7.190      501
    7.220      444
    7.250      437
    7.280      462
    7.310      444
    7.340      456
    7.370      501
    7.400      489
    7.430      445
    7.460      453
    7.490      480
    7.520      432
    7.550      456
    7.580      470
    7.610      462
    7.640      434
    7.670      458
    7.700      453
    7.730      454
    7.760      443
    7.790      453
    7.820      506
    7.850      487
    7.880      505
    7.910      516
    7.940      522
    7.970      480
    8.000      461
    8.030      475
    8.060      470
    8.090      458
    8.120      472
    8.150      464
    8.180      424
    8.210      449
    8.240      479
    8.270      451
    8.300      473
    8.330      461
    8.360      472
    8.390      477
    8.420      469
    8.450      490
    8.480      451
    8.510      479
    8.540      468
    8.570      462
    8.600      455
    8.630      464
    8.660      433
    8.690      462
    8.720      454
    8.750      452
    8.780      481
    8.810      447
    8.840      492
    8.870      508
    8.900      505
    8.930      500
    8.960      540
    8.990      577
    9.020      664
    9.050      752
    9.080      910
    9.110     1133
    9.140     1415
    9.170     1983
    9.200     2961
    9.230     4662
    9.260     6289
    9.290     4413
    9.320     2018
    9.350      658
    9.380      595
    9.410      628
    9.440      723
    9.470      798
    9.500     1140
    9.530     1553
    9.560     1489
    9.590     1105
    9.620      636
    9.650      466
    9.680      501
    9.710      471
    9.740      480
    9.770      471
    9.800      475
    9.830      486
    9.860      467
    9.890      506
    9.920      493
    9.950      463
    9.980      461
   10.010      483
   10.040      497
   10.070      479
   10.100      433
   10.130      456
   10.160      473
   10.190      450
   10.220      468
   10.250      475
   10.280      502
   10.310      472
   10.340      484
   10.370      504
   10.400      468
   10.430      466
   10.460      451
   10.490      455
   10.520      500
   10.550      478
   10.580      450
   10.610      465
   10.640      462
   10.670      484
   10.700      477
   10.730      507
   10.760      489
   10.790      451
   10.820      457
   10.850      443
   10.880      509
   10.910      506
   10.940      492
   10.970      491
   11.000      493
   11.030      436
   11.060      473
   11.090      487
   11.120      457
   11.150      472
   11.180      438
   11.210      451
   11.240      462
   11.270      505
   11.300      502
   11.330      477
   11.360      472
   11.390      475
   11.420      508
   11.450      489
   11.480      439
   11.510      496
   11.540      503
   11.570      466
   11.600      513
   11.630      467
   11.660      483
   11.690      493
   11.720      497
   11.750      449
   11.780      435
   11.810      473
   11.840      494
   11.870      541
   11.900      459
   11.930      485
   11.960      484
   11.990      478
   12.020      490
   12.050      479
   12.080      488
   12.110      430
   12.140      457
   12.170      492
   12.200      497
   12.230      497
   12.260      502
   12.290      544
   12.320      608
   12.350      718
   12.380      961
   12.410     1419
   12.440     1853
   12.470     1695
   12.500     1120
   12.530      597
   12.560      517
   12.590      499
   12.620      513
   12.650      482
   12.680      474
   12.710      490
   12.740      506
   12.770      494
   12.800      506
   12.830      507
   12.860      505
   12.890      449
   12.920      486
   12.950      490
   12.980      537
   13.010      486
   13.040      449
   13.070      479
   13.100      524
   13.130      501
   13.160      463
   13.190      552
   13.220      487
   13.250      509
   13.280      495
   13.310      497
   13.340      478
   13.370      535
   13.400      469
   13.430      531
   13.460      541
   13.490      466
   13.520      469
   13.550      514
   13.580      533
   13.610      491
   13.640      492
   13.670      545
   13.700      591
   13.730      675
   13.760      916
   13.790     1027
   13.820     1016
   13.850      836
   13.880      544
   13.910      485
   13.940      487
   13.970      504
   14.000      510
   14.030      528
   14.060      532
   14.090      486
   14.120      491
   14.150      544
   14.180      472
   14.210      501
   14.240      507
   14.270      497
   14.300      537
   14.330      513
   14.360      526
   14.390      516
   14.420      562
   14.450      543
   14.480      510
   14.510      513
   14.540      507
   14.570      502
   14.600      479
   14.630      546
   14.660      523
   14.690      527
   14.720      547
   14.750      535
   14.780      559
   14.810      532
   14.840      533
   14.870      535
   14.900      560
   14.930      528
   14.960      564
   14.990      529
   15.020      563
   15.050      554
   15.080      557
   15.110      541
   15.140      547
   15.170      519
   15.200      533
   15.230      549
   15.260      584
   15.290      531
   15.320      546
   15.350      554
   15.380      555
   15.410      541
   15.440      527
   15.470      529
   15.500      567
   15.530      540
   15.560      521
   15.590      573
   15.620      561
   15.650      540
   15.680      536
   15.710      531
   15.740      621
   15.770      595
   15.800      607
   15.830      623
   15.860      628
   15.890      726
   15.920      895
   15.950     1055
   15.980     1019
   16.010      866
   16.040      635
   16.070      568
   16.100      588
   16.130      589
   16.160      564
   16.190      574
   16.220      551
   16.250      555
   16.280      601
   16.310      575
   16.340      616
   16.370      695
   16.400      823
   16.430     1116
   16.460     1457
   16.490     1469
   16.520     1061
   16.550      735
   16.580      580
   16.610      612
   16.640      602
   16.670      569
   16.700      622
   16.730      614
   16.760      680
   16.790      800
   16.820      903
   16.850      905
   16.880      906
   16.910      704
   16.940      620
   16.970      646
   17.000      613
   17.030      599
   17.060      623
   17.090      613
   17.120      597
   17.150      612
   17.180      615
   17.210      613
   17.240      583
   17.270      637
   17.300      661
   17.330      618
   17.360      629
   17.390      631
   17.420      627
   17.450      627
   17.480      613
   17.510      657
   17.540      679
   17.570      636
   17.600      680
   17.630      609
   17.660      628
   17.690      607
   17.720      693
   17.750      634
   17.780      636
   17.810      653
   17.840      619
   17.870      600
   17.900      628
   17.930      627
   17.960      635
   17.990      681
   18.020      675
   18.050      593
   18.080      652
   18.110      655
   18.140      635
   18.170      657
   18.200      701
   18.230      667
   18.260      649
   18.290      640
   18.320      683
   18.350      691
   18.380      640
   18.410      642
   18.440      650
   18.470      713
   18.500      692
   18.530      773
   18.560      974
   18.590     1428
   18.620     2387
   18.650     3429
   18.680     3501
   18.710     2384
   18.740     1186
   18.770      763
   18.800      749
   18.830      713
   18.860      687
   18.890      717
   18.920      719
   18.950      715
   18.980      736
   19.010      644
   19.040      699
   19.070      672
   19.100      761
   19.130      765
   19.160      756
   19.190      912
   19.220     1169
   19.250     1322
   19.280     1199
   19.310      843
   19.340      709
   19.370      723
   19.400      732
   19.430      696
   19.460      661
   19.490      706
   19.520      697
   19.550      718
   19.580      653
   19.610      678
   19.640      648
   19.670      689
   19.700      660
   19.730      674
   19.760      707
   19.790      644
   19.820      671
   19.850      664
   19.880      672
   19.910      661
   19.940      620
   19.970      635
   20.000      629
   20.030      708
   20.060      675
   20.090      620
   20.120      670
   20.150      696
   20.180      615
   20.210      685
   20.240      670
   20.270      665
   20.300      662
   20.330      679
   20.360      700
   20.390      685
   20.420      684
   20.450      683
   20.480      677
   20.510      668
   20.540      699
   20.570      654
   20.600      650
   20.630      676
   20.660      682
   20.690      681
   20.720      678
   20.750      645
   20.780      705
   20.810      717
   20.840      848
   20.870      931
   20.900      924
   20.930      770
   20.960      692
   20.990      643
   21.020      653
   21.050      693
   21.080      675
   21.110      740
   21.140      814
   21.170      937
   21.200     1025
   21.230      939
   21.260      823
   21.290      689
   21.320      682
   21.350      671
   21.380      648
   21.410      664
   21.440      668
   21.470      643
   21.500      734
   21.530      693
   21.560      736
   21.590      789
   21.620      791
   21.650      872
   21.680     1116
   21.710     1713
   21.740     2240
   21.770     2033
   21.800     1482
   21.830      878
   21.860      639
   21.890      647
   21.920      676
   21.950      656
   21.980      628
   22.010      633
   22.040      642
   22.070      697
   22.100      654
   22.130      590
   22.160      639
   22.190      624
   22.220      637
   22.250      617
   22.280      616
   22.310      602
   22.340      611
   22.370      606
   22.400      638
   22.430      635
   22.460      658
   22.490      607
   22.520      614
   22.550      642
   22.580      630
   22.610      618
   22.640      643
   22.670      610
   22.700      576
   22.730      613
   22.760      607
   22.790      615
   22.820      617
   22.850      605
   22.880      629
   22.910      635
   22.940      656
   22.970      630
   23.000      586
   23.030      599
   23.060      624
   23.090      585
   23.120      596
   23.150      610
   23.180      607
   23.210      620
   23.240      602
   23.270      676
   23.300      734
   23.330      764
   23.360      688
   23.390      677
   23.420      610
   23.450      622
   23.480      631
   23.510      562
   23.540      612
   23.570      594
   23.600      581
   23.630      561
   23.660      625
   23.690      598
   23.720      667
   23.750      673
   23.780      728
   23.810      754
   23.840      718
   23.870      645
   23.900      594
   23.930      606
   23.960      607
   23.990      589
   24.020      608
   24.050      577
   24.080      612
   24.110      622
   24.140      590
   24.170      593
   24.200      569
   24.230      617
   24.260      580
   24.290      575
   24.320      543
   24.350      609
   24.380      601
   24.410      588
   24.440      579
   24.470      603
   24.500      606
   24.530      639
   24.560      698
   24.590      744
   24.620      707
   24.650      571
   24.680      597
   24.710      584
   24.740      596
   24.770      577
   24.800      558
   24.830      571
   24.860      596
   24.890      608
   24.920      560
   24.950      593
   24.980      565
   25.010      572
   25.040      567
   25.070      631
   25.100      670
   25.130      649
   25.160      638
   25.190      635
   25.220      600
   25.250      578
   25.280      630
   25.310      605
   25.340      528
   25.370      613
   25.400      564
   25.430      611
   25.460      608
   25.490      687
   25.520      619
   25.550      603
   25.580      562
   25.610      627
   25.640      586
   25.670      678
   25.700      806
   25.730      981
   25.760     1038
   25.790      856
   25.820      712
   25.850      602
   25.880      602
   25.910      675
   25.940      851
   25.970     1025
   26.000     1064
   26.030     1026
   26.060      738
   26.090      560
   26.120      600
   26.150      570
   26.180      556
   26.210      542
   26.240      571
   26.270      524
   26.300      565
   26.330      598
   26.360      592
   26.390      532
   26.420      608
   26.450      591
   26.480      585
   26.510      556
   26.540      560
   26.570      592
   26.600      570
   26.630      562
   26.660      560
   26.690      560
   26.720      569
   26.750      565
   26.780      552
   26.810      553
   26.840      513
   26.870      544
   26.900      607
   26.930      536
   26.960      538
   26.990      545
   27.020      575
   27.050      583
   27.080      574
   27.110      542
   27.140      554
   27.170      562
   27.200      549
   27.230      556
   27.260      595
   27.290      543
   27.320      558
   27.350      638
   27.380      527
   27.410      547
   27.440      562
   27.470      544
   27.500      581
   27.530      584
   27.560      571
   27.590      533
   27.620      590
   27.650      505
   27.680      534
   27.710      557
   27.740      561
   27.770      534
   27.800      569
   27.830      626
   27.860      655
   27.890      743
   27.920      748
   27.950      664
   27.980      627
   28.010      561
   28.040      582
   28.070      577
   28.100      588
   28.130      686
   28.160      895
   28.190     1027
   28.220     1128
   28.250      858
   28.280      740
   28.310      541
   28.340      562
   28.370      576
   28.400      539
   28.430      600
   28.460      566
   28.490      566
   28.520      535
   28.550      570
   28.580      530
   28.610      542
   28.640      553
   28.670      536
   28.700      560
   28.730      562
   28.760      588
   28.790      606
   28.820      633
   28.850      576
   28.880      606
   28.910      553
   28.940      578
   28.970      570
   29.000      591
   29.030      545
   29.060      609
   29.090      585
   29.120      522
   29.150      552
   29.180      526
   29.210      537
   29.240      553
   29.270      570
   29.300      559
   29.330      510
   29.360      537
   29.390      520
   29.420      599
   29.450      640
   29.480      612
   29.510      639
   29.540      702
   29.570      704
   29.600      680
   29.630      591
   29.660      546
   29.690      541
   29.720      535
   29.750      522
   29.780      536
   29.810      519
   29.840      534
   29.870      527
   29.900      503
   29.930      514
   29.960      487
   29.990      522
   30.020      510
   30.050      506
   30.080      515
   30.110      502
   30.140      512
   30.170      511
   30.200      537
   30.230      535
   30.260      537
   30.290      516
   30.320      529
   30.350      542
   30.380      508
   30.410      551
   30.440      521
   30.470      542
   30.500      498
   30.530      513
   30.560      508
   30.590      536
   30.620      579
   30.650      673
   30.680      700
   30.710      682
   30.740      635
   30.770      527
   30.800      497
   30.830      517
   30.860      495
   30.890      510
   30.920      516
   30.950      584
   30.980      571
   31.010      533
   31.040      537
   31.070      530
   31.100      555
   31.130      531
   31.160      489
   31.190      525
   31.220      480
   31.250      519
   31.280      490
   31.310      510
   31.340      466
   31.370      548
   31.400      467
   31.430      480
   31.460      499
   31.490      515
   31.520      517
   31.550      498
   31.580      499
   31.610      513
   31.640      485
   31.670      478
   31.700      446
   31.730      486
   31.760      507
   31.790      489
   31.820      527
   31.850      507
   31.880      483
   31.910      474
   31.940      501
   31.970      483
   32.000      490
   32.030      484
   32.060      488
   32.090      488
   32.120      494
   32.150      526
   32.180      462
   32.210      474
   32.240      534
   32.270      513
   32.300      602
   32.330      685
   32.360      748
   32.390      771
   32.420      752
   32.450      625
   32.480      540
   32.510      516
   32.540      561
   32.570      613
   32.600      643
   32.630      636
   32.660      606
   32.690      562
   32.720      495
   32.750      502
   32.780      505
   32.810      504
   32.840      488
   32.870      522
   32.900      521
   32.930      475
   32.960      464
   32.990      471
   33.020      486
   33.050      488
   33.080      483
   33.110      481
   33.140      487
   33.170      469
   33.200      481
   33.230      489
   33.260      479
   33.290      471
   33.320      499
   33.350      623
   33.380      638
   33.410      696
   33.440      617
   33.470      537
   33.500      463
   33.530      455
   33.560      482
   33.590      473
   33.620      466
   33.650      492
   33.680      481
   33.710      426
   33.740      489
   33.770      499
   33.800      539
   33.830      574
   33.860      515
   33.890      506
   33.920      465
   33.950      462
   33.980      458
   34.010      476
   34.040      474
   34.070      481
   34.100      561
   34.130      626
   34.160      672
   34.190      590
   34.220      610
   34.250      514
   34.280      487
   34.310      451
   34.340      504
   34.370      600
   34.400      586
   34.430      634
   34.460      581
   34.490      544
   34.520      497
   34.550      475
   34.580      465
   34.610      492
   34.640      460
   34.670      440
   34.700      442
   34.730      457
   34.760      479
   34.790      469
   34.820      453
   34.850      457
   34.880      477
   34.910      450
   34.940      459
   34.970      481
   35.000      480
   35.030      424
   35.060      518
   35.090      535
   35.120      497
   35.150      507
   35.180      483
   35.210      493
   35.240      484
   35.270      451
   35.300      532
   35.330      481
   35.360      517
   35.390      489
   35.420      493
   35.450      457
   35.480      431
   35.510      476
   35.540      473
   35.570      429
   35.600      474
   35.630      460
   35.660      492
   35.690      488
   35.720      525
   35.750      502
   35.780      452
   35.810      437
   35.840      425
   35.870      462
   35.900      415
   35.930      452
   35.960      420
   35.990      442
   36.020      444
   36.050      422
   36.080      473
   36.110      416
   36.140      416
   36.170      448
   36.200      470
   36.230      449
   36.260      431
   36.290      447
   36.320      450
   36.350      439
   36.380      444
   36.410      465
   36.440      449
   36.470      451
   36.500      413
   36.530      433
   36.560      451
   36.590      454
   36.620      458
   36.650      486
   36.680      550
   36.710      606
   36.740      576
   36.770      551
   36.800      489
   36.830      423
   36.860      438
   36.890      415
   36.920      437
   36.950      432
   36.980      439
   37.010      404
   37.040      405
   37.070      438
   37.100      454
   37.130      493
   37.160      443
   37.190      495
   37.220      485
   37.250      458
   37.280      462
   37.310      430
   37.340      418
   37.370      444
   37.400      433
   37.430      431
   37.460      459
   37.490      492
   37.520      526
   37.550      581
   37.580      552
   37.610      516
   37.640      467
   37.670      407
   37.700      388
   37.730      435
   37.760      434
   37.790      415
   37.820      443
   37.850      510
   37.880      527
   37.910      575
   37.940      657
   37.970      641
   38.000      546
   38.030      478
   38.060      441
   38.090      425
   38.120      446
   38.150      471
   38.180      419
   38.210      459
   38.240      467
   38.270      421
   38.300      451
   38.330      470
   38.360      454
   38.390      428
   38.420      477
   38.450      467
   38.480      443
   38.510      441
   38.540      454
   38.570      452
   38.600      419
   38.630      436
   38.660      421
   38.690      466
   38.720      443
   38.750      410
   38.780      417
   38.810      426
   38.840      460
   38.870      448
   38.900      450
   38.930      407
   38.960      422
   38.990      416
   39.020      441
   39.050      472
   39.080      405
   39.110      457
   39.140      419
   39.170      442
   39.200      458
   39.230      446
   39.260      436
   39.290      432
   39.320      439
   39.350      456
   39.380      404
   39.410      418
   39.440      399
   39.470      393
   39.500      436
   39.530      415
   39.560      433
   39.590      425
   39.620      445
   39.650      437
   39.680      457
   39.710      445
   39.740      434
   39.770      377
   39.800      414
   39.830      447
   39.860      431
   39.890      430
   39.920      419
   39.950      436
   39.980      416
   40.010      468
   40.040      479
   40.070      400
   40.100      434
   40.130      451
   40.160      464
   40.190      415
   40.220      451
   40.250      392
   40.280      426
   40.310      439
   40.340      441
   40.370      432
   40.400      432
   40.430      445
   40.460      501
   40.490      540
   40.520      571
   40.550      633
   40.580      607
   40.610      580
   40.640      519
   40.670      452
   40.700      441
   40.730      485
   40.760      447
   40.790      468
   40.820      465
   40.850      448
   40.880      404
   40.910      430
   40.940      453
   40.970      457
   41.000      441
   41.030      427
   41.060      433
   41.090      440
   41.120      425
   41.150      402
   41.180      400
   41.210      418
   41.240      412
   41.270      432
   41.300      446
   41.330      422
   41.360      458
   41.390      389
   41.420      405
   41.450      445
   41.480      382
   41.510      440
   41.540      460
   41.570      485
   41.600      625
   41.630      608
   41.660      677
   41.690      606
   41.720      593
   41.750      559
   41.780      474
   41.810      477
   41.840      463
   41.870      412
   41.900      460
   41.930      523
   41.960      571
   41.990      577
   42.020      580
   42.050      499
   42.080      500
   42.110      409
   42.140      430
   42.170      465
   42.200      512
   42.230      551
   42.260      508
   42.290      464
   42.320      446
   42.350      455
   42.380      454
   42.410      480
   42.440      505
   42.470      524
   42.500      506
   42.530      469
   42.560      490
   42.590      487
   42.620      466
   42.650      440
   42.680      424
   42.710      440
   42.740      410
   42.770      432
   42.800      432
   42.830      432
   42.860      417
   42.890      463
   42.920      418
   42.950      412
   42.980      427
   43.010      399
   43.040      453
   43.070      417
   43.100      459
   43.130      418
   43.160      406
   43.190      447
   43.220      458
   43.250      450
   43.280      519
   43.310      481
   43.340      446
   43.370      518
   43.400      460
   43.430      419
   43.460      402
   43.490      436
   43.520      446
   43.550      463
   43.580      458
   43.610      449
   43.640      413
   43.670      387
   43.700      388
   43.730      412
   43.760      405
   43.790      402
   43.820      411
   43.850      428
   43.880      416
   43.910      424
   43.940      415
   43.970      445
   43.985      446