File: data/PXRD/PXRD_KE-141_Cu-Ka1_capillary-1mm_5s-deg.xyd
    1.500    8.7309
    1.530    8.5308
    1.560    8.9731
    1.590    8.5624
    1.620    8.4360
    1.650    8.3307
    1.680    7.8357
    1.710    7.7304
    1.740    7.5724
    1.770    7.3828
    1.800    7.6777
    1.830    7.0985
    1.860    7.1617
    1.890    6.8246
    1.920    6.9089
    1.950    6.7615
    1.980    6.8352
    2.010    6.6983
    2.040    6.5192
    2.070    6.4560
    2.100    6.5298
    2.130    5.8768
    2.160    6.3086
    2.190    6.0453
    2.220    6.1190
    2.250    5.8241
    2.280    5.9716
    2.310    5.4660
    2.340    5.4344
    2.370    5.7399
    2.400    6.0769
    2.430    5.3186
    2.460    5.7715
    2.490    5.6240
    2.520    5.6345
    2.550    5.4134
    2.580    5.8347
    2.610    5.7083
    2.640    5.4555
    2.670    5.3923
    2.700    5.6556
    2.730    5.3397
    2.760    5.1290
    2.790    5.4871
    2.820    5.4976
    2.850    5.3923
    2.880    5.3712
    2.910    5.3186
    2.940    5.6556
    2.970    5.0869
    3.000    5.3923
    3.030    4.9500
    3.060    5.1501
    3.090    5.2343
    3.120    4.8868
    3.150    5.3818
    3.180    5.1501
    3.210    5.2554
    3.240    5.2975
    3.270    4.8552
    3.300    5.2027
    3.330    4.8973
    3.360    4.8236
    3.390    5.1606
    3.420    5.0448
    3.450    5.0448
    3.480    5.1922
    3.510    5.0237
    3.540    4.8868
    3.570    5.2870
    3.600    4.6024
    3.630    4.7499
    3.660    4.9184
    3.690    4.8973
    3.720    5.2659
    3.750    5.1922
    3.780    5.4239
    3.810    4.9184
    3.840    4.9394
    3.870    5.0764
    3.900    5.3818
    3.930    4.9710
    3.960    4.7604
    3.990    4.9816
    4.020    4.9184
    4.050    4.8447
    4.080    4.6130
    4.110    5.1080
    4.140    4.7920
    4.170    4.7709
    4.200    4.6235
    4.230    5.2449
    4.260    4.8657
    4.290    5.1817
    4.320    4.7604
    4.350    4.6972
    4.380    5.1817
    4.410    5.1501
    4.440    4.8657
    4.470    4.8973
    4.500    4.8657
    4.530    4.4339
    4.560    4.7288
    4.590    5.1290
    4.620    4.9394
    4.650    4.5814
    4.680    4.7604
    4.710    4.8236
    4.740    4.9605
    4.770    5.1817
    4.800    4.9394
    4.830    4.9184
    4.860    5.0764
    4.890    4.7920
    4.920    5.0869
    4.950    4.6867
    4.980    4.9816
    5.010    5.0026
    5.040    4.9394
    5.070    4.7815
    5.100    4.9816
    5.130    5.0026
    5.160    4.5814
    5.190    4.8025
    5.220    4.9394
    5.250    5.0026
    5.280    4.9289
    5.310    4.9289
    5.340    4.6867
    5.370    4.6235
    5.400    4.4760
    5.430    5.0026
    5.460    5.3081
    5.490    5.0342
    5.520    5.6240
    5.550    4.9394
    5.580    4.8657
    5.610    4.9710
    5.640    5.3607
    5.670    4.7815
    5.700    5.1290
    5.730    4.9816
    5.760    4.7709
    5.790    5.2238
    5.820    5.1185
    5.850    5.3818
    5.880    4.6656
    5.910    4.6656
    5.940    5.0026
    5.970    5.1817
    6.000    4.7499
    6.030    4.8552
    6.060    4.6024
    6.090    4.8973
    6.120    4.7288
    6.150    5.2133
    6.180    5.0658
    6.210    5.2027
    6.240    5.1922
    6.270    5.2659
    6.300    5.2975
    6.330    4.9289
    6.360    5.1922
    6.390    5.0237
    6.420    5.2027
    6.450    4.9078
    6.480    5.0553
    6.510    4.8868
    6.540    4.9710
    6.570    5.0869
    6.600    4.9921
    6.630    4.7393
    6.660    5.2449
    6.690    5.1185
    6.720    5.0342
    6.750    5.2975
    6.780    5.0974
    6.810    5.1501
    6.840    5.2659
    6.870    5.1606
    6.900    5.0448
    6.930    4.9710
    6.960    5.0974
    6.990    4.8973
    7.020    5.1395
    7.050    5.2133
    7.080    5.0342
    7.110    5.3607
    7.140    5.1606
    7.170    5.1395
    7.200    5.1711
    7.230    5.1395
    7.260    5.2133
    7.290    5.4344
    7.320    5.3607
    7.350    5.2765
    7.380    5.3818
    7.410    5.3291
    7.440    5.0132
    7.470    5.3923
    7.500    5.1185
    7.530    5.4028
    7.560    5.1817
    7.590    5.1711
    7.620    5.2449
    7.650    5.1185
    7.680    5.5082
    7.710    5.5187
    7.740    5.4766
    7.770    5.0026
    7.800    5.3186
    7.830    5.1817
    7.860    5.3818
    7.890    5.3712
    7.920    5.3081
    7.950    5.0448
    7.980    5.1290
    8.010    5.0342
    8.040    5.2449
    8.070    5.3397
    8.100    5.2027
    8.130    5.0448
    8.160    5.5924
    8.190    5.1817
    8.220    5.1817
    8.250    5.1395
    8.280    5.5924
    8.310    5.3502
    8.340    4.8447
    8.370    5.0342
    8.400    5.4028
    8.430    5.0553
    8.460    4.9816
    8.490    5.2554
    8.520    5.4871
    8.550    5.2659
    8.580    5.4344
    8.610    5.4660
    8.640    5.4766
    8.670    5.2870
    8.700    5.2449
    8.730    5.5292
    8.760    5.5398
    8.790    5.2765
    8.820    5.5292
    8.850    5.0974
    8.880    5.0658
    8.910    5.2765
    8.940    5.4344
    8.970    5.5292
    9.000    5.5187
    9.030    5.4450
    9.060    5.4976
    9.090    5.1922
    9.120    5.7609
    9.150    5.5714
    9.180    5.1817
    9.210    5.0026
    9.240    5.1185
    9.270    5.3818
    9.300    5.5714
    9.330    5.0974
    9.360    5.3923
    9.390    4.9816
    9.420    5.1817
    9.450    5.2870
    9.480    5.2449
    9.510    5.3818
    9.540    4.9500
    9.570    5.1501
    9.600    5.1817
    9.630    5.0342
    9.660    5.2765
    9.690    5.0869
    9.720    5.2975
    9.750    5.2765
    9.780    5.3818
    9.810    5.3081
    9.840    5.1185
    9.870    5.3186
    9.900    4.9184
    9.930    5.2449
    9.960    5.4028
    9.990    4.9078
   10.020    5.3818
   10.050    5.4450
   10.080    5.2975
   10.110    5.2238
   10.140    5.0026
   10.170    5.3607
   10.200    5.1395
   10.230    5.3291
   10.260    5.0658
   10.290    4.9184
   10.320    5.1290
   10.350    5.2133
   10.380    5.3923
   10.410    5.0553
   10.440    5.4450
   10.470    5.1817
   10.500    5.0448
   10.530    5.3818
   10.560    5.1817
   10.590    5.4134
   10.620    5.0974
   10.650    5.4660
   10.680    5.4660
   10.710    5.1395
   10.740    5.0342
   10.770    5.1817
   10.800    5.4450
   10.830    5.0658
   10.860    5.2238
   10.890    5.1185
   10.920    5.0658
   10.950    5.0553
   10.980    4.9500
   11.010    5.0974
   11.040    5.0448
   11.070    5.0974
   11.100    5.0974
   11.130    4.9816
   11.160    5.0658
   11.190    5.2027
   11.220    5.2870
   11.250    5.1185
   11.280    5.1290
   11.310    4.9184
   11.340    5.3397
   11.370    5.1501
   11.400    5.0132
   11.430    4.9605
   11.460    4.5603
   11.490    4.8657
   11.520    5.0974
   11.550    5.1817
   11.580    5.0869
   11.610    4.9289
   11.640    5.0342
   11.670    5.1395
   11.700    5.0764
   11.730    4.9394
   11.760    4.9816
   11.790    4.7920
   11.820    4.7815
   11.850    4.7709
   11.880    4.9500
   11.910    5.2027
   11.940    5.0658
   11.970    5.2343
   12.000    4.9500
   12.030    5.1080
   12.060    4.8025
   12.090    4.8763
   12.120    4.7183
   12.150    4.7604
   12.180    4.9710
   12.210    5.1185
   12.240    4.7709
   12.270    4.8973
   12.300    4.9394
   12.330    4.6551
   12.360    4.7499
   12.390    5.1080
   12.420    4.9394
   12.450    4.8973
   12.480    4.9078
   12.510    4.8868
   12.540    4.8447
   12.570    5.0553
   12.600    5.0237
   12.630    5.1080
   12.660    4.9710
   12.690    4.9184
   12.720    5.1711
   12.750    4.7709
   12.780    5.1395
   12.810    4.9184
   12.840    4.7920
   12.870    4.9921
   12.900    4.9078
   12.930    4.9921
   12.960    4.8236
   12.990    4.7709
   13.020    5.0448
   13.050    4.9710
   13.080    5.0237
   13.110    5.0658
   13.140    5.2449
   13.170    4.6551
   13.200    4.9605
   13.230    4.7920
   13.260    4.7288
   13.290    4.8868
   13.320    5.0026
   13.350    5.0553
   13.380    4.9289
   13.410    4.9289
   13.440    4.7499
   13.470    4.8341
   13.500    4.8236
   13.530    5.0237
   13.560    5.0448
   13.590    4.6340
   13.620    5.0658
   13.650    4.8657
   13.680    4.8552
   13.710    5.0553
   13.740    5.0132
   13.770    5.0764
   13.800    4.5708
   13.830    4.4550
   13.860    5.0974
   13.890    4.8657
   13.920    4.7815
   13.950    4.6235
   13.980    4.8236
   14.010    4.8552
   14.040    4.9605
   14.070    5.1290
   14.100    4.5919
   14.130    4.4234
   14.160    4.9289
   14.190    4.9605
   14.220    5.0237
   14.250    5.2870
   14.280    4.9500
   14.310    4.9500
   14.340    4.6761
   14.370    5.0448
   14.400    4.6972
   14.430    4.8131
   14.460    4.6235
   14.490    4.8763
   14.520    4.7815
   14.550    4.8236
   14.580    4.4128
   14.610    4.5708
   14.640    4.6340
   14.670    5.0658
   14.700    4.8973
   14.730    4.7815
   14.760    4.9394
   14.790    4.8657
   14.820    5.1606
   14.850    5.1501
   14.880    5.0869
   14.910    4.8131
   14.940    5.0869
   14.970    4.8552
   15.000    4.8025
   15.030    4.7183
   15.060    4.9078
   15.090    4.8341
   15.120    4.9394
   15.150    4.7077
   15.180    4.9710
   15.210    4.7920
   15.240    4.7393
   15.270    4.9078
   15.300    4.6972
   15.330    5.0448
   15.360    4.8341
   15.390    4.8025
   15.420    4.9500
   15.450    5.0132
   15.480    5.0974
   15.510    5.0237
   15.540    4.7077
   15.570    4.7499
   15.600    5.1395
   15.630    4.7499
   15.660    5.2554
   15.690    5.0132
   15.720    4.8025
   15.750    4.9605
   15.780    4.8236
   15.810    4.6761
   15.840    4.6445
   15.870    5.0132
   15.900    5.2133
   15.930    5.0342
   15.960    4.9078
   15.990    5.2238
   16.020    4.8657
   16.050    4.6867
   16.080    5.0764
   16.110    5.1290
   16.140    5.1711
   16.170    4.6340
   16.200    4.8973
   16.230    5.5924
   16.260    5.0974
   16.290    4.8236
   16.320    5.0764
   16.350    4.8552
   16.380    4.8552
   16.410    4.9816
   16.440    4.8763
   16.470    4.8341
   16.500    4.8868
   16.530    5.1080
   16.560    4.9605
   16.590    5.1290
   16.620    4.8657
   16.650    5.0448
   16.680    4.8236
   16.710    4.8131
   16.740    5.0764
   16.770    5.0026
   16.800    4.9078
   16.830    5.0342
   16.860    4.9710
   16.890    4.8447
   16.920    5.1185
   16.950    4.6130
   16.980    5.1080
   17.010    4.7604
   17.040    5.2765
   17.070    5.0553
   17.100    5.0764
   17.130    4.6972
   17.160    5.0026
   17.190    5.0869
   17.220    5.1080
   17.250    5.1080
   17.280    4.9078
   17.310    5.4660
   17.340    4.9921
   17.370    5.3081
   17.400    5.0132
   17.430    5.0658
   17.460    5.0869
   17.490    5.1080
   17.520    4.6972
   17.550    4.7077
   17.580    5.0132
   17.610    5.0553
   17.640    4.8868
   17.670    4.7183
   17.700    4.9605
   17.730    4.9289
   17.760    5.2133
   17.790    4.7183
   17.820    5.0026
   17.850    5.2975
   17.880    4.8973
   17.910    4.9605
   17.940    5.1711
   17.970    4.8341
   18.000    5.2449
   18.030    5.1922
   18.060    4.9605
   18.090    4.6340
   18.120    5.0132
   18.150    4.8763
   18.180    5.0658
   18.210    4.8973
   18.240    5.1395
   18.270    4.7288
   18.300    5.1817
   18.330    4.8341
   18.360    5.0448
   18.390    5.0658
   18.420    4.8763
   18.450    5.0553
   18.480    5.1817
   18.510    4.8657
   18.540    5.2238
   18.570    4.9500
   18.600    5.1395
   18.630    5.2659
   18.660    5.0448
   18.690    4.5814
   18.720    5.0026
   18.750    5.1080
   18.780    5.0342
   18.810    4.8973
   18.840    4.8657
   18.870    5.3923
   18.900    5.3607
   18.930    5.2975
   18.960    5.8241
   18.990    5.3397
   19.020    5.5082
   19.050    5.3923
   19.080    5.3607
   19.110    5.2238
   19.140    4.8763
   19.170    4.7815
   19.200    5.0974
   19.230    4.7604
   19.260    5.2343
   19.290    4.9078
   19.320    5.0974
   19.350    4.9710
   19.380    4.7920
   19.410    4.9500
   19.440    4.7920
   19.470    4.9184
   19.500    5.4871
   19.530    4.7288
   19.560    4.8973
   19.590    4.8341
   19.620    5.1817
   19.650    4.8868
   19.680    4.7183
   19.710    4.9921
   19.740    5.0869
   19.770    5.1080
   19.800    4.8657
   19.830    5.2343
   19.860    5.1501
   19.890    4.9289
   19.920    5.0132
   19.950    4.6972
   19.980    5.1501
   20.010    4.8341
   20.040    4.7709
   20.070    5.0658
   20.100    5.0974
   20.130    4.9289
   20.160    4.9816
   20.190    5.3502
   20.220    4.9289
   20.250    5.0448
   20.280    5.3291
   20.310    5.3712
   20.340    4.9184
   20.370    4.9289
   20.400    5.1185
   20.430    4.7709
   20.460    5.2659
   20.490    4.9921
   20.520    5.1290
   20.550    4.9605
   20.580    5.0026
   20.610    5.1817
   20.640    5.6029
   20.670    5.0764
   20.700    4.8447
   20.730    4.9816
   20.760    5.2554
   20.790    4.9394
   20.820    5.0342
   20.850    5.2133
   20.880    4.8868
   20.910    5.0342
   20.940    4.9816
   20.970    4.9605
   21.000    4.9078
   21.030    4.8025
   21.060    5.0764
   21.090    5.0237
   21.120    4.7709
   21.150    5.0974
   21.180    5.0342
   21.210    5.2238
   21.240    4.9816
   21.270    5.2027
   21.300    4.8763
   21.330    5.1080
   21.360    4.6024
   21.390    4.6867
   21.420    5.1395
   21.450    4.9394
   21.480    5.1711
   21.510    5.2238
   21.540    4.7815
   21.570    5.0342
   21.600    5.1922
   21.630    4.8763
   21.660    4.9816
   21.690    5.0132
   21.720    4.8868
   21.750    4.6972
   21.780    5.0869
   21.810    5.1395
   21.840    4.8657
   21.870    5.2765
   21.900    5.2765
   21.930    5.1711
   21.960    5.0764
   21.990    4.8973
   22.020    5.0658
   22.050    4.7288
   22.080    4.9500
   22.110    5.2449
   22.140    5.2133
   22.170    4.9710
   22.200    4.7815
   22.230    4.9394
   22.260    4.8025
   22.290    5.0553
   22.320    4.8868
   22.350    4.9605
   22.380    5.2659
   22.410    4.4971
   22.440    5.1080
   22.470    4.9816
   22.500    4.9816
   22.530    5.2343
   22.560    5.1922
   22.590    5.2449
   22.620    5.0764
   22.650    5.0237
   22.680    4.9605
   22.710    5.1501
   22.740    4.8552
   22.770    5.1185
   22.800    5.0237
   22.830    4.9605
   22.860    4.9710
   22.890    5.0764
   22.920    5.0132
   22.950    4.8973
   22.980    4.7499
   23.010    5.0448
   23.040    5.0448
   23.070    4.7499
   23.100    5.0764
   23.130    5.0553
   23.160    5.3081
   23.190    5.0869
   23.220    4.8131
   23.250    4.9289
   23.280    4.9184
   23.310    4.8657
   23.340    4.6867
   23.370    5.1606
   23.400    4.9289
   23.430    4.9816
   23.460    4.6024
   23.490    4.9710
   23.520    4.8131
   23.550    4.7077
   23.580    4.7604
   23.610    5.0448
   23.640    4.4444
   23.670    4.7499
   23.700    4.8552
   23.730    5.2870
   23.760    4.8131
   23.790    4.0758
   23.820    4.8447
   23.850    4.5814
   23.880    5.1080
   23.910    4.5287
   23.940    4.8552
   23.970    4.5708
   24.000    4.5708
   24.030    5.0448
   24.060    5.1501
   24.090    4.7077
   24.120    4.7709
   24.150    4.6761
   24.180    4.6130
   24.210    4.9605
   24.240    4.8131
   24.270    4.9289
   24.300    4.7815
   24.330    4.8552
   24.360    5.2554
   24.390    4.7815
   24.420    4.6656
   24.450    4.6340
   24.480    4.9078
   24.510    4.4444
   24.540    4.7288
   24.570    4.8236
   24.600    4.4655
   24.630    4.7815
   24.660    4.6761
   24.690    4.6867
   24.720    4.7393
   24.750    4.8131
   24.780    5.2449
   24.810    4.7077
   24.840    4.4655
   24.870    4.7604
   24.900    4.7709
   24.930    4.8552
   24.960    4.9078
   24.990    4.7815
   25.020    4.8131
   25.050    4.6867
   25.080    4.6656
   25.110    4.4550
   25.140    4.5814
   25.170    5.3397
   25.200    4.6130
   25.230    4.5919
   25.260    4.4971
   25.290    4.7499
   25.320    4.2549
   25.350    4.8868
   25.380    4.8236
   25.410    4.8236
   25.440    4.5287
   25.470    4.6867
   25.500    4.7920
   25.530    4.4128
   25.560    4.6551
   25.590    4.4550
   25.620    4.4128
   25.650    4.7815
   25.680    4.6867
   25.710    4.3813
   25.740    4.3602
   25.770    4.6024
   25.800    4.5182
   25.830    4.8131
   25.860    4.2865
   25.890    4.8025
   25.920    4.2127
   25.950    4.2970
   25.980    4.5182
   26.010    4.5392
   26.040    4.6024
   26.070    4.5392
   26.100    4.2549
   26.130    4.6867
   26.160    4.5814
   26.190    4.5076
   26.220    4.3497
   26.250    4.5814
   26.280    4.4339
   26.310    4.4550
   26.340    4.7393
   26.370    4.1917
   26.400    4.3181
   26.430    4.3497
   26.460    4.4866
   26.490    4.4444
   26.520    4.4760
   26.550    4.2022
   26.580    4.3391
   26.610    4.3707
   26.640    4.4866
   26.670    4.1496
   26.700    4.4023
   26.730    4.5919
   26.760    4.0864
   26.790    4.6024
   26.820    4.3391
   26.850    4.4339
   26.880    4.3602
   26.910    4.3075
   26.940    4.2549
   26.970    4.6656
   27.000    4.3286
   27.030    4.2654
   27.060    4.4128
   27.090    4.3813
   27.120    4.3813
   27.150    4.2127
   27.180    4.4760
   27.210    4.3286
   27.240    4.2865
   27.270    4.4550
   27.300    4.1601
   27.330    4.4128
   27.360    4.3391
   27.390    4.0969
   27.420    3.9284
   27.450    4.1917
   27.480    4.3075
   27.510    4.0758
   27.540    4.4234
   27.570    4.2022
   27.600    4.1917
   27.630    4.4234
   27.660    4.4023
   27.690    4.1496
   27.720    3.8652
   27.750    4.5182
   27.780    4.2022
   27.810    4.1390
   27.840    4.2865
   27.870    4.0969
   27.900    4.4128
   27.930    4.4760
   27.960    4.1811
   27.990    4.6972
   28.020    4.2865
   28.050    4.2970
   28.080    4.2549
   28.110    4.0653
   28.140    4.4339
   28.170    4.1180
   28.200    4.1706
   28.230    4.3918
   28.260    4.4023
   28.290    3.9284
   28.320    4.2233
   28.350    3.9179
   28.380    3.9916
   28.410    4.1285
   28.440    4.1496
   28.470    4.3707
   28.500    4.2127
   28.530    3.9073
   28.560    4.0126
   28.590    4.1285
   28.620    3.9916
   28.650    4.0864
   28.680    4.2549
   28.710    4.2654
   28.740    4.1074
   28.770    4.0126
   28.800    4.4128
   28.830    4.1496
   28.860    4.2127
   28.890    4.2654
   28.920    4.4971
   28.950    4.4550
   28.980    4.2022
   29.010    4.4023
   29.040    4.3813
   29.070    4.3181
   29.100    4.0442
   29.130    3.9600
   29.160    4.0126
   29.190    3.7388
   29.220    3.7915
   29.250    4.0653
   29.280    3.9389
   29.310    3.9810
   29.340    4.0758
   29.370    4.1496
   29.400    4.1496
   29.430    4.0548
   29.460    4.0232
   29.490    4.0758
   29.520    4.1074
   29.550    3.9600
   29.580    3.8652
   29.610    4.1601
   29.640    3.6862
   29.670    3.9705
   29.700    4.0021
   29.730    3.6862
   29.760    3.9600
   29.790    3.9494
   29.820    4.0758
   29.850    3.8757
   29.880    4.2654
   29.910    3.7704
   29.940    3.9284
   29.970    3.9073
   30.000    3.9179
   30.030    3.9389
   30.060    4.1601
   30.090    3.8547
   30.120    3.9284
   30.150    4.0758
   30.180    4.2759
   30.210    3.8336
   30.240    4.0232
   30.270    3.8863
   30.300    3.9389
   30.330    4.4550
   30.360    3.8336
   30.390    4.0021
   30.420    3.9073
   30.450    3.6440
   30.480    3.8968
   30.510    3.9810
   30.540    3.7915
   30.570    3.9705
   30.600    3.9916
   30.630    4.0232
   30.660    3.7283
   30.690    3.8757
   30.720    3.4755
   30.750    4.0442
   30.780    4.2233
   30.810    3.9810
   30.840    3.9389
   30.870    3.9705
   30.900    3.7599
   30.930    3.9179
   30.960    4.0232
   30.990    3.6967
   31.020    4.2233
   31.050    4.0548
   31.080    4.2443
   31.110    3.6335
   31.140    3.6335
   31.170    3.7704
   31.200    3.7283
   31.230    3.2333
   31.260    3.5176
   31.290    3.3175
   31.320    3.6756
   31.350    3.9284
   31.380    3.9705
   31.410    3.7704
   31.440    3.5914
   31.470    3.7388
   31.500    3.6651
   31.530    3.7599
   31.560    3.5914
   31.590    3.6651
   31.620    3.6967
   31.650    3.7704
   31.680    3.7704
   31.710    3.6651
   31.740    4.0548
   31.770    4.1601
   31.800    4.0232
   31.830    3.7915
   31.860    3.8652
   31.890    4.2233
   31.920    4.0337
   31.950    3.5598
   31.980    3.9810
   32.010    4.1285
   32.040    4.3286
   32.070    4.3918
   32.100    4.6340
   32.130    4.6024
   32.160    4.2127
   32.190    4.0442
   32.220    3.3491
   32.250    3.6546
   32.280    3.5914
   32.310    3.4123
   32.340    3.7915
   32.370    4.0232
   32.400    3.5598
   32.430    3.8863
   32.460    3.5598
   32.490    3.7177
   32.520    3.4650
   32.550    3.7599
   32.580    3.5387
   32.610    3.5703
   32.640    3.4123
   32.670    3.4860
   32.700    3.6335
   32.730    3.4123
   32.760    3.8652
   32.790    3.7704
   32.820    3.8020
   32.850    3.4229
   32.880    3.6651
   32.910    3.3386
   32.940    3.7072
   32.970    3.4229
   33.000    3.6967
   33.030    3.5808
   33.060    3.5598
   33.090    3.3491
   33.120    3.4229
   33.150    3.6862
   33.180    3.4123
   33.210    3.5808
   33.240    3.8547
   33.270    3.4544
   33.300    3.4439
   33.330    3.2965
   33.360    3.1806
   33.390    3.3175
   33.420    3.4755
   33.450    3.7704
   33.480    3.8231
   33.510    3.7809
   33.540    3.4123
   33.570    3.2754
   33.600    3.4650
   33.630    3.4123
   33.660    3.6124
   33.690    3.2333
   33.720    3.4966
   33.750    4.0021
   33.780    3.8547
   33.810    3.7283
   33.840    4.1917
   33.870    3.6546
   33.900    3.7283
   33.930    3.6335
   33.960    3.6756
   33.990    3.5598
   34.020    3.3386
   34.050    3.1174
   34.080    3.1385
   34.110    3.4018
   34.140    3.3913
   34.170    3.5598
   34.200    3.5808
   34.230    3.2754
   34.260    3.2754
   34.290    3.4018
   34.320    3.4123
   34.350    3.1596
   34.380    3.2122
   34.410    3.6230
   34.440    3.0964
   34.470    3.4229
   34.500    3.5071
   34.530    3.0648
   34.560    3.5071
   34.590    3.4123
   34.620    3.3386
   34.650    3.5282
   34.680    3.5387
   34.710    3.0753
   34.740    3.4966
   34.770    3.4229
   34.800    3.3386
   34.830    3.1280
   34.860    3.2543
   34.890    3.1806
   34.920    3.2649
   34.950    3.2859
   34.980    3.0121
   35.010    3.3281
   35.040    3.2859
   35.070    3.2649
   35.100    3.2859
   35.130    3.3281
   35.160    3.1596
   35.190    3.3491
   35.220    3.4439
   35.250    3.0332
   35.280    3.3702
   35.310    3.3913
   35.340    3.5282
   35.370    3.2017
   35.400    3.2333
   35.430    3.2017
   35.460    3.3491
   35.490    3.0437
   35.520    3.3175
   35.550    2.9700
   35.580    3.2438
   35.610    3.1912
   35.640    3.1912
   35.670    3.5808
   35.700    3.2333
   35.730    2.9700
   35.760    3.1912
   35.790    3.3386
   35.820    3.2543
   35.850    3.2122
   35.880    3.0858
   35.910    3.0858
   35.940    3.4018
   35.970    3.2649
   36.000    3.1701
   36.030    3.0437
   36.060    3.1806
   36.090    3.0858
   36.120    3.1912
   36.150    3.1701
   36.180    3.3070
   36.210    3.1174
   36.240    3.1385
   36.270    3.2017
   36.300    3.1069
   36.330    3.1701
   36.360    3.2333
   36.390    3.2543
   36.420    3.3175
   36.450    3.5071
   36.480    3.0858
   36.510    2.8436
   36.540    2.8963
   36.570    3.1280
   36.600    3.1174
   36.630    3.2017
   36.660    3.0753
   36.690    3.0437
   36.720    3.0648
   36.750    3.3175
   36.780    3.0964
   36.810    3.2965
   36.840    2.9700
   36.870    3.2543
   36.900    3.0226
   36.930    3.0542
   36.960    3.0437
   36.990    2.9068
   37.020    3.1912
   37.050    2.7909
   37.080    2.9700
   37.110    2.8225
   37.140    2.8541
   37.170    3.0332
   37.200    3.1596
   37.230    3.0121
   37.260    3.0753
   37.290    3.1490
   37.320    2.8752
   37.350    2.9805
   37.380    3.0016
   37.410    2.9068
   37.440    3.0226
   37.470    2.8331
   37.500    3.1174
   37.530    2.9384
   37.560    3.1701
   37.590    3.0226
   37.620    3.1174
   37.650    2.8752
   37.680    3.0964
   37.710    3.1596
   37.740    3.0648
   37.770    3.2333
   37.800    3.2017
   37.830    3.1806
   37.860    2.8963
   37.890    2.8857
   37.920    3.1174
   37.950    2.7909
   37.980    2.9173
   38.010    3.2017
   38.040    2.9595
   38.070    2.9910
   38.100    2.9805
   38.130    2.8225
   38.160    2.9910
   38.190    2.8331
   38.220    3.0648
   38.250    2.9489
   38.280    2.8120
   38.310    2.9279
   38.340    2.9489
   38.370    2.9068
   38.400    2.8015
   38.430    3.0964
   38.460    3.0016
   38.490    3.0648
   38.520    2.7909
   38.550    3.3281
   38.580    3.1385
   38.610    2.9173
   38.640    2.8647
   38.670    3.3386
   38.700    3.3070
   38.730    3.1596
   38.760    2.7909
   38.790    2.8647
   38.820    2.8541
   38.850    2.7067
   38.880    2.9489
   38.910    2.8752
   38.940    3.0332
   38.970    3.2017
   39.000    2.5698
   39.030    2.9595
   39.060    2.9595
   39.090    3.0121
   39.120    2.9489
   39.150    2.7909
   39.180    3.0753
   39.210    3.0332
   39.240    2.9068
   39.270    3.0121
   39.300    2.7593
   39.330    3.1069
   39.360    2.8647
   39.390    2.9910
   39.420    3.0332
   39.450    2.6330
   39.480    2.8541
   39.510    2.8963
   39.540    2.7804
   39.570    2.7804
   39.600    2.8015
   39.630    2.8331
   39.660    2.7593
   39.690    2.9068
   39.720    2.7699
   39.750    2.9700
   39.780    3.0332
   39.810    3.2122
   39.840    3.0016
   39.870    2.8963
   39.900    2.9068
   39.930    2.8331
   39.960    2.6540
   39.990    2.8331