File: data/PXRD/PXRD_KE-208_Co-Ka1_film-3mm_5s-deg.xyd
    1.500    7.4585
    1.530    7.1803
    1.560    7.5013
    1.590    6.7202
    1.620    6.7202
    1.650    6.3991
    1.680    5.9069
    1.710    5.3826
    1.740    5.3184
    1.770    5.3612
    1.800    4.9545
    1.830    4.8368
    1.860    4.9010
    1.890    4.8475
    1.920    4.1520
    1.950    4.0342
    1.980    4.0984
    2.010    3.9165
    2.040    3.7132
    2.070    3.9272
    2.100    3.7667
    2.130    3.4350
    2.160    3.3815
    2.190    3.3173
    2.220    3.3708
    2.250    3.1247
    2.280    3.2959
    2.310    2.8999
    2.340    2.8357
    2.370    2.9213
    2.400    2.8143
    2.430    2.9642
    2.460    2.8892
    2.490    2.8785
    2.520    2.6538
    2.550    2.5789
    2.580    2.6110
    2.610    2.5361
    2.640    2.4505
    2.670    2.6431
    2.700    2.3863
    2.730    2.5682
    2.760    2.1723
    2.790    2.2258
    2.820    2.2579
    2.850    2.4612
    2.880    2.0225
    2.910    2.0118
    2.940    2.2365
    2.970    2.0439
    3.000    1.9797
    3.030    1.8192
    3.060    2.1616
    3.090    1.9369
    3.120    1.8620
    3.150    2.1616
    3.180    1.9583
    3.210    1.9155
    3.240    1.9155
    3.270    1.7549
    3.300    2.0332
    3.330    1.7549
    3.360    1.9690
    3.390    1.8620
    3.420    1.9369
    3.450    1.8727
    3.480    1.7121
    3.510    1.7549
    3.540    1.7228
    3.570    2.0118
    3.600    1.6586
    3.630    1.5837
    3.660    1.8834
    3.690    1.6907
    3.720    1.6158
    3.750    1.8834
    3.780    1.8192
    3.810    1.9048
    3.840    1.7764
    3.870    1.7014
    3.900    1.8727
    3.930    1.9262
    3.960    1.6372
    3.990    1.8085
    4.020    1.7871
    4.050    1.6479
    4.080    1.6907
    4.110    1.9476
    4.140    1.8513
    4.170    1.7764
    4.200    1.7764
    4.230    1.8406
    4.260    1.9262
    4.290    1.7228
    4.320    1.8620
    4.350    1.7442
    4.380    1.7228
    4.410    1.8192
    4.440    1.7549
    4.470    1.6479
    4.500    1.4981
    4.530    1.6586
    4.560    1.8406
    4.590    1.7442
    4.620    1.7764
    4.650    1.6693
    4.680    1.5730
    4.710    1.5195
    4.740    1.8299
    4.770    1.7657
    4.800    1.7228
    4.830    1.7657
    4.860    1.7764
    4.890    1.5516
    4.920    1.7121
    4.950    1.6479
    4.980    1.8406
    5.010    1.7442
    5.040    1.5944
    5.070    1.5944
    5.100    1.7014
    5.130    1.7871
    5.160    1.7014
    5.190    1.7121
    5.220    1.5837
    5.250    1.6158
    5.280    1.7014
    5.310    1.7121
    5.340    1.9583
    5.370    1.7335
    5.400    1.5730
    5.430    1.7335
    5.460    1.5302
    5.490    1.6372
    5.520    1.8085
    5.550    1.7549
    5.580    1.7121
    5.610    1.7549
    5.640    1.7121
    5.670    1.4553
    5.700    1.7442
    5.730    1.9048
    5.760    1.8085
    5.790    1.7549
    5.820    1.7657
    5.850    1.8299
    5.880    1.7871
    5.910    1.6265
    5.940    1.7442
    5.970    1.7764
    6.000    1.8192
    6.030    1.7549
    6.060    2.2793
    6.090    2.0332
    6.120    1.8941
    6.150    1.8727
    6.180    2.1295
    6.210    1.9690
    6.240    2.3007
    6.270    1.8513
    6.300    2.2365
    6.330    2.2151
    6.360    2.0867
    6.390    2.3649
    6.420    2.1295
    6.450    2.2579
    6.480    2.1937
    6.510    2.1937
    6.540    2.1616
    6.570    2.1188
    6.600    1.9476
    6.630    2.1509
    6.660    2.1509
    6.690    2.0439
    6.720    2.0332
    6.750    2.2151
    6.780    1.7978
    6.810    1.8085
    6.840    1.8192
    6.870    1.6800
    6.900    1.9690
    6.930    1.6800
    6.960    1.5730
    6.990    1.6586
    7.020    1.5409
    7.050    1.6800
    7.080    1.6907
    7.110    1.5302
    7.140    1.6265
    7.170    1.5302
    7.200    1.7014
    7.230    1.5623
    7.260    1.5302
    7.290    1.5195
    7.320    1.5730
    7.350    1.5195
    7.380    1.4339
    7.410    1.6372
    7.440    1.5837
    7.470    1.4446
    7.500    1.4767
    7.530    1.4339
    7.560    1.3483
    7.590    1.5302
    7.620    1.4232
    7.650    1.3911
    7.680    1.4125
    7.710    1.5516
    7.740    1.4339
    7.770    1.3697
    7.800    1.4446
    7.830    1.4446
    7.860    1.3162
    7.890    1.4874
    7.920    1.4553
    7.950    1.5623
    7.980    1.4125
    8.010    1.2948
    8.040    1.3697
    8.070    1.2199
    8.100    1.3055
    8.130    1.3055
    8.160    1.2413
    8.190    1.3804
    8.220    1.3376
    8.250    1.3590
    8.280    1.1236
    8.310    1.4232
    8.340    1.3483
    8.370    1.5516
    8.400    1.3162
    8.430    1.2948
    8.460    1.4232
    8.490    1.2841
    8.520    1.2841
    8.550    1.1236
    8.580    1.4446
    8.610    1.3804
    8.640    1.3376
    8.670    1.2413
    8.700    1.3055
    8.730    1.1557
    8.760    1.1450
    8.790    1.2841
    8.820    1.1878
    8.850    1.0701
    8.880    1.4446
    8.910    1.3590
    8.940    1.2199
    8.970    1.2092
    9.000    1.1771
    9.030    1.2520
    9.060    1.1985
    9.090    1.0273
    9.120    1.3269
    9.150    1.1878
    9.180    1.2199
    9.210    1.0701
    9.240    0.9845
    9.270    1.1236
    9.300    1.0166
    9.330    1.0808
    9.360    1.2092
    9.390    1.0380
    9.420    1.1236
    9.450    0.9096
    9.480    1.0487
    9.510    1.2413
    9.540    1.2306
    9.570    0.9738
    9.600    1.0808
    9.630    1.1343
    9.660    1.0380
    9.690    1.0273
    9.720    1.0915
    9.750    1.1878
    9.780    0.9096
    9.810    1.0487
    9.840    1.0808
    9.870    1.0594
    9.900    0.9096
    9.930    1.1664
    9.960    0.9524
    9.990    0.8989
   10.020    1.0059
   10.050    1.1129
   10.080    1.1450
   10.110    0.9738
   10.140    0.8989
   10.170    0.8882
   10.200    0.8775
   10.230    1.0380
   10.260    1.1450
   10.290    0.9845
   10.320    1.0808
   10.350    0.9524
   10.380    0.9524
   10.410    0.9096
   10.440    0.9524
   10.470    1.0273
   10.500    0.8561
   10.530    0.8561
   10.560    0.8454
   10.590    1.0059
   10.620    0.9417
   10.650    0.8133
   10.680    0.9524
   10.710    1.0380
   10.740    1.0594
   10.770    1.0059
   10.800    1.0166
   10.830    0.9738
   10.860    1.0380
   10.890    1.0594
   10.920    0.8668
   10.950    0.8668
   10.980    1.0808
   11.010    0.9952
   11.040    0.8668
   11.070    0.8882
   11.100    0.9845
   11.130    0.9738
   11.160    0.9417
   11.190    0.8561
   11.220    0.8775
   11.250    0.9952
   11.280    1.1343
   11.310    0.9738
   11.340    0.9524
   11.370    0.9631
   11.400    1.0594
   11.430    1.0273
   11.460    0.9096
   11.490    1.0059
   11.520    0.9952
   11.550    0.9417
   11.580    1.0166
   11.610    0.9310
   11.640    0.9203
   11.670    0.8561
   11.700    0.8882
   11.730    0.9096
   11.760    0.8454
   11.790    0.9310
   11.820    0.8668
   11.850    0.9417
   11.880    0.9096
   11.910    0.8240
   11.940    0.9096
   11.970    0.8240
   12.000    0.9203
   12.030    1.0059
   12.060    0.8347
   12.090    0.8775
   12.120    0.9952
   12.150    0.9310
   12.180    1.1022
   12.210    0.8454
   12.240    1.0487
   12.270    0.9417
   12.300    0.7919
   12.330    0.9631
   12.360    0.8882
   12.390    0.9845
   12.420    0.9952
   12.450    0.8240
   12.480    0.9631
   12.510    0.8240
   12.540    1.0273
   12.570    0.9096
   12.600    1.0594
   12.630    1.0808
   12.660    0.9738
   12.690    1.0059
   12.720    0.9631
   12.750    0.9952
   12.780    0.9524
   12.810    0.9952
   12.840    0.9310
   12.870    1.1557
   12.900    0.9845
   12.930    1.0487
   12.960    1.0380
   12.990    1.0273
   13.020    0.9631
   13.050    0.9952
   13.080    0.8775
   13.110    0.7919
   13.140    0.9203
   13.170    1.0059
   13.200    0.9310
   13.230    1.1129
   13.260    0.7705
   13.290    0.9310
   13.320    0.9203
   13.350    1.1664
   13.380    0.8882
   13.410    0.8454
   13.440    0.7705
   13.470    0.7491
   13.500    1.1129
   13.530    1.0487
   13.560    0.8240
   13.590    0.8347
   13.620    0.9845
   13.650    0.9952
   13.680    0.8561
   13.710    0.8882
   13.740    0.9952
   13.770    0.9631
   13.800    0.9845
   13.830    0.9952
   13.860    0.9952
   13.890    1.0701
   13.920    0.9631
   13.950    1.0487
   13.980    0.7919
   14.010    0.9845
   14.040    0.9524
   14.070    1.0059
   14.100    0.9417
   14.130    0.9417
   14.160    0.8989
   14.190    0.7919
   14.220    1.0059
   14.250    0.8133
   14.280    0.9631
   14.310    0.7812
   14.340    0.8775
   14.370    0.9417
   14.400    0.9096
   14.430    1.0487
   14.460    0.9524
   14.490    0.9524
   14.520    0.8989
   14.550    0.8347
   14.580    0.7812
   14.610    0.8882
   14.640    0.8454
   14.670    0.9417
   14.700    0.8989
   14.730    0.9417
   14.760    1.0059
   14.790    0.8026
   14.820    1.0487
   14.850    1.0059
   14.880    0.9310
   14.910    0.8561
   14.940    0.7705
   14.970    0.8561
   15.000    0.8133
   15.030    0.9310
   15.060    0.8775
   15.090    0.8989
   15.120    0.9631
   15.150    0.9845
   15.180    0.7919
   15.210    0.8240
   15.240    0.8989
   15.270    0.8775
   15.300    0.7919
   15.330    0.8989
   15.360    0.7705
   15.390    0.9203
   15.420    0.8882
   15.450    0.8347
   15.480    0.8775
   15.510    1.1343
   15.540    0.9417
   15.570    0.8133
   15.600    0.9096
   15.630    1.0059
   15.660    0.7491
   15.690    0.9096
   15.720    0.8133
   15.750    0.8882
   15.780    0.8347
   15.810    0.9096
   15.840    0.9524
   15.870    0.9096
   15.900    1.0166
   15.930    0.8882
   15.960    0.9631
   15.990    0.7598
   16.020    1.0487
   16.050    0.8668
   16.080    0.9203
   16.110    1.0380
   16.140    1.0380
   16.170    0.8775
   16.200    0.9631
   16.230    1.0594
   16.260    0.8775
   16.290    0.9096
   16.320    1.0059
   16.350    0.9203
   16.380    1.0380
   16.410    1.0059
   16.440    1.0273
   16.470    0.8882
   16.500    0.8561
   16.530    0.8561
   16.560    1.0273
   16.590    1.0059
   16.620    1.0915
   16.650    0.9845
   16.680    0.7384
   16.710    0.9096
   16.740    1.0273
   16.770    1.1878
   16.800    1.0166
   16.830    0.9738
   16.860    0.8668
   16.890    0.9845
   16.920    1.0166
   16.950    1.1129
   16.980    0.8989
   17.010    1.0594
   17.040    0.9952
   17.070    0.9845
   17.100    0.8454
   17.130    0.9203
   17.160    1.0915
   17.190    0.9417
   17.220    0.9096
   17.250    0.9096
   17.280    0.9310
   17.310    0.8240
   17.340    0.9417
   17.370    0.7170
   17.400    0.9096
   17.430    0.9524
   17.460    0.8026
   17.490    0.8133
   17.520    0.8026
   17.550    0.9845
   17.580    1.0166
   17.610    1.0273
   17.640    0.7384
   17.670    0.7277
   17.700    0.8133
   17.730    0.8026
   17.760    0.9310
   17.790    0.8775
   17.820    0.9845
   17.850    0.8775
   17.880    0.8454
   17.910    0.9417
   17.940    0.9096
   17.970    0.8668
   18.000    0.7919
   18.030    0.9631
   18.060    0.9738
   18.090    0.7919
   18.120    0.7598
   18.150    0.7491
   18.180    0.9417
   18.210    0.9738
   18.240    0.7705
   18.270    1.0059
   18.300    0.8668
   18.330    0.8347
   18.360    0.8454
   18.390    0.7063
   18.420    0.8668
   18.450    0.7598
   18.480    0.8240
   18.510    0.9952
   18.540    0.7063
   18.570    0.8882
   18.600    0.7491
   18.630    0.9203
   18.660    0.8882
   18.690    0.9845
   18.720    0.9524
   18.750    0.9631
   18.780    0.9203
   18.810    0.8347
   18.840    0.8347
   18.870    0.7491
   18.900    0.9096
   18.930    0.8989
   18.960    0.9203
   18.990    0.8561
   19.020    0.8882
   19.050    0.8454
   19.080    0.8240
   19.110    0.8347
   19.140    0.9096
   19.170    0.8989
   19.200    0.8775
   19.230    0.8347
   19.260    0.9310
   19.290    0.8668
   19.320    0.9096
   19.350    0.9524
   19.380    0.8882
   19.410    0.9952
   19.440    0.8989
   19.470    0.8989
   19.500    0.9738
   19.530    0.8133
   19.560    0.9952
   19.590    0.8989
   19.620    0.9096
   19.650    0.7598
   19.680    0.8882
   19.710    0.8668
   19.740    0.8240
   19.770    0.9631
   19.800    0.8775
   19.830    0.9524
   19.860    0.8882
   19.890    0.7277
   19.920    0.8989
   19.950    0.7705
   19.980    0.7598
   20.010    0.8882
   20.040    1.0273
   20.070    0.7063
   20.100    0.8775
   20.130    0.8882
   20.160    0.9845
   20.190    0.9203
   20.220    0.7598
   20.250    0.9310
   20.280    0.8561
   20.310    0.7598
   20.340    0.8454
   20.370    0.9203
   20.400    0.7705
   20.430    0.8775
   20.460    1.0701
   20.490    0.8026
   20.520    0.8347
   20.550    0.9203
   20.580    0.9524
   20.610    0.9310
   20.640    0.8561
   20.670    0.7812
   20.700    0.8882
   20.730    0.8775
   20.760    0.8133
   20.790    0.9310
   20.820    0.9310
   20.850    0.8133
   20.880    0.9203
   20.910    0.7598
   20.940    0.9952
   20.970    0.8775
   21.000    0.7812
   21.030    0.7491
   21.060    0.8133
   21.090    0.9096
   21.120    0.9417
   21.150    0.7598
   21.180    0.9310
   21.210    0.9203
   21.240    0.8026
   21.270    1.0273
   21.300    0.7491
   21.330    0.9310
   21.360    0.8347
   21.390    0.8775
   21.420    0.9738
   21.450    0.9203
   21.480    0.9845
   21.510    0.8240
   21.540    0.9310
   21.570    0.7705
   21.600    0.9524
   21.630    0.8133
   21.660    0.7491
   21.690    0.9310
   21.720    0.8133
   21.750    0.7919
   21.780    0.8240
   21.810    0.8668
   21.840    0.8026
   21.870    0.8240
   21.900    0.8026
   21.930    0.6956
   21.960    1.0808
   21.990    0.7812
   22.020    0.9203
   22.050    0.7919
   22.080    0.8240
   22.110    0.7919
   22.140    0.8454
   22.170    0.8026
   22.200    0.8454
   22.230    0.6742
   22.260    1.0166
   22.290    0.8561
   22.320    0.8026
   22.350    0.7919
   22.380    0.8133
   22.410    0.8240
   22.440    0.7063
   22.470    0.8882
   22.500    0.7063
   22.530    0.7384
   22.560    0.7919
   22.590    0.7063
   22.620    0.8561
   22.650    0.8026
   22.680    0.7705
   22.710    0.8133
   22.740    0.9203
   22.770    0.6742
   22.800    0.7491
   22.830    0.8882
   22.860    0.7598
   22.890    0.8561
   22.920    0.7277
   22.950    0.8240
   22.980    0.7170
   23.010    0.7491
   23.040    0.6849
   23.070    0.7812
   23.100    0.8347
   23.130    0.9096
   23.160    0.7384
   23.190    0.7170
   23.220    0.8882
   23.250    0.7170
   23.280    0.8668
   23.310    0.7384
   23.340    0.8026
   23.370    0.6956
   23.400    0.7812
   23.430    0.7277
   23.460    0.7384
   23.490    0.8347
   23.520    0.9310
   23.550    0.7705
   23.580    0.8882
   23.610    0.8240
   23.640    0.7384
   23.670    0.6528
   23.700    0.8240
   23.730    0.7705
   23.760    0.6849
   23.790    0.7063
   23.820    0.8775
   23.850    0.7812
   23.880    0.6742
   23.910    0.6635
   23.940    0.7919
   23.970    0.6956
   24.000    0.7919
   24.030    0.7063
   24.060    0.6956
   24.090    0.7491
   24.120    0.8561
   24.150    0.8240
   24.180    0.6956
   24.210    0.6742
   24.240    0.7384
   24.270    0.7812
   24.300    0.7491
   24.330    0.7170
   24.360    0.7705
   24.390    0.7598
   24.420    0.7277
   24.450    0.8882
   24.480    0.7384
   24.510    0.8668
   24.540    0.6849
   24.570    0.8026
   24.600    0.7598
   24.630    0.8347
   24.660    0.7063
   24.690    0.8026
   24.720    0.7384
   24.750    0.7598
   24.780    0.6849
   24.810    0.7170
   24.840    0.7491
   24.870    0.6742
   24.900    0.7491
   24.930    0.7277
   24.960    0.7384
   24.990    0.7170
   25.020    0.5671
   25.050    0.7063
   25.080    0.7598
   25.110    0.8882
   25.140    0.8775
   25.170    0.7170
   25.200    0.7919
   25.230    0.6742
   25.260    0.8561
   25.290    0.7384
   25.320    0.7491
   25.350    0.6421
   25.380    0.7598
   25.410    0.6956
   25.440    0.6956
   25.470    0.6742
   25.500    0.8561
   25.530    0.8775
   25.560    0.8133
   25.590    0.7277
   25.620    0.5993
   25.650    0.7384
   25.680    0.5886
   25.710    0.7491
   25.740    0.7705
   25.770    0.6207
   25.800    0.6849
   25.830    0.6956
   25.860    0.7705
   25.890    0.6528
   25.920    0.7384
   25.950    0.6314
   25.980    0.7170
   26.010    0.7063
   26.040    0.5993
   26.070    0.8561
   26.100    0.7170
   26.130    0.6100
   26.160    0.8026
   26.190    0.6849
   26.220    0.5993
   26.250    0.7491
   26.280    0.6956
   26.310    0.7063
   26.340    0.6207
   26.370    0.7170
   26.400    0.8561
   26.430    0.6314
   26.460    0.7705
   26.490    0.6742
   26.520    0.7598
   26.550    0.7384
   26.580    0.6314
   26.610    0.7598
   26.640    0.5029
   26.670    0.6528
   26.700    0.6207
   26.730    0.6635
   26.760    0.5993
   26.790    0.7063
   26.820    0.7598
   26.850    0.6207
   26.880    0.7384
   26.910    0.4601
   26.940    0.6100
   26.970    0.6635
   27.000    0.6207
   27.030    0.5457
   27.060    0.6100
   27.090    0.5886
   27.120    0.7491
   27.150    0.5350
   27.180    0.5350
   27.210    0.6528
   27.240    0.7063
   27.270    0.5671
   27.300    0.5886
   27.330    0.6528
   27.360    0.6207
   27.390    0.6742
   27.420    0.6421
   27.450    0.6421
   27.480    0.6314
   27.510    0.7063
   27.540    0.6742
   27.570    0.7705
   27.600    0.5671
   27.630    0.5243
   27.660    0.6635
   27.690    0.7063
   27.720    0.6635
   27.750    0.5029
   27.780    0.6100
   27.810    0.5886
   27.840    0.6314
   27.870    0.6100
   27.900    0.6207
   27.930    0.6314
   27.960    0.7491
   27.990    0.6100
   28.020    0.5564
   28.050    0.7491
   28.080    0.6742
   28.110    0.6528
   28.140    0.6314
   28.170    0.6100
   28.200    0.5564
   28.230    0.6528
   28.260    0.5886
   28.290    0.6956
   28.320    0.7705
   28.350    0.5778
   28.380    0.6207
   28.410    0.6100
   28.440    0.5778
   28.470    0.5457
   28.500    0.6314
   28.530    0.6528
   28.560    0.7063
   28.590    0.5350
   28.620    0.5564
   28.650    0.7063
   28.680    0.6100
   28.710    0.6100
   28.740    0.5778
   28.770    0.5457
   28.800    0.5671
   28.830    0.6849
   28.860    0.6314
   28.890    0.5029
   28.920    0.6207
   28.950    0.5564
   28.980    0.5350
   29.010    0.6635
   29.040    0.5886
   29.070    0.5029
   29.100    0.7170
   29.130    0.5029
   29.160    0.5029
   29.190    0.5029
   29.220    0.5671
   29.250    0.5778
   29.280    0.5671
   29.310    0.7063
   29.340    0.5457
   29.370    0.6528
   29.400    0.6742
   29.430    0.6421
   29.460    0.5886
   29.490    0.5671
   29.520    0.5350
   29.550    0.6100
   29.580    0.6849
   29.610    0.5993
   29.640    0.6742
   29.670    0.5457
   29.700    0.5778
   29.730    0.5886
   29.760    0.6207
   29.790    0.6956
   29.820    0.5457
   29.850    0.6314
   29.880    0.5029
   29.910    0.4922
   29.940    0.6849
   29.970    0.5886
   30.000    0.5671
   30.030    0.6528
   30.060    0.5243
   30.090    0.5671
   30.120    0.5671
   30.150    0.4815
   30.180    0.6100
   30.210    0.6314
   30.240    0.5564
   30.270    0.4280
   30.300    0.5457
   30.330    0.5029
   30.360    0.6528
   30.390    0.5350
   30.420    0.5350
   30.450    0.5457
   30.480    0.5886
   30.510    0.5564
   30.540    0.6314
   30.570    0.5350
   30.600    0.6635
   30.630    0.5778
   30.660    0.5564
   30.690    0.5350
   30.720    0.5457
   30.750    0.5350
   30.780    0.5243
   30.810    0.5457
   30.840    0.5457
   30.870    0.4601
   30.900    0.5886
   30.930    0.4815
   30.960    0.4494
   30.990    0.5243
   31.020    0.5457
   31.050    0.5029
   31.080    0.5671
   31.110    0.4922
   31.140    0.4815
   31.170    0.5029
   31.200    0.4601
   31.230    0.5457
   31.260    0.5350
   31.290    0.5457
   31.320    0.5243
   31.350    0.5350
   31.380    0.6528
   31.410    0.4922
   31.440    0.5243
   31.470    0.5671
   31.500    0.5350
   31.530    0.4708
   31.560    0.5886
   31.590    0.4387
   31.620    0.5029
   31.650    0.4922
   31.680    0.6100
   31.710    0.5993
   31.740    0.4815
   31.770    0.6100
   31.800    0.5029
   31.830    0.5564
   31.860    0.4494
   31.890    0.4494
   31.920    0.4601
   31.950    0.5564
   31.980    0.5671
   32.010    0.4922
   32.040    0.5029
   32.070    0.5778
   32.100    0.4173
   32.130    0.4708
   32.160    0.4387
   32.190    0.4601
   32.220    0.5778
   32.250    0.3424
   32.280    0.5243
   32.310    0.5457
   32.340    0.5886
   32.370    0.4601
   32.400    0.5671
   32.430    0.5778
   32.460    0.4066
   32.490    0.5350
   32.520    0.5564
   32.550    0.3745
   32.580    0.4387
   32.610    0.4066
   32.640    0.4387
   32.670    0.3959
   32.700    0.4387
   32.730    0.5350
   32.760    0.5350
   32.790    0.4066
   32.820    0.4173
   32.850    0.4066
   32.880    0.4173
   32.910    0.4601
   32.940    0.5993
   32.970    0.4815
   33.000    0.5671
   33.030    0.4494
   33.060    0.5350
   33.090    0.4708
   33.120    0.4066
   33.150    0.4601
   33.180    0.4601
   33.210    0.4173
   33.240    0.3959
   33.270    0.5243
   33.300    0.4173
   33.330    0.5029
   33.360    0.4601
   33.390    0.5350
   33.420    0.5671
   33.450    0.4494
   33.480    0.4280
   33.510    0.5243
   33.540    0.4601
   33.570    0.4922
   33.600    0.5029
   33.630    0.4387
   33.660    0.3959
   33.690    0.5029
   33.720    0.4173
   33.750    0.5136
   33.780    0.3852
   33.810    0.4387
   33.840    0.5029
   33.870    0.3745
   33.900    0.4922
   33.930    0.4708
   33.960    0.4387
   33.990    0.4815
   34.020    0.3959
   34.050    0.4815
   34.080    0.4708
   34.110    0.5029
   34.140    0.3959
   34.170    0.4494
   34.200    0.4708
   34.230    0.5671
   34.260    0.3638
   34.290    0.5029
   34.320    0.5243
   34.350    0.4280
   34.380    0.3638
   34.410    0.4601
   34.440    0.3959
   34.470    0.3959
   34.500    0.4387
   34.530    0.4708
   34.560    0.5136
   34.590    0.5564
   34.620    0.4173
   34.650    0.3317
   34.680    0.3745
   34.710    0.4601
   34.740    0.4173
   34.770    0.4173
   34.800    0.4173
   34.830    0.3959
   34.860    0.3103
   34.890    0.2996
   34.920    0.3638
   34.950    0.4173
   34.980    0.2889
   35.010    0.4815
   35.040    0.4601
   35.070    0.3852
   35.100    0.3531
   35.130    0.4387
   35.160    0.4387
   35.190    0.3959
   35.220    0.2568
   35.250    0.3424
   35.280    0.3638
   35.310    0.3745
   35.340    0.4066
   35.370    0.3852
   35.400    0.3638
   35.430    0.3531
   35.460    0.4173
   35.490    0.3424
   35.520    0.3424
   35.550    0.3959
   35.580    0.5136
   35.610    0.3210
   35.640    0.3852
   35.670    0.3210
   35.700    0.2675
   35.730    0.3959
   35.760    0.3531
   35.790    0.3852
   35.820    0.4601
   35.850    0.4173
   35.880    0.3210
   35.910    0.3638
   35.940    0.3852
   35.970    0.2889
   36.000    0.3852
   36.030    0.2996
   36.060    0.4066
   36.090    0.3959
   36.120    0.3745
   36.150    0.4815
   36.180    0.3531
   36.210    0.3210
   36.240    0.3638
   36.270    0.3638
   36.300    0.3745
   36.330    0.3959
   36.360    0.3531
   36.390    0.3745
   36.420    0.3531
   36.450    0.4066
   36.480    0.3852
   36.510    0.4494
   36.540    0.3210
   36.570    0.3959
   36.600    0.2568
   36.630    0.4280
   36.660    0.3317
   36.690    0.3210
   36.720    0.3424
   36.750    0.3424
   36.780    0.5350
   36.810    0.3638
   36.840    0.3745
   36.870    0.3424
   36.900    0.3317
   36.930    0.2675
   36.960    0.2568
   36.990    0.3210
   37.020    0.3210
   37.050    0.3103
   37.080    0.3745
   37.110    0.2889
   37.140    0.3852
   37.170    0.3103
   37.200    0.3638
   37.230    0.3103
   37.260    0.3638
   37.290    0.3210
   37.320    0.3424
   37.350    0.3103
   37.380    0.3317
   37.410    0.3210
   37.440    0.2889
   37.470    0.4280
   37.500    0.3424
   37.530    0.2568
   37.560    0.3424
   37.590    0.4280
   37.620    0.3424
   37.650    0.2996
   37.680    0.3638
   37.710    0.3103
   37.740    0.2996
   37.770    0.2568
   37.800    0.3531
   37.830    0.2889
   37.860    0.2675
   37.890    0.2782
   37.920    0.3424
   37.950    0.2782
   37.980    0.3317
   38.010    0.2033
   38.040    0.3103
   38.070    0.2996
   38.100    0.2782
   38.130    0.2889
   38.160    0.3531
   38.190    0.2675
   38.220    0.3424
   38.250    0.2461
   38.280    0.3531
   38.310    0.3317
   38.340    0.3210
   38.370    0.2889
   38.400    0.2889
   38.430    0.2354
   38.460    0.2461
   38.490    0.2889
   38.520    0.3103
   38.550    0.2675
   38.580    0.2461
   38.610    0.3317
   38.640    0.2675
   38.670    0.2140
   38.700    0.2675
   38.730    0.2461
   38.760    0.2568
   38.790    0.3424
   38.820    0.2033
   38.850    0.2675
   38.880    0.2889
   38.910    0.3210
   38.940    0.3424
   38.970    0.2461
   39.000    0.2782
   39.030    0.2568
   39.060    0.3424
   39.090    0.3745
   39.120    0.2140
   39.150    0.2140
   39.180    0.3103
   39.210    0.2889
   39.240    0.3745
   39.270    0.2782
   39.300    0.3424
   39.330    0.2889
   39.360    0.2675
   39.390    0.3317
   39.420    0.2354
   39.450    0.2782
   39.480    0.2247
   39.510    0.2568
   39.540    0.2782
   39.570    0.3638
   39.600    0.3210
   39.630    0.3531
   39.660    0.3317
   39.690    0.2782
   39.720    0.3424
   39.750    0.2568
   39.780    0.3531
   39.810    0.2782
   39.840    0.3103
   39.870    0.3424
   39.900    0.2568
   39.930    0.2889
   39.960    0.2996
   39.990    0.2568