File: data/PXRD/PXRD_KE-197_Cu-Ka1_capillary-1mm_5s-deg.xyd
    1.500   18.6730
    1.530   18.3781
    1.560   17.4408
    1.590   17.2617
    1.620   16.5350
    1.650   16.6509
    1.680   14.9131
    1.710   14.6709
    1.740   14.3023
    1.770   14.2601
    1.800   12.6804
    1.830   12.8067
    1.860   12.4276
    1.890   11.9958
    1.920   11.5008
    1.950   11.3744
    1.980   11.0269
    2.010   11.0374
    2.040   10.9110
    2.070   10.5951
    2.100   10.4160
    2.130   10.3423
    2.160    9.8473
    2.190    9.3628
    2.220    9.8262
    2.250    9.6472
    2.280    9.5735
    2.310    9.3944
    2.340    9.5945
    2.370    9.1417
    2.400    9.1417
    2.430    9.1206
    2.460    9.2996
    2.490    9.4576
    2.520    9.6998
    2.550    9.8578
    2.580    9.6051
    2.610   10.1001
    2.640   10.5951
    2.670   11.0900
    2.700   11.3744
    2.730   11.6588
    2.760   12.0169
    2.790   12.6172
    2.820   13.5229
    2.850   14.2707
    2.880   15.6609
    2.910   16.1769
    2.940   17.8304
    2.970   18.8942
    3.000   20.4845
    3.030   22.9595
    3.060   25.3081
    3.090   27.6145
    3.120   31.9642
    3.150   34.9658
    3.180   39.3470
    3.210   43.8231
    3.240   51.0900
    3.270   58.8310
    3.300   67.4882
    3.330   80.5582
    3.360   93.5334
    3.390  107.8146
    3.420  117.2933
    3.450  111.7325
    3.480   93.7546
    3.510   69.5524
    3.540   48.8046
    3.570   35.6082
    3.600   29.4681
    3.630   26.4139
    3.660   23.5492
    3.690   23.4439
    3.720   24.5392
    3.750   26.3296
    3.780   26.5508
    3.810   28.6993
    3.840   30.9321
    3.870   33.2280
    3.900   35.6398
    3.930   37.4513
    3.960   39.0837
    3.990   40.4107
    4.020   41.3060
    4.050   42.7172
    4.080   42.5698
    4.110   40.8320
    4.140   40.0105
    4.170   37.7672
    4.200   35.9979
    4.230   32.4171
    4.260   28.7625
    4.290   25.4239
    4.320   22.6962
    4.350   18.9152
    4.380   16.9036
    4.410   14.1548
    4.440   12.2801
    4.470   10.9005
    4.500   10.1001
    4.530    8.8257
    4.560    7.7514
    4.590    7.3512
    4.620    7.2986
    4.650    6.6035
    4.680    6.2559
    4.710    5.7925
    4.740    5.7925
    4.770    5.3712
    4.800    5.0764
    4.830    4.6972
    4.860    4.8025
    4.890    4.7183
    4.920    4.4866
    4.950    4.1074
    4.980    4.2549
    5.010    4.1811
    5.040    4.2970
    5.070    4.3286
    5.100    4.5603
    5.130    4.1180
    5.160    4.2654
    5.190    3.8547
    5.220    4.0337
    5.250    3.9073
    5.280    4.2022
    5.310    3.5914
    5.340    4.0758
    5.370    3.8231
    5.400    3.8652
    5.430    3.8231
    5.460    3.6440
    5.490    3.3281
    5.520    3.5914
    5.550    3.5387
    5.580    3.4229
    5.610    3.4650
    5.640    3.6230
    5.670    3.3175
    5.700    3.7072
    5.730    3.2543
    5.760    3.4650
    5.790    3.4544
    5.820    3.6230
    5.850    3.8652
    5.880    3.3386
    5.910    3.3702
    5.940    3.3913
    5.970    3.3913
    6.000    3.7493
    6.030    3.2965
    6.060    3.4018
    6.090    3.0016
    6.120    3.1069
    6.150    3.2333
    6.180    3.4966
    6.210    3.6335
    6.240    3.4334
    6.270    3.2017
    6.300    3.2965
    6.330    3.2754
    6.360    3.3070
    6.390    3.4755
    6.420    3.3702
    6.450    3.6124
    6.480    3.6230
    6.510    3.4439
    6.540    3.8020
    6.570    4.0864
    6.600    3.9389
    6.630    4.3391
    6.660    5.0448
    6.690    5.2027
    6.720    5.6345
    6.750    6.1822
    6.780    7.0879
    6.810    9.0363
    6.840    9.6472
    6.870   11.8483
    6.900   13.6493
    6.930   14.5445
    6.960   13.8705
    6.990   11.2796
    7.020    8.8468
    7.050    6.8141
    7.080    5.3502
    7.110    4.8763
    7.140    4.5708
    7.170    4.0337
    7.200    3.6335
    7.230    3.9494
    7.260    4.0021
    7.290    4.0232
    7.320    3.6651
    7.350    4.0548
    7.380    3.5282
    7.410    3.6862
    7.440    3.8757
    7.470    3.6440
    7.500    3.6862
    7.530    4.0653
    7.560    3.7599
    7.590    3.6967
    7.620    3.7809
    7.650    3.9705
    7.680    3.8125
    7.710    3.9284
    7.740    4.1601
    7.770    4.0232
    7.800    4.1811
    7.830    4.4234
    7.860    4.2127
    7.890    4.4760
    7.920    4.6656
    7.950    4.5076
    7.980    5.0342
    8.010    5.0237
    8.040    5.4766
    8.070    5.2975
    8.100    5.6872
    8.130    5.7188
    8.160    5.4028
    8.190    6.1295
    8.220    6.2665
    8.250    6.1611
    8.280    6.2875
    8.310    6.2770
    8.340    6.1506
    8.370    6.1927
    8.400    6.5719
    8.430    6.1401
    8.460    5.8662
    8.490    6.5824
    8.520    6.1295
    8.550    5.6661
    8.580    5.7083
    8.610    5.5398
    8.640    5.1606
    8.670    4.7920
    8.700    5.1711
    8.730    4.8657
    8.760    4.5708
    8.790    4.4128
    8.820    4.2338
    8.850    3.8652
    8.880    3.8125
    8.910    3.6124
    8.940    3.4860
    8.970    3.6124
    9.000    3.6440
    9.030    3.5282
    9.060    3.2543
    9.090    3.6019
    9.120    3.3597
    9.150    3.3913
    9.180    3.1069
    9.210    3.2438
    9.240    3.4544
    9.270    3.0964
    9.300    3.3807
    9.330    3.4229
    9.360    3.1701
    9.390    3.0016
    9.420    3.3070
    9.450    3.2122
    9.480    2.9279
    9.510    3.1280
    9.540    3.0648
    9.570    2.9595
    9.600    3.1490
    9.630    2.8752
    9.660    3.0858
    9.690    3.1490
    9.720    3.2965
    9.750    3.1490
    9.780    3.1069
    9.810    2.7909
    9.840    3.3175
    9.870    2.9700
    9.900    3.0858
    9.930    2.8963
    9.960    2.9489
    9.990    3.3070
   10.020    3.0542
   10.050    2.9700
   10.080    2.9279
   10.110    3.0121
   10.140    3.1490
   10.170    3.3175
   10.200    2.9384
   10.230    3.1490
   10.260    2.9173
   10.290    3.3913
   10.320    3.3281
   10.350    3.5071
   10.380    3.3913
   10.410    3.3702
   10.440    3.7599
   10.470    3.8757
   10.500    3.6756
   10.530    3.1280
   10.560    3.2754
   10.590    3.1069
   10.620    3.0121
   10.650    3.0753
   10.680    2.7067
   10.710    3.2438
   10.740    2.9595
   10.770    3.1385
   10.800    3.0753
   10.830    3.1280
   10.860    3.1280
   10.890    3.2754
   10.920    3.2227
   10.950    2.8225
   10.980    2.9595
   11.010    2.8857
   11.040    3.0648
   11.070    3.3070
   11.100    2.7699
   11.130    3.1069
   11.160    3.2333
   11.190    3.0016
   11.220    3.1069
   11.250    3.0332
   11.280    2.9279
   11.310    2.9700
   11.340    3.1280
   11.370    2.9700
   11.400    3.1912
   11.430    3.0964
   11.460    2.8647
   11.490    2.9595
   11.520    2.7383
   11.550    3.1174
   11.580    2.9700
   11.610    3.0226
   11.640    2.9068
   11.670    3.2754
   11.700    3.2122
   11.730    2.9805
   11.760    2.9805
   11.790    3.0226
   11.820    3.1806
   11.850    3.2017
   11.880    3.2122
   11.910    3.2227
   11.940    3.1912
   11.970    3.2859
   12.000    3.4755
   12.030    2.9489
   12.060    3.2438
   12.090    3.4860
   12.120    3.1806
   12.150    3.3175
   12.180    3.1280
   12.210    3.4650
   12.240    3.3175
   12.270    3.2649
   12.300    3.2859
   12.330    3.5387
   12.360    3.4966
   12.390    3.3175
   12.420    3.2754
   12.450    3.5598
   12.480    3.0437
   12.510    3.7177
   12.540    3.5176
   12.570    3.5071
   12.600    3.6230
   12.630    3.4966
   12.660    3.4334
   12.690    3.7599
   12.720    3.4229
   12.750    3.3702
   12.780    3.4860
   12.810    3.6230
   12.840    3.8863
   12.870    3.4334
   12.900    3.4966
   12.930    3.3175
   12.960    3.5914
   12.990    3.5071
   13.020    3.3175
   13.050    3.3913
   13.080    3.3175
   13.110    3.4650
   13.140    3.1490
   13.170    3.4544
   13.200    2.9173
   13.230    3.2965
   13.260    3.3807
   13.290    3.0437
   13.320    3.4018
   13.350    3.3597
   13.380    3.1490
   13.410    3.4334
   13.440    3.3386
   13.470    3.3913
   13.500    3.1385
   13.530    3.1490
   13.560    3.0858
   13.590    3.4650
   13.620    3.0964
   13.650    3.4860
   13.680    3.6019
   13.710    3.1069
   13.740    3.5071
   13.770    2.9805
   13.800    3.1806
   13.830    3.1174
   13.860    3.4650
   13.890    3.0437
   13.920    3.3597
   13.950    3.1596
   13.980    3.2333
   14.010    3.3491
   14.040    3.6546
   14.070    2.8541
   14.100    3.2227
   14.130    3.5071
   14.160    3.0226
   14.190    3.2649
   14.220    3.2227
   14.250    3.0964
   14.280    3.1174
   14.310    3.0542
   14.340    2.7278
   14.370    2.8331
   14.400    2.8752
   14.430    3.1069
   14.460    2.7383
   14.490    3.2017
   14.520    2.8752
   14.550    2.7172
   14.580    3.0226
   14.610    2.9279
   14.640    3.0226
   14.670    2.7909
   14.700    2.7488
   14.730    2.8541
   14.760    2.9595
   14.790    2.9700
   14.820    3.0858
   14.850    3.1596
   14.880    2.9279
   14.910    2.8647
   14.940    2.9595
   14.970    2.9700
   15.000    2.9700
   15.030    2.9279
   15.060    2.8436
   15.090    2.9279
   15.120    3.0016
   15.150    2.9068
   15.180    3.0648
   15.210    3.0964
   15.240    2.7278
   15.270    2.7593
   15.300    2.8120
   15.330    2.9910
   15.360    3.0016
   15.390    3.1490
   15.420    3.0121
   15.450    2.8963
   15.480    3.0753
   15.510    2.9910
   15.540    3.0226
   15.570    3.0858
   15.600    3.0753
   15.630    3.0753
   15.660    3.0753
   15.690    3.0542
   15.720    3.3913
   15.750    3.1912
   15.780    2.9173
   15.810    3.0016
   15.840    3.0016
   15.870    3.1174
   15.900    2.9068
   15.930    3.0332
   15.960    3.4123
   15.990    3.3175
   16.020    3.2965
   16.050    2.9700
   16.080    3.0648
   16.110    3.0016
   16.140    3.1596
   16.170    3.1280
   16.200    3.0964
   16.230    2.9279
   16.260    3.0964
   16.290    2.9068
   16.320    2.8436
   16.350    2.7488
   16.380    3.0753
   16.410    2.9489
   16.440    2.9595
   16.470    3.0858
   16.500    2.8963
   16.530    2.8436
   16.560    3.0858
   16.590    3.2543
   16.620    2.9595
   16.650    2.9384
   16.680    2.7488
   16.710    2.9805
   16.740    2.9384
   16.770    2.8225
   16.800    3.2122
   16.830    2.8015
   16.860    3.2122
   16.890    2.9279
   16.920    2.8963
   16.950    2.9489
   16.980    2.9489
   17.010    2.8436
   17.040    2.8752
   17.070    3.0016
   17.100    3.1385
   17.130    3.0121
   17.160    3.1069
   17.190    2.7909
   17.220    3.2227
   17.250    2.9805
   17.280    3.1596
   17.310    3.1174
   17.340    2.9805
   17.370    2.8963
   17.400    3.1069
   17.430    3.0121
   17.460    2.7804
   17.490    3.1806
   17.520    2.9595
   17.550    3.1596
   17.580    2.8752
   17.610    2.8015
   17.640    2.9910
   17.670    3.0753
   17.700    3.1806
   17.730    2.7593
   17.760    2.9805
   17.790    3.1385
   17.820    3.0332
   17.850    3.0121
   17.880    3.0016
   17.910    2.9805
   17.940    3.0016
   17.970    3.1806
   18.000    3.2017
   18.030    2.9910
   18.060    2.9173
   18.090    3.1069
   18.120    2.9173
   18.150    3.0858
   18.180    2.9910
   18.210    2.9489
   18.240    3.3070
   18.270    3.3702
   18.300    2.8752
   18.330    3.4123
   18.360    3.1490
   18.390    3.1806
   18.420    2.9700
   18.450    3.2333
   18.480    3.1069
   18.510    2.9805
   18.540    3.2754
   18.570    3.2017
   18.600    2.8436
   18.630    3.1912
   18.660    3.0437
   18.690    3.2333
   18.720    2.9173
   18.750    3.2965
   18.780    3.1174
   18.810    3.2017
   18.840    3.0964
   18.870    3.1912
   18.900    3.2543
   18.930    2.8857
   18.960    2.8647
   18.990    3.1174
   19.020    2.8647
   19.050    2.9279
   19.080    3.2438
   19.110    2.8120
   19.140    3.0753
   19.170    3.0016
   19.200    3.1280
   19.230    3.0016
   19.260    3.4229
   19.290    2.8541
   19.320    2.9595
   19.350    2.9910
   19.380    3.2122
   19.410    3.2754
   19.440    3.3281
   19.470    3.3702
   19.500    3.1701
   19.530    3.5492
   19.560    3.3491
   19.590    3.3175
   19.620    3.3175
   19.650    3.6756
   19.680    3.2965
   19.710    2.9910
   19.740    3.3386
   19.770    3.5914
   19.800    3.1385
   19.830    3.3597
   19.860    3.2859
   19.890    3.2649
   19.920    3.4334
   19.950    3.3913
   19.980    3.6440
   20.010    3.3913
   20.040    3.1701
   20.070    3.6335
   20.100    3.5387
   20.130    3.0964
   20.160    3.7493
   20.190    3.5703
   20.220    3.4755
   20.250    3.4334
   20.280    3.3597
   20.310    3.6651
   20.340    3.7493
   20.370    3.7915
   20.400    3.5703
   20.430    3.3386
   20.460    3.1912
   20.490    3.5598
   20.520    3.6756
   20.550    3.6230
   20.580    3.5703
   20.610    2.9489
   20.640    3.3702
   20.670    3.3070
   20.700    3.4439
   20.730    3.4229
   20.760    3.5071
   20.790    3.5703
   20.820    3.6546
   20.850    3.4544
   20.880    3.4334
   20.910    3.1596
   20.940    3.0437
   20.970    3.4650
   21.000    3.2122
   21.030    3.5071
   21.060    3.4966
   21.090    3.7388
   21.120    3.4650
   21.150    3.5071
   21.180    3.2754
   21.210    3.0964
   21.240    3.4439
   21.270    3.4123
   21.300    3.2859
   21.330    3.0016
   21.360    3.2438
   21.390    3.2649
   21.420    3.4229
   21.450    3.2754
   21.480    3.2543
   21.510    3.4123
   21.540    3.3386
   21.570    3.4544
   21.600    3.3597
   21.630    3.2438
   21.660    3.3597
   21.690    3.4650
   21.720    3.2859
   21.750    3.1806
   21.780    3.1385
   21.810    3.5492
   21.840    3.3491
   21.870    3.2438
   21.900    3.6756
   21.930    3.5914
   21.960    3.2649
   21.990    3.3702
   22.020    3.5703
   22.050    3.5071
   22.080    3.5387
   22.110    3.3070
   22.140    3.5598
   22.170    3.1806
   22.200    3.5282
   22.230    3.4650
   22.260    3.3913
   22.290    3.3386
   22.320    3.3281
   22.350    3.3281
   22.380    3.5808
   22.410    3.2122
   22.440    3.6440
   22.470    3.3702
   22.500    3.4018
   22.530    3.2017
   22.560    3.4439
   22.590    3.5598
   22.620    3.6335
   22.650    3.2017
   22.680    3.4650
   22.710    3.3491
   22.740    3.2543
   22.770    3.4123
   22.800    3.3702
   22.830    3.0858
   22.860    3.0332
   22.890    3.1174
   22.920    3.3386
   22.950    3.2017
   22.980    3.3491
   23.010    3.2227
   23.040    3.4544
   23.070    3.1701
   23.100    3.1596
   23.130    3.2859
   23.160    3.3070
   23.190    3.1385
   23.220    3.0542
   23.250    3.1385
   23.280    3.2649
   23.310    3.0858
   23.340    3.0753
   23.370    3.1596
   23.400    3.1490
   23.430    3.2649
   23.460    3.1806
   23.490    3.0753
   23.520    2.8436
   23.550    2.9384
   23.580    3.4650
   23.610    3.1174
   23.640    3.3597
   23.670    3.1596
   23.700    2.9489
   23.730    3.3597
   23.760    3.2017
   23.790    3.2227
   23.820    3.3913
   23.850    3.2333
   23.880    3.1806
   23.910    3.4018
   23.940    3.2017
   23.970    3.0964
   24.000    2.9279
   24.030    3.2543
   24.060    3.2859
   24.090    3.2333
   24.120    2.9595
   24.150    3.0332
   24.180    3.0226
   24.210    3.4544
   24.240    3.0542
   24.270    3.1280
   24.300    2.9805
   24.330    3.1701
   24.360    3.0437
   24.390    3.2965
   24.420    3.1174
   24.450    3.1701
   24.480    3.3702
   24.510    3.1701
   24.540    3.3281
   24.570    3.2333
   24.600    3.3702
   24.630    3.2017
   24.660    3.3281
   24.690    3.1174
   24.720    3.2543
   24.750    3.1596
   24.780    2.9910
   24.810    3.1912
   24.840    2.8857
   24.870    3.4018
   24.900    3.1701
   24.930    3.0437
   24.960    3.1385
   24.990    3.0121
   25.020    3.0753
   25.050    3.0226
   25.080    3.0332
   25.110    3.1596
   25.140    3.1069
   25.170    3.3281
   25.200    3.0964
   25.230    2.8015
   25.260    3.1069
   25.290    2.9173
   25.320    3.0226
   25.350    3.2122
   25.380    2.8015
   25.410    3.1701
   25.440    2.8752
   25.470    2.9068
   25.500    2.8120
   25.530    2.8436
   25.560    3.0121
   25.590    2.9068
   25.620    3.2649
   25.650    2.8857
   25.680    2.9910
   25.710    2.6330
   25.740    2.9173
   25.770    3.1490
   25.800    2.7909
   25.830    2.8015
   25.860    2.9489
   25.890    2.8120
   25.920    2.7699
   25.950    2.8752
   25.980    2.5908
   26.010    2.6856
   26.040    2.8963
   26.070    2.8120
   26.100    2.5803
   26.130    2.6435
   26.160    2.7383
   26.190    2.8120
   26.220    2.9173
   26.250    2.5908
   26.280    2.6540
   26.310    2.9173
   26.340    2.8857
   26.370    2.6751
   26.400    2.7804
   26.430    2.7909
   26.460    2.9384
   26.490    2.7909
   26.520    2.7804
   26.550    2.7909
   26.580    2.9910
   26.610    2.8120
   26.640    2.7804
   26.670    2.9700
   26.700    2.6856
   26.730    2.8015
   26.760    2.6856
   26.790    3.0753
   26.820    2.7593
   26.850    2.8857
   26.880    2.7804
   26.910    2.4539
   26.940    2.6646
   26.970    2.7278
   27.000    3.1174
   27.030    2.7804
   27.060    2.5908
   27.090    2.9173
   27.120    2.8436
   27.150    2.5803
   27.180    2.8752
   27.210    2.7488
   27.240    2.5908
   27.270    2.7383
   27.300    2.4961
   27.330    2.9595
   27.360    2.9068
   27.390    2.6435
   27.420    2.7804
   27.450    2.9384
   27.480    2.7067
   27.510    2.6224
   27.540    2.6751
   27.570    2.5276
   27.600    2.7278
   27.630    2.6751
   27.660    2.8963
   27.690    2.7278
   27.720    2.8963
   27.750    2.7172
   27.780    2.6540
   27.810    3.0226
   27.840    2.7067
   27.870    2.7172
   27.900    2.7699
   27.930    2.7067
   27.960    2.7278
   27.990    2.6540
   28.020    3.0226
   28.050    3.0016
   28.080    3.0437
   28.110    2.8541
   28.140    3.0542
   28.170    3.0858
   28.200    2.7067
   28.230    2.8647
   28.260    2.8541
   28.290    2.9910
   28.320    2.8436
   28.350    2.8436
   28.380    2.9700
   28.410    2.7172
   28.440    2.7699
   28.470    2.8015
   28.500    2.8436
   28.530    2.7067
   28.560    2.8436
   28.590    2.6751
   28.620    2.4434
   28.650    2.3802
   28.680    2.6330
   28.710    2.5908
   28.740    2.5066
   28.770    2.6751
   28.800    2.6646
   28.830    2.7172
   28.860    2.8857
   28.890    2.7699
   28.920    2.8647
   28.950    2.5803
   28.980    2.6540
   29.010    2.6119
   29.040    2.5803
   29.070    2.7488
   29.100    2.6646
   29.130    2.8015
   29.160    2.8225
   29.190    2.5171
   29.220    2.4750
   29.250    2.7699
   29.280    2.6856
   29.310    2.6435
   29.340    2.8120
   29.370    2.7067
   29.400    2.5276
   29.430    2.8857
   29.460    2.6751
   29.490    2.5908
   29.520    2.6751
   29.550    2.5908
   29.580    2.7488
   29.610    2.5066
   29.640    2.6224
   29.670    2.6856
   29.700    2.4223
   29.730    2.4118
   29.760    2.6751
   29.790    2.5592
   29.820    2.5487
   29.850    2.6962
   29.880    2.4961
   29.910    2.5803
   29.940    2.9595
   29.970    2.6751
   30.000    2.6646
   30.030    2.6751
   30.060    2.5171
   30.090    2.5382
   30.120    2.7067
   30.150    2.5803
   30.180    2.7278
   30.210    2.5698
   30.240    2.7067
   30.270    2.7278
   30.300    2.4539
   30.330    2.4750
   30.360    2.2643
   30.390    2.6540
   30.420    2.6856
   30.450    2.5171
   30.480    2.5803
   30.510    2.7067
   30.540    2.8225
   30.570    2.6014
   30.600    2.6014
   30.630    2.7488
   30.660    2.6224
   30.690    2.6540
   30.720    2.4118
   30.750    2.5276
   30.780    2.7278
   30.810    2.6330
   30.840    2.6751
   30.870    2.6119
   30.900    2.7278
   30.930    2.5171
   30.960    2.5908
   30.990    2.5171
   31.020    2.5171
   31.050    2.6119
   31.080    2.7699
   31.110    2.3591
   31.140    2.2117
   31.170    2.5382
   31.200    2.8331
   31.230    2.6330
   31.260    2.4750
   31.290    2.6540
   31.320    2.6330
   31.350    2.4750
   31.380    2.4434
   31.410    2.4961
   31.440    2.5908
   31.470    2.5276
   31.500    2.5487
   31.530    2.9173
   31.560    2.6856
   31.590    2.8015
   31.620    2.8120
   31.650    2.4961
   31.680    2.9595
   31.710    2.6646
   31.740    2.6751
   31.770    2.6856
   31.800    2.6856
   31.830    2.9384
   31.860    2.7172
   31.890    2.6646
   31.920    2.8857
   31.950    3.0226
   31.980    2.5066
   32.010    2.5487
   32.040    2.6014
   32.070    2.3802
   32.100    2.3802
   32.130    2.6224
   32.160    2.2328
   32.190    2.6014
   32.220    2.5382
   32.250    2.3065
   32.280    2.3907
   32.310    2.4434
   32.340    2.3907
   32.370    2.7278
   32.400    2.6751
   32.430    2.4118
   32.460    2.3591
   32.490    2.3591
   32.520    2.4645
   32.550    2.4750
   32.580    2.4013
   32.610    2.2222
   32.640    2.5276
   32.670    2.3381
   32.700    2.3697
   32.730    2.4118
   32.760    2.3697
   32.790    2.4118
   32.820    2.4223
   32.850    2.3697
   32.880    2.4223
   32.910    2.2012
   32.940    2.4961
   32.970    2.5171
   33.000    2.3697
   33.030    2.5276
   33.060    2.4539
   33.090    2.2433
   33.120    2.2854
   33.150    2.4539
   33.180    2.4434
   33.210    2.3591
   33.240    2.4750
   33.270    2.5698
   33.300    2.2854
   33.330    2.2643
   33.360    2.4855
   33.390    2.4013
   33.420    2.3907
   33.450    2.3591
   33.480    2.3170
   33.510    2.3591
   33.540    2.3486
   33.570    2.5171
   33.600    2.0958
   33.630    2.2854
   33.660    2.4750
   33.690    2.4434
   33.720    2.6014
   33.750    2.2749
   33.780    2.4434
   33.810    2.3275
   33.840    2.4329
   33.870    2.2538
   33.900    2.3591
   33.930    2.0853
   33.960    2.5066
   33.990    2.2749
   34.020    2.2749
   34.050    2.2959
   34.080    2.4013
   34.110    2.2433
   34.140    2.4223
   34.170    2.3065
   34.200    2.2433
   34.230    2.2328
   34.260    2.2433
   34.290    2.3486
   34.320    2.4855
   34.350    2.2959
   34.380    2.4223
   34.410    2.3170
   34.440    2.0748
   34.470    2.4329
   34.500    2.3486
   34.530    2.3486
   34.560    2.4750
   34.590    2.3170
   34.620    2.1169
   34.650    2.0958
   34.680    2.2749
   34.710    2.1906
   34.740    2.1485
   34.770    2.4223
   34.800    2.2959
   34.830    2.2012
   34.860    2.0853
   34.890    2.0958
   34.920    2.2643
   34.950    2.2433
   34.980    2.4013
   35.010    2.3381
   35.040    2.2854
   35.070    2.4223
   35.100    2.1906
   35.130    2.1590
   35.160    2.1906
   35.190    2.1801
   35.220    2.0642
   35.250    2.2433
   35.280    2.2643
   35.310    2.1906
   35.340    2.4223
   35.370    2.3907
   35.400    2.4539
   35.430    2.0221
   35.460    2.0853
   35.490    2.1380
   35.520    2.1906
   35.550    2.0432
   35.580    2.3591
   35.610    2.2959
   35.640    2.1064
   35.670    2.2538
   35.700    2.0748
   35.730    2.2222
   35.760    2.2854
   35.790    2.0853
   35.820    2.2328
   35.850    2.0958
   35.880    2.4539
   35.910    2.0958
   35.940    2.0116
   35.970    2.2328
   36.000    2.4013
   36.030    2.1169
   36.060    2.0432
   36.090    2.1169
   36.120    2.3486
   36.150    1.9800
   36.180    2.1590
   36.210    2.1696
   36.240    2.1380
   36.270    2.0642
   36.300    1.9905
   36.330    2.1696
   36.360    2.0748
   36.390    2.2749
   36.420    2.1801
   36.450    2.0116
   36.480    2.0958
   36.510    2.2117
   36.540    1.9695
   36.570    1.9589
   36.600    2.2328
   36.630    1.9800
   36.660    2.1906
   36.690    1.9063
   36.720    2.2854
   36.750    1.8325
   36.780    2.0642
   36.810    2.0116
   36.840    2.0958
   36.870    2.0642
   36.900    2.2959
   36.930    2.2538
   36.960    2.2012
   36.990    2.2854
   37.020    2.1169
   37.050    2.2433
   37.080    2.0116
   37.110    2.2538
   37.140    2.2328
   37.170    1.9484
   37.200    2.0537
   37.230    2.2854
   37.260    2.1906
   37.290    2.0958
   37.320    1.9589
   37.350    2.2117
   37.380    2.0432
   37.410    2.0958
   37.440    2.0326
   37.470    1.9379
   37.500    2.1064
   37.530    2.1906
   37.560    2.0432
   37.590    2.0642
   37.620    1.8957
   37.650    2.0642
   37.680    2.1485
   37.710    2.1274
   37.740    1.8747
   37.770    2.3275
   37.800    1.9905
   37.830    2.0537
   37.860    2.0221
   37.890    2.2854
   37.920    2.1064
   37.950    2.2749
   37.980    1.8220
   38.010    1.7588
   38.040    2.0642
   38.070    2.1590
   38.100    2.1485
   38.130    2.0432
   38.160    1.9800
   38.190    2.0116
   38.220    2.1906
   38.250    2.0221
   38.280    2.1801
   38.310    1.7588
   38.340    1.8747
   38.370    1.9589
   38.400    2.0642
   38.430    1.9168
   38.460    1.7167
   38.490    2.0326
   38.520    1.9063
   38.550    2.0958
   38.580    2.3381
   38.610    1.7378
   38.640    2.0642
   38.670    2.1590
   38.700    2.1485
   38.730    1.9800
   38.760    2.0537
   38.790    2.0748
   38.820    2.1590
   38.850    1.9379
   38.880    2.3486
   38.910    2.0326
   38.940    2.0537
   38.970    1.9905
   39.000    2.2643
   39.030    1.8536
   39.060    1.9695
   39.090    2.0116
   39.120    1.9589
   39.150    2.1590
   39.180    2.0326
   39.210    2.1906
   39.240    2.1590
   39.270    1.9800
   39.300    1.9695
   39.330    2.1906
   39.360    2.2538
   39.390    2.0432
   39.420    2.3486
   39.450    2.2643
   39.480    1.9063
   39.510    2.1064
   39.540    2.0642
   39.570    2.1696
   39.600    2.1169
   39.630    1.9273
   39.660    1.8641
   39.690    2.1064
   39.720    2.0853
   39.750    2.0642
   39.780    1.8641
   39.810    2.0011
   39.840    2.1380
   39.870    2.0537
   39.900    2.2538
   39.930    1.9905
   39.960    1.9905
   39.990    1.9905