File: data/PXRD/PXRD_KE-053_Cu-Ka1_capillary-1mm_5s-deg.xyd
    1.500   29.1627
    1.530   29.2575
    1.560   29.0574
    1.590   28.1833
    1.620   27.8462
    1.650   27.2354
    1.680   26.9510
    1.710   26.8141
    1.740   26.3086
    1.770   26.4139
    1.800   25.7188
    1.830   25.4660
    1.860   26.0874
    1.890   25.5292
    1.920   25.2449
    1.950   23.6756
    1.980   23.7493
    2.010   24.2233
    2.040   23.8231
    2.070   23.4123
    2.100   23.5282
    2.130   23.5808
    2.160   24.8657
    2.190   23.3491
    2.220   22.9173
    2.250   23.0121
    2.280   23.4545
    2.310   22.8331
    2.340   23.5914
    2.370   23.2965
    2.400   23.0648
    2.430   23.6335
    2.460   23.4123
    2.490   22.8436
    2.520   24.0232
    2.550   24.5182
    2.580   23.4439
    2.610   24.7393
    2.640   24.3813
    2.670   25.7293
    2.700   25.3186
    2.730   25.5503
    2.760   26.0979
    2.790   26.3928
    2.820   25.8873
    2.850   27.1933
    2.880   28.9626
    2.910   29.0363
    2.940   29.2575
    2.970   30.4792
    3.000   30.5845
    3.030   31.1848
    3.060   33.1332
    3.090   33.8599
    3.120   35.3660
    3.150   37.0616
    3.180   39.5577
    3.210   39.5155
    3.240   41.5587
    3.270   44.7709
    3.300   46.5192
    3.330   47.9832
    3.360   50.3528
    3.390   55.0922
    3.420   56.9774
    3.450   62.6856
    3.480   66.4560
    3.510   68.8573
    3.540   74.3971
    3.570   78.8310
    3.600   84.9605
    3.630   91.9853
    3.660   99.0627
    3.690  111.0269
    3.720  123.8125
    3.750  138.0411
    3.780  155.5661
    3.810  182.9068
    3.840  220.4845
    3.870  289.6156
    3.900  361.3586
    3.930  335.5977
    3.960  179.8947
    3.990   44.2443
    4.020   21.5482
    4.050   16.7983
    4.080   14.8920
    4.110   13.6072
    4.140   13.1438
    4.170   12.2907
    4.200   12.2907
    4.230   11.8589
    4.260   11.3639
    4.290   11.1322
    4.320   11.0690
    4.350   10.8794
    4.380   10.7741
    4.410   10.9321
    4.440   10.9742
    4.470   10.9637
    4.500   10.9426
    4.530   10.7952
    4.560   10.5108
    4.590   10.9531
    4.620   10.7109
    4.650   11.0479
    4.680   10.7004
    4.710   11.3112
    4.740   11.4692
    4.770   12.1432
    4.800   11.8589
    4.830   12.3433
    4.860   12.3539
    4.890   12.8594
    4.920   13.2175
    4.950   13.1016
    4.980   13.6598
    5.010   14.5234
    5.040   15.3239
    5.070   15.9242
    5.100   16.4824
    5.130   16.6509
    5.160   18.0727
    5.190   19.2628
    5.220   19.8420
    5.250   21.6008
    5.280   23.6756
    5.310   26.0453
    5.340   28.3728
    5.370   31.4797
    5.400   35.5766
    5.430   41.3902
    5.460   50.0369
    5.490   62.6224
    5.520   77.6093
    5.550   73.2385
    5.580   43.8968
    5.610   16.5034
    5.640   11.0269
    5.670    9.6051
    5.700    8.9205
    5.730    9.1732
    5.760    8.9310
    5.790    8.5519
    5.820    7.9094
    5.850    8.3307
    5.880    8.7730
    5.910    8.5203
    5.940    8.3307
    5.970    8.7309
    6.000    8.5624
    6.030    8.3307
    6.060    8.4887
    6.090    8.2675
    6.120    8.3412
    6.150    8.4571
    6.180    8.2780
    6.210    8.1938
    6.240    8.5835
    6.270    8.2464
    6.300    8.8573
    6.330    8.8994
    6.360    9.0153
    6.390    9.3207
    6.420    9.5419
    6.450    9.4997
    6.480    9.9315
    6.510   10.5635
    6.540   10.6161
    6.570   11.2059
    6.600   12.0379
    6.630   12.8173
    6.660   13.9337
    6.690   15.6398
    6.720   18.4097
    6.750   21.3586
    6.780   23.5492
    6.810   20.9795
    6.840   11.8273
    6.870    8.6045
    6.900    7.8778
    6.930    8.1306
    6.960    7.6356
    6.990    7.7199
    7.020    8.0358
    7.050    7.6567
    7.080    7.8462
    7.110    7.4566
    7.140    7.8989
    7.170    7.5724
    7.200    7.4355
    7.230    7.9410
    7.260    7.9516
    7.290    7.5092
    7.320    8.2149
    7.350    8.1201
    7.380    7.8778
    7.410    8.1411
    7.440    8.0358
    7.470    8.6467
    7.500    9.3102
    7.530    9.0153
    7.560    9.9526
    7.590    9.9526
    7.620   10.0685
    7.650   11.0479
    7.680   12.2380
    7.710   13.9231
    7.740   14.8920
    7.770   17.8726
    7.800   22.2012
    7.830   23.7809
    7.860   19.9579
    7.890   12.1643
    7.920    8.0990
    7.950    7.9621
    7.980    8.2149
    8.010    7.4039
    8.040    7.0879
    8.070    7.5092
    8.100    7.3091
    8.130    7.2565
    8.160    7.1195
    8.190    7.3196
    8.220    6.8984
    8.250    6.9300
    8.280    6.9194
    8.310    6.8352
    8.340    7.4250
    8.370    7.2880
    8.400    7.3828
    8.430    6.9510
    8.460    7.2143
    8.490    7.3512
    8.520    7.3091
    8.550    6.7193
    8.580    6.8246
    8.610    7.4355
    8.640    7.8357
    8.670    7.2249
    8.700    8.0463
    8.730    8.6151
    8.760    9.0890
    8.790    8.2043
    8.820    7.1195
    8.850    7.0985
    8.880    6.8352
    8.910    6.9510
    8.940    7.1301
    8.970    6.9826
    9.000    7.3618
    9.030    7.3934
    9.060    7.7830
    9.090    7.9200
    9.120    7.3407
    9.150    7.8673
    9.180    8.3939
    9.210    9.1417
    9.240    9.4892
    9.270    9.5419
    9.300    9.9421
    9.330   10.9953
    9.360   12.1011
    9.390   12.9647
    9.420   14.1969
    9.450   16.6930
    9.480   19.5471
    9.510   23.6230
    9.540   30.9321
    9.570   39.4102
    9.600   42.3275
    9.630   32.0484
    9.660   15.7767
    9.690    8.5624
    9.720    7.2565
    9.750    7.4039
    9.780    6.8878
    9.810    6.6772
    9.840    6.7088
    9.870    7.2459
    9.900    7.0669
    9.930    6.6983
    9.960    6.8562
    9.990    6.8773
   10.020    7.2038
   10.050    6.8773
   10.080    7.7830
   10.110    7.7725
   10.140    8.4044
   10.170    8.8362
   10.200    9.4997
   10.230   10.1948
   10.260   10.7741
   10.290   12.7014
   10.320   15.1448
   10.350   17.7883
   10.380   17.0827
   10.410   12.7751
   10.440    8.8678
   10.470    7.0037
   10.500    6.8352
   10.530    6.5929
   10.560    6.6245
   10.590    6.8141
   10.620    6.1927
   10.650    6.8984
   10.680    6.6983
   10.710    6.5087
   10.740    7.2354
   10.770    7.0353
   10.800    7.4987
   10.830    7.7620
   10.860    8.1517
   10.890    8.4044
   10.920    8.8468
   10.950    9.4681
   10.980   10.2580
   11.010   11.8167
   11.040   14.7551
   11.070   16.6930
   11.100   16.1243
   11.130   12.1116
   11.160    8.1727
   11.190    6.6456
   11.220    6.8457
   11.250    6.7299
   11.280    6.6140
   11.310    6.9616
   11.340    6.4560
   11.370    6.6245
   11.400    6.6456
   11.430    7.1406
   11.460    7.1406
   11.490    7.7093
   11.520    7.8989
   11.550    7.8884
   11.580    7.9831
   11.610    9.5208
   11.640   10.4371
   11.670   11.9747
   11.700   13.6704
   11.730   16.3560
   11.760   18.0411
   11.790   15.2607
   11.820   10.1948
   11.850    7.3091
   11.880    6.8562
   11.910    6.6351
   11.940    6.0137
   11.970    6.4982
   12.000    6.1401
   12.030    6.3086
   12.060    6.6245
   12.090    6.6351
   12.120    6.5192
   12.150    6.7404
   12.180    6.6035
   12.210    6.3507
   12.240    6.7825
   12.270    6.9089
   12.300    7.0248
   12.330    7.4882
   12.360    8.1411
   12.390    7.9726
   12.420    7.6145
   12.450    6.6561
   12.480    6.3296
   12.510    6.4982
   12.540    6.7720
   12.570    6.4034
   12.600    6.3612
   12.630    6.5613
   12.660    6.5613
   12.690    6.6245
   12.720    6.4560
   12.750    6.8984
   12.780    6.9300
   12.810    7.4671
   12.840    7.7620
   12.870    8.4571
   12.900    9.3839
   12.930   10.6266
   12.960   12.2907
   12.990   14.2496
   13.020   13.5334
   13.050   11.0690
   13.080    7.7620
   13.110    6.8878
   13.140    6.0979
   13.170    6.4560
   13.200    6.3086
   13.230    6.3507
   13.260    6.2559
   13.290    6.4560
   13.320    6.3402
   13.350    6.7404
   13.380    6.5929
   13.410    6.7193
   13.440    7.1406
   13.470    7.1722
   13.500    8.2886
   13.530    8.9415
   13.560    9.9210
   13.590   10.3633
   13.620    9.0574
   13.650    7.2670
   13.680    6.4560
   13.710    6.4244
   13.740    6.1822
   13.770    6.0242
   13.800    6.3823
   13.830    6.1506
   13.860    6.9194
   13.890    7.0353
   13.920    7.3828
   13.950    6.9826
   13.980    7.1511
   14.010    7.3934
   14.040    8.4992
   14.070    9.3734
   14.100   11.3639
   14.130   12.6488
   14.160   11.9115
   14.190   10.0579
   14.220    7.2775
   14.250    6.7720
   14.280    6.0769
   14.310    6.6561
   14.340    6.1927
   14.370    6.1717
   14.400    6.0558
   14.430    6.4244
   14.460    6.0874
   14.490    6.0032
   14.520    5.6556
   14.550    5.9926
   14.580    6.3402
   14.610    6.0558
   14.640    6.5298
   14.670    6.4876
   14.700    6.1190
   14.730    6.3928
   14.760    6.2875
   14.790    6.3191
   14.820    6.7299
   14.850    6.4350
   14.880    5.9610
   14.910    6.1295
   14.940    6.0032
   14.970    6.4244
   15.000    6.3612
   15.030    6.4244
   15.060    6.3718
   15.090    6.9089
   15.120    7.0353
   15.150    7.0563
   15.180    7.1827
   15.210    7.6356
   15.240    7.6145
   15.270    6.0979
   15.300    6.4771
   15.330    6.3191
   15.360    5.6556
   15.390    6.1401
   15.420    6.3612
   15.450    6.1927
   15.480    6.3823
   15.510    5.9505
   15.540    5.9610
   15.570    6.2349
   15.600    6.0032
   15.630    6.0242
   15.660    6.5192
   15.690    6.2665
   15.720    5.7715
   15.750    6.3823
   15.780    6.0453
   15.810    6.3086
   15.840    5.9400
   15.870    6.2033
   15.900    5.9821
   15.930    6.4350
   15.960    6.0032
   15.990    6.1927
   16.020    6.1085
   16.050    6.8141
   16.080    6.5929
   16.110    6.9300
   16.140    7.5829
   16.170    7.5829
   16.200    7.7093
   16.230    7.4671
   16.260    6.7193
   16.290    6.2770
   16.320    6.1927
   16.350    5.8978
   16.380    6.2033
   16.410    5.9926
   16.440    6.4771
   16.470    6.5508
   16.500    6.1401
   16.530    6.7299
   16.560    7.0353
   16.590    7.1617
   16.620    7.4882
   16.650    7.8568
   16.680    8.0042
   16.710    7.0142
   16.740    6.6140
   16.770    6.0664
   16.800    6.6561
   16.830    6.7509
   16.860    6.5298
   16.890    6.6877
   16.920    6.7615
   16.950    7.3618
   16.980    7.3512
   17.010    7.8989
   17.040    9.3523
   17.070   10.9426
   17.100   12.2696
   17.130   11.5745
   17.160   10.0685
   17.190    8.1095
   17.220    6.4455
   17.250    6.6456
   17.280    6.3086
   17.310    6.2770
   17.340    6.3296
   17.370    6.3928
   17.400    5.9610
   17.430    6.8141
   17.460    6.5719
   17.490    6.5613
   17.520    6.8246
   17.550    7.6356
   17.580    7.2880
   17.610    6.8352
   17.640    6.3086
   17.670    6.3296
   17.700    6.3086
   17.730    6.1822
   17.760    6.1401
   17.790    6.0348
   17.820    6.5824
   17.850    6.7404
   17.880    6.4244
   17.910    6.3612
   17.940    7.1722
   17.970    7.0985
   18.000    7.3196
   18.030    7.6777
   18.060    6.7193
   18.090    6.6667
   18.120    5.8557
   18.150    5.9189
   18.180    6.5087
   18.210    6.5192
   18.240    6.4244
   18.270    6.6772
   18.300    6.5929
   18.330    6.7299
   18.360    7.0985
   18.390    7.2775
   18.420    7.8041
   18.450    7.6356
   18.480    7.6145
   18.510    6.3191
   18.540    6.4244
   18.570    5.9294
   18.600    6.0874
   18.630    6.2243
   18.660    6.1611
   18.690    6.2981
   18.720    6.0979
   18.750    6.5613
   18.780    6.6561
   18.810    7.1301
   18.840    6.6772
   18.870    6.9194
   18.900    6.4876
   18.930    5.8978
   18.960    6.2033
   18.990    6.4244
   19.020    6.2033
   19.050    6.4876
   19.080    6.4350
   19.110    6.1611
   19.140    6.0242
   19.170    6.5719
   19.200    6.3928
   19.230    6.1822
   19.260    6.7299
   19.290    6.6456
   19.320    6.0979
   19.350    6.1401
   19.380    6.0137
   19.410    6.1927
   19.440    6.1822
   19.470    6.5192
   19.500    6.4034
   19.530    6.9932
   19.560    6.9405
   19.590    7.5092
   19.620    7.9305
   19.650    7.8252
   19.680    8.0253
   19.710    7.3302
   19.740    6.9721
   19.770    6.2454
   19.800    6.4771
   19.830    6.1295
   19.860    6.5508
   19.890    6.4139
   19.920    6.2981
   19.950    6.6772
   19.980    6.6035
   20.010    6.4034
   20.040    6.7299
   20.070    6.2559
   20.100    6.0348
   20.130    6.3612
   20.160    6.0348
   20.190    6.7088
   20.220    6.6561
   20.250    7.0563
   20.280    6.8141
   20.310    7.3934
   20.340    8.5308
   20.370    8.4255
   20.400   10.0474
   20.430   10.4160
   20.460   10.0579
   20.490    8.8468
   20.520    7.7093
   20.550    6.7825
   20.580    6.2559
   20.610    6.1085
   20.640    6.3086
   20.670    6.4455
   20.700    6.2665
   20.730    6.4560
   20.760    6.0769
   20.790    6.7825
   20.820    6.6351
   20.850    6.4876
   20.880    5.8557
   20.910    6.4139
   20.940    6.1611
   20.970    6.3823
   21.000    5.8978
   21.030    6.0242
   21.060    6.1506
   21.090    6.2138
   21.120    6.2981
   21.150    6.0558
   21.180    6.3507
   21.210    6.5087
   21.240    5.8452
   21.270    6.4455
   21.300    5.9716
   21.330    6.3823
   21.360    6.6561
   21.390    6.3507
   21.420    6.4982
   21.450    6.5929
   21.480    6.2770
   21.510    6.3296
   21.540    6.3296
   21.570    6.2981
   21.600    6.5613
   21.630    6.5403
   21.660    6.3296
   21.690    6.5613
   21.720    6.2875
   21.750    6.3823
   21.780    6.4034
   21.810    7.0985
   21.840    7.3407
   21.870    8.0779
   21.900    7.7620
   21.930    8.1622
   21.960    7.8884
   21.990    6.8562
   22.020    6.5192
   22.050    6.4982
   22.080    6.4560
   22.110    6.9089
   22.140    6.4139
   22.170    7.1195
   22.200    7.3196
   22.230    7.4144
   22.260    7.6672
   22.290    7.3934
   22.320    7.2565
   22.350    7.4566
   22.380    6.5824
   22.410    6.7930
   22.440    7.2565
   22.470    7.1722
   22.500    7.7304
   22.530    8.2464
   22.560   10.0053
   22.590   10.5003
   22.620   11.7009
   22.650   10.5319
   22.680    9.5419
   22.710    8.2570
   22.740    6.8668
   22.770    6.9616
   22.800    7.3512
   22.830    7.0669
   22.860    8.1938
   22.890    8.8994
   22.920   10.1738
   22.950   11.4376
   22.980   10.8794
   23.010   10.1316
   23.040    8.7098
   23.070    7.3934
   23.100    6.7720
   23.130    6.2665
   23.160    6.8773
   23.190    7.0458
   23.220    7.2670
   23.250    7.7725
   23.280    7.9094
   23.310    7.9200
   23.340    7.7830
   23.370    7.1827
   23.400    6.9721
   23.430    6.3086
   23.460    6.4771
   23.490    6.7720
   23.520    6.3612
   23.550    6.5087
   23.580    6.5192
   23.610    6.5087
   23.640    6.4455
   23.670    6.6983
   23.700    6.5824
   23.730    6.2559
   23.760    6.0979
   23.790    6.0664
   23.820    6.4455
   23.850    6.2875
   23.880    6.8562
   23.910    7.1511
   23.940    7.9726
   23.970    7.5197
   24.000    7.3196
   24.030    7.0669
   24.060    6.9300
   24.090    6.5508
   24.120    6.4560
   24.150    6.0769
   24.180    6.0032
   24.210    6.1295
   24.240    6.4771
   24.270    6.5403
   24.300    6.4666
   24.330    6.7930
   24.360    6.3296
   24.390    6.2559
   24.420    6.2138
   24.450    6.1401
   24.480    6.4876
   24.510    6.6456
   24.540    6.6877
   24.570    6.4034
   24.600    6.6877
   24.630    6.4982
   24.660    6.2665
   24.690    6.4455
   24.720    6.5192
   24.750    6.4350
   24.780    6.1822
   24.810    6.0137
   24.840    6.5298
   24.870    6.1506
   24.900    6.4350
   24.930    7.0774
   24.960    6.5508
   24.990    6.5613
   25.020    6.5192
   25.050    6.2665
   25.080    6.4139
   25.110    6.3928
   25.140    6.3086
   25.170    6.5613
   25.200    6.5508
   25.230    6.7615
   25.260    7.1617
   25.290    6.6456
   25.320    6.4876
   25.350    6.1717
   25.380    6.3823
   25.410    6.5508
   25.440    6.6456
   25.470    6.0348
   25.500    6.2770
   25.530    6.1717
   25.560    6.4666
   25.590    6.5298
   25.620    6.8984
   25.650    6.5087
   25.680    6.3191
   25.710    6.6140
   25.740    6.5929
   25.770    7.5303
   25.800    8.3518
   25.830    9.7209
   25.860    9.4997
   25.890    9.5103
   25.920    9.3628
   25.950    7.8989
   25.980    6.9300
   26.010    6.9194
   26.040    5.9610
   26.070    6.1401
   26.100    6.0032
   26.130    6.4350
   26.160    6.0769
   26.190    6.4455
   26.220    6.5087
   26.250    6.3718
   26.280    5.9294
   26.310    6.3718
   26.340    5.9294
   26.370    6.3402
   26.400    6.6140
   26.430    7.0879
   26.460    7.5935
   26.490    7.2038
   26.520    7.2143
   26.550    6.5824
   26.580    6.7720
   26.610    6.1927
   26.640    6.2454
   26.670    6.1401
   26.700    5.6977
   26.730    6.1295
   26.760    6.3191
   26.790    6.0453
   26.820    6.0242
   26.850    6.1611
   26.880    6.1085
   26.910    6.1717
   26.940    6.2875
   26.970    6.5508
   27.000    6.8562
   27.030    7.1195
   27.060    7.5408
   27.090    7.6883
   27.120    7.0353
   27.150    7.0353
   27.180    6.6561
   27.210    6.0453
   27.240    6.1506
   27.270    6.0769
   27.300    6.0242
   27.330    5.9821
   27.360    6.2349
   27.390    5.8768
   27.420    5.6767
   27.450    5.8452
   27.480    6.2138
   27.510    6.6772
   27.540    6.2875
   27.570    6.7930
   27.600    7.0353
   27.630    6.5929
   27.660    7.0774
   27.690    6.8246
   27.720    6.8878
   27.750    6.3402
   27.780    6.2138
   27.810    6.2243
   27.840    5.8031
   27.870    6.3507
   27.900    6.3612
   27.930    6.7509
   27.960    6.5298
   27.990    6.6667
   28.020    6.2349
   28.050    6.1506
   28.080    6.7615
   28.110    6.3718
   28.140    6.4560
   28.170    7.0353
   28.200    7.7514
   28.230    7.6672
   28.260    7.2775
   28.290    7.2565
   28.320    6.9932
   28.350    6.5824
   28.380    6.4876
   28.410    6.5508
   28.440    6.8773
   28.470    7.2670
   28.500    6.8036
   28.530    7.5197
   28.560    7.3934
   28.590    6.5298
   28.620    6.3402
   28.650    6.0348
   28.680    5.9084
   28.710    6.0137
   28.740    6.3402
   28.770    5.9084
   28.800    5.9505
   28.830    6.0979
   28.860    5.9294
   28.890    5.9610
   28.920    5.9505
   28.950    5.8978
   28.980    6.3612
   29.010    5.8662
   29.040    6.3507
   29.070    6.6772
   29.100    6.4244
   29.130    6.4139
   29.160    5.6135
   29.190    5.9084
   29.220    6.2770
   29.250    6.6561
   29.280    6.6351
   29.310    6.9616
   29.340    7.1827
   29.370    6.7088
   29.400    6.7615
   29.430    6.5824
   29.460    5.9926
   29.490    6.0664
   29.520    5.7925
   29.550    6.0348
   29.580    5.9821
   29.610    5.9189
   29.640    6.0769
   29.670    5.8768
   29.700    5.9716
   29.730    5.8662
   29.760    5.8662
   29.790    6.0032
   29.820    5.8452
   29.850    6.1085
   29.880    6.6351
   29.910    6.2033
   29.940    6.4139
   29.970    6.6456
   30.000    5.8557
   30.030    5.6661
   30.060    5.5608
   30.090    5.7925
   30.120    6.1295
   30.150    6.3612
   30.180    6.1295
   30.210    6.1506
   30.240    6.0979
   30.270    5.9821
   30.300    5.6029
   30.330    5.7609
   30.360    5.6767
   30.390    6.1295
   30.420    5.8662
   30.450    5.8978
   30.480    6.0242
   30.510    5.8557
   30.540    5.6977
   30.570    5.6872
   30.600    6.1822
   30.630    6.2665
   30.660    6.7193
   30.690    6.2454
   30.720    6.4876
   30.750    5.9189
   30.780    5.7504
   30.810    5.9189
   30.840    5.6556
   30.870    5.5608
   30.900    6.0874
   30.930    6.0348
   30.960    5.6556
   30.990    5.7399
   31.020    5.4976
   31.050    5.6556
   31.080    5.5608
   31.110    5.7715
   31.140    5.5187
   31.170    5.3818
   31.200    5.9084
   31.230    5.5187
   31.260    5.4976
   31.290    5.6661
   31.320    6.1822
   31.350    5.9821
   31.380    5.9505
   31.410    6.2981
   31.440    6.0032
   31.470    6.3086
   31.500    5.7715
   31.530    5.9610
   31.560    5.7504
   31.590    5.8978
   31.620    5.4871
   31.650    5.7293
   31.680    5.6767
   31.710    5.8452
   31.740    5.8241
   31.770    5.7820
   31.800    5.2133
   31.830    5.8557
   31.860    5.6977
   31.890    6.0137
   31.920    5.7715
   31.950    6.1190
   31.980    5.7820
   32.010    5.5082
   32.040    5.5292
   32.070    5.6240
   32.100    6.2875
   32.130    5.8347
   32.160    5.7715
   32.190    5.4450
   32.220    5.6556
   32.250    5.7293
   32.280    5.4976
   32.310    5.6451
   32.340    5.7925
   32.370    5.2238
   32.400    5.7925
   32.430    5.5292
   32.460    5.3397
   32.490    5.7715
   32.520    4.9816
   32.550    5.4134
   32.580    5.4976
   32.610    5.3923
   32.640    5.7504
   32.670    5.4976
   32.700    5.7083
   32.730    5.5819
   32.760    5.2975
   32.790    5.3712
   32.820    5.2554
   32.850    5.8768
   32.880    5.8031
   32.910    5.7188
   32.940    5.5082
   32.970    5.8768
   33.000    5.8768
   33.030    5.5924
   33.060    5.4450
   33.090    5.5503
   33.120    5.4450
   33.150    5.4766
   33.180    5.3502
   33.210    5.3712
   33.240    5.2765
   33.270    5.0974
   33.300    4.9500
   33.330    5.2765
   33.360    5.1606
   33.390    5.3397
   33.420    5.3186
   33.450    5.0026
   33.480    5.4871
   33.510    5.1185
   33.540    5.4871
   33.570    5.3818
   33.600    5.1290
   33.630    5.4239
   33.660    5.1711
   33.690    5.5503
   33.720    5.5398
   33.750    5.3607
   33.780    5.6451
   33.810    5.5714
   33.840    5.8347
   33.870    5.6977
   33.900    5.8557
   33.930    5.9084
   33.960    5.6767
   33.990    5.2659
   34.020    5.2027
   34.050    5.6345
   34.080    5.4344
   34.110    5.4134
   34.140    5.5924
   34.170    5.7715
   34.200    5.2449
   34.230    5.7083
   34.260    5.2554
   34.290    5.4028
   34.320    5.3607
   34.350    5.2238
   34.380    5.5398
   34.410    5.1711
   34.440    5.2659
   34.470    5.1922
   34.500    5.0869
   34.530    5.3712
   34.560    5.0974
   34.590    5.1290
   34.620    5.0658
   34.650    5.0132
   34.680    5.2554
   34.710    5.0974
   34.740    5.3081
   34.770    5.2975
   34.800    5.3923
   34.830    5.2765
   34.860    5.3607
   34.890    5.4344
   34.920    5.3502
   34.950    5.3502
   34.980    5.0132
   35.010    5.0237
   35.040    5.2870
   35.070    4.9078
   35.100    4.9921
   35.130    4.9816
   35.160    4.9078
   35.190    5.0553
   35.220    5.0342
   35.250    4.9394
   35.280    5.0026
   35.310    5.0764
   35.340    5.0342
   35.370    5.0132
   35.400    5.0869
   35.430    5.2027
   35.460    5.1711
   35.490    5.0342
   35.520    4.8447
   35.550    4.6235
   35.580    5.1922
   35.610    4.9289
   35.640    4.8973
   35.670    5.3818
   35.700    5.3712
   35.730    5.0869
   35.760    5.2133
   35.790    5.6345
   35.820    5.0974
   35.850    5.1080
   35.880    5.2870
   35.910    4.9605
   35.940    5.0342
   35.970    4.9184
   36.000    5.5292
   36.030    5.1606
   36.060    5.3712
   36.090    5.2027
   36.120    5.4976
   36.150    5.3186
   36.180    5.5924
   36.210    5.3607
   36.240    5.2133
   36.270    4.8763
   36.300    5.0026
   36.330    5.0974
   36.360    5.0869
   36.390    5.0342
   36.420    4.8657
   36.450    5.0342
   36.480    4.9710
   36.510    4.9605
   36.540    5.1080
   36.570    4.9500
   36.600    4.8657
   36.630    5.2343
   36.660    5.1395
   36.690    4.9605
   36.720    5.3081
   36.750    5.0658
   36.780    4.9078
   36.810    5.1395
   36.840    4.5814
   36.870    4.7709
   36.900    4.9921
   36.930    5.3397
   36.960    4.8657
   36.990    5.2659
   37.020    5.2343
   37.050    5.0553
   37.080    5.1922
   37.110    5.3291
   37.140    5.4871
   37.170    5.3397
   37.200    5.1711
   37.230    4.9921
   37.260    4.7920
   37.290    5.2027
   37.320    4.6024
   37.350    4.8447
   37.380    4.8657
   37.410    5.3186
   37.440    4.5182
   37.470    4.7077
   37.500    4.7288
   37.530    5.0658
   37.560    5.1606
   37.590    5.2659
   37.620    4.8973
   37.650    5.3081
   37.680    5.0132
   37.710    5.1185
   37.740    5.0974
   37.770    5.1395
   37.800    4.9500
   37.830    5.0658
   37.860    5.0658
   37.890    5.1290
   37.920    4.6972
   37.950    4.7604
   37.980    5.1711
   38.010    4.8025
   38.040    4.8763
   38.070    5.2975
   38.100    5.0974
   38.130    5.1922
   38.160    4.8868
   38.190    5.0237
   38.220    4.8447
   38.250    4.9816
   38.280    4.7499
   38.310    4.9500
   38.340    4.6972
   38.370    5.1290
   38.400    4.6024
   38.430    5.0448
   38.460    5.1185
   38.490    4.9394
   38.520    4.4971
   38.550    4.7288
   38.580    4.6867
   38.610    4.8131
   38.640    4.2865
   38.670    4.6867
   38.700    4.5182
   38.730    4.7815
   38.760    4.8552
   38.790    4.7815
   38.820    5.1080
   38.850    4.7499
   38.880    4.9394
   38.910    4.7499
   38.940    4.4655
   38.970    4.8657
   39.000    4.6656
   39.030    4.7815
   39.060    4.6972
   39.090    4.8025
   39.120    4.8131
   39.150    4.7709
   39.180    4.7604
   39.210    4.8973
   39.240    5.0237
   39.270    4.9816
   39.300    4.6761
   39.330    4.9289
   39.360    4.7815
   39.390    5.0553
   39.420    4.6551
   39.450    5.1185
   39.480    4.6656
   39.510    4.6024
   39.540    4.4866
   39.570    4.8657
   39.600    4.5603
   39.630    4.9605
   39.660    4.9184
   39.690    4.6235
   39.720    4.8763
   39.750    4.9605
   39.780    5.0553
   39.810    5.0237
   39.840    4.8447
   39.870    4.7815
   39.900    4.7709
   39.930    4.8552
   39.960    4.5919
   39.990    4.8447