File: data/PXRD/PXRD_KE-243_Co-Ka1_capillary-1mm_5s-deg.xyd
    1.500    6.6667
    1.530    6.5811
    1.560    6.4526
    1.590    5.1792
    1.620    5.4254
    1.650    5.3184
    1.680    4.9010
    1.710    4.7726
    1.740    4.0770
    1.770    4.0556
    1.800    3.8309
    1.830    3.6169
    1.860    3.7988
    1.890    3.2959
    1.920    3.4350
    1.950    2.7608
    1.980    2.8250
    2.010    2.4398
    2.040    2.5789
    2.070    2.5896
    2.100    2.7715
    2.130    2.7608
    2.160    2.5789
    2.190    2.3221
    2.220    2.3649
    2.250    2.0225
    2.280    1.8620
    2.310    1.7549
    2.340    1.8834
    2.370    1.8513
    2.400    1.5516
    2.430    1.7871
    2.460    1.7121
    2.490    1.5837
    2.520    1.6586
    2.550    1.4874
    2.580    1.4018
    2.610    1.3483
    2.640    1.3697
    2.670    1.3376
    2.700    1.1771
    2.730    1.2092
    2.760    1.3269
    2.790    1.1557
    2.820    1.2092
    2.850    1.1557
    2.880    1.1022
    2.910    1.1343
    2.940    1.2520
    2.970    1.0915
    3.000    1.0594
    3.030    1.1664
    3.060    0.8668
    3.090    1.1343
    3.120    0.8133
    3.150    0.9631
    3.180    0.9417
    3.210    0.9631
    3.240    0.8347
    3.270    0.8989
    3.300    0.8240
    3.330    0.8882
    3.360    0.8347
    3.390    0.8454
    3.420    0.8240
    3.450    0.7277
    3.480    0.8133
    3.510    0.6635
    3.540    0.6849
    3.570    0.8347
    3.600    0.7919
    3.630    0.8775
    3.660    0.6528
    3.690    0.6207
    3.720    0.9417
    3.750    0.7277
    3.780    0.7491
    3.810    0.8133
    3.840    0.5671
    3.870    0.6100
    3.900    0.7598
    3.930    0.6207
    3.960    0.6635
    3.990    0.5457
    4.020    0.5886
    4.050    0.5350
    4.080    0.7491
    4.110    0.6314
    4.140    0.6742
    4.170    0.5886
    4.200    0.5886
    4.230    0.6421
    4.260    0.6314
    4.290    0.5778
    4.320    0.5886
    4.350    0.5457
    4.380    0.6849
    4.410    0.6314
    4.440    0.6635
    4.470    0.6421
    4.500    0.6100
    4.530    0.6635
    4.560    0.5993
    4.590    0.5029
    4.620    0.7277
    4.650    0.6314
    4.680    0.5564
    4.710    0.6100
    4.740    0.5243
    4.770    0.6421
    4.800    0.6421
    4.830    0.6421
    4.860    0.5993
    4.890    0.5243
    4.920    0.7170
    4.950    0.6207
    4.980    0.4815
    5.010    0.5243
    5.040    0.6635
    5.070    0.5778
    5.100    0.5243
    5.130    0.6314
    5.160    0.6849
    5.190    0.4815
    5.220    0.6100
    5.250    0.5671
    5.280    0.5243
    5.310    0.5457
    5.340    0.6849
    5.370    0.4601
    5.400    0.5993
    5.430    0.5029
    5.460    0.6207
    5.490    0.5457
    5.520    0.6207
    5.550    0.6421
    5.580    0.6100
    5.610    0.7063
    5.640    0.5993
    5.670    0.5564
    5.700    0.5243
    5.730    0.7170
    5.760    0.5671
    5.790    0.6314
    5.820    0.5243
    5.850    0.5778
    5.880    0.6207
    5.910    0.6528
    5.940    0.5029
    5.970    0.4815
    6.000    0.6207
    6.030    0.5778
    6.060    0.5136
    6.090    0.6314
    6.120    0.4708
    6.150    0.5671
    6.180    0.5778
    6.210    0.6207
    6.240    0.5457
    6.270    0.5993
    6.300    0.4922
    6.330    0.5778
    6.360    0.5029
    6.390    0.5671
    6.420    0.5350
    6.450    0.5564
    6.480    0.5778
    6.510    0.6207
    6.540    0.6314
    6.570    0.5029
    6.600    0.5993
    6.630    0.6207
    6.660    0.5671
    6.690    0.5993
    6.720    0.4708
    6.750    0.6100
    6.780    0.5564
    6.810    0.4387
    6.840    0.5457
    6.870    0.5457
    6.900    0.6421
    6.930    0.5457
    6.960    0.4815
    6.990    0.5778
    7.020    0.5136
    7.050    0.3852
    7.080    0.5778
    7.110    0.6635
    7.140    0.5886
    7.170    0.5029
    7.200    0.5350
    7.230    0.4280
    7.260    0.5029
    7.290    0.5243
    7.320    0.5243
    7.350    0.6635
    7.380    0.5350
    7.410    0.5029
    7.440    0.5564
    7.470    0.4601
    7.500    0.5350
    7.530    0.4815
    7.560    0.5671
    7.590    0.5136
    7.620    0.4387
    7.650    0.5778
    7.680    0.4601
    7.710    0.5136
    7.740    0.6100
    7.770    0.4922
    7.800    0.4922
    7.830    0.6207
    7.860    0.4922
    7.890    0.4708
    7.920    0.5457
    7.950    0.5457
    7.980    0.5457
    8.010    0.5029
    8.040    0.5671
    8.070    0.4922
    8.100    0.5136
    8.130    0.4815
    8.160    0.5886
    8.190    0.5993
    8.220    0.4601
    8.250    0.5243
    8.280    0.5457
    8.310    0.5457
    8.340    0.6100
    8.370    0.5671
    8.400    0.4173
    8.430    0.5886
    8.460    0.5029
    8.490    0.5778
    8.520    0.5457
    8.550    0.5243
    8.580    0.5886
    8.610    0.6528
    8.640    0.5029
    8.670    0.5029
    8.700    0.5136
    8.730    0.4922
    8.760    0.3959
    8.790    0.5993
    8.820    0.5564
    8.850    0.5243
    8.880    0.6528
    8.910    0.5350
    8.940    0.5564
    8.970    0.5778
    9.000    0.5778
    9.030    0.4815
    9.060    0.5350
    9.090    0.5457
    9.120    0.5243
    9.150    0.4708
    9.180    0.5350
    9.210    0.5350
    9.240    0.4922
    9.270    0.5457
    9.300    0.4815
    9.330    0.5350
    9.360    0.4815
    9.390    0.5778
    9.420    0.5993
    9.450    0.4815
    9.480    0.5886
    9.510    0.5671
    9.540    0.5350
    9.570    0.4280
    9.600    0.5136
    9.630    0.6100
    9.660    0.6421
    9.690    0.5993
    9.720    0.6528
    9.750    0.7277
    9.780    0.5243
    9.810    0.5778
    9.840    0.6207
    9.870    0.5886
    9.900    0.5671
    9.930    0.5671
    9.960    0.7063
    9.990    0.7277
   10.020    0.5778
   10.050    0.5350
   10.080    0.4815
   10.110    0.5671
   10.140    0.5350
   10.170    0.4815
   10.200    0.5886
   10.230    0.5243
   10.260    0.6314
   10.290    0.5564
   10.320    0.6956
   10.350    0.6314
   10.380    0.6635
   10.410    0.6635
   10.440    0.5029
   10.470    0.5671
   10.500    0.5778
   10.530    0.5886
   10.560    0.6849
   10.590    0.6528
   10.620    0.6742
   10.650    0.5564
   10.680    0.5671
   10.710    0.5993
   10.740    0.6421
   10.770    0.6635
   10.800    0.6207
   10.830    0.5886
   10.860    0.5671
   10.890    0.6421
   10.920    0.6849
   10.950    0.6956
   10.980    0.5136
   11.010    0.6314
   11.040    0.6528
   11.070    0.6742
   11.100    0.5778
   11.130    0.5886
   11.160    0.5993
   11.190    0.5778
   11.220    0.6742
   11.250    0.6207
   11.280    0.6207
   11.310    0.5671
   11.340    0.6207
   11.370    0.6742
   11.400    0.6100
   11.430    0.6314
   11.460    0.5564
   11.490    0.6207
   11.520    0.6742
   11.550    0.6421
   11.580    0.6742
   11.610    0.6421
   11.640    0.6314
   11.670    0.8133
   11.700    0.6742
   11.730    0.6207
   11.760    0.6528
   11.790    0.6635
   11.820    0.5778
   11.850    0.6207
   11.880    0.6100
   11.910    0.6314
   11.940    0.5993
   11.970    0.5778
   12.000    0.5457
   12.030    0.6635
   12.060    0.5993
   12.090    0.5029
   12.120    0.6314
   12.150    0.5564
   12.180    0.6528
   12.210    0.6100
   12.240    0.5564
   12.270    0.4922
   12.300    0.4494
   12.330    0.5993
   12.360    0.4173
   12.390    0.5993
   12.420    0.4708
   12.450    0.5029
   12.480    0.5350
   12.510    0.5457
   12.540    0.6314
   12.570    0.6849
   12.600    0.5350
   12.630    0.5243
   12.660    0.4708
   12.690    0.5136
   12.720    0.6421
   12.750    0.4815
   12.780    0.6528
   12.810    0.5350
   12.840    0.5457
   12.870    0.4601
   12.900    0.5350
   12.930    0.5136
   12.960    0.5457
   12.990    0.5671
   13.020    0.6742
   13.050    0.5993
   13.080    0.4708
   13.110    0.4815
   13.140    0.4601
   13.170    0.6207
   13.200    0.5136
   13.230    0.5457
   13.260    0.5778
   13.290    0.5029
   13.320    0.6528
   13.350    0.6421
   13.380    0.6207
   13.410    0.5457
   13.440    0.5350
   13.470    0.5029
   13.500    0.5029
   13.530    0.4708
   13.560    0.4815
   13.590    0.4280
   13.620    0.5243
   13.650    0.5243
   13.680    0.4387
   13.710    0.5350
   13.740    0.5778
   13.770    0.6314
   13.800    0.4601
   13.830    0.5136
   13.860    0.4922
   13.890    0.5029
   13.920    0.5136
   13.950    0.4922
   13.980    0.5029
   14.010    0.5457
   14.040    0.4815
   14.070    0.4922
   14.100    0.5136
   14.130    0.3959
   14.160    0.4708
   14.190    0.4173
   14.220    0.4815
   14.250    0.4280
   14.280    0.5457
   14.310    0.4494
   14.340    0.4066
   14.370    0.4708
   14.400    0.4601
   14.430    0.4494
   14.460    0.4280
   14.490    0.5350
   14.520    0.5993
   14.550    0.4280
   14.580    0.4815
   14.610    0.5243
   14.640    0.5457
   14.670    0.4280
   14.700    0.4066
   14.730    0.4815
   14.760    0.4494
   14.790    0.4922
   14.820    0.5243
   14.850    0.4494
   14.880    0.4815
   14.910    0.4922
   14.940    0.5029
   14.970    0.4280
   15.000    0.4387
   15.030    0.4173
   15.060    0.5243
   15.090    0.5457
   15.120    0.3745
   15.150    0.6207
   15.180    0.4387
   15.210    0.5671
   15.240    0.4494
   15.270    0.3959
   15.300    0.4387
   15.330    0.5136
   15.360    0.5564
   15.390    0.4173
   15.420    0.4494
   15.450    0.4601
   15.480    0.4066
   15.510    0.4387
   15.540    0.4280
   15.570    0.4387
   15.600    0.5564
   15.630    0.3531
   15.660    0.4387
   15.690    0.5350
   15.720    0.4280
   15.750    0.6314
   15.780    0.4494
   15.810    0.4280
   15.840    0.5029
   15.870    0.5029
   15.900    0.4494
   15.930    0.5457
   15.960    0.5029
   15.990    0.4494
   16.020    0.4066
   16.050    0.4066
   16.080    0.5886
   16.110    0.5029
   16.140    0.4280
   16.170    0.5350
   16.200    0.5564
   16.230    0.4494
   16.260    0.4387
   16.290    0.5564
   16.320    0.5457
   16.350    0.5350
   16.380    0.4066
   16.410    0.5136
   16.440    0.4280
   16.470    0.2996
   16.500    0.5136
   16.530    0.3638
   16.560    0.4387
   16.590    0.6100
   16.620    0.4066
   16.650    0.4815
   16.680    0.4815
   16.710    0.3852
   16.740    0.4815
   16.770    0.4387
   16.800    0.4173
   16.830    0.4494
   16.860    0.6314
   16.890    0.4922
   16.920    0.4280
   16.950    0.4494
   16.980    0.6528
   17.010    0.4815
   17.040    0.5136
   17.070    0.5136
   17.100    0.4280
   17.130    0.5350
   17.160    0.5029
   17.190    0.5350
   17.220    0.3959
   17.250    0.4066
   17.280    0.5029
   17.310    0.5778
   17.340    0.4173
   17.370    0.4601
   17.400    0.4815
   17.430    0.5243
   17.460    0.4066
   17.490    0.5350
   17.520    0.4494
   17.550    0.4922
   17.580    0.4280
   17.610    0.5243
   17.640    0.4387
   17.670    0.5671
   17.700    0.3959
   17.730    0.5564
   17.760    0.4494
   17.790    0.4708
   17.820    0.4708
   17.850    0.4601
   17.880    0.4494
   17.910    0.4494
   17.940    0.5029
   17.970    0.5136
   18.000    0.4922
   18.030    0.4173
   18.060    0.5886
   18.090    0.5243
   18.120    0.4173
   18.150    0.5029
   18.180    0.4387
   18.210    0.4387
   18.240    0.4066
   18.270    0.4280
   18.300    0.5136
   18.330    0.5778
   18.360    0.5243
   18.390    0.4173
   18.420    0.4922
   18.450    0.3959
   18.480    0.5029
   18.510    0.4708
   18.540    0.3638
   18.570    0.4387
   18.600    0.4815
   18.630    0.3852
   18.660    0.5564
   18.690    0.4708
   18.720    0.4173
   18.750    0.5029
   18.780    0.4494
   18.810    0.3638
   18.840    0.4494
   18.870    0.4922
   18.900    0.4708
   18.930    0.4815
   18.960    0.3317
   18.990    0.4815
   19.020    0.3638
   19.050    0.5243
   19.080    0.5136
   19.110    0.5243
   19.140    0.4387
   19.170    0.4387
   19.200    0.4601
   19.230    0.5029
   19.260    0.4066
   19.290    0.4280
   19.320    0.5778
   19.350    0.3531
   19.380    0.5350
   19.410    0.4494
   19.440    0.4922
   19.470    0.4494
   19.500    0.3531
   19.530    0.4601
   19.560    0.4815
   19.590    0.4280
   19.620    0.3852
   19.650    0.3959
   19.680    0.4815
   19.710    0.4708
   19.740    0.4494
   19.770    0.4066
   19.800    0.4815
   19.830    0.5564
   19.860    0.4173
   19.890    0.5029
   19.920    0.4173
   19.950    0.4387
   19.980    0.4173
   20.010    0.4601
   20.040    0.5243
   20.070    0.5350
   20.100    0.4494
   20.130    0.4494
   20.160    0.4601
   20.190    0.4173
   20.220    0.4708
   20.250    0.4173
   20.280    0.3959
   20.310    0.5350
   20.340    0.4280
   20.370    0.4280
   20.400    0.5243
   20.430    0.5671
   20.460    0.5350
   20.490    0.3959
   20.520    0.5243
   20.550    0.4066
   20.580    0.4280
   20.610    0.5457
   20.640    0.5136
   20.670    0.4601
   20.700    0.5029
   20.730    0.5886
   20.760    0.5564
   20.790    0.4280
   20.820    0.4387
   20.850    0.4815
   20.880    0.5136
   20.910    0.4601
   20.940    0.4280
   20.970    0.4387
   21.000    0.5886
   21.030    0.5029
   21.060    0.4066
   21.090    0.4815
   21.120    0.5778
   21.150    0.5993
   21.180    0.5136
   21.210    0.3959
   21.240    0.6100
   21.270    0.4601
   21.300    0.4066
   21.330    0.4922
   21.360    0.4494
   21.390    0.5243
   21.420    0.4173
   21.450    0.4280
   21.480    0.5671
   21.510    0.4922
   21.540    0.4815
   21.570    0.4708
   21.600    0.4922
   21.630    0.4922
   21.660    0.4922
   21.690    0.3424
   21.720    0.3531
   21.750    0.4708
   21.780    0.4815
   21.810    0.4387
   21.840    0.4280
   21.870    0.5350
   21.900    0.5457
   21.930    0.4494
   21.960    0.4708
   21.990    0.5136
   22.020    0.4708
   22.050    0.4601
   22.080    0.5243
   22.110    0.5993
   22.140    0.5136
   22.170    0.4494
   22.200    0.4387
   22.230    0.3852
   22.260    0.4708
   22.290    0.5136
   22.320    0.4601
   22.350    0.5029
   22.380    0.4494
   22.410    0.5243
   22.440    0.5564
   22.470    0.4387
   22.500    0.4173
   22.530    0.4601
   22.560    0.5564
   22.590    0.4387
   22.620    0.5136
   22.650    0.5778
   22.680    0.4815
   22.710    0.5136
   22.740    0.5136
   22.770    0.5136
   22.800    0.5243
   22.830    0.4815
   22.860    0.4708
   22.890    0.5564
   22.920    0.5029
   22.950    0.4173
   22.980    0.5029
   23.010    0.5243
   23.040    0.4922
   23.070    0.5243
   23.100    0.5457
   23.130    0.3959
   23.160    0.4815
   23.190    0.5029
   23.220    0.4280
   23.250    0.4280
   23.280    0.5564
   23.310    0.4173
   23.340    0.4494
   23.370    0.4922
   23.400    0.2996
   23.430    0.4708
   23.460    0.3638
   23.490    0.5886
   23.520    0.4280
   23.550    0.4387
   23.580    0.5029
   23.610    0.5350
   23.640    0.3745
   23.670    0.5993
   23.700    0.4387
   23.730    0.4922
   23.760    0.4708
   23.790    0.6100
   23.820    0.5243
   23.850    0.3531
   23.880    0.5778
   23.910    0.5243
   23.940    0.4173
   23.970    0.4173
   24.000    0.5029
   24.030    0.4601
   24.060    0.5778
   24.090    0.4922
   24.120    0.4815
   24.150    0.6528
   24.180    0.6207
   24.210    0.5243
   24.240    0.3959
   24.270    0.4494
   24.300    0.5243
   24.330    0.5671
   24.360    0.5671
   24.390    0.5457
   24.420    0.5243
   24.450    0.4815
   24.480    0.5671
   24.510    0.3852
   24.540    0.4494
   24.570    0.4387
   24.600    0.4066
   24.630    0.5136
   24.660    0.5886
   24.690    0.5778
   24.720    0.5671
   24.750    0.5457
   24.780    0.5136
   24.810    0.4280
   24.840    0.4494
   24.870    0.5029
   24.900    0.6100
   24.930    0.5136
   24.960    0.6100
   24.990    0.4494
   25.020    0.5136
   25.050    0.4601
   25.080    0.4601
   25.110    0.4387
   25.140    0.5350
   25.170    0.5671
   25.200    0.4173
   25.230    0.5457
   25.260    0.5243
   25.290    0.4922
   25.320    0.5136
   25.350    0.6207
   25.380    0.5671
   25.410    0.4601
   25.440    0.4922
   25.470    0.5243
   25.500    0.5350
   25.530    0.5136
   25.560    0.5671
   25.590    0.5243
   25.620    0.5136
   25.650    0.4815
   25.680    0.5457
   25.710    0.4601
   25.740    0.5136
   25.770    0.3959
   25.800    0.4815
   25.830    0.5029
   25.860    0.6100
   25.890    0.4708
   25.920    0.5778
   25.950    0.5564
   25.980    0.5350
   26.010    0.5564
   26.040    0.4494
   26.070    0.6207
   26.100    0.4815
   26.130    0.5778
   26.160    0.4815
   26.190    0.4922
   26.220    0.5243
   26.250    0.4922
   26.280    0.4601
   26.310    0.5993
   26.340    0.6207
   26.370    0.5029
   26.400    0.5350
   26.430    0.5671
   26.460    0.5671
   26.490    0.5564
   26.520    0.5136
   26.550    0.6100
   26.580    0.5029
   26.610    0.5243
   26.640    0.5243
   26.670    0.5778
   26.700    0.6100
   26.730    0.4280
   26.760    0.5029
   26.790    0.6528
   26.820    0.5350
   26.850    0.5778
   26.880    0.4708
   26.910    0.5886
   26.940    0.4922
   26.970    0.4922
   27.000    0.4815
   27.030    0.4708
   27.060    0.4601
   27.090    0.4922
   27.120    0.5029
   27.150    0.5671
   27.180    0.6100
   27.210    0.5457
   27.240    0.5457
   27.270    0.5350
   27.300    0.5243
   27.330    0.4601
   27.360    0.5029
   27.390    0.6421
   27.420    0.4601
   27.450    0.4922
   27.480    0.5993
   27.510    0.4815
   27.540    0.4601
   27.570    0.4708
   27.600    0.5136
   27.630    0.5671
   27.660    0.5457
   27.690    0.5671
   27.720    0.5029
   27.750    0.5564
   27.780    0.5564
   27.810    0.5243
   27.840    0.5243
   27.870    0.5136
   27.900    0.4815
   27.930    0.4708
   27.960    0.5350
   27.990    0.3959
   28.020    0.4708
   28.050    0.4815
   28.080    0.5457
   28.110    0.5136
   28.140    0.5778
   28.170    0.5886
   28.200    0.4922
   28.230    0.5457
   28.260    0.4387
   28.290    0.5029
   28.320    0.5243
   28.350    0.4922
   28.380    0.5993
   28.410    0.5671
   28.440    0.5778
   28.470    0.3745
   28.500    0.6421
   28.530    0.5350
   28.560    0.4815
   28.590    0.4173
   28.620    0.4922
   28.650    0.4815
   28.680    0.4280
   28.710    0.5243
   28.740    0.4708
   28.770    0.4601
   28.800    0.4494
   28.830    0.4708
   28.860    0.4601
   28.890    0.4708
   28.920    0.5350
   28.950    0.4922
   28.980    0.4494
   29.010    0.5350
   29.040    0.5136
   29.070    0.4708
   29.100    0.4708
   29.130    0.5029
   29.160    0.4708
   29.190    0.4601
   29.220    0.3745
   29.250    0.4922
   29.280    0.4708
   29.310    0.4601
   29.340    0.5886
   29.370    0.5457
   29.400    0.5243
   29.430    0.4280
   29.460    0.4601
   29.490    0.4494
   29.520    0.5350
   29.550    0.4815
   29.580    0.4387
   29.610    0.4601
   29.640    0.4173
   29.670    0.5457
   29.700    0.4708
   29.730    0.4173
   29.760    0.4280
   29.790    0.5886
   29.820    0.4708
   29.850    0.5350
   29.880    0.4601
   29.910    0.4815
   29.940    0.5778
   29.970    0.4280
   30.000    0.4708
   30.030    0.4815
   30.060    0.4066
   30.090    0.5350
   30.120    0.5136
   30.150    0.3852
   30.180    0.3317
   30.210    0.5136
   30.240    0.5564
   30.270    0.4494
   30.300    0.4815
   30.330    0.5029
   30.360    0.5136
   30.390    0.3852
   30.420    0.3959
   30.450    0.4280
   30.480    0.3745
   30.510    0.4173
   30.540    0.3852
   30.570    0.4815
   30.600    0.3745
   30.630    0.4173
   30.660    0.4708
   30.690    0.3852
   30.720    0.4280
   30.750    0.3745
   30.780    0.5350
   30.810    0.5243
   30.840    0.4066
   30.870    0.4708
   30.900    0.3959
   30.930    0.3745
   30.960    0.5029
   30.990    0.4815
   31.020    0.3638
   31.050    0.4173
   31.080    0.3638
   31.110    0.4708
   31.140    0.4173
   31.170    0.3852
   31.200    0.4815
   31.230    0.4815
   31.260    0.3852
   31.290    0.3210
   31.320    0.4815
   31.350    0.3424
   31.380    0.5243
   31.410    0.3317
   31.440    0.4815
   31.470    0.5564
   31.500    0.4387
   31.530    0.4387
   31.560    0.2996
   31.590    0.4815
   31.620    0.5243
   31.650    0.4173
   31.680    0.5029
   31.710    0.3638
   31.740    0.4280
   31.770    0.4387
   31.800    0.5029
   31.830    0.4173
   31.860    0.3745
   31.890    0.4815
   31.920    0.4173
   31.950    0.3852
   31.980    0.4387
   32.010    0.4601
   32.040    0.4708
   32.070    0.3317
   32.100    0.4387
   32.130    0.3317
   32.160    0.3959
   32.190    0.3745
   32.220    0.3959
   32.250    0.3745
   32.280    0.3852
   32.310    0.3745
   32.340    0.2996
   32.370    0.4066
   32.400    0.4387
   32.430    0.4066
   32.460    0.4922
   32.490    0.3959
   32.520    0.3638
   32.550    0.5029
   32.580    0.3745
   32.610    0.3531
   32.640    0.3852
   32.670    0.4494
   32.700    0.2889
   32.730    0.4173
   32.760    0.5457
   32.790    0.4280
   32.820    0.3745
   32.850    0.4815
   32.880    0.3745
   32.910    0.3959
   32.940    0.4173
   32.970    0.4387
   33.000    0.3959
   33.030    0.3317
   33.060    0.3959
   33.090    0.2782
   33.120    0.4066
   33.150    0.3745
   33.180    0.4708
   33.210    0.3959
   33.240    0.3424
   33.270    0.3424
   33.300    0.5243
   33.330    0.3103
   33.360    0.4494
   33.390    0.4066
   33.420    0.4494
   33.450    0.3959
   33.480    0.3745
   33.510    0.4173
   33.540    0.5136
   33.570    0.3424
   33.600    0.3745
   33.630    0.4173
   33.660    0.4280
   33.690    0.3638
   33.720    0.3852
   33.750    0.3852
   33.780    0.4387
   33.810    0.4280
   33.840    0.4708
   33.870    0.3638
   33.900    0.4280
   33.930    0.5136
   33.960    0.3531
   33.990    0.3531
   34.020    0.3531
   34.050    0.4066
   34.080    0.4173
   34.110    0.3745
   34.140    0.4280
   34.170    0.4280
   34.200    0.4494
   34.230    0.3638
   34.260    0.3317
   34.290    0.4387
   34.320    0.3531
   34.350    0.2889
   34.380    0.4066
   34.410    0.4066
   34.440    0.4280
   34.470    0.4173
   34.500    0.4387
   34.530    0.3424
   34.560    0.3531
   34.590    0.3852
   34.620    0.3638
   34.650    0.4066
   34.680    0.3317
   34.710    0.3852
   34.740    0.3531
   34.770    0.3638
   34.800    0.3745
   34.830    0.3424
   34.860    0.3317
   34.890    0.4601
   34.920    0.4173
   34.950    0.3959
   34.980    0.4280
   35.010    0.3852
   35.040    0.3531
   35.070    0.3424
   35.100    0.4173
   35.130    0.4601
   35.160    0.3317
   35.190    0.4494
   35.220    0.3745
   35.250    0.3317
   35.280    0.3745
   35.310    0.4173
   35.340    0.3531
   35.370    0.3317
   35.400    0.3103
   35.430    0.2889
   35.460    0.2675
   35.490    0.3638
   35.520    0.2889
   35.550    0.3317
   35.580    0.4173
   35.610    0.3531
   35.640    0.3103
   35.670    0.3210
   35.700    0.2996
   35.730    0.3103
   35.760    0.4280
   35.790    0.3317
   35.820    0.3531
   35.850    0.2889
   35.880    0.3317
   35.910    0.3531
   35.940    0.3317
   35.970    0.4066
   36.000    0.3317
   36.030    0.3210
   36.060    0.3531
   36.090    0.3317
   36.120    0.3210
   36.150    0.2033
   36.180    0.4066
   36.210    0.2782
   36.240    0.3531
   36.270    0.3745
   36.300    0.2996
   36.330    0.3531
   36.360    0.3852
   36.390    0.3317
   36.420    0.3745
   36.450    0.2782
   36.480    0.2782
   36.510    0.3317
   36.540    0.2782
   36.570    0.3531
   36.600    0.4066
   36.630    0.3317
   36.660    0.3745
   36.690    0.3959
   36.720    0.4066
   36.750    0.3531
   36.780    0.2568
   36.810    0.2996
   36.840    0.3745
   36.870    0.2782
   36.900    0.2568
   36.930    0.4387
   36.960    0.3317
   36.990    0.2461
   37.020    0.3638
   37.050    0.3638
   37.080    0.3424
   37.110    0.3745
   37.140    0.3103
   37.170    0.2889
   37.200    0.2889
   37.230    0.2889
   37.260    0.3424
   37.290    0.3531
   37.320    0.2675
   37.350    0.2033
   37.380    0.3638
   37.410    0.2782
   37.440    0.3424
   37.470    0.3103
   37.500    0.2568
   37.530    0.3317
   37.560    0.2675
   37.590    0.2247
   37.620    0.2675
   37.650    0.4173
   37.680    0.2354
   37.710    0.3103
   37.740    0.3424
   37.770    0.3103
   37.800    0.2461
   37.830    0.2675
   37.860    0.2140
   37.890    0.2140
   37.920    0.3210
   37.950    0.2675
   37.980    0.2354
   38.010    0.3317
   38.040    0.3745
   38.070    0.2675
   38.100    0.3531
   38.130    0.2568
   38.160    0.2782
   38.190    0.3638
   38.220    0.2782
   38.250    0.2996
   38.280    0.2140
   38.310    0.2996
   38.340    0.2782
   38.370    0.2568
   38.400    0.2889
   38.430    0.2568
   38.460    0.2675
   38.490    0.3210
   38.520    0.3103
   38.550    0.3424
   38.580    0.2247
   38.610    0.3745
   38.640    0.2996
   38.670    0.2889
   38.700    0.3317
   38.730    0.2033
   38.760    0.2247
   38.790    0.2247
   38.820    0.2354
   38.850    0.2996
   38.880    0.3210
   38.910    0.3638
   38.940    0.3531
   38.970    0.3210
   39.000    0.1819
   39.030    0.2247
   39.060    0.2889
   39.090    0.2140
   39.120    0.3852
   39.150    0.2461
   39.180    0.2675
   39.210    0.2461
   39.240    0.2675
   39.270    0.2461
   39.300    0.3103
   39.330    0.2354
   39.360    0.2033
   39.390    0.2247
   39.420    0.1712
   39.450    0.2782
   39.480    0.2782
   39.510    0.2461
   39.540    0.2461
   39.570    0.1926
   39.600    0.2354
   39.630    0.2568
   39.660    0.3531
   39.690    0.3531
   39.720    0.2354
   39.750    0.3317
   39.780    0.2140
   39.810    0.2140
   39.840    0.2568
   39.870    0.2782
   39.900    0.1498
   39.930    0.1926
   39.960    0.2461
   39.990    0.2675