File: data/PXRD/PXRD_KE-159_Cu-Ka1_film-3mm_5s-deg.xyd
    1.500   12.4276
    1.530   11.9958
    1.560   11.5640
    1.590   11.4481
    1.620   11.2796
    1.650   11.0795
    1.680   11.0479
    1.710   10.1527
    1.740   10.1001
    1.770   10.2475
    1.800    9.8473
    1.830    9.2891
    1.860    8.9837
    1.890    9.6472
    1.920    8.8784
    1.950    8.9837
    1.980    8.7098
    2.010    8.5729
    2.040    8.4781
    2.070    8.1517
    2.100    8.0674
    2.130    8.1201
    2.160    8.0147
    2.190    8.0253
    2.220    8.0147
    2.250    7.7725
    2.280    7.1406
    2.310    7.7936
    2.340    7.4144
    2.370    7.4987
    2.400    7.3302
    2.430    7.1617
    2.460    7.2459
    2.490    6.7088
    2.520    6.8036
    2.550    7.1933
    2.580    7.0669
    2.610    6.9405
    2.640    6.9194
    2.670    6.4455
    2.700    6.5192
    2.730    7.1406
    2.760    6.2138
    2.790    6.4350
    2.820    6.7088
    2.850    6.1822
    2.880    6.0979
    2.910    6.0137
    2.940    5.9505
    2.970    6.4666
    3.000    6.3507
    3.030    6.1085
    3.060    5.9610
    3.090    6.5298
    3.120    6.0874
    3.150    6.0242
    3.180    6.2033
    3.210    6.1401
    3.240    6.1611
    3.270    5.9400
    3.300    6.2981
    3.330    5.8136
    3.360    6.1401
    3.390    5.7609
    3.420    6.0348
    3.450    5.5819
    3.480    5.6661
    3.510    5.7083
    3.540    5.9084
    3.570    5.9400
    3.600    5.9084
    3.630    5.8557
    3.660    5.6977
    3.690    5.8136
    3.720    5.4660
    3.750    5.8136
    3.780    5.4871
    3.810    5.6977
    3.840    5.6345
    3.870    5.6029
    3.900    5.8241
    3.930    5.8557
    3.960    5.7820
    3.990    5.7083
    4.020    5.4555
    4.050    5.4766
    4.080    5.8557
    4.110    5.5503
    4.140    5.7609
    4.170    5.6135
    4.200    5.8768
    4.230    5.8452
    4.260    5.3397
    4.290    5.5187
    4.320    5.2659
    4.350    5.6977
    4.380    5.6029
    4.410    5.4976
    4.440    5.7820
    4.470    5.6029
    4.500    5.7504
    4.530    5.6345
    4.560    5.6661
    4.590    5.5608
    4.620    5.4871
    4.650    5.8031
    4.680    5.4660
    4.710    5.3923
    4.740    5.7925
    4.770    5.6029
    4.800    5.7609
    4.830    5.6767
    4.860    5.5187
    4.890    5.8136
    4.920    6.2454
    4.950    5.7715
    4.980    6.0032
    5.010    6.5192
    5.040    5.7820
    5.070    6.1295
    5.100    6.2138
    5.130    6.2981
    5.160    6.5613
    5.190    6.3402
    5.220    6.5613
    5.250    6.4560
    5.280    6.5824
    5.310    6.6245
    5.340    6.6245
    5.370    6.9194
    5.400    7.2986
    5.430    7.5197
    5.460    7.6461
    5.490    7.3828
    5.520    7.3196
    5.550    7.3723
    5.580    7.4250
    5.610    6.9721
    5.640    7.5303
    5.670    6.8352
    5.700    6.8246
    5.730    6.3823
    5.760    6.9089
    5.790    6.4771
    5.820    6.6877
    5.850    6.8036
    5.880    6.2875
    5.910    5.8662
    5.940    5.8978
    5.970    5.8136
    6.000    5.6872
    6.030    5.6872
    6.060    5.5082
    6.090    5.1711
    6.120    5.4871
    6.150    5.2659
    6.180    5.2554
    6.210    5.2870
    6.240    5.4450
    6.270    5.1395
    6.300    4.9921
    6.330    4.6972
    6.360    4.8657
    6.390    4.9289
    6.420    4.7815
    6.450    5.0342
    6.480    5.0658
    6.510    5.2133
    6.540    5.2765
    6.570    4.8552
    6.600    4.9605
    6.630    4.9921
    6.660    4.6235
    6.690    5.0342
    6.720    4.4234
    6.750    4.7393
    6.780    4.6130
    6.810    4.5076
    6.840    4.4760
    6.870    4.4866
    6.900    4.2443
    6.930    4.4234
    6.960    4.2338
    6.990    4.3602
    7.020    4.5708
    7.050    4.2654
    7.080    4.3075
    7.110    4.1180
    7.140    4.3497
    7.170    4.3286
    7.200    3.9284
    7.230    4.0021
    7.260    3.9179
    7.290    3.4755
    7.320    3.7704
    7.350    4.2443
    7.380    4.0548
    7.410    3.8231
    7.440    3.9916
    7.470    3.7283
    7.500    4.0021
    7.530    3.6651
    7.560    3.7915
    7.590    3.8863
    7.620    3.9705
    7.650    3.7704
    7.680    3.8863
    7.710    3.2965
    7.740    3.6335
    7.770    3.5387
    7.800    3.5598
    7.830    3.4860
    7.860    3.7704
    7.890    3.3913
    7.920    3.2754
    7.950    3.5176
    7.980    3.3281
    8.010    3.7704
    8.040    3.1385
    8.070    3.4018
    8.100    3.3281
    8.130    3.3491
    8.160    3.1806
    8.190    3.4544
    8.220    3.1806
    8.250    3.2438
    8.280    3.1701
    8.310    3.4544
    8.340    3.2017
    8.370    3.1069
    8.400    3.2859
    8.430    3.3597
    8.460    3.0121
    8.490    3.2017
    8.520    3.1385
    8.550    3.0542
    8.580    3.0964
    8.610    3.1069
    8.640    3.3491
    8.670    3.2122
    8.700    3.4334
    8.730    3.2543
    8.760    3.2017
    8.790    3.2649
    8.820    3.0753
    8.850    3.2227
    8.880    3.0437
    8.910    3.1385
    8.940    3.1280
    8.970    2.9805
    9.000    3.2438
    9.030    2.9595
    9.060    3.1069
    9.090    3.0332
    9.120    3.1174
    9.150    3.0858
    9.180    3.0226
    9.210    2.9910
    9.240    3.0121
    9.270    3.1280
    9.300    3.2438
    9.330    3.3281
    9.360    3.3386
    9.390    3.0753
    9.420    2.8015
    9.450    3.0648
    9.480    2.8436
    9.510    2.8647
    9.540    2.8225
    9.570    2.9384
    9.600    2.8436
    9.630    3.1069
    9.660    3.0437
    9.690    2.7383
    9.720    2.8752
    9.750    3.0121
    9.780    2.6751
    9.810    2.9910
    9.840    3.0753
    9.870    3.1490
    9.900    3.0542
    9.930    3.2543
    9.960    3.3913
    9.990    3.1806
   10.020    2.9910
   10.050    3.2017
   10.080    2.8541
   10.110    2.8541
   10.140    2.7488
   10.170    3.1174
   10.200    3.3281
   10.230    2.9384
   10.260    3.2859
   10.290    3.4123
   10.320    3.0753
   10.350    2.7699
   10.380    3.1174
   10.410    3.0542
   10.440    3.2649
   10.470    3.1174
   10.500    3.2333
   10.530    3.1701
   10.560    3.3491
   10.590    3.1912
   10.620    3.2333
   10.650    2.7699
   10.680    3.3281
   10.710    3.3281
   10.740    3.3702
   10.770    3.0121
   10.800    3.1806
   10.830    3.5176
   10.860    3.2754
   10.890    3.3491
   10.920    3.1912
   10.950    3.5071
   10.980    3.3807
   11.010    3.3281
   11.040    3.3070
   11.070    3.1806
   11.100    3.4229
   11.130    3.2649
   11.160    3.1280
   11.190    2.9384
   11.220    3.1701
   11.250    3.2438
   11.280    3.4439
   11.310    3.2649
   11.340    3.0226
   11.370    3.1701
   11.400    3.3386
   11.430    3.2333
   11.460    3.2122
   11.490    3.3281
   11.520    3.1912
   11.550    3.0753
   11.580    3.1806
   11.610    3.3281
   11.640    3.3281
   11.670    2.9279
   11.700    3.0648
   11.730    3.2017
   11.760    3.0121
   11.790    3.2017
   11.820    3.1385
   11.850    2.9489
   11.880    3.2438
   11.910    3.0964
   11.940    3.1596
   11.970    3.4544
   12.000    3.2859
   12.030    3.2227
   12.060    3.1912
   12.090    3.0753
   12.120    3.1490
   12.150    3.0226
   12.180    3.1701
   12.210    3.1806
   12.240    3.4650
   12.270    3.2017
   12.300    2.9595
   12.330    2.8963
   12.360    3.1174
   12.390    3.1596
   12.420    3.1385
   12.450    3.0753
   12.480    3.3175
   12.510    3.0016
   12.540    3.0648
   12.570    3.1806
   12.600    3.0121
   12.630    2.6646
   12.660    3.0542
   12.690    3.0016
   12.720    2.9910
   12.750    3.1596
   12.780    3.1069
   12.810    3.0437
   12.840    2.9910
   12.870    3.2543
   12.900    2.9910
   12.930    2.8436
   12.960    2.7593
   12.990    3.1912
   13.020    3.1701
   13.050    3.0226
   13.080    3.0858
   13.110    3.0332
   13.140    3.1490
   13.170    3.1596
   13.200    3.0332
   13.230    3.1280
   13.260    3.2754
   13.290    3.1069
   13.320    3.1280
   13.350    3.0437
   13.380    3.2438
   13.410    3.1069
   13.440    3.1069
   13.470    3.1280
   13.500    3.3491
   13.530    3.2859
   13.560    2.7909
   13.590    2.9279
   13.620    3.1701
   13.650    3.4439
   13.680    2.9805
   13.710    3.2227
   13.740    3.3070
   13.770    3.1385
   13.800    3.1069
   13.830    3.4439
   13.860    3.0016
   13.890    3.2122
   13.920    3.0964
   13.950    3.0964
   13.980    3.1701
   14.010    3.2227
   14.040    3.2017
   14.070    3.2438
   14.100    3.2754
   14.130    3.4439
   14.160    3.4439
   14.190    3.4650
   14.220    3.0121
   14.250    3.1912
   14.280    3.6124
   14.310    3.7388
   14.340    3.2333
   14.370    3.5282
   14.400    3.4544
   14.430    3.2227
   14.460    3.5387
   14.490    3.4123
   14.520    3.4123
   14.550    3.3070
   14.580    3.4544
   14.610    3.6335
   14.640    3.5808
   14.670    3.1806
   14.700    3.3070
   14.730    3.3386
   14.760    3.2965
   14.790    3.6756
   14.820    3.0542
   14.850    3.3597
   14.880    3.0226
   14.910    3.0964
   14.940    3.0121
   14.970    3.0542
   15.000    2.8963
   15.030    2.9805
   15.060    3.1912
   15.090    2.8331
   15.120    3.1069
   15.150    2.9595
   15.180    2.9279
   15.210    3.1280
   15.240    3.3597
   15.270    3.2122
   15.300    2.8541
   15.330    2.9700
   15.360    2.9700
   15.390    3.1174
   15.420    2.8436
   15.450    3.0753
   15.480    3.2965
   15.510    3.0858
   15.540    2.9173
   15.570    3.1806
   15.600    3.1069
   15.630    2.9068
   15.660    2.9068
   15.690    3.4439
   15.720    3.0648
   15.750    3.2754
   15.780    3.1174
   15.810    2.9489
   15.840    2.8436
   15.870    3.2333
   15.900    2.7593
   15.930    3.1701
   15.960    3.1806
   15.990    2.9279
   16.020    3.0648
   16.050    2.9910
   16.080    3.2227
   16.110    3.1174
   16.140    3.2649
   16.170    3.1385
   16.200    3.1069
   16.230    3.3597
   16.260    3.2859
   16.290    3.0016
   16.320    3.1069
   16.350    3.3807
   16.380    3.2017
   16.410    3.1385
   16.440    2.9700
   16.470    3.3070
   16.500    2.9489
   16.530    3.2859
   16.560    3.0016
   16.590    3.1490
   16.620    3.1069
   16.650    3.2333
   16.680    3.0753
   16.710    2.8331
   16.740    3.1701
   16.770    3.1912
   16.800    2.8541
   16.830    2.9910
   16.860    2.8752
   16.890    2.9910
   16.920    3.0648
   16.950    2.8647
   16.980    3.1385
   17.010    3.1385
   17.040    3.1912
   17.070    3.1596
   17.100    3.0648
   17.130    3.1490
   17.160    3.1596
   17.190    3.0121
   17.220    3.0753
   17.250    2.9805
   17.280    3.0121
   17.310    3.1280
   17.340    2.9279
   17.370    3.0648
   17.400    3.0437
   17.430    3.1490
   17.460    2.8963
   17.490    3.2333
   17.520    3.2754
   17.550    2.9173
   17.580    3.0226
   17.610    2.9384
   17.640    3.0542
   17.670    2.7172
   17.700    3.1069
   17.730    3.0226
   17.760    2.8331
   17.790    3.0016
   17.820    2.8963
   17.850    3.2227
   17.880    2.9805
   17.910    3.1490
   17.940    3.1701
   17.970    2.7909
   18.000    3.1806
   18.030    2.9910
   18.060    3.2649
   18.090    3.1280
   18.120    3.0121
   18.150    3.1174
   18.180    3.0226
   18.210    3.0753
   18.240    2.9068
   18.270    3.0542
   18.300    2.8541
   18.330    2.8752
   18.360    3.0332
   18.390    3.0858
   18.420    3.1385
   18.450    2.9700
   18.480    2.9595
   18.510    2.7172
   18.540    3.2227
   18.570    2.8647
   18.600    3.2122
   18.630    2.8963
   18.660    3.0437
   18.690    3.4123
   18.720    3.0332
   18.750    2.8752
   18.780    3.0858
   18.810    2.9384
   18.840    2.9384
   18.870    2.9805
   18.900    3.1701
   18.930    3.5492
   18.960    4.1390
   18.990    4.3075
   19.020    4.2443
   19.050    3.2017
   19.080    3.0542
   19.110    3.0226
   19.140    3.0332
   19.170    2.8120
   19.200    2.7699
   19.230    3.1701
   19.260    3.1280
   19.290    2.7067
   19.320    2.8752
   19.350    3.1280
   19.380    3.0226
   19.410    2.7593
   19.440    2.6646
   19.470    2.8541
   19.500    2.7909
   19.530    2.8436
   19.560    2.8120
   19.590    3.0542
   19.620    2.7804
   19.650    2.7067
   19.680    3.1596
   19.710    2.7488
   19.740    2.5803
   19.770    3.0437
   19.800    2.9384
   19.830    2.6751
   19.860    2.8541
   19.890    3.0226
   19.920    3.0016
   19.950    3.0542
   19.980    2.8015
   20.010    3.0332
   20.040    2.8331
   20.070    2.8225
   20.100    2.9700
   20.130    2.7488
   20.160    2.6330
   20.190    2.8225
   20.220    2.6119
   20.250    2.5698
   20.280    2.8225
   20.310    2.6646
   20.340    2.8963
   20.370    2.6646
   20.400    2.7488
   20.430    2.6646
   20.460    2.7278
   20.490    2.7383
   20.520    2.7909
   20.550    2.5592
   20.580    3.0016
   20.610    2.7383
   20.640    2.5803
   20.670    2.4750
   20.700    2.7172
   20.730    2.5908
   20.760    2.6962
   20.790    2.7172
   20.820    2.4855
   20.850    2.6646
   20.880    2.6435
   20.910    2.8331
   20.940    2.9279
   20.970    2.6646
   21.000    2.4434
   21.030    2.6646
   21.060    2.7383
   21.090    2.5276
   21.120    2.4750
   21.150    2.5908
   21.180    2.6435
   21.210    2.7909
   21.240    2.8120
   21.270    2.4855
   21.300    2.4539
   21.330    2.8857
   21.360    2.7067
   21.390    2.5066
   21.420    2.6856
   21.450    2.9805
   21.480    2.6962
   21.510    2.7488
   21.540    2.5592
   21.570    2.7067
   21.600    2.6119
   21.630    2.5698
   21.660    2.6646
   21.690    2.6856
   21.720    2.5908
   21.750    2.4855
   21.780    2.5908
   21.810    2.5171
   21.840    2.6751
   21.870    2.6224
   21.900    2.4118
   21.930    2.7699
   21.960    2.5908
   21.990    2.2012
   22.020    2.3486
   22.050    2.4539
   22.080    2.6330
   22.110    2.6751
   22.140    2.5592
   22.170    2.6962
   22.200    2.4013
   22.230    2.6014
   22.260    2.3381
   22.290    2.3802
   22.320    2.6962
   22.350    2.6014
   22.380    2.2643
   22.410    2.6330
   22.440    2.3697
   22.470    2.5382
   22.500    2.4013
   22.530    2.4961
   22.560    2.4329
   22.590    2.5908
   22.620    2.1590
   22.650    2.7172
   22.680    2.4434
   22.710    2.7067
   22.740    2.2959
   22.770    2.3275
   22.800    2.4645
   22.830    2.3170
   22.860    2.4539
   22.890    2.5066
   22.920    2.3170
   22.950    2.2328
   22.980    2.3381
   23.010    2.2328
   23.040    2.4855
   23.070    2.6646
   23.100    2.7067
   23.130    2.9384
   23.160    2.3697
   23.190    2.4855
   23.220    2.3170
   23.250    2.2538
   23.280    2.1169
   23.310    2.2222
   23.340    2.3170
   23.370    2.4223
   23.400    2.1169
   23.430    2.3907
   23.460    2.1274
   23.490    2.4013
   23.520    2.5698
   23.550    2.4855
   23.580    2.5276
   23.610    2.6330
   23.640    2.3486
   23.670    2.3275
   23.700    2.2643
   23.730    2.4539
   23.760    2.2643
   23.790    2.3275
   23.820    2.0432
   23.850    2.2538
   23.880    2.0011
   23.910    2.3065
   23.940    2.2328
   23.970    2.2854
   24.000    2.2433
   24.030    2.0748
   24.060    1.8957
   24.090    2.2222
   24.120    2.1590
   24.150    2.1696
   24.180    2.2117
   24.210    2.0748
   24.240    2.1696
   24.270    2.2117
   24.300    2.2433
   24.330    1.9168
   24.360    2.0432
   24.390    1.9695
   24.420    2.0642
   24.450    2.0116
   24.480    1.9800
   24.510    2.0642
   24.540    2.1590
   24.570    2.1590
   24.600    2.0326
   24.630    2.2012
   24.660    2.0537
   24.690    1.9484
   24.720    1.9063
   24.750    2.1590
   24.780    2.0432
   24.810    2.1590
   24.840    2.1274
   24.870    2.2012
   24.900    2.0221
   24.930    2.2854
   24.960    2.0958
   24.990    2.2749
   25.020    1.9484
   25.050    1.9273
   25.080    2.0642
   25.110    2.0116
   25.140    1.8957
   25.170    1.9379
   25.200    2.0011
   25.230    1.8747
   25.260    2.0221
   25.290    2.2433
   25.320    2.0221
   25.350    2.1380
   25.380    1.7694
   25.410    2.0748
   25.440    2.2328
   25.470    2.1801
   25.500    2.6224
   25.530    2.1380
   25.560    2.1380
   25.590    2.0642
   25.620    1.9273
   25.650    1.9063
   25.680    1.9800
   25.710    2.1380
   25.740    1.9273
   25.770    2.0432
   25.800    1.9273
   25.830    1.8220
   25.860    1.8852
   25.890    2.0011
   25.920    1.9273
   25.950    1.9063
   25.980    1.8957
   26.010    1.9379
   26.040    1.9589
   26.070    2.0642
   26.100    2.1485
   26.130    1.9800
   26.160    1.8957
   26.190    1.9484
   26.220    1.9168
   26.250    2.0221
   26.280    1.8852
   26.310    1.9168
   26.340    2.0642
   26.370    1.7378
   26.400    2.1485
   26.430    1.9273
   26.460    1.9063
   26.490    1.9905
   26.520    1.8747
   26.550    2.0221
   26.580    2.0326
   26.610    1.8852
   26.640    2.0642
   26.670    1.9695
   26.700    1.9589
   26.730    1.9063
   26.760    1.6008
   26.790    1.7167
   26.820    1.7799
   26.850    1.9273
   26.880    1.7483
   26.910    1.8536
   26.940    1.7378
   26.970    1.8747
   27.000    1.9484
   27.030    1.8431
   27.060    1.7378
   27.090    1.8009
   27.120    1.7483
   27.150    1.7062
   27.180    1.6640
   27.210    1.9273
   27.240    1.6219
   27.270    1.7588
   27.300    1.6324
   27.330    1.7062
   27.360    1.8009
   27.390    1.8852
   27.420    1.7904
   27.450    1.7588
   27.480    1.8431
   27.510    1.8852
   27.540    1.6956
   27.570    1.8536
   27.600    1.6430
   27.630    1.6430
   27.660    1.7588
   27.690    1.7904
   27.720    1.6640
   27.750    1.7799
   27.780    1.4850
   27.810    1.6219
   27.840    1.8220
   27.870    1.7167
   27.900    1.7799
   27.930    1.8115
   27.960    2.6751
   27.990    3.1069
   28.020    2.8541
   28.050    2.1696
   28.080    1.6324
   28.110    1.7378
   28.140    1.6324
   28.170    1.7272
   28.200    1.4745
   28.230    1.6008
   28.260    1.9695
   28.290    1.5377
   28.320    1.5166
   28.350    1.6324
   28.380    1.6219
   28.410    1.7378
   28.440    1.5061
   28.470    1.6114
   28.500    1.6324
   28.530    1.5903
   28.560    1.6746
   28.590    1.5061
   28.620    1.6640
   28.650    1.7904
   28.680    1.6851
   28.710    1.5482
   28.740    1.8641
   28.770    1.7272
   28.800    1.7167
   28.830    1.8009
   28.860    1.6640
   28.890    2.0432
   28.920    2.7067
   28.950    3.4966
   28.980    3.2122
   29.010    2.1064
   29.040    1.8325
   29.070    1.5061
   29.100    1.6746
   29.130    1.7167
   29.160    1.5377
   29.190    1.8009
   29.220    1.7272
   29.250    1.7272
   29.280    1.6324
   29.310    1.6114
   29.340    1.4850
   29.370    1.6956
   29.400    1.5377
   29.430    1.6746
   29.460    1.5166
   29.490    1.5377
   29.520    1.3586
   29.550    1.5798
   29.580    1.5692
   29.610    1.3586
   29.640    1.5798
   29.670    1.5798
   29.700    1.5798
   29.730    1.6430
   29.760    1.2954
   29.790    1.4955
   29.820    1.4218
   29.850    1.4323
   29.880    1.3586
   29.910    1.5482
   29.940    1.3691
   29.970    1.5482
   30.000    1.4534
   30.030    1.5377
   30.060    1.5482
   30.090    1.3797
   30.120    1.3797
   30.150    1.3060
   30.180    1.4955
   30.210    1.4534
   30.240    1.4007
   30.270    1.5587
   30.300    1.1901
   30.330    1.5061
   30.360    1.3691
   30.390    1.2954
   30.420    1.4534
   30.450    1.3902
   30.480    1.4639
   30.510    1.3060
   30.540    1.2428
   30.570    1.3586
   30.600    1.1901
   30.630    1.2533
   30.660    1.3797
   30.690    1.4218
   30.720    1.2428
   30.750    1.3691
   30.780    1.3902
   30.810    1.2428
   30.840    1.3060
   30.870    1.3060
   30.900    1.4745
   30.930    1.3902
   30.960    1.2954
   30.990    1.2954
   31.020    1.3165
   31.050    1.1901
   31.080    1.4534
   31.110    1.1796
   31.140    1.0742
   31.170    1.2322
   31.200    1.3165
   31.230    1.4639
   31.260    1.2112
   31.290    1.3060
   31.320    1.5377
   31.350    1.3586
   31.380    1.2744
   31.410    1.2954
   31.440    1.2533
   31.470    1.1901
   31.500    1.4534
   31.530    1.2217
   31.560    1.1690
   31.590    1.1901
   31.620    1.4007
   31.650    1.1164
   31.680    1.3375
   31.710    1.4218
   31.740    1.6324
   31.770    1.8852
   31.800    1.7167
   31.830    1.5587
   31.860    1.5377
   31.890    1.2744
   31.920    1.2006
   31.950    1.1901
   31.980    1.2322
   32.010    1.4955
   32.040    2.4329
   32.070    3.8336
   32.100    4.0232
   32.130    2.6646
   32.160    1.2954
   32.190    1.3060
   32.220    1.1480
   32.250    1.2428
   32.280    1.0953
   32.310    1.2006
   32.340    1.3165
   32.370    1.0532
   32.400    1.1585
   32.430    1.0848
   32.460    1.1058
   32.490    1.1901
   32.520    1.1901
   32.550    1.1690
   32.580    1.0321
   32.610    1.0953
   32.640    1.2006
   32.670    1.2533
   32.700    1.0953
   32.730    1.0848
   32.760    1.0427
   32.790    1.1796
   32.820    1.0637
   32.850    0.9900
   32.880    1.0742
   32.910    1.2533
   32.940    1.2954
   32.970    1.2322
   33.000    0.9584
   33.030    1.2217
   33.060    1.2744
   33.090    0.9795
   33.120    0.9057
   33.150    1.0953
   33.180    1.1164
   33.210    1.0742
   33.240    1.0005
   33.270    1.0427
   33.300    1.0005
   33.330    1.1058
   33.360    1.0637
   33.390    1.0953
   33.420    1.1374
   33.450    0.9689
   33.480    0.8952
   33.510    1.0742
   33.540    1.1690
   33.570    1.0637
   33.600    0.9900
   33.630    1.1374
   33.660    0.8741
   33.690    1.0637
   33.720    1.0953
   33.750    1.2428
   33.780    1.7588
   33.810    2.1696
   33.840    1.7272
   33.870    1.3902
   33.900    1.2954
   33.930    1.3165
   33.960    1.4218
   33.990    1.3902
   34.020    1.3060
   34.050    1.0427
   34.080    0.9584
   34.110    1.0637
   34.140    1.0111
   34.170    1.0532
   34.200    0.9268
   34.230    1.1058
   34.260    1.1690
   34.290    0.9057
   34.320    0.9268
   34.350    1.1690
   34.380    1.1269
   34.410    1.1164
   34.440    0.9479
   34.470    0.9479
   34.500    1.0532
   34.530    1.1269
   34.560    1.0637
   34.590    0.9057
   34.620    0.9057
   34.650    1.0532
   34.680    1.1901
   34.710    0.9689
   34.740    0.8952
   34.770    0.9373
   34.800    0.8320
   34.830    1.1796
   34.860    1.0637
   34.890    0.9900
   34.920    1.3165
   34.950    1.1058
   34.980    1.0848
   35.010    0.9795
   35.040    1.2533
   35.070    0.9584
   35.100    1.0321
   35.130    1.0216
   35.160    1.0111
   35.190    0.8425
   35.220    0.9584
   35.250    0.8636
   35.280    1.0532
   35.310    0.8215
   35.340    1.0637
   35.370    1.0427
   35.400    1.0111
   35.430    0.8215
   35.460    1.1058
   35.490    1.0321
   35.520    0.8741
   35.550    0.8425
   35.580    0.8952
   35.610    0.8952
   35.640    1.1164
   35.670    1.0953
   35.700    1.0742
   35.730    1.0848
   35.760    0.8952
   35.790    0.9584
   35.820    0.9584
   35.850    1.0005
   35.880    1.0111
   35.910    1.0427
   35.940    1.0637
   35.970    1.0321
   36.000    1.0111
   36.030    0.9479
   36.060    1.0216
   36.090    0.8531
   36.120    0.9163
   36.150    0.9584
   36.180    1.0005
   36.210    0.8741
   36.240    1.0742
   36.270    0.8531
   36.300    0.9163
   36.330    1.0111
   36.360    0.8636
   36.390    0.9268
   36.420    0.8952
   36.450    1.1374
   36.480    0.9373
   36.510    1.0637
   36.540    1.0321
   36.570    1.0005
   36.600    1.0216
   36.630    1.0111
   36.660    1.1164
   36.690    0.9795
   36.720    1.0216
   36.750    0.9689
   36.780    0.9479
   36.810    0.8425
   36.840    0.7688
   36.870    1.0321
   36.900    0.9057
   36.930    0.9057
   36.960    1.0111
   36.990    0.8004
   37.020    0.8320
   37.050    1.0427
   37.080    0.9268
   37.110    0.9795
   37.140    0.8636
   37.170    1.0005
   37.200    0.7794
   37.230    0.9584
   37.260    1.0111
   37.290    0.7478
   37.320    0.9373
   37.350    0.8004
   37.380    0.8636
   37.410    0.8636
   37.440    0.9900
   37.470    1.1269
   37.500    0.8531
   37.530    0.8636
   37.560    0.8425
   37.590    0.9479
   37.620    0.9373
   37.650    0.9900
   37.680    1.0005
   37.710    0.9584
   37.740    1.1164
   37.770    0.8110
   37.800    0.9479
   37.830    0.9373
   37.860    0.9689
   37.890    1.0427
   37.920    0.9268
   37.950    1.0111
   37.980    0.9795
   38.010    0.9584
   38.040    0.9057
   38.070    0.9057
   38.100    0.9268
   38.130    0.8110
   38.160    0.9163
   38.190    0.8847
   38.220    0.8425
   38.250    1.0005
   38.280    1.0742
   38.310    1.0427
   38.340    0.9795
   38.370    0.9795
   38.400    0.8531
   38.430    1.0216
   38.460    0.9268
   38.490    0.9163
   38.520    0.9900
   38.550    1.3375
   38.580    1.3586
   38.610    1.2954
   38.640    0.9584
   38.670    0.8425
   38.700    0.8425
   38.730    1.0216
   38.760    0.8320
   38.790    0.8215
   38.820    0.8320
   38.850    0.8320
   38.880    0.8636
   38.910    0.9795
   38.940    0.7583
   38.970    0.9479
   39.000    0.8320
   39.030    0.9689
   39.060    1.0216
   39.090    0.8847
   39.120    0.8636
   39.150    0.9057
   39.180    0.9163
   39.210    0.9900
   39.240    0.8215
   39.270    1.0005
   39.300    0.7794
   39.330    0.7583
   39.360    0.8952
   39.390    0.9268
   39.420    0.8320
   39.450    0.8636
   39.480    0.9479
   39.510    0.9268
   39.540    0.9163
   39.570    0.8320
   39.600    0.8004
   39.630    0.8215
   39.660    0.9163
   39.690    0.7899
   39.720    0.8110
   39.750    0.9479
   39.780    0.7056
   39.810    0.8741
   39.840    0.7267
   39.870    0.8847
   39.900    0.8636
   39.930    0.7267
   39.960    0.7794
   39.990    0.8636