File: data/PXRD/PXRD_KE-189_Cu-Ka1_capillary-1mm_5s-deg.xyd
    1.500   21.8431
    1.530   21.6956
    1.560   21.0743
    1.590   20.2633
    1.620   19.7999
    1.650   18.5677
    1.680   18.3254
    1.710   17.1985
    1.740   16.2401
    1.770   16.5561
    1.800   15.2501
    1.830   15.1553
    1.860   14.5761
    1.890   13.6704
    1.920   13.8283
    1.950   12.9858
    1.980   12.4487
    2.010   12.3012
    2.040   11.7114
    2.070   11.7957
    2.100   11.5429
    2.130   10.9215
    2.160   10.2370
    2.190   10.1422
    2.220   10.1738
    2.250   10.0369
    2.280    9.6472
    2.310    9.4471
    2.340    8.8362
    2.370    8.7941
    2.400    9.0890
    2.430    8.4360
    2.460    8.2780
    2.490    7.9516
    2.520    7.6883
    2.550    8.0042
    2.580    7.4882
    2.610    7.1301
    2.640    7.4566
    2.670    7.6567
    2.700    7.0458
    2.730    7.1933
    2.760    6.8246
    2.790    6.8352
    2.820    6.7825
    2.850    6.4982
    2.880    6.7615
    2.910    6.0874
    2.940    6.1085
    2.970    5.8768
    3.000    6.2454
    3.030    6.0032
    3.060    5.7293
    3.090    5.7925
    3.120    5.4344
    3.150    5.8768
    3.180    5.6977
    3.210    5.5398
    3.240    5.2765
    3.270    4.9500
    3.300    5.1922
    3.330    5.3607
    3.360    5.0237
    3.390    5.5503
    3.420    5.2554
    3.450    5.1711
    3.480    5.2870
    3.510    5.0869
    3.540    4.8341
    3.570    5.0658
    3.600    5.0026
    3.630    4.9289
    3.660    4.7183
    3.690    4.9921
    3.720    4.8657
    3.750    4.5708
    3.780    4.7815
    3.810    4.8868
    3.840    4.9394
    3.870    4.6340
    3.900    4.4760
    3.930    4.6867
    3.960    4.7288
    3.990    4.9605
    4.020    4.3813
    4.050    4.6235
    4.080    4.6024
    4.110    4.4866
    4.140    4.4655
    4.170    4.2127
    4.200    4.1811
    4.230    4.2970
    4.260    4.3602
    4.290    4.4234
    4.320    3.8441
    4.350    4.2549
    4.380    4.1811
    4.410    3.9916
    4.440    4.1706
    4.470    3.9284
    4.500    4.4023
    4.530    4.2233
    4.560    4.1917
    4.590    4.2654
    4.620    4.1390
    4.650    4.1811
    4.680    3.9389
    4.710    3.5598
    4.740    3.8652
    4.770    3.9179
    4.800    3.8968
    4.830    3.9179
    4.860    3.9179
    4.890    3.8125
    4.920    3.7704
    4.950    3.7599
    4.980    3.9600
    5.010    3.8231
    5.040    3.7915
    5.070    3.9916
    5.100    3.8968
    5.130    3.8757
    5.160    3.7283
    5.190    3.5492
    5.220    3.6862
    5.250    3.9389
    5.280    3.5914
    5.310    3.6862
    5.340    3.6230
    5.370    3.4334
    5.400    3.4755
    5.430    3.4544
    5.460    3.6862
    5.490    3.5914
    5.520    3.4755
    5.550    3.4650
    5.580    3.4860
    5.610    3.3702
    5.640    3.6230
    5.670    3.4544
    5.700    3.2227
    5.730    3.3175
    5.760    3.5703
    5.790    3.5387
    5.820    3.4018
    5.850    3.3702
    5.880    3.2649
    5.910    3.2965
    5.940    3.3491
    5.970    3.1280
    6.000    3.5914
    6.030    2.8963
    6.060    3.1596
    6.090    3.1385
    6.120    3.5282
    6.150    3.1385
    6.180    3.2859
    6.210    3.3702
    6.240    3.3070
    6.270    3.3702
    6.300    3.4123
    6.330    3.4860
    6.360    3.1280
    6.390    3.2754
    6.420    3.4229
    6.450    3.4123
    6.480    3.1069
    6.510    3.3597
    6.540    3.5176
    6.570    3.5071
    6.600    3.7072
    6.630    3.2965
    6.660    3.3913
    6.690    3.3913
    6.720    3.4123
    6.750    3.2965
    6.780    3.3175
    6.810    3.4334
    6.840    3.4018
    6.870    3.2965
    6.900    3.3913
    6.930    3.0648
    6.960    3.2543
    6.990    3.3597
    7.020    3.3070
    7.050    3.4018
    7.080    3.2122
    7.110    3.2333
    7.140    3.3070
    7.170    3.4334
    7.200    3.2438
    7.230    3.3702
    7.260    3.4123
    7.290    3.2227
    7.320    3.4334
    7.350    3.1174
    7.380    3.3597
    7.410    3.1385
    7.440    3.3597
    7.470    3.5176
    7.500    3.1701
    7.530    3.2438
    7.560    3.2333
    7.590    3.1596
    7.620    3.1490
    7.650    3.4544
    7.680    3.0226
    7.710    3.1912
    7.740    3.1385
    7.770    3.2965
    7.800    3.2543
    7.830    3.2649
    7.860    3.4755
    7.890    3.4966
    7.920    3.3807
    7.950    3.2543
    7.980    3.0121
    8.010    3.2649
    8.040    3.0964
    8.070    3.2543
    8.100    3.5176
    8.130    3.3913
    8.160    3.1280
    8.190    3.2859
    8.220    2.8436
    8.250    2.9595
    8.280    3.1490
    8.310    3.2017
    8.340    3.2965
    8.370    3.2965
    8.400    3.5282
    8.430    3.0964
    8.460    2.9805
    8.490    3.3807
    8.520    3.2754
    8.550    3.3597
    8.580    3.1490
    8.610    3.0542
    8.640    3.0437
    8.670    3.0437
    8.700    3.2543
    8.730    3.0226
    8.760    3.4018
    8.790    3.0964
    8.820    3.0121
    8.850    3.1490
    8.880    3.0121
    8.910    2.9279
    8.940    3.2017
    8.970    3.0542
    9.000    3.1596
    9.030    2.7593
    9.060    3.0858
    9.090    3.2754
    9.120    3.3070
    9.150    3.1490
    9.180    3.0964
    9.210    3.1701
    9.240    3.0016
    9.270    3.0332
    9.300    3.0332
    9.330    3.0964
    9.360    3.0542
    9.390    3.0016
    9.420    2.7278
    9.450    2.8857
    9.480    3.1280
    9.510    3.0542
    9.540    3.0858
    9.570    3.1280
    9.600    3.0648
    9.630    3.2649
    9.660    2.9910
    9.690    2.9910
    9.720    3.0542
    9.750    2.9173
    9.780    2.9910
    9.810    2.9384
    9.840    3.1174
    9.870    3.1806
    9.900    3.0964
    9.930    3.2649
    9.960    3.1280
    9.990    3.0332
   10.020    2.9384
   10.050    3.0648
   10.080    2.9173
   10.110    3.0648
   10.140    3.2227
   10.170    3.2438
   10.200    2.9384
   10.230    2.7383
   10.260    2.9489
   10.290    3.0016
   10.320    2.8225
   10.350    3.0858
   10.380    3.0542
   10.410    2.8015
   10.440    2.9805
   10.470    2.8331
   10.500    3.0858
   10.530    3.0753
   10.560    3.3386
   10.590    3.0542
   10.620    2.7488
   10.650    3.0332
   10.680    2.8015
   10.710    2.9910
   10.740    3.3386
   10.770    3.1912
   10.800    2.8436
   10.830    3.1806
   10.860    2.9805
   10.890    2.7804
   10.920    2.9173
   10.950    3.2017
   10.980    3.1490
   11.010    3.0332
   11.040    2.8752
   11.070    2.8541
   11.100    2.9805
   11.130    3.1912
   11.160    3.0858
   11.190    3.0226
   11.220    2.6856
   11.250    2.8541
   11.280    3.2543
   11.310    3.1912
   11.340    2.8857
   11.370    2.7067
   11.400    3.1596
   11.430    2.9279
   11.460    3.1385
   11.490    2.7172
   11.520    2.5487
   11.550    3.0753
   11.580    2.8331
   11.610    2.8436
   11.640    3.0542
   11.670    2.7067
   11.700    2.9595
   11.730    2.9489
   11.760    2.9805
   11.790    2.9805
   11.820    3.0016
   11.850    3.0753
   11.880    2.8120
   11.910    2.8120
   11.940    2.8436
   11.970    2.8015
   12.000    2.6962
   12.030    2.7278
   12.060    2.8225
   12.090    3.1069
   12.120    2.7172
   12.150    2.8436
   12.180    2.8857
   12.210    2.7909
   12.240    2.7488
   12.270    2.8647
   12.300    2.4855
   12.330    2.7067
   12.360    2.8647
   12.390    3.0121
   12.420    2.9068
   12.450    3.0648
   12.480    2.9805
   12.510    2.5382
   12.540    2.9910
   12.570    2.7593
   12.600    2.7804
   12.630    3.1280
   12.660    2.7699
   12.690    2.7699
   12.720    2.7804
   12.750    2.7278
   12.780    2.8225
   12.810    2.8436
   12.840    2.9700
   12.870    2.6751
   12.900    2.9068
   12.930    2.7699
   12.960    2.8647
   12.990    2.7909
   13.020    2.8752
   13.050    2.8436
   13.080    3.0858
   13.110    2.9700
   13.140    2.6540
   13.170    2.8120
   13.200    2.8015
   13.230    2.9384
   13.260    2.8752
   13.290    2.4750
   13.320    2.9173
   13.350    2.6330
   13.380    2.4223
   13.410    2.8015
   13.440    2.8225
   13.470    2.6119
   13.500    2.8120
   13.530    2.6119
   13.560    2.8331
   13.590    2.7488
   13.620    2.6014
   13.650    2.6435
   13.680    2.9805
   13.710    2.6014
   13.740    2.7909
   13.770    2.8541
   13.800    2.8120
   13.830    2.7593
   13.860    2.4855
   13.890    2.6435
   13.920    2.6119
   13.950    2.7699
   13.980    2.8120
   14.010    2.8541
   14.040    2.7172
   14.070    2.8752
   14.100    2.8225
   14.130    2.4855
   14.160    2.7593
   14.190    2.6330
   14.220    2.5803
   14.250    2.6751
   14.280    2.7909
   14.310    2.8436
   14.340    2.5171
   14.370    2.5803
   14.400    2.5803
   14.430    2.8541
   14.460    2.6330
   14.490    2.8436
   14.520    2.7699
   14.550    2.7699
   14.580    2.7067
   14.610    2.6540
   14.640    2.6224
   14.670    2.6751
   14.700    2.6751
   14.730    2.7909
   14.760    2.6435
   14.790    2.7488
   14.820    2.6435
   14.850    2.7383
   14.880    2.5382
   14.910    2.6330
   14.940    2.6540
   14.970    2.7909
   15.000    2.5698
   15.030    2.7067
   15.060    2.8752
   15.090    3.0016
   15.120    2.7172
   15.150    2.6962
   15.180    2.7488
   15.210    2.7909
   15.240    2.5908
   15.270    2.8541
   15.300    2.6540
   15.330    3.1069
   15.360    2.7278
   15.390    2.7593
   15.420    2.8120
   15.450    2.5066
   15.480    2.7699
   15.510    2.4961
   15.540    2.9910
   15.570    2.9279
   15.600    2.4961
   15.630    2.5382
   15.660    2.4961
   15.690    2.8120
   15.720    2.8857
   15.750    2.5382
   15.780    2.7699
   15.810    2.6119
   15.840    2.7067
   15.870    2.6224
   15.900    2.6646
   15.930    2.5908
   15.960    2.7067
   15.990    2.7804
   16.020    2.8120
   16.050    2.5908
   16.080    2.5908
   16.110    2.8647
   16.140    2.5276
   16.170    2.8436
   16.200    2.9279
   16.230    2.7909
   16.260    2.9489
   16.290    2.4329
   16.320    2.5382
   16.350    2.7909
   16.380    2.5803
   16.410    2.6751
   16.440    2.9595
   16.470    2.8436
   16.500    2.6962
   16.530    2.4645
   16.560    2.7593
   16.590    2.8963
   16.620    2.3381
   16.650    2.9173
   16.680    2.8331
   16.710    2.6856
   16.740    2.7383
   16.770    2.6751
   16.800    2.7699
   16.830    2.8647
   16.860    2.8752
   16.890    2.6646
   16.920    2.4645
   16.950    2.5276
   16.980    2.4539
   17.010    2.7593
   17.040    2.7699
   17.070    2.6962
   17.100    2.7383
   17.130    2.6014
   17.160    2.6540
   17.190    2.6540
   17.220    2.5276
   17.250    2.8120
   17.280    2.7593
   17.310    2.8963
   17.340    2.9910
   17.370    2.7278
   17.400    2.6435
   17.430    2.8963
   17.460    2.5171
   17.490    2.6646
   17.520    2.5066
   17.550    2.9595
   17.580    2.7804
   17.610    2.9700
   17.640    2.6856
   17.670    2.6962
   17.700    2.6751
   17.730    2.6014
   17.760    2.6224
   17.790    2.6856
   17.820    2.5276
   17.850    2.8015
   17.880    2.5382
   17.910    2.9068
   17.940    2.5487
   17.970    2.8752
   18.000    2.7383
   18.030    2.5698
   18.060    2.5908
   18.090    2.4329
   18.120    2.5487
   18.150    2.5803
   18.180    2.7067
   18.210    2.8647
   18.240    2.6119
   18.270    2.6224
   18.300    2.7172
   18.330    2.8436
   18.360    2.6962
   18.390    2.6646
   18.420    2.6962
   18.450    2.6751
   18.480    2.9279
   18.510    2.7278
   18.540    2.6014
   18.570    2.8647
   18.600    2.6856
   18.630    2.6646
   18.660    2.5276
   18.690    2.5171
   18.720    2.8120
   18.750    2.7699
   18.780    2.6646
   18.810    2.8541
   18.840    2.8120
   18.870    2.9279
   18.900    2.7699
   18.930    2.7383
   18.960    2.7593
   18.990    2.6330
   19.020    2.9910
   19.050    2.7909
   19.080    2.7593
   19.110    3.1806
   19.140    2.5803
   19.170    2.8436
   19.200    2.7909
   19.230    2.6435
   19.260    3.1280
   19.290    2.7909
   19.320    2.5803
   19.350    2.8963
   19.380    2.6962
   19.410    2.6856
   19.440    2.7278
   19.470    2.6646
   19.500    2.9595
   19.530    2.8963
   19.560    2.4329
   19.590    2.7804
   19.620    2.7804
   19.650    2.6119
   19.680    2.8120
   19.710    2.5276
   19.740    2.8225
   19.770    2.6646
   19.800    2.8436
   19.830    2.9279
   19.860    2.9173
   19.890    2.9595
   19.920    2.5592
   19.950    2.6962
   19.980    2.7909
   20.010    2.8541
   20.040    2.7909
   20.070    2.4539
   20.100    2.8331
   20.130    3.0437
   20.160    2.8120
   20.190    2.7699
   20.220    2.8752
   20.250    2.8857
   20.280    2.6751
   20.310    3.1174
   20.340    2.7699
   20.370    2.7488
   20.400    2.7488
   20.430    2.6646
   20.460    2.5592
   20.490    2.7067
   20.520    2.6014
   20.550    2.6540
   20.580    2.5803
   20.610    3.0753
   20.640    2.6962
   20.670    3.1174
   20.700    2.6646
   20.730    2.8752
   20.760    2.8857
   20.790    2.8541
   20.820    2.7909
   20.850    2.8857
   20.880    2.5908
   20.910    2.7172
   20.940    2.8436
   20.970    2.7699
   21.000    2.7804
   21.030    3.0121
   21.060    3.0858
   21.090    2.6856
   21.120    2.7278
   21.150    2.7804
   21.180    2.7804
   21.210    2.6751
   21.240    2.6435
   21.270    2.8752
   21.300    2.7172
   21.330    2.6751
   21.360    2.8436
   21.390    2.6540
   21.420    2.7278
   21.450    3.0542
   21.480    2.7593
   21.510    2.7488
   21.540    3.0648
   21.570    2.7067
   21.600    2.6751
   21.630    2.6014
   21.660    2.6856
   21.690    2.7067
   21.720    2.6224
   21.750    2.7383
   21.780    2.6540
   21.810    2.6646
   21.840    2.8331
   21.870    2.8541
   21.900    2.7067
   21.930    2.9805
   21.960    2.8752
   21.990    2.6751
   22.020    2.7067
   22.050    2.6962
   22.080    2.7172
   22.110    2.6856
   22.140    2.8225
   22.170    2.9173
   22.200    2.7172
   22.230    2.8541
   22.260    2.8857
   22.290    2.8225
   22.320    2.5382
   22.350    2.6014
   22.380    2.6119
   22.410    2.6119
   22.440    2.8331
   22.470    2.6435
   22.500    2.7593
   22.530    2.8436
   22.560    2.6646
   22.590    2.7909
   22.620    2.6540
   22.650    2.7383
   22.680    2.6224
   22.710    2.6224
   22.740    2.8225
   22.770    2.7699
   22.800    2.6014
   22.830    2.9489
   22.860    2.8436
   22.890    2.8436
   22.920    2.4961
   22.950    2.6646
   22.980    2.6856
   23.010    2.4645
   23.040    2.7172
   23.070    2.5276
   23.100    2.6962
   23.130    2.5276
   23.160    2.6540
   23.190    2.7699
   23.220    2.7067
   23.250    2.8436
   23.280    2.8331
   23.310    2.6119
   23.340    2.8436
   23.370    2.6856
   23.400    2.4855
   23.430    2.7278
   23.460    2.5803
   23.490    2.8331
   23.520    2.8120
   23.550    2.8015
   23.580    2.7488
   23.610    2.5803
   23.640    2.7383
   23.670    2.5066
   23.700    2.7383
   23.730    2.7593
   23.760    2.7278
   23.790    2.7593
   23.820    2.7593
   23.850    2.5698
   23.880    2.4750
   23.910    2.7593
   23.940    2.7488
   23.970    2.6435
   24.000    2.7488
   24.030    2.7699
   24.060    2.7278
   24.090    2.7699
   24.120    2.7593
   24.150    2.8015
   24.180    2.8647
   24.210    2.6014
   24.240    2.6856
   24.270    2.6540
   24.300    2.8647
   24.330    2.7383
   24.360    2.4223
   24.390    2.7172
   24.420    2.5698
   24.450    2.4223
   24.480    2.4013
   24.510    2.4645
   24.540    2.4539
   24.570    2.5908
   24.600    2.5276
   24.630    2.3381
   24.660    3.0121
   24.690    2.7383
   24.720    2.6751
   24.750    2.5171
   24.780    2.5276
   24.810    2.5382
   24.840    2.6119
   24.870    2.4855
   24.900    2.7067
   24.930    2.7067
   24.960    2.7488
   24.990    2.7909
   25.020    2.4750
   25.050    2.6646
   25.080    2.6751
   25.110    2.6119
   25.140    2.6014
   25.170    2.5908
   25.200    2.6540
   25.230    2.5487
   25.260    2.2959
   25.290    2.6751
   25.320    2.4855
   25.350    2.5908
   25.380    2.5171
   25.410    2.4645
   25.440    2.2854
   25.470    2.6330
   25.500    2.8857
   25.530    2.6962
   25.560    2.3170
   25.590    2.4855
   25.620    2.5066
   25.650    2.5803
   25.680    2.5698
   25.710    2.3275
   25.740    2.4750
   25.770    2.5698
   25.800    2.8541
   25.830    2.6330
   25.860    2.5487
   25.890    2.4750
   25.920    2.4855
   25.950    2.4539
   25.980    2.4539
   26.010    2.8225
   26.040    2.3907
   26.070    2.5698
   26.100    2.6540
   26.130    2.5382
   26.160    2.3697
   26.190    2.5487
   26.220    2.4434
   26.250    2.6856
   26.280    2.5487
   26.310    2.3065
   26.340    2.6224
   26.370    2.5592
   26.400    2.3381
   26.430    2.2749
   26.460    2.5066
   26.490    2.4855
   26.520    2.6435
   26.550    2.3381
   26.580    2.4961
   26.610    2.3275
   26.640    2.4223
   26.670    2.6435
   26.700    2.4539
   26.730    2.3907
   26.760    2.7172
   26.790    2.4645
   26.820    2.4329
   26.850    2.2959
   26.880    2.6119
   26.910    2.2854
   26.940    2.5592
   26.970    2.3591
   27.000    2.2538
   27.030    2.5382
   27.060    2.5487
   27.090    2.3275
   27.120    2.3907
   27.150    2.3486
   27.180    2.4645
   27.210    2.7488
   27.240    2.3907
   27.270    2.5698
   27.300    2.3802
   27.330    2.4539
   27.360    2.1906
   27.390    2.3697
   27.420    2.4645
   27.450    2.2222
   27.480    2.8225
   27.510    2.5066
   27.540    2.4329
   27.570    2.4223
   27.600    2.4855
   27.630    2.4118
   27.660    2.4645
   27.690    2.3697
   27.720    2.5066
   27.750    2.5487
   27.780    2.6224
   27.810    2.4961
   27.840    2.4013
   27.870    2.4013
   27.900    2.3381
   27.930    2.2117
   27.960    2.4223
   27.990    2.6119
   28.020    2.5276
   28.050    2.2012
   28.080    2.2643
   28.110    2.3170
   28.140    2.3907
   28.170    2.1169
   28.200    2.2959
   28.230    1.9800
   28.260    2.4961
   28.290    2.3591
   28.320    2.2749
   28.350    2.4539
   28.380    2.6856
   28.410    2.4434
   28.440    2.2854
   28.470    2.2643
   28.500    2.4539
   28.530    2.3170
   28.560    2.2749
   28.590    2.0958
   28.620    2.3697
   28.650    2.1801
   28.680    2.3381
   28.710    2.3381
   28.740    2.6014
   28.770    1.9905
   28.800    2.2643
   28.830    2.3907
   28.860    2.4434
   28.890    2.2117
   28.920    2.0958
   28.950    2.3486
   28.980    2.2959
   29.010    2.2012
   29.040    2.3065
   29.070    2.2433
   29.100    2.4645
   29.130    2.3697
   29.160    2.4855
   29.190    2.1485
   29.220    2.2222
   29.250    2.2854
   29.280    2.3065
   29.310    2.1906
   29.340    2.4434
   29.370    2.0958
   29.400    2.1696
   29.430    2.2538
   29.460    2.0748
   29.490    2.1906
   29.520    2.5592
   29.550    2.1485
   29.580    2.3802
   29.610    2.3065
   29.640    2.3381
   29.670    2.3486
   29.700    2.1696
   29.730    2.0221
   29.760    2.2959
   29.790    2.2643
   29.820    2.2538
   29.850    2.2222
   29.880    2.2959
   29.910    2.3697
   29.940    2.1801
   29.970    2.0326
   30.000    2.3697
   30.030    2.2117
   30.060    2.1801
   30.090    2.0958
   30.120    2.2538
   30.150    2.2643
   30.180    2.1485
   30.210    2.3802
   30.240    2.2854
   30.270    2.3170
   30.300    2.1380
   30.330    2.0642
   30.360    2.3170
   30.390    2.1696
   30.420    2.0958
   30.450    2.1696
   30.480    2.1485
   30.510    2.3697
   30.540    2.1485
   30.570    2.2222
   30.600    1.9800
   30.630    2.1485
   30.660    2.1380
   30.690    2.1169
   30.720    2.2643
   30.750    2.3275
   30.780    2.1590
   30.810    2.1906
   30.840    2.0958
   30.870    1.9063
   30.900    1.9695
   30.930    2.1485
   30.960    2.0432
   30.990    2.0958
   31.020    2.2117
   31.050    1.9589
   31.080    2.1064
   31.110    2.1590
   31.140    1.9905
   31.170    2.0221
   31.200    2.1274
   31.230    2.1485
   31.260    2.1169
   31.290    2.1485
   31.320    2.3486
   31.350    2.1274
   31.380    1.9695
   31.410    2.0537
   31.440    2.0748
   31.470    1.8536
   31.500    2.2538
   31.530    2.3381
   31.560    2.1169
   31.590    2.0011
   31.620    2.2222
   31.650    2.1590
   31.680    2.1696
   31.710    2.1906
   31.740    1.9905
   31.770    2.1906
   31.800    1.8852
   31.830    1.9800
   31.860    1.9589
   31.890    2.1696
   31.920    1.8957
   31.950    1.9484
   31.980    2.0116
   32.010    1.8641
   32.040    2.2222
   32.070    1.9379
   32.100    2.2749
   32.130    2.0011
   32.160    1.7904
   32.190    2.0537
   32.220    2.1169
   32.250    2.0853
   32.280    1.9273
   32.310    2.0537
   32.340    1.8747
   32.370    2.2538
   32.400    1.8747
   32.430    2.1169
   32.460    2.3381
   32.490    2.1064
   32.520    1.9168
   32.550    1.9168
   32.580    2.2012
   32.610    2.0011
   32.640    2.1380
   32.670    2.0432
   32.700    2.0116
   32.730    1.7588
   32.760    1.9800
   32.790    1.7694
   32.820    1.8536
   32.850    1.6956
   32.880    1.8325
   32.910    1.9589
   32.940    2.0221
   32.970    1.9273
   33.000    1.8536
   33.030    1.9589
   33.060    1.9800
   33.090    1.7483
   33.120    1.8115
   33.150    1.8325
   33.180    2.0537
   33.210    2.0642
   33.240    1.9800
   33.270    2.2222
   33.300    1.9168
   33.330    1.9273
   33.360    1.9905
   33.390    1.9695
   33.420    1.9168
   33.450    1.9379
   33.480    1.7378
   33.510    2.0011
   33.540    2.0116
   33.570    1.8747
   33.600    2.0116
   33.630    1.8009
   33.660    1.9063
   33.690    1.9695
   33.720    1.9168
   33.750    1.7272
   33.780    1.9800
   33.810    2.0326
   33.840    1.9589
   33.870    1.8325
   33.900    1.9168
   33.930    2.0853
   33.960    1.9168
   33.990    1.8641
   34.020    1.7483
   34.050    2.0011
   34.080    1.7904
   34.110    1.7799
   34.140    1.7904
   34.170    1.9695
   34.200    1.9589
   34.230    2.0011
   34.260    1.9063
   34.290    1.8220
   34.320    2.1169
   34.350    1.6324
   34.380    1.8852
   34.410    1.8325
   34.440    1.7799
   34.470    1.8220
   34.500    1.9168
   34.530    2.0116
   34.560    1.9273
   34.590    1.8641
   34.620    1.8747
   34.650    1.7483
   34.680    1.7167
   34.710    1.8957
   34.740    1.8641
   34.770    1.8747
   34.800    1.7483
   34.830    1.8115
   34.860    1.9063
   34.890    1.8115
   34.920    1.8325
   34.950    1.8115
   34.980    1.8325
   35.010    1.9695
   35.040    1.8957
   35.070    1.7588
   35.100    1.9484
   35.130    1.6746
   35.160    1.9695
   35.190    1.6640
   35.220    1.9273
   35.250    1.6746
   35.280    1.7588
   35.310    1.8009
   35.340    1.7272
   35.370    2.0116
   35.400    1.6640
   35.430    1.9273
   35.460    1.8220
   35.490    1.7167
   35.520    1.8536
   35.550    1.5482
   35.580    1.7483
   35.610    1.6219
   35.640    1.7799
   35.670    1.8747
   35.700    1.6219
   35.730    1.9273
   35.760    1.7904
   35.790    1.6746
   35.820    1.8431
   35.850    1.6640
   35.880    1.9168
   35.910    1.6324
   35.940    1.7904
   35.970    1.7378
   36.000    1.6324
   36.030    1.7483
   36.060    1.8747
   36.090    1.5798
   36.120    1.7483
   36.150    1.7167
   36.180    1.7167
   36.210    1.7272
   36.240    1.6746
   36.270    1.7167
   36.300    1.7167
   36.330    1.9063
   36.360    1.8747
   36.390    1.5903
   36.420    1.9379
   36.450    1.6535
   36.480    1.8009
   36.510    1.8115
   36.540    1.6851
   36.570    1.5692
   36.600    1.4429
   36.630    1.7799
   36.660    1.8431
   36.690    1.5692
   36.720    1.6746
   36.750    1.4323
   36.780    1.6851
   36.810    1.7378
   36.840    1.7062
   36.870    1.6219
   36.900    1.6324
   36.930    1.8325
   36.960    1.6430
   36.990    1.5166
   37.020    1.5798
   37.050    1.7167
   37.080    1.7483
   37.110    1.5587
   37.140    1.6535
   37.170    1.8325
   37.200    1.7378
   37.230    1.4534
   37.260    1.4955
   37.290    1.6430
   37.320    1.7272
   37.350    1.9273
   37.380    1.6008
   37.410    1.8009
   37.440    1.4429
   37.470    1.6535
   37.500    1.7694
   37.530    1.5692
   37.560    1.7483
   37.590    1.6956
   37.620    1.5692
   37.650    1.7483
   37.680    1.5587
   37.710    1.6746
   37.740    1.6746
   37.770    1.5798
   37.800    1.9063
   37.830    1.7694
   37.860    1.6535
   37.890    1.6851
   37.920    1.5903
   37.950    1.6535
   37.980    1.6430
   38.010    1.7062
   38.040    1.9168
   38.070    1.5587
   38.100    1.5692
   38.130    1.6324
   38.160    1.4323
   38.190    1.4745
   38.220    1.7272
   38.250    1.5692
   38.280    1.6324
   38.310    1.5903
   38.340    1.6430
   38.370    1.8115
   38.400    1.6008
   38.430    1.7588
   38.460    1.6219
   38.490    1.7378
   38.520    1.5692
   38.550    1.6219
   38.580    1.8220
   38.610    1.6324
   38.640    1.4850
   38.670    1.6535
   38.700    1.6008
   38.730    1.8009
   38.760    1.6851
   38.790    1.7167
   38.820    1.7272
   38.850    1.6324
   38.880    1.7062
   38.910    1.6746
   38.940    1.7483
   38.970    1.6535
   39.000    1.7167
   39.030    2.0432
   39.060    1.5587
   39.090    1.7062
   39.120    1.7062
   39.150    1.4955
   39.180    1.6851
   39.210    1.6324
   39.240    1.6535
   39.270    1.6746
   39.300    1.6008
   39.330    1.8220
   39.360    1.7588
   39.390    1.5798
   39.420    1.7799
   39.450    1.8220
   39.480    1.6746
   39.510    1.6851
   39.540    1.7062
   39.570    1.5482
   39.600    1.6219
   39.630    1.7272
   39.660    1.5377
   39.690    1.4955
   39.720    1.5587
   39.750    1.5061
   39.780    1.5166
   39.810    1.6430
   39.840    1.4534
   39.870    1.5271
   39.900    1.8431
   39.930    1.6535
   39.960    1.6114
   39.990    1.5692