File: data/PXRD/PXRD_KE-109_Cu-Ka1_capillary-1mm_5s-deg.xyd
    1.500   10.0369
    1.530    9.8578
    1.560    9.4576
    1.590    9.2891
    1.620    9.3312
    1.650    8.8889
    1.680    8.9837
    1.710    8.3096
    1.740    8.6045
    1.770    8.2570
    1.800    8.1622
    1.830    7.4882
    1.860    7.1511
    1.890    7.5513
    1.920    7.3091
    1.950    7.4987
    1.980    7.1195
    2.010    6.8668
    2.040    6.8562
    2.070    7.1195
    2.100    7.0563
    2.130    6.7299
    2.160    6.5508
    2.190    6.9089
    2.220    6.2875
    2.250    6.3507
    2.280    6.2559
    2.310    6.2454
    2.340    6.4560
    2.370    6.0769
    2.400    5.9189
    2.430    5.9821
    2.460    5.9716
    2.490    5.7188
    2.520    5.8241
    2.550    5.9400
    2.580    5.9294
    2.610    6.0348
    2.640    5.5503
    2.670    5.2343
    2.700    5.4660
    2.730    5.3397
    2.760    5.7609
    2.790    5.2554
    2.820    5.6135
    2.850    5.5924
    2.880    5.6240
    2.910    5.1606
    2.940    5.4976
    2.970    5.1290
    3.000    5.2975
    3.030    5.3923
    3.060    5.4766
    3.090    5.2554
    3.120    5.7083
    3.150    5.1711
    3.180    5.4871
    3.210    5.6029
    3.240    5.5187
    3.270    5.2343
    3.300    5.6345
    3.330    5.6872
    3.360    5.2238
    3.390    4.7920
    3.420    4.9605
    3.450    5.2870
    3.480    5.1817
    3.510    5.6029
    3.540    5.0237
    3.570    4.9710
    3.600    4.9921
    3.630    5.2133
    3.660    5.2238
    3.690    4.8868
    3.720    5.0342
    3.750    5.1290
    3.780    5.2975
    3.810    5.0974
    3.840    5.1395
    3.870    4.9921
    3.900    5.0974
    3.930    5.1606
    3.960    4.9605
    3.990    5.2870
    4.020    5.1185
    4.050    5.2870
    4.080    5.1606
    4.110    5.2343
    4.140    5.0132
    4.170    4.6972
    4.200    4.9184
    4.230    5.0448
    4.260    4.5919
    4.290    5.1185
    4.320    5.1606
    4.350    5.2975
    4.380    5.0869
    4.410    5.5819
    4.440    5.0237
    4.470    4.8447
    4.500    5.2554
    4.530    4.9605
    4.560    5.2449
    4.590    4.9394
    4.620    5.3607
    4.650    5.3186
    4.680    4.8657
    4.710    5.3818
    4.740    5.3397
    4.770    4.9078
    4.800    5.3502
    4.830    5.0342
    4.860    4.9078
    4.890    4.7709
    4.920    4.9500
    4.950    5.1817
    4.980    4.9289
    5.010    4.8447
    5.040    4.8973
    5.070    5.2133
    5.100    5.3502
    5.130    5.0026
    5.160    4.8236
    5.190    5.0658
    5.220    4.8025
    5.250    4.9289
    5.280    4.9710
    5.310    5.0764
    5.340    5.0764
    5.370    4.8447
    5.400    4.8763
    5.430    5.1080
    5.460    4.9710
    5.490    5.0658
    5.520    4.9605
    5.550    5.1395
    5.580    4.8447
    5.610    4.9394
    5.640    4.9184
    5.670    4.8236
    5.700    5.0869
    5.730    4.6761
    5.760    5.1290
    5.790    5.0237
    5.820    4.5814
    5.850    5.1817
    5.880    5.0764
    5.910    4.9394
    5.940    4.8973
    5.970    4.9921
    6.000    5.2554
    6.030    5.1606
    6.060    4.9710
    6.090    4.7604
    6.120    4.9605
    6.150    4.8131
    6.180    4.9921
    6.210    5.2238
    6.240    4.6445
    6.270    4.7077
    6.300    5.0764
    6.330    4.8447
    6.360    5.0658
    6.390    5.0553
    6.420    4.8552
    6.450    4.6024
    6.480    4.9184
    6.510    4.8552
    6.540    4.8025
    6.570    4.9184
    6.600    4.7604
    6.630    5.2870
    6.660    4.9078
    6.690    4.5814
    6.720    4.8025
    6.750    4.8131
    6.780    5.0448
    6.810    4.9394
    6.840    4.9816
    6.870    5.0132
    6.900    4.9184
    6.930    5.0658
    6.960    4.9500
    6.990    4.8973
    7.020    5.2554
    7.050    4.6972
    7.080    5.0237
    7.110    4.8025
    7.140    4.8763
    7.170    5.0974
    7.200    4.8657
    7.230    4.8025
    7.260    5.1501
    7.290    4.8236
    7.320    5.3186
    7.350    4.8868
    7.380    5.2133
    7.410    5.2765
    7.440    5.2133
    7.470    4.8763
    7.500    4.9184
    7.530    5.3081
    7.560    5.0448
    7.590    5.2027
    7.620    5.0974
    7.650    4.8447
    7.680    5.3081
    7.710    5.3397
    7.740    5.2659
    7.770    5.2133
    7.800    5.2449
    7.830    5.1711
    7.860    5.5503
    7.890    5.2027
    7.920    5.5714
    7.950    4.9394
    7.980    5.3502
    8.010    5.0026
    8.040    5.1290
    8.070    5.2554
    8.100    4.6761
    8.130    5.0237
    8.160    5.1922
    8.190    4.9500
    8.220    5.1606
    8.250    5.1501
    8.280    5.3607
    8.310    4.8657
    8.340    5.2449
    8.370    5.0448
    8.400    5.2659
    8.430    5.3291
    8.460    5.3818
    8.490    4.9710
    8.520    5.3818
    8.550    5.3291
    8.580    5.2238
    8.610    5.2870
    8.640    5.0974
    8.670    5.1395
    8.700    5.3923
    8.730    5.2554
    8.760    5.1501
    8.790    5.2659
    8.820    5.5924
    8.850    5.1395
    8.880    5.1817
    8.910    5.1185
    8.940    5.3712
    8.970    5.1922
    9.000    5.1711
    9.030    4.8763
    9.060    5.4344
    9.090    4.9500
    9.120    4.6761
    9.150    5.0132
    9.180    5.2765
    9.210    5.2133
    9.240    4.8763
    9.270    5.4766
    9.300    5.1290
    9.330    5.6029
    9.360    5.2554
    9.390    5.2133
    9.420    5.0237
    9.450    5.3923
    9.480    5.0342
    9.510    4.9184
    9.540    5.1606
    9.570    5.5187
    9.600    4.7920
    9.630    5.0553
    9.660    5.3923
    9.690    5.2238
    9.720    4.8447
    9.750    5.4450
    9.780    5.2554
    9.810    5.0974
    9.840    5.2765
    9.870    4.9816
    9.900    5.2449
    9.930    5.4555
    9.960    5.1922
    9.990    5.1395
   10.020    5.3397
   10.050    4.9921
   10.080    5.0448
   10.110    5.3186
   10.140    4.8025
   10.170    5.2975
   10.200    5.1395
   10.230    4.9500
   10.260    4.8025
   10.290    5.5608
   10.320    5.0448
   10.350    5.2765
   10.380    5.2659
   10.410    5.1501
   10.440    4.9394
   10.470    5.2870
   10.500    5.0132
   10.530    5.1395
   10.560    5.2027
   10.590    5.0237
   10.620    5.2027
   10.650    4.9394
   10.680    5.1606
   10.710    4.9605
   10.740    4.8657
   10.770    5.2133
   10.800    5.1290
   10.830    4.8236
   10.860    5.1606
   10.890    4.9605
   10.920    4.8657
   10.950    4.7604
   10.980    4.9710
   11.010    4.5182
   11.040    4.8552
   11.070    5.2133
   11.100    4.6656
   11.130    5.0869
   11.160    4.5919
   11.190    5.1395
   11.220    5.0553
   11.250    5.0132
   11.280    5.1185
   11.310    4.9710
   11.340    4.8868
   11.370    5.0448
   11.400    4.9816
   11.430    4.6972
   11.460    4.8763
   11.490    4.7604
   11.520    5.0342
   11.550    5.0448
   11.580    4.7815
   11.610    5.1501
   11.640    4.9921
   11.670    4.9078
   11.700    5.0974
   11.730    5.0342
   11.760    4.9394
   11.790    5.1922
   11.820    4.8131
   11.850    4.8341
   11.880    5.1922
   11.910    4.8868
   11.940    4.5814
   11.970    5.1290
   12.000    4.8973
   12.030    5.0026
   12.060    5.0132
   12.090    4.5498
   12.120    4.6024
   12.150    4.6235
   12.180    4.5919
   12.210    4.8763
   12.240    4.9921
   12.270    4.8973
   12.300    4.8973
   12.330    4.6445
   12.360    4.4339
   12.390    4.4655
   12.420    4.4760
   12.450    4.5392
   12.480    4.6972
   12.510    4.6340
   12.540    4.8447
   12.570    4.6867
   12.600    4.5603
   12.630    4.5708
   12.660    4.6972
   12.690    4.3286
   12.720    4.6656
   12.750    4.3813
   12.780    4.3707
   12.810    4.6235
   12.840    4.6235
   12.870    4.6235
   12.900    4.4760
   12.930    4.8025
   12.960    4.6235
   12.990    4.6445
   13.020    4.5708
   13.050    4.8657
   13.080    4.9605
   13.110    4.5498
   13.140    4.3391
   13.170    4.7815
   13.200    4.5814
   13.230    4.4655
   13.260    4.9921
   13.290    4.8025
   13.320    4.6761
   13.350    4.5603
   13.380    4.8447
   13.410    4.4866
   13.440    4.5182
   13.470    4.7288
   13.500    4.7709
   13.530    4.8025
   13.560    4.9605
   13.590    4.4023
   13.620    4.2759
   13.650    4.5498
   13.680    4.6445
   13.710    4.7920
   13.740    4.5603
   13.770    4.7499
   13.800    4.7815
   13.830    4.5919
   13.860    4.6656
   13.890    4.4760
   13.920    4.6024
   13.950    4.7604
   13.980    4.5708
   14.010    4.6551
   14.040    4.4023
   14.070    4.7288
   14.100    4.6972
   14.130    4.6024
   14.160    4.8236
   14.190    4.4339
   14.220    4.8552
   14.250    4.5708
   14.280    4.8131
   14.310    4.3707
   14.340    4.4971
   14.370    4.5287
   14.400    4.5919
   14.430    4.6551
   14.460    4.5919
   14.490    4.7709
   14.520    4.4655
   14.550    4.8025
   14.580    4.7604
   14.610    4.7499
   14.640    4.6340
   14.670    4.6130
   14.700    4.5708
   14.730    4.6235
   14.760    4.5708
   14.790    4.6551
   14.820    4.4444
   14.850    4.7288
   14.880    4.5708
   14.910    4.5392
   14.940    4.5392
   14.970    4.7920
   15.000    4.4339
   15.030    4.7709
   15.060    4.7077
   15.090    4.5814
   15.120    4.2759
   15.150    4.7920
   15.180    4.8973
   15.210    4.4655
   15.240    4.4971
   15.270    4.9921
   15.300    4.3918
   15.330    4.7077
   15.360    4.5498
   15.390    4.4760
   15.420    4.6445
   15.450    4.4760
   15.480    4.6656
   15.510    4.7604
   15.540    4.6761
   15.570    4.5498
   15.600    4.8763
   15.630    4.8447
   15.660    4.4550
   15.690    4.8025
   15.720    4.4655
   15.750    4.4234
   15.780    4.6761
   15.810    4.7288
   15.840    4.7393
   15.870    4.7920
   15.900    4.6340
   15.930    4.5498
   15.960    4.8868
   15.990    4.7288
   16.020    4.8552
   16.050    4.7815
   16.080    4.5603
   16.110    4.9921
   16.140    4.5919
   16.170    4.7499
   16.200    4.7183
   16.230    4.8973
   16.260    4.7604
   16.290    4.6445
   16.320    4.6867
   16.350    4.9605
   16.380    4.5708
   16.410    4.6867
   16.440    4.5814
   16.470    4.4550
   16.500    4.7288
   16.530    4.7077
   16.560    4.6656
   16.590    4.6340
   16.620    4.7709
   16.650    4.6024
   16.680    4.6761
   16.710    4.8025
   16.740    4.8763
   16.770    4.2654
   16.800    4.6340
   16.830    4.8236
   16.860    4.7604
   16.890    4.5287
   16.920    4.5603
   16.950    4.3181
   16.980    5.0658
   17.010    4.8552
   17.040    4.7709
   17.070    4.6972
   17.100    4.6656
   17.130    4.6445
   17.160    4.8131
   17.190    4.6445
   17.220    4.6445
   17.250    4.6024
   17.280    4.3918
   17.310    4.6024
   17.340    4.5392
   17.370    5.0869
   17.400    4.6656
   17.430    4.8447
   17.460    4.9605
   17.490    4.9605
   17.520    4.7288
   17.550    4.5708
   17.580    4.8131
   17.610    4.7393
   17.640    4.7183
   17.670    4.8447
   17.700    5.1606
   17.730    4.5498
   17.760    4.8552
   17.790    4.8868
   17.820    5.0764
   17.850    5.0448
   17.880    4.9605
   17.910    4.8131
   17.940    5.1185
   17.970    5.1080
   18.000    4.7393
   18.030    4.8552
   18.060    4.8341
   18.090    4.8657
   18.120    4.9184
   18.150    4.7393
   18.180    5.2238
   18.210    5.2554
   18.240    4.5498
   18.270    4.8868
   18.300    4.7815
   18.330    4.9078
   18.360    4.5076
   18.390    4.7183
   18.420    4.6235
   18.450    5.1395
   18.480    4.7499
   18.510    4.8025
   18.540    4.9078
   18.570    5.0448
   18.600    4.8657
   18.630    4.5182
   18.660    4.5919
   18.690    4.7709
   18.720    4.9605
   18.750    4.9078
   18.780    4.8868
   18.810    4.9184
   18.840    4.8447
   18.870    4.5919
   18.900    4.4971
   18.930    5.1817
   18.960    5.4239
   18.990    5.3712
   19.020    4.9500
   19.050    5.4239
   19.080    5.2343
   19.110    4.5392
   19.140    4.6972
   19.170    4.5814
   19.200    4.5603
   19.230    5.0974
   19.260    4.7815
   19.290    4.8763
   19.320    4.8552
   19.350    4.6867
   19.380    5.0132
   19.410    5.0869
   19.440    4.6656
   19.470    4.8131
   19.500    4.9078
   19.530    4.8025
   19.560    5.2343
   19.590    5.1395
   19.620    4.8868
   19.650    5.1395
   19.680    5.0026
   19.710    4.7709
   19.740    5.1185
   19.770    5.4028
   19.800    4.6024
   19.830    4.7077
   19.860    4.7920
   19.890    4.4655
   19.920    4.9500
   19.950    5.0237
   19.980    4.7604
   20.010    4.8025
   20.040    4.7815
   20.070    4.7604
   20.100    4.7604
   20.130    4.7709
   20.160    4.9921
   20.190    5.0764
   20.220    4.5392
   20.250    5.0448
   20.280    4.8973
   20.310    4.8552
   20.340    4.8341
   20.370    5.0132
   20.400    5.1395
   20.430    4.8341
   20.460    4.9289
   20.490    4.9394
   20.520    4.8236
   20.550    4.9605
   20.580    5.0237
   20.610    4.6130
   20.640    4.5603
   20.670    4.7393
   20.700    4.9500
   20.730    4.7183
   20.760    4.8131
   20.790    4.8973
   20.820    4.8868
   20.850    4.7920
   20.880    4.9289
   20.910    4.7499
   20.940    4.8868
   20.970    4.9605
   21.000    5.0237
   21.030    4.4760
   21.060    4.8131
   21.090    4.9605
   21.120    4.6445
   21.150    4.6340
   21.180    4.6024
   21.210    5.2343
   21.240    5.0026
   21.270    4.6656
   21.300    5.1290
   21.330    4.7709
   21.360    4.7920
   21.390    4.8868
   21.420    4.6656
   21.450    5.0974
   21.480    5.1711
   21.510    5.3081
   21.540    4.9605
   21.570    4.5814
   21.600    4.8236
   21.630    5.0342
   21.660    4.7709
   21.690    4.9921
   21.720    4.9500
   21.750    4.8973
   21.780    4.7393
   21.810    4.9289
   21.840    4.9605
   21.870    4.8552
   21.900    5.0658
   21.930    5.0974
   21.960    5.2238
   21.990    4.9394
   22.020    4.9078
   22.050    4.5182
   22.080    4.5708
   22.110    4.5708
   22.140    4.9394
   22.170    5.1606
   22.200    4.9500
   22.230    4.9289
   22.260    4.9184
   22.290    5.3397
   22.320    5.0448
   22.350    4.9289
   22.380    5.1501
   22.410    5.1185
   22.440    4.9184
   22.470    4.8657
   22.500    5.1501
   22.530    4.7920
   22.560    4.8552
   22.590    5.2238
   22.620    5.1080
   22.650    4.5287
   22.680    4.8868
   22.710    4.9184
   22.740    4.9605
   22.770    4.8868
   22.800    5.1501
   22.830    4.7077
   22.860    4.9184
   22.890    5.0448
   22.920    5.0237
   22.950    4.6551
   22.980    4.6972
   23.010    4.8236
   23.040    5.1395
   23.070    4.8341
   23.100    5.0658
   23.130    5.0869
   23.160    4.6024
   23.190    5.2133
   23.220    4.9921
   23.250    4.8341
   23.280    4.6761
   23.310    4.8973
   23.340    4.8236
   23.370    5.1395
   23.400    5.0132
   23.430    4.5392
   23.460    4.9078
   23.490    5.2343
   23.520    5.1606
   23.550    4.8868
   23.580    4.8763
   23.610    5.1711
   23.640    4.4866
   23.670    4.8025
   23.700    4.8973
   23.730    4.6551
   23.760    4.6340
   23.790    4.8868
   23.820    5.0658
   23.850    4.8236
   23.880    4.8973
   23.910    4.6551
   23.940    5.1185
   23.970    5.0132
   24.000    4.8236
   24.030    4.7288
   24.060    4.8868
   24.090    4.9500
   24.120    4.9500
   24.150    4.5814
   24.180    4.8552
   24.210    4.9500
   24.240    4.5708
   24.270    5.0658
   24.300    4.6445
   24.330    4.4971
   24.360    4.6235
   24.390    4.7815
   24.420    4.8447
   24.450    4.4971
   24.480    5.2765
   24.510    4.5708
   24.540    4.3602
   24.570    4.8763
   24.600    4.1180
   24.630    4.8236
   24.660    4.9394
   24.690    5.0026
   24.720    4.5708
   24.750    4.8025
   24.780    4.6235
   24.810    4.6656
   24.840    4.5498
   24.870    4.9078
   24.900    4.7393
   24.930    4.7077
   24.960    4.5919
   24.990    4.6656
   25.020    4.8657
   25.050    4.5076
   25.080    4.6972
   25.110    4.5076
   25.140    4.6340
   25.170    4.8552
   25.200    4.6551
   25.230    4.6551
   25.260    4.3602
   25.290    4.6551
   25.320    4.9605
   25.350    4.6445
   25.380    4.7499
   25.410    4.4444
   25.440    4.6761
   25.470    4.5392
   25.500    4.5919
   25.530    4.6340
   25.560    4.7815
   25.590    4.2233
   25.620    4.2338
   25.650    5.1080
   25.680    4.7288
   25.710    4.8763
   25.740    4.6445
   25.770    4.4760
   25.800    4.5076
   25.830    4.2865
   25.860    4.7183
   25.890    4.6130
   25.920    4.3391
   25.950    4.3286
   25.980    4.3181
   26.010    4.7393
   26.040    4.4444
   26.070    4.5919
   26.100    4.7288
   26.130    4.6551
   26.160    4.4971
   26.190    4.2549
   26.220    4.5392
   26.250    4.3391
   26.280    4.5182
   26.310    4.2549
   26.340    4.2233
   26.370    4.4760
   26.400    4.6761
   26.430    4.1496
   26.460    4.6972
   26.490    4.5287
   26.520    4.5603
   26.550    4.7499
   26.580    4.7288
   26.610    4.5498
   26.640    4.3181
   26.670    4.6867
   26.700    4.4655
   26.730    4.8236
   26.760    4.2127
   26.790    4.5814
   26.820    4.5498
   26.850    4.2865
   26.880    4.6972
   26.910    4.6340
   26.940    4.3286
   26.970    4.4760
   27.000    4.6130
   27.030    4.2443
   27.060    4.5919
   27.090    4.3391
   27.120    4.4128
   27.150    4.2654
   27.180    4.3286
   27.210    4.3707
   27.240    4.4444
   27.270    4.5919
   27.300    4.6130
   27.330    4.2654
   27.360    4.3707
   27.390    4.2549
   27.420    4.4550
   27.450    4.2865
   27.480    4.2759
   27.510    4.3707
   27.540    4.4128
   27.570    4.4339
   27.600    4.6340
   27.630    4.2654
   27.660    4.4655
   27.690    4.3602
   27.720    4.3075
   27.750    4.0232
   27.780    4.6656
   27.810    4.3497
   27.840    4.1601
   27.870    4.5498
   27.900    4.3075
   27.930    4.6340
   27.960    4.7499
   27.990    4.5182
   28.020    4.2443
   28.050    4.4128
   28.080    4.5708
   28.110    4.4339
   28.140    4.2759
   28.170    4.3497
   28.200    4.3813
   28.230    4.3391
   28.260    4.5498
   28.290    4.0548
   28.320    4.4550
   28.350    4.3286
   28.380    4.4760
   28.410    4.6130
   28.440    3.9073
   28.470    4.0758
   28.500    4.2759
   28.530    4.3391
   28.560    4.2127
   28.590    4.3813
   28.620    4.3497
   28.650    4.0232
   28.680    4.0548
   28.710    4.3391
   28.740    4.3181
   28.770    4.0548
   28.800    4.3497
   28.830    4.2970
   28.860    4.5919
   28.890    4.5603
   28.920    4.4550
   28.950    4.4444
   28.980    4.7499
   29.010    4.2865
   29.040    4.3813
   29.070    3.8863
   29.100    4.2443
   29.130    4.0864
   29.160    3.8968
   29.190    3.9389
   29.220    4.1390
   29.250    4.2865
   29.280    4.5076
   29.310    4.0758
   29.340    4.3918
   29.370    4.1180
   29.400    3.8968
   29.430    4.1706
   29.460    4.1180
   29.490    4.5603
   29.520    4.1917
   29.550    3.9916
   29.580    4.2022
   29.610    4.2549
   29.640    3.9600
   29.670    4.1811
   29.700    3.8441
   29.730    4.0126
   29.760    4.0442
   29.790    3.7915
   29.820    3.7599
   29.850    4.1180
   29.880    4.1917
   29.910    4.1180
   29.940    4.0969
   29.970    3.9810
   30.000    4.0126
   30.030    4.0969
   30.060    4.0864
   30.090    4.1074
   30.120    3.9810
   30.150    4.0442
   30.180    4.2127
   30.210    4.0232
   30.240    4.0548
   30.270    3.9810
   30.300    3.9494
   30.330    3.9705
   30.360    4.2233
   30.390    3.8336
   30.420    4.0758
   30.450    4.0232
   30.480    4.0653
   30.510    4.0864
   30.540    3.6967
   30.570    4.0337
   30.600    3.8547
   30.630    4.1811
   30.660    4.0232
   30.690    3.9810
   30.720    3.8020
   30.750    3.9600
   30.780    4.0021
   30.810    4.1074
   30.840    3.7177
   30.870    4.1180
   30.900    3.9179
   30.930    4.0758
   30.960    3.9705
   30.990    3.6862
   31.020    3.9073
   31.050    3.8863
   31.080    4.0653
   31.110    3.8968
   31.140    3.9389
   31.170    4.2233
   31.200    3.9073
   31.230    4.2970
   31.260    3.9600
   31.290    3.8757
   31.320    4.1811
   31.350    3.8968
   31.380    3.9389
   31.410    3.7599
   31.440    3.9389
   31.470    4.0864
   31.500    4.1811
   31.530    3.6862
   31.560    4.0337
   31.590    3.9389
   31.620    3.6335
   31.650    3.6440
   31.680    3.9916
   31.710    3.8441
   31.740    3.9179
   31.770    4.1496
   31.800    4.2549
   31.830    3.9494
   31.860    3.8863
   31.890    3.5808
   31.920    3.8441
   31.950    3.7493
   31.980    4.2338
   32.010    4.1285
   32.040    3.9284
   32.070    4.2549
   32.100    4.3707
   32.130    4.2970
   32.160    4.2233
   32.190    3.9494
   32.220    3.9284
   32.250    3.5176
   32.280    3.5703
   32.310    3.4123
   32.340    3.7283
   32.370    3.5387
   32.400    3.5282
   32.430    3.5914
   32.460    3.6019
   32.490    3.7599
   32.520    3.4860
   32.550    3.6651
   32.580    3.6651
   32.610    3.9284
   32.640    3.7072
   32.670    3.8547
   32.700    3.4439
   32.730    3.6546
   32.760    3.7915
   32.790    3.7072
   32.820    3.6967
   32.850    3.6546
   32.880    3.5703
   32.910    3.8968
   32.940    3.6651
   32.970    3.5492
   33.000    3.4123
   33.030    3.8336
   33.060    3.6546
   33.090    3.9494
   33.120    3.4439
   33.150    3.9494
   33.180    3.6230
   33.210    3.3597
   33.240    3.5071
   33.270    3.4544
   33.300    3.8968
   33.330    3.4755
   33.360    3.3913
   33.390    3.4229
   33.420    3.4018
   33.450    3.6124
   33.480    3.6019
   33.510    3.6440
   33.540    3.5598
   33.570    3.5282
   33.600    3.6019
   33.630    3.5071
   33.660    3.6546
   33.690    3.4966
   33.720    3.7072
   33.750    3.6335
   33.780    3.6967
   33.810    3.7704
   33.840    3.8125
   33.870    3.4860
   33.900    3.9284
   33.930    3.5598
   33.960    3.5387
   33.990    3.7599
   34.020    3.4334
   34.050    3.2017
   34.080    3.3386
   34.110    3.5282
   34.140    3.5492
   34.170    3.3807
   34.200    3.4755
   34.230    3.6019
   34.260    3.1596
   34.290    3.3913
   34.320    3.5387
   34.350    3.4123
   34.380    3.3702
   34.410    3.5492
   34.440    3.2122
   34.470    3.2017
   34.500    3.5492
   34.530    3.6967
   34.560    3.6124
   34.590    3.2965
   34.620    3.3913
   34.650    3.6019
   34.680    3.3913
   34.710    3.3070
   34.740    3.4439
   34.770    3.1912
   34.800    3.7177
   34.830    3.5492
   34.860    3.5598
   34.890    3.2859
   34.920    3.2333
   34.950    3.3281
   34.980    3.2754
   35.010    3.3913
   35.040    3.4123
   35.070    3.4544
   35.100    3.0858
   35.130    3.4966
   35.160    3.5914
   35.190    3.6230
   35.220    2.9805
   35.250    3.2438
   35.280    3.1701
   35.310    3.3386
   35.340    3.3702
   35.370    3.3070
   35.400    3.2859
   35.430    3.5176
   35.460    3.2965
   35.490    3.2859
   35.520    3.2227
   35.550    3.3281
   35.580    3.5282
   35.610    3.2017
   35.640    3.2122
   35.670    3.6546
   35.700    3.1806
   35.730    3.3175
   35.760    3.3702
   35.790    3.2017
   35.820    3.3913
   35.850    3.2543
   35.880    3.4755
   35.910    3.0858
   35.940    3.3597
   35.970    3.4018
   36.000    3.2017
   36.030    3.3597
   36.060    3.1701
   36.090    3.2227
   36.120    3.2438
   36.150    3.2649
   36.180    3.2649
   36.210    3.2859
   36.240    3.0858
   36.270    3.3070
   36.300    3.3070
   36.330    3.3491
   36.360    3.3175
   36.390    3.2965
   36.420    3.0753
   36.450    3.4123
   36.480    2.9910
   36.510    3.2122
   36.540    3.0858
   36.570    3.4755
   36.600    2.9910
   36.630    3.1912
   36.660    3.1701
   36.690    3.1490
   36.720    3.0437
   36.750    3.2965
   36.780    3.1596
   36.810    3.2122
   36.840    3.0964
   36.870    3.3070
   36.900    3.4123
   36.930    3.2122
   36.960    3.4755
   36.990    3.0858
   37.020    3.3597
   37.050    3.1174
   37.080    3.3281
   37.110    3.3807
   37.140    3.2543
   37.170    3.2438
   37.200    3.2333
   37.230    3.1385
   37.260    3.1596
   37.290    3.3913
   37.320    3.2122
   37.350    3.3913
   37.380    3.0332
   37.410    3.2965
   37.440    3.3070
   37.470    3.4123
   37.500    3.4018
   37.530    3.1596
   37.560    3.1806
   37.590    3.1385
   37.620    3.3807
   37.650    3.2017
   37.680    3.2438
   37.710    3.1069
   37.740    3.1490
   37.770    3.2754
   37.800    3.1280
   37.830    2.8857
   37.860    3.0016
   37.890    3.3913
   37.920    2.9279
   37.950    3.2227
   37.980    3.2333
   38.010    3.1912
   38.040    2.9595
   38.070    3.0964
   38.100    3.3491
   38.130    2.9279
   38.160    2.8752
   38.190    3.1490
   38.220    3.0016
   38.250    2.9910
   38.280    3.0121
   38.310    3.1912
   38.340    3.0437
   38.370    3.0648
   38.400    3.2754
   38.430    3.1174
   38.460    3.1174
   38.490    3.2017
   38.520    3.2017
   38.550    3.1701
   38.580    3.1701
   38.610    3.1806
   38.640    3.2227
   38.670    3.1490
   38.700    2.8752
   38.730    3.2543
   38.760    3.2017
   38.790    3.3913
   38.820    3.0648
   38.850    3.2122
   38.880    2.8120
   38.910    3.2754
   38.940    3.0016
   38.970    3.2543
   39.000    3.1701
   39.030    3.2122
   39.060    3.1174
   39.090    3.2543
   39.120    3.0753
   39.150    2.9805
   39.180    2.9279
   39.210    3.0437
   39.240    3.1280
   39.270    3.0648
   39.300    3.0753
   39.330    3.0016
   39.360    3.0226
   39.390    3.4018
   39.420    3.4544
   39.450    3.2438
   39.480    3.4123
   39.510    3.0016
   39.540    3.2965
   39.570    3.0332
   39.600    2.8541
   39.630    3.0648
   39.660    2.9805
   39.690    2.7909
   39.720    3.0542
   39.750    3.0437
   39.780    2.7067
   39.810    3.1806
   39.840    3.3807
   39.870    2.8857
   39.900    3.0332
   39.930    3.1596
   39.960    2.9910
   39.990    3.3175