File: data/PXRD/PXRD_KE-186_Cu-Ka1_capillary-1mm_5s-deg.xyd
    1.500   27.4882
    1.530   27.3091
    1.560   24.2233
    1.590   24.2549
    1.620   23.1069
    1.650   22.6119
    1.680   20.6424
    1.710   20.5266
    1.740   19.1153
    1.770   18.6835
    1.800   17.6619
    1.830   17.8199
    1.860   16.3770
    1.890   15.5240
    1.920   15.0500
    1.950   14.4813
    1.980   13.9126
    2.010   13.6809
    2.040   13.1964
    2.070   13.1543
    2.100   12.1011
    2.130   12.4697
    2.160   11.7746
    2.190   11.3217
    2.220   11.0058
    2.250   10.8373
    2.280   10.3844
    2.310   10.2054
    2.340    9.7736
    2.370   10.0790
    2.400    9.5945
    2.430    9.8368
    2.460    9.3207
    2.490    9.2575
    2.520    9.1101
    2.550    9.1417
    2.580    8.7414
    2.610    8.9521
    2.640    8.0674
    2.670    8.6361
    2.700    8.4466
    2.730    8.7309
    2.760    8.3096
    2.790    8.1727
    2.820    7.7514
    2.850    8.0358
    2.880    7.7199
    2.910    8.0042
    2.940    8.2359
    2.970    8.5624
    3.000    8.3834
    3.030    8.3728
    3.060    8.5835
    3.090    8.9731
    3.120    9.0469
    3.150   10.1211
    3.180   10.0053
    3.210   10.6161
    3.240   10.8583
    3.270   11.8905
    3.300   13.2596
    3.330   14.3971
    3.360   15.6187
    3.390   16.7035
    3.420   18.9468
    3.450   20.7794
    3.480   23.6335
    3.510   26.5719
    3.540   30.6582
    3.570   33.8073
    3.600   38.9258
    3.630   44.4655
    3.660   51.1954
    3.690   59.5471
    3.720   73.2175
    3.750   84.6656
    3.780  105.9084
    3.810  132.4171
    3.840  175.3028
    3.870  236.1664
    3.900  245.4134
    3.930  166.6877
    3.960   51.6904
    3.990   17.9568
    4.020   11.4587
    4.050    9.0995
    4.080    7.9200
    4.110    7.2565
    4.140    6.6667
    4.170    6.2243
    4.200    6.0874
    4.230    6.1401
    4.260    5.7715
    4.290    5.6556
    4.320    5.4134
    4.350    5.5924
    4.380    5.2554
    4.410    5.3397
    4.440    5.3502
    4.470    5.2238
    4.500    5.0026
    4.530    5.3186
    4.560    5.2238
    4.590    4.9816
    4.620    5.0342
    4.650    5.1290
    4.680    4.8763
    4.710    4.9921
    4.740    5.0342
    4.770    4.8552
    4.800    5.1501
    4.830    4.6656
    4.860    4.8868
    4.890    4.8131
    4.920    4.8447
    4.950    5.0026
    4.980    5.0342
    5.010    5.4976
    5.040    5.3923
    5.070    5.3186
    5.100    5.3186
    5.130    6.0769
    5.160    6.1506
    5.190    6.7404
    5.220    6.7825
    5.250    8.0253
    5.280    8.2359
    5.310    9.8157
    5.340   11.0690
    5.370   12.6909
    5.400   15.0606
    5.430   18.7046
    5.460   25.1080
    5.490   33.4071
    5.520   35.2291
    5.550   26.9194
    5.580   12.6277
    5.610    6.7825
    5.640    5.2765
    5.670    4.8236
    5.700    4.7815
    5.730    4.8868
    5.760    4.8868
    5.790    4.3918
    5.820    4.2970
    5.850    4.1074
    5.880    4.3918
    5.910    4.6445
    5.940    3.8863
    5.970    4.4128
    6.000    4.2338
    6.030    4.3918
    6.060    4.5498
    6.090    4.4550
    6.120    4.3286
    6.150    4.1811
    6.180    4.5708
    6.210    4.2443
    6.240    4.4444
    6.270    4.1811
    6.300    4.3813
    6.330    4.4339
    6.360    4.6130
    6.390    4.1601
    6.420    4.2127
    6.450    4.2970
    6.480    4.6024
    6.510    4.2654
    6.540    4.7815
    6.570    4.4444
    6.600    4.5287
    6.630    4.7604
    6.660    5.1395
    6.690    4.8973
    6.720    4.7393
    6.750    5.4660
    6.780    5.3607
    6.810    4.8552
    6.840    4.5287
    6.870    4.4339
    6.900    4.4339
    6.930    4.1496
    6.960    4.3181
    6.990    4.4655
    7.020    4.1496
    7.050    4.4866
    7.080    4.4444
    7.110    4.3075
    7.140    4.0548
    7.170    4.4234
    7.200    4.4023
    7.230    4.4971
    7.260    4.4023
    7.290    4.2127
    7.320    4.0021
    7.350    4.5287
    7.380    4.0758
    7.410    4.2233
    7.440    4.2865
    7.470    4.3286
    7.500    4.3497
    7.530    4.6867
    7.560    5.1080
    7.590    5.2659
    7.620    5.3186
    7.650    6.0453
    7.680    6.8668
    7.710    7.6461
    7.740    9.2575
    7.770   12.1432
    7.800   15.3028
    7.830   14.8183
    7.860   10.9637
    7.890    6.1611
    7.920    4.8552
    7.950    4.5076
    7.980    4.4760
    8.010    4.4655
    8.040    4.2970
    8.070    4.2759
    8.100    4.8868
    8.130    4.2233
    8.160    4.1285
    8.190    4.0126
    8.220    4.4128
    8.250    4.4550
    8.280    4.4023
    8.310    4.3181
    8.340    4.0442
    8.370    4.2443
    8.400    4.3391
    8.430    4.0969
    8.460    4.4550
    8.490    4.3391
    8.520    4.6656
    8.550    4.5919
    8.580    4.8447
    8.610    4.9078
    8.640    4.6867
    8.670    5.7293
    8.700    6.0664
    8.730    6.5613
    8.760    6.1717
    8.790    5.1817
    8.820    4.6130
    8.850    4.4550
    8.880    4.5076
    8.910    4.4550
    8.940    4.5498
    8.970    4.2338
    9.000    4.1601
    9.030    4.3707
    9.060    4.3391
    9.090    4.3391
    9.120    4.5392
    9.150    4.3181
    9.180    4.5814
    9.210    4.5603
    9.240    4.2022
    9.270    4.6130
    9.300    4.6656
    9.330    4.6656
    9.360    5.0342
    9.390    5.2133
    9.420    5.6240
    9.450    6.7404
    9.480    7.4460
    9.510    9.3839
    9.540   13.3860
    9.570   15.6082
    9.600   15.0922
    9.630   11.1743
    9.660    6.7509
    9.690    4.9394
    9.720    4.5498
    9.750    4.6024
    9.780    4.3391
    9.810    4.2970
    9.840    4.1496
    9.870    4.6445
    9.900    4.4128
    9.930    4.4234
    9.960    4.6235
    9.990    4.6024
   10.020    4.3286
   10.050    4.5392
   10.080    4.6024
   10.110    4.4550
   10.140    4.4760
   10.170    4.8763
   10.200    5.2238
   10.230    5.4028
   10.260    5.7399
   10.290    6.7509
   10.320    8.1833
   10.350    9.0047
   10.380    8.5624
   10.410    6.1085
   10.440    4.8447
   10.470    4.5392
   10.500    4.2759
   10.530    4.4971
   10.560    4.3497
   10.590    4.3602
   10.620    4.4023
   10.650    4.2127
   10.680    4.3813
   10.710    4.2233
   10.740    4.4128
   10.770    4.7288
   10.800    4.5814
   10.830    4.3918
   10.860    4.6867
   10.890    4.5708
   10.920    5.1922
   10.950    5.3397
   10.980    6.1295
   11.010    6.9932
   11.040    8.4571
   11.070    9.2364
   11.100    8.7836
   11.130    6.2559
   11.160    4.8131
   11.190    4.5708
   11.220    4.4339
   11.250    4.2865
   11.280    4.1601
   11.310    4.3602
   11.340    3.9916
   11.370    4.3497
   11.400    4.5182
   11.430    3.8863
   11.460    4.1390
   11.490    4.1074
   11.520    4.3602
   11.550    4.0864
   11.580    4.7393
   11.610    4.6656
   11.640    5.3923
   11.670    6.2559
   11.700    7.6777
   11.730    9.2996
   11.760    9.2364
   11.790    7.4460
   11.820    5.4766
   11.850    4.3602
   11.880    4.3391
   11.910    4.0337
   11.940    4.1496
   11.970    4.0337
   12.000    4.2654
   12.030    4.0548
   12.060    3.7493
   12.090    3.9810
   12.120    4.2022
   12.150    4.2022
   12.180    3.8757
   12.210    3.9494
   12.240    4.2022
   12.270    3.9284
   12.300    4.3813
   12.330    4.8025
   12.360    5.1922
   12.390    4.8341
   12.420    4.8025
   12.450    4.0758
   12.480    4.0864
   12.510    3.9810
   12.540    3.9810
   12.570    3.8441
   12.600    4.1390
   12.630    3.8441
   12.660    3.7809
   12.690    3.9179
   12.720    4.1811
   12.750    3.8441
   12.780    3.9810
   12.810    4.4234
   12.840    4.0232
   12.870    4.0653
   12.900    4.7604
   12.930    5.6872
   12.960    7.0879
   12.990    7.5197
   13.020    6.9616
   13.050    5.8768
   13.080    4.5498
   13.110    4.1074
   13.140    3.8020
   13.170    4.1601
   13.200    3.9705
   13.230    3.7283
   13.260    3.6862
   13.290    3.4229
   13.320    3.7915
   13.350    4.1601
   13.380    3.7177
   13.410    3.6862
   13.440    4.0337
   13.470    4.3707
   13.500    4.7920
   13.530    5.1395
   13.560    5.8978
   13.590    5.6977
   13.620    4.7183
   13.650    4.3813
   13.680    3.8020
   13.710    3.8863
   13.740    3.8231
   13.770    3.8020
   13.800    3.4755
   13.830    3.7809
   13.860    3.9705
   13.890    3.8441
   13.920    3.8547
   13.950    3.7493
   13.980    4.2127
   14.010    4.2338
   14.040    4.4023
   14.070    5.1290
   14.100    6.0137
   14.130    6.0979
   14.160    5.8347
   14.190    5.0237
   14.220    4.2970
   14.250    3.5914
   14.280    3.7599
   14.310    3.9389
   14.340    3.9073
   14.370    3.7072
   14.400    3.8968
   14.430    3.6335
   14.460    3.7493
   14.490    3.6440
   14.520    3.8547
   14.550    3.6124
   14.580    3.6756
   14.610    3.6651
   14.640    3.7599
   14.670    3.7915
   14.700    3.7704
   14.730    4.0126
   14.760    3.6335
   14.790    3.7177
   14.820    3.8757
   14.850    3.8863
   14.880    3.7283
   14.910    3.8968
   14.940    3.6967
   14.970    3.7177
   15.000    3.7915
   15.030    3.8020
   15.060    3.9284
   15.090    4.0653
   15.120    4.4655
   15.150    4.8868
   15.180    5.0342
   15.210    5.2554
   15.240    4.8025
   15.270    4.1074
   15.300    3.7599
   15.330    3.7704
   15.360    3.8547
   15.390    3.7704
   15.420    3.7177
   15.450    3.7283
   15.480    3.8757
   15.510    3.6124
   15.540    3.7704
   15.570    3.4334
   15.600    3.8547
   15.630    3.6124
   15.660    3.5598
   15.690    4.0232
   15.720    3.7599
   15.750    3.6651
   15.780    3.6756
   15.810    4.0337
   15.840    3.4334
   15.870    3.6230
   15.900    4.1706
   15.930    3.8863
   15.960    3.8125
   15.990    3.6651
   16.020    3.8652
   16.050    3.5808
   16.080    4.0442
   16.110    4.0758
   16.140    4.6761
   16.170    5.1290
   16.200    5.0974
   16.230    4.4971
   16.260    4.1390
   16.290    3.8441
   16.320    3.8441
   16.350    3.7388
   16.380    3.7599
   16.410    3.8441
   16.440    3.8336
   16.470    3.9073
   16.500    4.0021
   16.530    3.6651
   16.560    4.0758
   16.590    4.8763
   16.620    5.0553
   16.650    5.0342
   16.680    5.2133
   16.710    4.4128
   16.740    3.9179
   16.770    3.8757
   16.800    3.7915
   16.830    3.8231
   16.860    4.0969
   16.890    3.5071
   16.920    4.2233
   16.950    3.9179
   16.980    3.9179
   17.010    4.6340
   17.040    5.2133
   17.070    5.4660
   17.100    5.8978
   17.130    6.0874
   17.160    5.1922
   17.190    4.8447
   17.220    4.0653
   17.250    3.8020
   17.280    3.5914
   17.310    3.7704
   17.340    3.8231
   17.370    3.5703
   17.400    3.5914
   17.430    3.9179
   17.460    3.6019
   17.490    4.2233
   17.520    4.2127
   17.550    4.3075
   17.580    4.3075
   17.610    3.9916
   17.640    4.0864
   17.670    3.5703
   17.700    3.8441
   17.730    3.7915
   17.760    3.9705
   17.790    3.6440
   17.820    3.6756
   17.850    3.9073
   17.880    3.9810
   17.910    4.2022
   17.940    4.1285
   17.970    4.5708
   18.000    4.1811
   18.030    4.4655
   18.060    4.1496
   18.090    4.1390
   18.120    3.6546
   18.150    3.8020
   18.180    3.7283
   18.210    3.8441
   18.240    3.8547
   18.270    4.2443
   18.300    4.0653
   18.330    4.0548
   18.360    4.2233
   18.390    4.6130
   18.420    4.3181
   18.450    4.6235
   18.480    4.7709
   18.510    4.0864
   18.540    3.8547
   18.570    3.6230
   18.600    3.7072
   18.630    4.0864
   18.660    4.0864
   18.690    4.1390
   18.720    3.6967
   18.750    4.1285
   18.780    3.8441
   18.810    3.9705
   18.840    3.9389
   18.870    4.3813
   18.900    4.0021
   18.930    4.0969
   18.960    4.0969
   18.990    3.5914
   19.020    3.8020
   19.050    3.9810
   19.080    3.4966
   19.110    3.9179
   19.140    3.6651
   19.170    3.8125
   19.200    4.1285
   19.230    4.1074
   19.260    3.9389
   19.290    3.9916
   19.320    3.6440
   19.350    3.8652
   19.380    3.9810
   19.410    3.9494
   19.440    4.0021
   19.470    3.5703
   19.500    3.7177
   19.530    4.1917
   19.560    4.1706
   19.590    4.4550
   19.620    5.0237
   19.650    5.1922
   19.680    4.9500
   19.710    4.7183
   19.740    4.3813
   19.770    4.1180
   19.800    4.1811
   19.830    4.2549
   19.860    3.6546
   19.890    3.9389
   19.920    3.8336
   19.950    3.9916
   19.980    3.7599
   20.010    3.8547
   20.040    3.9705
   20.070    4.0864
   20.100    4.0758
   20.130    3.5071
   20.160    3.8652
   20.190    3.7704
   20.220    3.7915
   20.250    4.0442
   20.280    4.1601
   20.310    3.6756
   20.340    4.3813
   20.370    5.2765
   20.400    5.5292
   20.430    5.9189
   20.460    6.0242
   20.490    5.3186
   20.520    4.7288
   20.550    4.2654
   20.580    4.2338
   20.610    3.7599
   20.640    3.9810
   20.670    4.2233
   20.700    4.0232
   20.730    3.7177
   20.760    3.8336
   20.790    3.9810
   20.820    3.9179
   20.850    4.2127
   20.880    4.0548
   20.910    3.6862
   20.940    4.0337
   20.970    4.0758
   21.000    4.1811
   21.030    4.1811
   21.060    3.9284
   21.090    3.8652
   21.120    3.7704
   21.150    3.9284
   21.180    4.1074
   21.210    3.6756
   21.240    4.0548
   21.270    3.8020
   21.300    4.1706
   21.330    4.0232
   21.360    4.1180
   21.390    3.8020
   21.420    3.9284
   21.450    4.1496
   21.480    3.9600
   21.510    3.9494
   21.540    4.2654
   21.570    3.7283
   21.600    4.1180
   21.630    3.8020
   21.660    4.3181
   21.690    3.9284
   21.720    3.9179
   21.750    3.8336
   21.780    4.1811
   21.810    4.2443
   21.840    4.6130
   21.870    4.9184
   21.900    5.1185
   21.930    5.3186
   21.960    5.0658
   21.990    4.2970
   22.020    4.2970
   22.050    4.1074
   22.080    4.2654
   22.110    3.9916
   22.140    4.1706
   22.170    4.3602
   22.200    3.7177
   22.230    4.5498
   22.260    4.3497
   22.290    4.4760
   22.320    4.6340
   22.350    4.1811
   22.380    4.4760
   22.410    4.2022
   22.440    3.9179
   22.470    4.3707
   22.500    4.4550
   22.530    4.8131
   22.560    5.1185
   22.590    6.1085
   22.620    6.1611
   22.650    6.2454
   22.680    5.2238
   22.710    5.1185
   22.740    4.4550
   22.770    4.2233
   22.800    4.3181
   22.830    4.3286
   22.860    4.8341
   22.890    5.5819
   22.920    6.0137
   22.950    6.7299
   22.980    6.7088
   23.010    6.3718
   23.040    5.4871
   23.070    4.8973
   23.100    4.3602
   23.130    4.1390
   23.160    4.3391
   23.190    4.0337
   23.220    4.3602
   23.250    4.6024
   23.280    4.4444
   23.310    4.7499
   23.340    4.6445
   23.370    4.4023
   23.400    4.2970
   23.430    4.3602
   23.460    3.9073
   23.490    3.8441
   23.520    4.0758
   23.550    4.2022
   23.580    4.3075
   23.610    4.0864
   23.640    3.7704
   23.670    4.2443
   23.700    4.2865
   23.730    4.1706
   23.760    3.7599
   23.790    3.7072
   23.820    3.9494
   23.850    4.2338
   23.880    4.3813
   23.910    4.5708
   23.940    4.6235
   23.970    5.2343
   24.000    4.8657
   24.030    4.5392
   24.060    4.4023
   24.090    4.1601
   24.120    4.3391
   24.150    3.8863
   24.180    3.8547
   24.210    3.8547
   24.240    4.0021
   24.270    3.9073
   24.300    4.1601
   24.330    3.9916
   24.360    3.8652
   24.390    4.1180
   24.420    3.8125
   24.450    4.0337
   24.480    3.9916
   24.510    4.2970
   24.540    3.9389
   24.570    4.1917
   24.600    4.2759
   24.630    3.9389
   24.660    4.0126
   24.690    4.5498
   24.720    3.7283
   24.750    3.7599
   24.780    3.9179
   24.810    3.7072
   24.840    4.2127
   24.870    3.8020
   24.900    3.8020
   24.930    3.9600
   24.960    4.0758
   24.990    4.2338
   25.020    4.0969
   25.050    4.1180
   25.080    3.8863
   25.110    4.0548
   25.140    3.8231
   25.170    4.1074
   25.200    4.2865
   25.230    3.8968
   25.260    4.0758
   25.290    4.0548
   25.320    4.0969
   25.350    4.2233
   25.380    3.7809
   25.410    3.8441
   25.440    4.1180
   25.470    3.7177
   25.500    3.7493
   25.530    3.9179
   25.560    4.0548
   25.590    4.3075
   25.620    4.4550
   25.650    3.9705
   25.680    3.7388
   25.710    4.0021
   25.740    3.8968
   25.770    4.1285
   25.800    4.4128
   25.830    4.8552
   25.860    5.4134
   25.890    5.2343
   25.920    4.8973
   25.950    4.8657
   25.980    4.6340
   26.010    4.1285
   26.040    3.8336
   26.070    3.7704
   26.100    3.6756
   26.130    4.1706
   26.160    3.7599
   26.190    4.0126
   26.220    4.0337
   26.250    3.8652
   26.280    3.8441
   26.310    3.7177
   26.340    3.4966
   26.370    4.1390
   26.400    4.0653
   26.430    3.9494
   26.460    4.2233
   26.490    4.3075
   26.520    4.0864
   26.550    4.1601
   26.580    4.1496
   26.610    4.0969
   26.640    3.8020
   26.670    3.6230
   26.700    3.6335
   26.730    3.6862
   26.760    3.7283
   26.790    3.7704
   26.820    3.8547
   26.850    3.8125
   26.880    3.8757
   26.910    3.6967
   26.940    3.7493
   26.970    3.7599
   27.000    4.0758
   27.030    4.0969
   27.060    4.5076
   27.090    4.4444
   27.120    4.5814
   27.150    4.2443
   27.180    3.6440
   27.210    3.8441
   27.240    3.7388
   27.270    3.9389
   27.300    3.6651
   27.330    3.9073
   27.360    3.6546
   27.390    3.7177
   27.420    3.7177
   27.450    3.8863
   27.480    3.7915
   27.510    3.7177
   27.540    3.5598
   27.570    4.0021
   27.600    3.7704
   27.630    3.9073
   27.660    3.9916
   27.690    4.0442
   27.720    3.9600
   27.750    3.7177
   27.780    3.7072
   27.810    3.7809
   27.840    3.6862
   27.870    3.6651
   27.900    3.8125
   27.930    3.8441
   27.960    4.0969
   27.990    4.2022
   28.020    3.8863
   28.050    3.9179
   28.080    3.5914
   28.110    3.7915
   28.140    3.8336
   28.170    3.9916
   28.200    4.4444
   28.230    4.3707
   28.260    4.5392
   28.290    3.8652
   28.320    4.1706
   28.350    3.7283
   28.380    3.8863
   28.410    4.0126
   28.440    4.1074
   28.470    3.9284
   28.500    4.2338
   28.530    4.3181
   28.560    3.9179
   28.590    4.0126
   28.620    3.8547
   28.650    3.9389
   28.680    3.4966
   28.710    3.5176
   28.740    3.3913
   28.770    3.6967
   28.800    3.5703
   28.830    3.6124
   28.860    3.8020
   28.890    3.5282
   28.920    3.6862
   28.950    3.8231
   28.980    3.5176
   29.010    3.6230
   29.040    3.7177
   29.070    3.9073
   29.100    3.9179
   29.130    3.9600
   29.160    3.6546
   29.190    3.8020
   29.220    3.6124
   29.250    3.8968
   29.280    4.0548
   29.310    4.1496
   29.340    4.0758
   29.370    4.2549
   29.400    4.0021
   29.430    3.8125
   29.460    3.7493
   29.490    3.4860
   29.520    3.4334
   29.550    3.6967
   29.580    3.6967
   29.610    3.4229
   29.640    3.5598
   29.670    3.6756
   29.700    3.3491
   29.730    3.8652
   29.760    3.5598
   29.790    3.7283
   29.820    3.7809
   29.850    3.6756
   29.880    4.1706
   29.910    3.6756
   29.940    3.7177
   29.970    3.8336
   30.000    3.4334
   30.030    3.3491
   30.060    3.6019
   30.090    3.6756
   30.120    3.6546
   30.150    3.7493
   30.180    3.5808
   30.210    3.7493
   30.240    3.7599
   30.270    3.5914
   30.300    3.9389
   30.330    3.3807
   30.360    3.4650
   30.390    3.3913
   30.420    3.3913
   30.450    3.6230
   30.480    3.7704
   30.510    3.6546
   30.540    3.6546
   30.570    3.7809
   30.600    3.6862
   30.630    3.9389
   30.660    4.1601
   30.690    3.8863
   30.720    3.7599
   30.750    3.4755
   30.780    3.6230
   30.810    3.8020
   30.840    3.4860
   30.870    3.6756
   30.900    3.5282
   30.930    3.5703
   30.960    3.4123
   30.990    3.1806
   31.020    3.4860
   31.050    3.2965
   31.080    3.2859
   31.110    3.4755
   31.140    3.2227
   31.170    3.5176
   31.200    3.2754
   31.230    3.3386
   31.260    3.5598
   31.290    3.3702
   31.320    3.4860
   31.350    3.5914
   31.380    3.6335
   31.410    3.3386
   31.440    3.5071
   31.470    3.5598
   31.500    3.4966
   31.530    3.6019
   31.560    3.4860
   31.590    3.5598
   31.620    3.2543
   31.650    3.7599
   31.680    3.3597
   31.710    3.6124
   31.740    3.5703
   31.770    3.2965
   31.800    3.3702
   31.830    3.4439
   31.860    3.4755
   31.890    3.3386
   31.920    3.1806
   31.950    3.3597
   31.980    3.3175
   32.010    3.4755
   32.040    3.4650
   32.070    3.4544
   32.100    3.6124
   32.130    3.4544
   32.160    3.4123
   32.190    3.4439
   32.220    3.1385
   32.250    3.3281
   32.280    3.3070
   32.310    3.3281
   32.340    3.1596
   32.370    3.3070
   32.400    3.2227
   32.430    3.2438
   32.460    3.2438
   32.490    3.4966
   32.520    3.2543
   32.550    3.4123
   32.580    3.4755
   32.610    3.2649
   32.640    3.3070
   32.670    3.2649
   32.700    3.1806
   32.730    3.2543
   32.760    3.3281
   32.790    3.2649
   32.820    3.2649
   32.850    3.6124
   32.880    3.2017
   32.910    3.5492
   32.940    3.4755
   32.970    3.5387
   33.000    3.4755
   33.030    3.3807
   33.060    3.4439
   33.090    3.5071
   33.120    3.2965
   33.150    3.2438
   33.180    3.3386
   33.210    3.4544
   33.240    3.1912
   33.270    3.3702
   33.300    3.1912
   33.330    3.2227
   33.360    3.1174
   33.390    3.3386
   33.420    3.1912
   33.450    3.3807
   33.480    3.3702
   33.510    3.1490
   33.540    3.3070
   33.570    3.2438
   33.600    3.0858
   33.630    3.5703
   33.660    3.4650
   33.690    3.2438
   33.720    3.2965
   33.750    3.3702
   33.780    3.3070
   33.810    3.2122
   33.840    3.3597
   33.870    3.3386
   33.900    3.3281
   33.930    3.4544
   33.960    3.5071
   33.990    3.5914
   34.020    3.5387
   34.050    3.3070
   34.080    3.1701
   34.110    3.4018
   34.140    2.9489
   34.170    3.4860
   34.200    3.2543
   34.230    3.1174
   34.260    3.2122
   34.290    3.1806
   34.320    3.0121
   34.350    3.4229
   34.380    3.1385
   34.410    3.2122
   34.440    3.2543
   34.470    3.2649
   34.500    3.2965
   34.530    3.1490
   34.560    2.9489
   34.590    3.1701
   34.620    3.1490
   34.650    3.3702
   34.680    3.3386
   34.710    3.0858
   34.740    3.3386
   34.770    3.3175
   34.800    3.4123
   34.830    3.3070
   34.860    3.1174
   34.890    3.1806
   34.920    3.2017
   34.950    3.2965
   34.980    3.2543
   35.010    3.3175
   35.040    3.0226
   35.070    2.9384
   35.100    2.9384
   35.130    3.1701
   35.160    3.0542
   35.190    3.0648
   35.220    2.8331
   35.250    3.1806
   35.280    3.1385
   35.310    3.0648
   35.340    3.3070
   35.370    3.3175
   35.400    3.1912
   35.430    3.0753
   35.460    3.3386
   35.490    2.9910
   35.520    3.0226
   35.550    3.1912
   35.580    3.4650
   35.610    3.0332
   35.640    2.9805
   35.670    3.0437
   35.700    3.1490
   35.730    3.0858
   35.760    3.4018
   35.790    3.4650
   35.820    3.3597
   35.850    3.1806
   35.880    3.2122
   35.910    3.3913
   35.940    3.0753
   35.970    3.1912
   36.000    3.0648
   36.030    3.2543
   36.060    3.1280
   36.090    3.4334
   36.120    3.2965
   36.150    3.1912
   36.180    2.9173
   36.210    3.1069
   36.240    3.3597
   36.270    2.8541
   36.300    3.4544
   36.330    3.4650
   36.360    3.1069
   36.390    3.2649
   36.420    2.9279
   36.450    2.9489
   36.480    3.1385
   36.510    3.2227
   36.540    3.0437
   36.570    2.6540
   36.600    3.3175
   36.630    3.3807
   36.660    2.9805
   36.690    2.7804
   36.720    3.1385
   36.750    3.2017
   36.780    3.0964
   36.810    3.4123
   36.840    3.1069
   36.870    3.0753
   36.900    3.1701
   36.930    3.1596
   36.960    3.0858
   36.990    3.3913
   37.020    3.1385
   37.050    2.9489
   37.080    3.0648
   37.110    3.2754
   37.140    3.4334
   37.170    3.1490
   37.200    3.4229
   37.230    3.4650
   37.260    3.3070
   37.290    3.0753
   37.320    3.0121
   37.350    3.2227
   37.380    2.8331
   37.410    3.0753
   37.440    2.9173
   37.470    2.9279
   37.500    3.1174
   37.530    2.8963
   37.560    3.1596
   37.590    3.1069
   37.620    3.2017
   37.650    3.1280
   37.680    3.0437
   37.710    3.3597
   37.740    2.8225
   37.770    3.1069
   37.800    2.8963
   37.830    2.9279
   37.860    3.1701
   37.890    3.0226
   37.920    3.1490
   37.950    3.1912
   37.980    3.0016
   38.010    2.9910
   38.040    3.0437
   38.070    3.0437
   38.100    3.1912
   38.130    3.1596
   38.160    2.9384
   38.190    3.0858
   38.220    3.0648
   38.250    3.0226
   38.280    2.8963
   38.310    3.1174
   38.340    2.8541
   38.370    3.0016
   38.400    3.0226
   38.430    2.7067
   38.460    3.0121
   38.490    3.1596
   38.520    2.7278
   38.550    2.9595
   38.580    3.1385
   38.610    2.9595
   38.640    2.9489
   38.670    2.9489
   38.700    3.1069
   38.730    3.2438
   38.760    2.9595
   38.790    3.1490
   38.820    2.9595
   38.850    3.1174
   38.880    3.0753
   38.910    3.0016
   38.940    2.8752
   38.970    3.1490
   39.000    2.8752
   39.030    2.9173
   39.060    3.0542
   39.090    3.0858
   39.120    2.8857
   39.150    3.1701
   39.180    3.2122
   39.210    2.8752
   39.240    2.9279
   39.270    3.0016
   39.300    3.0437
   39.330    3.0648
   39.360    2.8541
   39.390    3.0437
   39.420    3.1701
   39.450    2.9068
   39.480    3.3281
   39.510    3.1280
   39.540    3.1385
   39.570    3.1385
   39.600    3.1069
   39.630    3.1280
   39.660    3.0332
   39.690    3.1174
   39.720    2.9489
   39.750    3.0964
   39.780    3.1596
   39.810    2.8752
   39.840    2.8120
   39.870    3.3281
   39.900    3.0332
   39.930    3.0964
   39.960    3.0542
   39.990    2.9700