File: data/PXRD/PXRD_KE-192_Cu-Ka1_capillary-1mm_5s-deg.xyd
    1.500   21.8325
    1.530   21.6219
    1.560   21.6219
    1.590   20.8636
    1.620   20.3370
    1.650   19.3681
    1.680   19.9684
    1.710   19.1785
    1.740   18.5782
    1.770   18.2938
    1.800   17.4513
    1.830   17.1143
    1.860   16.5877
    1.890   16.3981
    1.920   15.7767
    1.950   15.8294
    1.980   14.8499
    2.010   15.2185
    2.040   14.5761
    2.070   14.7762
    2.100   13.9758
    2.130   13.6914
    2.160   14.1127
    2.190   13.7335
    2.220   13.4387
    2.250   13.1859
    2.280   12.9331
    2.310   12.8805
    2.340   12.6593
    2.370   12.5224
    2.400   12.1748
    2.430   12.1854
    2.460   11.7325
    2.490   12.0484
    2.520   11.6377
    2.550   10.8899
    2.580   10.7636
    2.610   10.8689
    2.640   10.3212
    2.670   10.0474
    2.700   10.5951
    2.730   10.4160
    2.760    9.7314
    2.790   10.5108
    2.820   10.7320
    2.850    9.9210
    2.880   10.3423
    2.910   10.1001
    2.940   10.1106
    2.970   10.8689
    3.000   10.5529
    3.030   10.8794
    3.060   10.2791
    3.090   10.4476
    3.120   11.1532
    3.150   11.4692
    3.180   11.7746
    3.210   11.9221
    3.240   13.0490
    3.270   13.4281
    3.300   14.2075
    3.330   14.6814
    3.360   15.2817
    3.390   16.8615
    3.420   17.9252
    3.450   20.3476
    3.480   22.0326
    3.510   24.3286
    3.540   26.1190
    3.570   30.0158
    3.600   33.3228
    3.630   37.4724
    3.660   43.8757
    3.690   51.6693
    3.720   59.4523
    3.750   70.6477
    3.780   87.3302
    3.810  112.5856
    3.840  145.8241
    3.870  143.7283
    3.900  101.7272
    3.930   42.9700
    3.960   20.8847
    3.990   14.5234
    4.020   12.2064
    4.050   10.1106
    4.080    9.6577
    4.110    8.7836
    4.140    7.9726
    4.170    7.8462
    4.200    7.2354
    4.230    6.6983
    4.260    6.3402
    4.290    6.6245
    4.320    6.7720
    4.350    5.9294
    4.380    6.3507
    4.410    6.1295
    4.440    5.9505
    4.470    6.0874
    4.500    5.5503
    4.530    5.8978
    4.560    5.4450
    4.590    5.5608
    4.620    5.4028
    4.650    5.6767
    4.680    5.7188
    4.710    5.4239
    4.740    5.1606
    4.770    5.7293
    4.800    5.6135
    4.830    5.4976
    4.860    5.5924
    4.890    5.5608
    4.920    5.6240
    4.950    5.8347
    4.980    6.2770
    5.010    6.5298
    5.040    6.0769
    5.070    6.7720
    5.100    7.1406
    5.130    7.6883
    5.160    8.0569
    5.190    8.7730
    5.220    9.2996
    5.250   10.6898
    5.280   11.5429
    5.310   13.7019
    5.340   16.4508
    5.370   19.1153
    5.400   23.0753
    5.430   29.7946
    5.460   37.6409
    5.490   39.7999
    5.520   29.7314
    5.550   14.9658
    5.580    8.4676
    5.610    6.4350
    5.640    6.5403
    5.670    5.8241
    5.700    6.0874
    5.730    5.5608
    5.760    4.9500
    5.790    5.0869
    5.820    5.1080
    5.850    4.9710
    5.880    4.8657
    5.910    4.9710
    5.940    4.5498
    5.970    4.8025
    6.000    4.0969
    6.030    4.7183
    6.060    4.6656
    6.090    4.8341
    6.120    4.8868
    6.150    4.1706
    6.180    4.5182
    6.210    4.5182
    6.240    5.0237
    6.270    4.6656
    6.300    4.7499
    6.330    4.6551
    6.360    5.0132
    6.390    4.8447
    6.420    5.2449
    6.450    4.6551
    6.480    5.1711
    6.510    5.5187
    6.540    5.8031
    6.570    6.4350
    6.600    7.0669
    6.630    7.5197
    6.660    9.3628
    6.690   10.9005
    6.720   12.4697
    6.750   11.8905
    6.780    8.7730
    6.810    6.3928
    6.840    5.5292
    6.870    5.0869
    6.900    4.5919
    6.930    4.5498
    6.960    4.6340
    6.990    4.7709
    7.020    4.4760
    7.050    4.6972
    7.080    4.7288
    7.110    4.3602
    7.140    4.5814
    7.170    4.7815
    7.200    4.5498
    7.230    4.4971
    7.260    4.4760
    7.290    4.7183
    7.320    4.7499
    7.350    4.5814
    7.380    4.7709
    7.410    4.8025
    7.440    4.4971
    7.470    5.0026
    7.500    4.8763
    7.530    4.8657
    7.560    5.4344
    7.590    5.1290
    7.620    6.0348
    7.650    6.3086
    7.680    7.5619
    7.710    8.5940
    7.740   10.2686
    7.770   11.2375
    7.800   10.7952
    7.830    8.5097
    7.860    6.0453
    7.890    4.7499
    7.920    4.7077
    7.950    4.4866
    7.980    4.5076
    8.010    4.1074
    8.040    4.3497
    8.070    4.2970
    8.100    4.4760
    8.130    4.2549
    8.160    4.3286
    8.190    4.3286
    8.220    4.2865
    8.250    4.4444
    8.280    4.3813
    8.310    4.4128
    8.340    4.3181
    8.370    4.4128
    8.400    4.3602
    8.430    4.3181
    8.460    4.5182
    8.490    4.5182
    8.520    4.5182
    8.550    4.1180
    8.580    4.6445
    8.610    4.6972
    8.640    4.5814
    8.670    4.8025
    8.700    5.1606
    8.730    5.1817
    8.760    4.7183
    8.790    4.4550
    8.820    4.0442
    8.850    4.1390
    8.880    4.2654
    8.910    4.2022
    8.940    4.6656
    8.970    4.3707
    9.000    4.2654
    9.030    4.0337
    9.060    4.6130
    9.090    4.4971
    9.120    4.2970
    9.150    4.1285
    9.180    4.3391
    9.210    4.6551
    9.240    4.3391
    9.270    4.6130
    9.300    4.9394
    9.330    5.7293
    9.360    6.3823
    9.390    6.4771
    9.420    7.4144
    9.450    9.1417
    9.480   12.0800
    9.510   15.7241
    9.540   18.8310
    9.570   17.1564
    9.600   11.4271
    9.630    7.2249
    9.660    5.8452
    9.690    5.0553
    9.720    4.8341
    9.750    4.6024
    9.780    4.7077
    9.810    4.3286
    9.840    4.4339
    9.870    3.9073
    9.900    4.5287
    9.930    4.7499
    9.960    4.1601
    9.990    4.7077
   10.020    4.5814
   10.050    4.6656
   10.080    4.6445
   10.110    4.6972
   10.140    4.9710
   10.170    4.9500
   10.200    5.5292
   10.230    6.1506
   10.260    7.2670
   10.290    9.0469
   10.320    9.3734
   10.350    7.6988
   10.380    6.5192
   10.410    5.0026
   10.440    4.9289
   10.470    4.6235
   10.500    4.3918
   10.530    4.2127
   10.560    4.3497
   10.590    4.4339
   10.620    4.2443
   10.650    4.2233
   10.680    3.8863
   10.710    4.5392
   10.740    4.5919
   10.770    4.3813
   10.800    4.2127
   10.830    4.4655
   10.860    4.6235
   10.890    4.7604
   10.920    5.3712
   10.950    5.8557
   10.980    6.4982
   11.010    8.0463
   11.040    8.5940
   11.070    7.7199
   11.100    5.7715
   11.130    4.9710
   11.160    4.7393
   11.190    4.0969
   11.220    4.2022
   11.250    4.3391
   11.280    4.1390
   11.310    4.4339
   11.340    4.3075
   11.370    4.2443
   11.400    4.0442
   11.430    3.8652
   11.460    4.4339
   11.490    4.5076
   11.520    4.2443
   11.550    4.7077
   11.580    4.8131
   11.610    5.2133
   11.640    6.1822
   11.670    7.6356
   11.700    8.8784
   11.730    8.3307
   11.760    6.4771
   11.790    5.4660
   11.820    4.8763
   11.850    4.5392
   11.880    4.3497
   11.910    4.1285
   11.940    4.0653
   11.970    3.8125
   12.000    3.9705
   12.030    3.6967
   12.060    3.7599
   12.090    4.2022
   12.120    3.6967
   12.150    3.9494
   12.180    4.0548
   12.210    4.2233
   12.240    4.0864
   12.270    4.3918
   12.300    4.4128
   12.330    4.6024
   12.360    4.7183
   12.390    4.2970
   12.420    3.9600
   12.450    3.8968
   12.480    4.0758
   12.510    3.9916
   12.540    3.8652
   12.570    3.7809
   12.600    4.2443
   12.630    3.3807
   12.660    3.8020
   12.690    3.8968
   12.720    3.9705
   12.750    3.9284
   12.780    4.3813
   12.810    4.3813
   12.840    4.5603
   12.870    5.1922
   12.900    5.5608
   12.930    6.3612
   12.960    7.0037
   12.990    6.2981
   13.020    5.4555
   13.050    4.5392
   13.080    4.1074
   13.110    4.0337
   13.140    3.9916
   13.170    3.8336
   13.200    4.0653
   13.230    4.0442
   13.260    3.6756
   13.290    3.7388
   13.320    3.7915
   13.350    3.9179
   13.380    3.7388
   13.410    4.2233
   13.440    4.3707
   13.470    4.2654
   13.500    4.8657
   13.530    5.3291
   13.560    5.0869
   13.590    4.8868
   13.620    4.3286
   13.650    3.8547
   13.680    4.0442
   13.710    3.7388
   13.740    4.0969
   13.770    3.6019
   13.800    4.0758
   13.830    4.1390
   13.860    3.9916
   13.890    3.7599
   13.920    3.8863
   13.950    4.2970
   13.980    4.1811
   14.010    4.7920
   14.040    5.6240
   14.070    5.9926
   14.100    6.2243
   14.130    5.9400
   14.160    4.8763
   14.190    3.9389
   14.220    4.1285
   14.250    3.6440
   14.280    4.0758
   14.310    3.6651
   14.340    3.8757
   14.370    3.6756
   14.400    3.6335
   14.430    3.5598
   14.460    3.4123
   14.490    4.0969
   14.520    3.3913
   14.550    3.6019
   14.580    3.5492
   14.610    3.3807
   14.640    3.5387
   14.670    3.6440
   14.700    3.6440
   14.730    3.7177
   14.760    3.6651
   14.790    3.6546
   14.820    3.6651
   14.850    3.6967
   14.880    4.0548
   14.910    3.8125
   14.940    3.7704
   14.970    4.0126
   15.000    4.0232
   15.030    3.6546
   15.060    4.0758
   15.090    4.1390
   15.120    4.0548
   15.150    4.3391
   15.180    4.0442
   15.210    4.0758
   15.240    3.9284
   15.270    3.9073
   15.300    3.7915
   15.330    3.7283
   15.360    3.8125
   15.390    3.9600
   15.420    3.8020
   15.450    3.5703
   15.480    3.4123
   15.510    3.7283
   15.540    3.6124
   15.570    3.7283
   15.600    3.3491
   15.630    3.8231
   15.660    3.7599
   15.690    3.9705
   15.720    3.3807
   15.750    3.9494
   15.780    3.6019
   15.810    3.9494
   15.840    3.6756
   15.870    3.8968
   15.900    3.5598
   15.930    3.6862
   15.960    3.6440
   15.990    3.4439
   16.020    4.0126
   16.050    3.9284
   16.080    4.1917
   16.110    4.2865
   16.140    4.0969
   16.170    4.2865
   16.200    4.0021
   16.230    4.0758
   16.260    3.9179
   16.290    3.6440
   16.320    3.8441
   16.350    3.6546
   16.380    3.9179
   16.410    3.7072
   16.440    3.8125
   16.470    3.6019
   16.500    3.7599
   16.530    4.2127
   16.560    4.1285
   16.590    4.2654
   16.620    4.2233
   16.650    4.4023
   16.680    3.9179
   16.710    3.8125
   16.740    3.8020
   16.770    3.8441
   16.800    4.1496
   16.830    3.8020
   16.860    3.7493
   16.890    3.9389
   16.920    3.6440
   16.950    4.1811
   16.980    4.1706
   17.010    4.8025
   17.040    5.3081
   17.070    5.4766
   17.100    5.5714
   17.130    5.0026
   17.160    4.6445
   17.190    4.4655
   17.220    4.0021
   17.250    3.7704
   17.280    3.8652
   17.310    4.2022
   17.340    3.7388
   17.370    3.9073
   17.400    4.0548
   17.430    3.9810
   17.460    4.1074
   17.490    4.3707
   17.520    3.9073
   17.550    4.0337
   17.580    3.9179
   17.610    3.6967
   17.640    3.9073
   17.670    3.7599
   17.700    3.7493
   17.730    3.6651
   17.760    3.6124
   17.790    3.7704
   17.820    3.6440
   17.850    4.0653
   17.880    4.0021
   17.910    4.1706
   17.940    4.1706
   17.970    4.2549
   18.000    4.3391
   18.030    3.8441
   18.060    3.5703
   18.090    3.8547
   18.120    4.0758
   18.150    3.9494
   18.180    3.8336
   18.210    3.5703
   18.240    3.9073
   18.270    3.8441
   18.300    3.7177
   18.330    4.1496
   18.360    4.1390
   18.390    3.9810
   18.420    4.2022
   18.450    4.0021
   18.480    4.1601
   18.510    3.6546
   18.540    3.6756
   18.570    3.7599
   18.600    3.8757
   18.630    3.7177
   18.660    3.8231
   18.690    3.5176
   18.720    3.9705
   18.750    3.9389
   18.780    3.8757
   18.810    3.8020
   18.840    4.1496
   18.870    3.7809
   18.900    4.2022
   18.930    4.2759
   18.960    5.1290
   18.990    5.0869
   19.020    4.2970
   19.050    4.1601
   19.080    3.9810
   19.110    3.7493
   19.140    3.7493
   19.170    3.7915
   19.200    3.9179
   19.230    4.0337
   19.260    3.8863
   19.290    4.0126
   19.320    3.5598
   19.350    3.6019
   19.380    3.8336
   19.410    3.7388
   19.440    3.9810
   19.470    3.6230
   19.500    4.0653
   19.530    3.9284
   19.560    3.9810
   19.590    4.1074
   19.620    4.3181
   19.650    3.9179
   19.680    4.0337
   19.710    4.1917
   19.740    3.9494
   19.770    3.6335
   19.800    3.5492
   19.830    3.9494
   19.860    3.7388
   19.890    3.9284
   19.920    3.6335
   19.950    3.7493
   19.980    3.7809
   20.010    3.7809
   20.040    3.7388
   20.070    3.8547
   20.100    3.6019
   20.130    3.7915
   20.160    3.4966
   20.190    3.8547
   20.220    3.5387
   20.250    3.8441
   20.280    4.1601
   20.310    4.3286
   20.340    4.6972
   20.370    5.3291
   20.400    5.0448
   20.430    5.2027
   20.460    4.3497
   20.490    4.3075
   20.520    3.8968
   20.550    4.0232
   20.580    4.0548
   20.610    3.7072
   20.640    3.8547
   20.670    3.9389
   20.700    3.8547
   20.730    3.9600
   20.760    3.8652
   20.790    4.0232
   20.820    3.6335
   20.850    4.1601
   20.880    3.7177
   20.910    3.6335
   20.940    3.6230
   20.970    3.6756
   21.000    3.7493
   21.030    3.8757
   21.060    3.6440
   21.090    3.9600
   21.120    3.7809
   21.150    3.8547
   21.180    3.8863
   21.210    3.7177
   21.240    3.9494
   21.270    3.6124
   21.300    3.7809
   21.330    3.7809
   21.360    3.9284
   21.390    3.3597
   21.420    3.9073
   21.450    3.6124
   21.480    3.9179
   21.510    3.8757
   21.540    3.8968
   21.570    3.7072
   21.600    3.6756
   21.630    3.8020
   21.660    4.1496
   21.690    4.0442
   21.720    3.7809
   21.750    4.1811
   21.780    3.8231
   21.810    4.3075
   21.840    4.2022
   21.870    4.1811
   21.900    4.4444
   21.930    4.3497
   21.960    4.2759
   21.990    4.1390
   22.020    3.8547
   22.050    3.8757
   22.080    3.8441
   22.110    4.0864
   22.140    3.9600
   22.170    4.0969
   22.200    4.0337
   22.230    4.4339
   22.260    4.3286
   22.290    4.2127
   22.320    3.6651
   22.350    4.1601
   22.380    3.7809
   22.410    4.0337
   22.440    4.0021
   22.470    4.5182
   22.500    4.9289
   22.530    5.1501
   22.560    5.2238
   22.590    5.2870
   22.620    5.5608
   22.650    5.0448
   22.680    4.8657
   22.710    4.2233
   22.740    4.2443
   22.770    4.1601
   22.800    4.3391
   22.830    4.5708
   22.860    4.7604
   22.890    5.0026
   22.920    5.8662
   22.950    5.0974
   22.980    5.3712
   23.010    4.9078
   23.040    4.4550
   23.070    4.6024
   23.100    4.3286
   23.130    4.4971
   23.160    4.4023
   23.190    4.4655
   23.220    3.8863
   23.250    4.2865
   23.280    4.3602
   23.310    4.0864
   23.340    4.0548
   23.370    4.0337
   23.400    3.7809
   23.430    3.7283
   23.460    3.7177
   23.490    4.0653
   23.520    3.6967
   23.550    3.9916
   23.580    3.9284
   23.610    4.0442
   23.640    3.9600
   23.670    3.9705
   23.700    3.7704
   23.730    3.4755
   23.760    3.7915
   23.790    3.6546
   23.820    4.0969
   23.850    4.0442
   23.880    4.0864
   23.910    4.1917
   23.940    4.1074
   23.970    3.9916
   24.000    3.9705
   24.030    4.3075
   24.060    3.8968
   24.090    3.5703
   24.120    3.4860
   24.150    3.9389
   24.180    3.8968
   24.210    3.8757
   24.240    3.6440
   24.270    3.7493
   24.300    3.8336
   24.330    3.6967
   24.360    3.6124
   24.390    3.6967
   24.420    3.5703
   24.450    4.0232
   24.480    4.0126
   24.510    3.6335
   24.540    4.2970
   24.570    3.9494
   24.600    3.8125
   24.630    3.6862
   24.660    4.0021
   24.690    3.8020
   24.720    3.9284
   24.750    3.8020
   24.780    3.5282
   24.810    3.7915
   24.840    3.6335
   24.870    3.9284
   24.900    3.7072
   24.930    3.6862
   24.960    4.1074
   24.990    3.5176
   25.020    3.6019
   25.050    3.8336
   25.080    3.6651
   25.110    3.7493
   25.140    3.8336
   25.170    3.9916
   25.200    3.6230
   25.230    3.6546
   25.260    4.3286
   25.290    3.7388
   25.320    3.8231
   25.350    3.5808
   25.380    3.7809
   25.410    3.5071
   25.440    3.7283
   25.470    3.6651
   25.500    3.5176
   25.530    3.8863
   25.560    3.8863
   25.590    3.6651
   25.620    3.8231
   25.650    3.7704
   25.680    3.7493
   25.710    3.6440
   25.740    4.0126
   25.770    4.1496
   25.800    4.6867
   25.830    4.6130
   25.860    4.7604
   25.890    4.7288
   25.920    4.5814
   25.950    3.7704
   25.980    4.0548
   26.010    3.7809
   26.040    4.0969
   26.070    3.7915
   26.100    3.7704
   26.130    3.6546
   26.160    3.5808
   26.190    3.9073
   26.220    3.7809
   26.250    3.8020
   26.280    3.5914
   26.310    3.7283
   26.340    3.6124
   26.370    3.7493
   26.400    3.5914
   26.430    3.7493
   26.460    3.9179
   26.490    3.8020
   26.520    3.7283
   26.550    3.8441
   26.580    3.6862
   26.610    3.5808
   26.640    3.6967
   26.670    3.4650
   26.700    3.4123
   26.730    3.5387
   26.760    3.8020
   26.790    3.4123
   26.820    3.5914
   26.850    3.2965
   26.880    3.6124
   26.910    3.8757
   26.940    3.7388
   26.970    3.5282
   27.000    3.9073
   27.030    4.0337
   27.060    4.0021
   27.090    3.6124
   27.120    3.8968
   27.150    3.9389
   27.180    3.6019
   27.210    3.2859
   27.240    3.4018
   27.270    3.6967
   27.300    3.6756
   27.330    3.8020
   27.360    3.7177
   27.390    3.3913
   27.420    3.2438
   27.450    3.3702
   27.480    3.5598
   27.510    3.4966
   27.540    3.5176
   27.570    3.6756
   27.600    3.5492
   27.630    3.7704
   27.660    3.6756
   27.690    3.8863
   27.720    3.7072
   27.750    3.9389
   27.780    3.4966
   27.810    3.7704
   27.840    3.7072
   27.870    3.7493
   27.900    3.8757
   27.930    3.8968
   27.960    4.2233
   27.990    4.3707
   28.020    4.1601
   28.050    3.9916
   28.080    4.3707
   28.110    4.1285
   28.140    3.8652
   28.170    4.1180
   28.200    3.8125
   28.230    3.7809
   28.260    3.8231
   28.290    3.7388
   28.320    3.6019
   28.350    3.4650
   28.380    3.7072
   28.410    3.8547
   28.440    3.9705
   28.470    3.8968
   28.500    4.0653
   28.530    4.1811
   28.560    3.6546
   28.590    3.7915
   28.620    3.6335
   28.650    3.4018
   28.680    3.4650
   28.710    3.2859
   28.740    3.6124
   28.770    3.4123
   28.800    3.4544
   28.830    3.5282
   28.860    3.7072
   28.890    3.6124
   28.920    3.8125
   28.950    4.3181
   28.980    4.2970
   29.010    4.2233
   29.040    3.7809
   29.070    3.7599
   29.100    3.4544
   29.130    3.5176
   29.160    3.3702
   29.190    3.5071
   29.220    3.5808
   29.250    3.5282
   29.280    3.7072
   29.310    3.3807
   29.340    3.6335
   29.370    3.7915
   29.400    3.7599
   29.430    3.5282
   29.460    3.6230
   29.490    3.8863
   29.520    3.3913
   29.550    3.6440
   29.580    3.3702
   29.610    3.2965
   29.640    3.4229
   29.670    3.2227
   29.700    3.4123
   29.730    3.4860
   29.760    3.5071
   29.790    3.3070
   29.820    3.7809
   29.850    3.5282
   29.880    3.3913
   29.910    3.5071
   29.940    3.4966
   29.970    3.3070
   30.000    3.3597
   30.030    3.2543
   30.060    3.5176
   30.090    3.2227
   30.120    3.4544
   30.150    3.4650
   30.180    3.3175
   30.210    3.2649
   30.240    3.3070
   30.270    3.5176
   30.300    3.3070
   30.330    3.1912
   30.360    3.1069
   30.390    3.6546
   30.420    3.3597
   30.450    3.4650
   30.480    3.2438
   30.510    3.3281
   30.540    3.4966
   30.570    3.5071
   30.600    3.1490
   30.630    3.5914
   30.660    3.8336
   30.690    3.3597
   30.720    3.4650
   30.750    3.2859
   30.780    3.4860
   30.810    3.0858
   30.840    3.4544
   30.870    3.3070
   30.900    3.1701
   30.930    3.4018
   30.960    3.3807
   30.990    3.1280
   31.020    3.4544
   31.050    3.2543
   31.080    3.0648
   31.110    3.5598
   31.140    3.3597
   31.170    3.0858
   31.200    2.9384
   31.230    3.0226
   31.260    3.5071
   31.290    3.3386
   31.320    3.4334
   31.350    3.3281
   31.380    3.8336
   31.410    3.4229
   31.440    3.2754
   31.470    3.4229
   31.500    3.0964
   31.530    3.1596
   31.560    3.2859
   31.590    3.3702
   31.620    3.3386
   31.650    3.5492
   31.680    3.2017
   31.710    3.1912
   31.740    3.6756
   31.770    3.6862
   31.800    3.5598
   31.830    3.6019
   31.860    3.5176
   31.890    3.2859
   31.920    3.3386
   31.950    3.6019
   31.980    3.5071
   32.010    4.4444
   32.040    4.2443
   32.070    4.7288
   32.100    4.9816
   32.130    4.9184
   32.160    4.1496
   32.190    3.7809
   32.220    3.4229
   32.250    3.2649
   32.280    2.9595
   32.310    3.2227
   32.340    3.3070
   32.370    3.4018
   32.400    3.4334
   32.430    3.1385
   32.460    3.2438
   32.490    3.2122
   32.520    3.3281
   32.550    3.1912
   32.580    3.3702
   32.610    3.0542
   32.640    3.5071
   32.670    2.9910
   32.700    3.2965
   32.730    3.1596
   32.760    3.3175
   32.790    2.9068
   32.820    3.2122
   32.850    3.4860
   32.880    3.0753
   32.910    3.0648
   32.940    3.3597
   32.970    3.1912
   33.000    3.2859
   33.030    3.2438
   33.060    3.2017
   33.090    3.3175
   33.120    3.0858
   33.150    3.1596
   33.180    2.9700
   33.210    2.8331
   33.240    3.2649
   33.270    3.1174
   33.300    3.0753
   33.330    3.0332
   33.360    3.2438
   33.390    3.0226
   33.420    3.1174
   33.450    2.8331
   33.480    2.9173
   33.510    3.0753
   33.540    3.4018
   33.570    3.4544
   33.600    3.4018
   33.630    3.0016
   33.660    3.0121
   33.690    3.2122
   33.720    3.3913
   33.750    3.5598
   33.780    3.7599
   33.810    3.9916
   33.840    4.1496
   33.870    3.9073
   33.900    3.6756
   33.930    3.3807
   33.960    3.5071
   33.990    3.5071
   34.020    3.1385
   34.050    3.3070
   34.080    3.0542
   34.110    3.1490
   34.140    3.3386
   34.170    3.3281
   34.200    3.2965
   34.230    3.1069
   34.260    3.0437
   34.290    3.0542
   34.320    2.8225
   34.350    2.9384
   34.380    3.1701
   34.410    3.0648
   34.440    3.2965
   34.470    3.0753
   34.500    3.1912
   34.530    2.8225
   34.560    3.0648
   34.590    3.1912
   34.620    3.2122
   34.650    2.9279
   34.680    3.2438
   34.710    3.3807
   34.740    3.3281
   34.770    3.0226
   34.800    3.0121
   34.830    3.1280
   34.860    3.2017
   34.890    3.0437
   34.920    3.2122
   34.950    3.0437
   34.980    3.2859
   35.010    2.9489
   35.040    3.0332
   35.070    3.0437
   35.100    2.8857
   35.130    3.0858
   35.160    2.9910
   35.190    2.8752
   35.220    3.1912
   35.250    3.1174
   35.280    2.9279
   35.310    2.8857
   35.340    3.0226
   35.370    3.1174
   35.400    3.0437
   35.430    3.0542
   35.460    3.1069
   35.490    3.1596
   35.520    3.2543
   35.550    2.7278
   35.580    3.0542
   35.610    2.8541
   35.640    2.9489
   35.670    3.2965
   35.700    3.2543
   35.730    3.0542
   35.760    3.0332
   35.790    3.3070
   35.820    2.9384
   35.850    2.9384
   35.880    3.0437
   35.910    2.8436
   35.940    2.9279
   35.970    2.9595
   36.000    3.0964
   36.030    3.0542
   36.060    3.0332
   36.090    3.1490
   36.120    2.9805
   36.150    3.4229
   36.180    2.7488
   36.210    2.8963
   36.240    3.1385
   36.270    2.9384
   36.300    2.9489
   36.330    3.2333
   36.360    3.0542
   36.390    3.0226
   36.420    3.1596
   36.450    2.8436
   36.480    3.0332
   36.510    2.8752
   36.540    3.1806
   36.570    2.8541
   36.600    2.9384
   36.630    2.9173
   36.660    3.0121
   36.690    3.3702
   36.720    3.0226
   36.750    2.9489
   36.780    3.0226
   36.810    3.2859
   36.840    2.9700
   36.870    3.1490
   36.900    3.1174
   36.930    2.8436
   36.960    3.0016
   36.990    3.1596
   37.020    3.2543
   37.050    3.0753
   37.080    3.0121
   37.110    3.3807
   37.140    3.0226
   37.170    3.0858
   37.200    3.0858
   37.230    3.1596
   37.260    3.2438
   37.290    3.1806
   37.320    3.0964
   37.350    3.0226
   37.380    2.8752
   37.410    3.0964
   37.440    3.1069
   37.470    2.9595
   37.500    3.1280
   37.530    3.2122
   37.560    3.4334
   37.590    3.0121
   37.620    2.9805
   37.650    2.9173
   37.680    3.1069
   37.710    2.8647
   37.740    3.0437
   37.770    3.0332
   37.800    3.1912
   37.830    2.7699
   37.860    3.1596
   37.890    2.9910
   37.920    3.1701
   37.950    3.1280
   37.980    3.1280
   38.010    3.0858
   38.040    2.8541
   38.070    3.0121
   38.100    2.8857
   38.130    2.8963
   38.160    2.8857
   38.190    3.0121
   38.220    2.7383
   38.250    2.9805
   38.280    3.1280
   38.310    2.6540
   38.340    3.1069
   38.370    3.1806
   38.400    2.8752
   38.430    3.0016
   38.460    2.8225
   38.490    3.0858
   38.520    3.1806
   38.550    3.3175
   38.580    3.1280
   38.610    3.0542
   38.640    2.8963
   38.670    3.2754
   38.700    2.8752
   38.730    2.9910
   38.760    2.9700
   38.790    2.8647
   38.820    2.8963
   38.850    2.8647
   38.880    2.6962
   38.910    2.6330
   38.940    2.8331
   38.970    2.9910
   39.000    3.1280
   39.030    3.1596
   39.060    2.9595
   39.090    3.0437
   39.120    2.8963
   39.150    2.8647
   39.180    2.8857
   39.210    2.8857
   39.240    3.0332
   39.270    2.8541
   39.300    2.9279
   39.330    3.0226
   39.360    2.8225
   39.390    2.8331
   39.420    2.8436
   39.450    3.1174
   39.480    2.9068
   39.510    2.9595
   39.540    2.6646
   39.570    2.6540
   39.600    2.9805
   39.630    3.0542
   39.660    2.7699
   39.690    3.1280
   39.720    2.7067
   39.750    2.5803
   39.780    2.8120
   39.810    2.8120
   39.840    3.0753
   39.870    2.7172
   39.900    2.7909
   39.930    3.0753
   39.960    2.8120
   39.990    2.9805