File: data/PXRD/PXRD_KE-048_Cu-Ka1_capillary-1mm_5s-deg.xyd
    1.500   24.8341
    1.530   24.8973
    1.560   23.9073
    1.590   22.9910
    1.620   23.9073
    1.650   23.0332
    1.680   22.6119
    1.710   23.5387
    1.740   22.4539
    1.770   22.7067
    1.800   22.6540
    1.830   22.3802
    1.860   22.2644
    1.890   21.9800
    1.920   23.0332
    1.950   22.9279
    1.980   23.2859
    2.010   23.0016
    2.040   22.5803
    2.070   23.7599
    2.100   23.7177
    2.130   23.4650
    2.160   24.1601
    2.190   24.6340
    2.220   25.3923
    2.250   25.8136
    2.280   25.8557
    2.310   25.5819
    2.340   27.1827
    2.370   27.5408
    2.400   28.8468
    2.430   28.8573
    2.460   30.3318
    2.490   31.5956
    2.520   31.5850
    2.550   33.2701
    2.580   33.3333
    2.610   35.5134
    2.640   35.8294
    2.670   37.9989
    2.700   39.8736
    2.730   40.0527
    2.760   42.1696
    2.790   44.9710
    2.820   46.8562
    2.850   49.3734
    2.880   50.0685
    2.910   52.4381
    2.940   56.7773
    2.970   59.6735
    3.000   64.4655
    3.030   66.4876
    3.060   71.8378
    3.090   75.8083
    3.120   79.4313
    3.150   86.5298
    3.180   91.7114
    3.210   98.7783
    3.240  107.1301
    3.270  117.8831
    3.300  127.7936
    3.330  142.0643
    3.360  158.0938
    3.390  180.3686
    3.420  209.4260
    3.450  240.5266
    3.480  254.6498
    3.510  232.1327
    3.540  173.4913
    3.570  122.5698
    3.600   97.9568
    3.630   92.5856
    3.660   92.7330
    3.690   97.7673
    3.720  103.1490
    3.750  114.8289
    3.780  128.0148
    3.810  143.7493
    3.840  166.4771
    3.870  192.9015
    3.900  210.9110
    3.930  198.8204
    3.960  154.7235
    3.990  106.1506
    4.020   75.7767
    4.050   54.0600
    4.080   39.6946
    4.110   29.2470
    4.140   23.1069
    4.170   18.8942
    4.200   17.2407
    4.230   15.3344
    4.260   13.9863
    4.290   13.5440
    4.320   12.9121
    4.350   11.5534
    4.380   11.1532
    4.410   10.6688
    4.440    9.9947
    4.470   10.3423
    4.500   10.3423
    4.530    9.8789
    4.560   10.0579
    4.590    9.6893
    4.620    9.3102
    4.650    9.3312
    4.680    8.9415
    4.710    9.5208
    4.740    9.0047
    4.770    9.1206
    4.800    9.4050
    4.830    9.3102
    4.860    9.4997
    4.890    9.1732
    4.920    9.2470
    4.950    9.3418
    4.980    9.6156
    5.010   10.0474
    5.040   10.3739
    5.070    9.5313
    5.100   10.6898
    5.130   11.1638
    5.160   10.5213
    5.190   11.6693
    5.220   12.2170
    5.250   12.0800
    5.280   12.6804
    5.310   13.0279
    5.340   13.9652
    5.370   15.1132
    5.400   15.6398
    5.430   16.6825
    5.460   19.0943
    5.490   24.2022
    5.520   28.7941
    5.550   26.6667
    5.580   15.9136
    5.610    8.1833
    5.640    7.8146
    5.670    8.0779
    5.700    7.6461
    5.730    7.7725
    5.760    8.2780
    5.790    7.4987
    5.820    7.7093
    5.850    7.6567
    5.880    8.1833
    5.910    8.2464
    5.940    7.6672
    5.970    8.3939
    6.000    7.6988
    6.030    7.6251
    6.060    8.2570
    6.090    8.0569
    6.120    8.2149
    6.150    7.9410
    6.180    8.1517
    6.210    8.1833
    6.240    8.8362
    6.270    8.7098
    6.300    9.2048
    6.330    9.0785
    6.360    9.5419
    6.390    9.5945
    6.420   10.4581
    6.450   10.2475
    6.480   10.9426
    6.510   10.8478
    6.540   12.5750
    6.570   12.9331
    6.600   13.7862
    6.630   15.4608
    6.660   16.1137
    6.690   17.0721
    6.720   19.7156
    6.750   22.3907
    6.780   24.3813
    6.810   25.7083
    6.840   26.8246
    6.870   29.8789
    6.900   34.3549
    6.930   40.3265
    6.960   44.6972
    6.990   43.9600
    7.020   35.0922
    7.050   24.8236
    7.080   17.0616
    7.110   13.4597
    7.140   11.4060
    7.170   10.6056
    7.200   10.6477
    7.230    9.9842
    7.260    9.5419
    7.290   10.5003
    7.320   10.6793
    7.350   10.8689
    7.380   11.5219
    7.410   11.5745
    7.440   12.0274
    7.470   13.1964
    7.500   13.7335
    7.530   15.0395
    7.560   15.4818
    7.590   17.4934
    7.620   18.5887
    7.650   20.8636
    7.680   22.8752
    7.710   25.5924
    7.740   29.7314
    7.770   33.6072
    7.800   37.8094
    7.830   39.1680
    7.860   37.4302
    7.890   33.2280
    7.920   30.5951
    7.950   26.7509
    7.980   22.0537
    8.010   18.1253
    8.040   15.2607
    8.070   13.6388
    8.100   11.8694
    8.130   11.1427
    8.160    9.7209
    8.190    9.7736
    8.220    9.2048
    8.250    8.7625
    8.280    8.3096
    8.310    8.1938
    8.340    8.1411
    8.370    7.8041
    8.400    7.4882
    8.430    7.5513
    8.460    7.8146
    8.490    7.8778
    8.520    7.7093
    8.550    7.3618
    8.580    7.4250
    8.610    7.1617
    8.640    7.2354
    8.670    7.1301
    8.700    7.8146
    8.730    8.1306
    8.760    8.0990
    8.790    7.1617
    8.820    7.1090
    8.850    7.2986
    8.880    7.0248
    8.910    6.8141
    8.940    6.8878
    8.970    7.2459
    9.000    7.0879
    9.030    7.1827
    9.060    6.9089
    9.090    7.0353
    9.120    7.3618
    9.150    7.0879
    9.180    7.3512
    9.210    7.4776
    9.240    7.5303
    9.270    7.2986
    9.300    7.8884
    9.330    7.8146
    9.360    8.1411
    9.390    8.5519
    9.420    8.8994
    9.450    9.4997
    9.480   10.2686
    9.510   11.1848
    9.540   13.5545
    9.570   16.2717
    9.600   16.0927
    9.630   12.3223
    9.660    7.9410
    9.690    6.7720
    9.720    6.7404
    9.750    7.0879
    9.780    7.3618
    9.810    7.5513
    9.840    7.4144
    9.870    7.4460
    9.900    7.3512
    9.930    6.9932
    9.960    7.2880
    9.990    7.3091
   10.020    7.2249
   10.050    7.2038
   10.080    7.2143
   10.110    7.6567
   10.140    7.7514
   10.170    7.5935
   10.200    7.7725
   10.230    8.0569
   10.260    8.4150
   10.290    8.4255
   10.320   10.0263
   10.350    9.7736
   10.380    9.7420
   10.410    9.2154
   10.440    7.8884
   10.470    8.4255
   10.500    8.5729
   10.530    7.7199
   10.560    7.6145
   10.590    7.2670
   10.620    7.4882
   10.650    7.6777
   10.680    7.4144
   10.710    7.4671
   10.740    7.6988
   10.770    7.3618
   10.800    7.4987
   10.830    7.7830
   10.860    7.6567
   10.890    7.7725
   10.920    7.6777
   10.950    7.8989
   10.980    8.4044
   11.010    8.8784
   11.040    9.1417
   11.070   10.1316
   11.100    9.5945
   11.130    8.4466
   11.160    7.5513
   11.190    7.6251
   11.220    7.4460
   11.250    7.6040
   11.280    7.7409
   11.310    7.5408
   11.340    8.0042
   11.370    7.6356
   11.400    8.3096
   11.430    7.9200
   11.460    8.5624
   11.490    8.1938
   11.520    8.4676
   11.550    8.6783
   11.580    8.9310
   11.610    9.5629
   11.640    9.9737
   11.670   10.7214
   11.700   10.9110
   11.730   11.3217
   11.760   12.1959
   11.790   11.3323
   11.820    9.7736
   11.850    9.2259
   11.880    9.0153
   11.910    9.5945
   11.940    8.9415
   11.970    8.9310
   12.000    8.6572
   12.030    7.9200
   12.060    7.9410
   12.090    8.2149
   12.120    7.6461
   12.150    7.6883
   12.180    7.3723
   12.210    7.6040
   12.240    7.3934
   12.270    7.4987
   12.300    7.9094
   12.330    7.4776
   12.360    7.3407
   12.390    7.9410
   12.420    7.3512
   12.450    7.3512
   12.480    7.3302
   12.510    7.5724
   12.540    7.0879
   12.570    7.4671
   12.600    7.5829
   12.630    7.4460
   12.660    7.7936
   12.690    7.4987
   12.720    7.4776
   12.750    7.8252
   12.780    8.1095
   12.810    7.7830
   12.840    7.5935
   12.870    7.8778
   12.900    8.2464
   12.930    8.4781
   12.960    8.5413
   12.990    9.2154
   13.020    8.8889
   13.050    8.3728
   13.080    7.8778
   13.110    8.1095
   13.140    8.2464
   13.170    7.6672
   13.200    8.0885
   13.230    7.8989
   13.260    8.1622
   13.290    8.1938
   13.320    7.8252
   13.350    7.8989
   13.380    7.6461
   13.410    7.9094
   13.440    7.6251
   13.470    7.6251
   13.500    8.1517
   13.530    7.9516
   13.560    7.7514
   13.590    7.6356
   13.620    7.4566
   13.650    7.3828
   13.680    7.4250
   13.710    7.3091
   13.740    7.2038
   13.770    7.0879
   13.800    7.1827
   13.830    7.1933
   13.860    7.0037
   13.890    6.7615
   13.920    7.2565
   13.950    7.3091
   13.980    7.3934
   14.010    7.1827
   14.040    7.7093
   14.070    8.1095
   14.100    8.0253
   14.130    7.8568
   14.160    8.0779
   14.190    7.5303
   14.220    7.1195
   14.250    7.5513
   14.280    7.3828
   14.310    7.0669
   14.340    6.6877
   14.370    6.9510
   14.400    7.0353
   14.430    7.1933
   14.460    7.1195
   14.490    7.2459
   14.520    7.1406
   14.550    7.1827
   14.580    7.1933
   14.610    7.2354
   14.640    7.0142
   14.670    7.4250
   14.700    7.4671
   14.730    7.0985
   14.760    7.5619
   14.790    7.2459
   14.820    7.0879
   14.850    7.4355
   14.880    7.2670
   14.910    7.7199
   14.940    7.0142
   14.970    7.1933
   15.000    7.2459
   15.030    7.8568
   15.060    7.6251
   15.090    7.8673
   15.120    7.8989
   15.150    8.0147
   15.180    7.8357
   15.210    7.7830
   15.240    7.8146
   15.270    7.3407
   15.300    7.5935
   15.330    7.5197
   15.360    7.4039
   15.390    7.7725
   15.420    7.4144
   15.450    7.9516
   15.480    7.4460
   15.510    7.7620
   15.540    7.5935
   15.570    7.8462
   15.600    7.4882
   15.630    7.7304
   15.660    8.1517
   15.690    7.8989
   15.720    7.9200
   15.750    8.1938
   15.780    7.5303
   15.810    7.2143
   15.840    7.8041
   15.870    7.8989
   15.900    8.0674
   15.930    7.7936
   15.960    7.2670
   15.990    7.5513
   16.020    7.3196
   16.050    7.5935
   16.080    7.1722
   16.110    7.3091
   16.140    7.4566
   16.170    7.2354
   16.200    7.2986
   16.230    7.3302
   16.260    6.7825
   16.290    7.3091
   16.320    6.9721
   16.350    7.3618
   16.380    7.3512
   16.410    7.3196
   16.440    6.6561
   16.470    7.0353
   16.500    7.0669
   16.530    7.5197
   16.560    6.5508
   16.590    7.0774
   16.620    6.7509
   16.650    6.8773
   16.680    7.1195
   16.710    6.6351
   16.740    7.2354
   16.770    6.9510
   16.800    6.7404
   16.830    6.6561
   16.860    6.8457
   16.890    7.0142
   16.920    7.1827
   16.950    7.2354
   16.980    7.0879
   17.010    7.6461
   17.040    7.7830
   17.070    8.4676
   17.100    8.4360
   17.130    8.4360
   17.160    7.6777
   17.190    7.0669
   17.220    7.3828
   17.250    8.0042
   17.280    7.4987
   17.310    6.9932
   17.340    7.4355
   17.370    7.4250
   17.400    7.6461
   17.430    7.6883
   17.460    7.7409
   17.490    7.7304
   17.520    7.6461
   17.550    7.7093
   17.580    7.3934
   17.610    7.8041
   17.640    6.9826
   17.670    7.4355
   17.700    7.5303
   17.730    7.5197
   17.760    7.5197
   17.790    7.5197
   17.820    7.7199
   17.850    7.4671
   17.880    7.5092
   17.910    7.6883
   17.940    7.5303
   17.970    7.5408
   18.000    7.4039
   18.030    7.4987
   18.060    7.6988
   18.090    7.4460
   18.120    7.7199
   18.150    7.5935
   18.180    7.3407
   18.210    7.4039
   18.240    7.5619
   18.270    7.2143
   18.300    7.3723
   18.330    7.1617
   18.360    7.2143
   18.390    8.1833
   18.420    7.6461
   18.450    7.2670
   18.480    7.3723
   18.510    7.1722
   18.540    7.0879
   18.570    6.8878
   18.600    7.3091
   18.630    7.4882
   18.660    7.0353
   18.690    7.0458
   18.720    7.2880
   18.750    7.0669
   18.780    7.4250
   18.810    7.5092
   18.840    7.3723
   18.870    6.5824
   18.900    7.3723
   18.930    7.2459
   18.960    7.1195
   18.990    7.0248
   19.020    7.6145
   19.050    7.1617
   19.080    7.2249
   19.110    7.3934
   19.140    7.0037
   19.170    7.3407
   19.200    7.2880
   19.230    7.6251
   19.260    7.4144
   19.290    6.9721
   19.320    7.1195
   19.350    7.4144
   19.380    7.1722
   19.410    7.5619
   19.440    7.4882
   19.470    7.8146
   19.500    7.7725
   19.530    7.8673
   19.560    7.7093
   19.590    8.1411
   19.620    7.9094
   19.650    7.9200
   19.680    8.4781
   19.710    7.9726
   19.740    7.8673
   19.770    7.9516
   19.800    7.6883
   19.830    8.0674
   19.860    8.3939
   19.890    7.9094
   19.920    8.1201
   19.950    8.4466
   19.980    8.0463
   20.010    8.5308
   20.040    8.6361
   20.070    8.6783
   20.100    8.3939
   20.130    8.5519
   20.160    8.5729
   20.190    8.3623
   20.220    8.6361
   20.250    8.3412
   20.280    9.1943
   20.310    9.1838
   20.340    8.9942
   20.370    8.8468
   20.400    9.6472
   20.430    9.3418
   20.460    8.8889
   20.490    8.7941
   20.520    8.4150
   20.550    8.1201
   20.580    8.3518
   20.610    8.2359
   20.640    8.8257
   20.670    8.5835
   20.700    8.5729
   20.730    8.6045
   20.760    8.7836
   20.790    8.6993
   20.820    7.6777
   20.850    8.4992
   20.880    8.4360
   20.910    8.8152
   20.940    8.5519
   20.970    8.6572
   21.000    9.0153
   21.030    9.0890
   21.060    9.0574
   21.090    9.1101
   21.120    8.8257
   21.150    8.5413
   21.180    8.6256
   21.210    8.5519
   21.240    8.8257
   21.270    8.8784
   21.300    8.5729
   21.330    8.3096
   21.360    8.6572
   21.390    8.1833
   21.420    8.3412
   21.450    8.5624
   21.480    8.0885
   21.510    8.2359
   21.540    8.1306
   21.570    8.3728
   21.600    7.8568
   21.630    8.3096
   21.660    7.9621
   21.690    8.2675
   21.720    8.1517
   21.750    8.4255
   21.780    8.2570
   21.810    8.5624
   21.840    8.4571
   21.870    8.4676
   21.900    8.4150
   21.930    8.8257
   21.960    8.1411
   21.990    8.3939
   22.020    8.3307
   22.050    8.7414
   22.080    8.7625
   22.110    8.8257
   22.140    8.7098
   22.170    8.3307
   22.200    8.5097
   22.230    8.8784
   22.260    8.8468
   22.290    8.9731
   22.320    8.8573
   22.350    8.6888
   22.380    8.9100
   22.410    8.7520
   22.440    8.9731
   22.470    8.6783
   22.500    9.1311
   22.530    9.4050
   22.560    9.6682
   22.590   10.1738
   22.620   10.5319
   22.650    9.9526
   22.680    9.2575
   22.710    9.4471
   22.740    8.7836
   22.770    9.0785
   22.800    9.1943
   22.830    9.2470
   22.860    9.5208
   22.890    8.9731
   22.920    9.6261
   22.950    9.1627
   22.980    8.8257
   23.010    9.2364
   23.040    8.4360
   23.070    7.9305
   23.100    7.9621
   23.130    8.0885
   23.160    7.9410
   23.190    7.9094
   23.220    8.0569
   23.250    7.7409
   23.280    8.3307
   23.310    7.8673
   23.340    7.5092
   23.370    7.2986
   23.400    7.7093
   23.430    7.8673
   23.460    7.6988
   23.490    7.8462
   23.520    7.4882
   23.550    7.5829
   23.580    7.8884
   23.610    7.6040
   23.640    7.8989
   23.670    7.9726
   23.700    7.7199
   23.730    7.8568
   23.760    8.1306
   23.790    7.4882
   23.820    7.6883
   23.850    8.1517
   23.880    8.0253
   23.910    7.9305
   23.940    7.8252
   23.970    8.6151
   24.000    8.0463
   24.030    8.0674
   24.060    7.8252
   24.090    7.6461
   24.120    7.6777
   24.150    7.6461
   24.180    7.9200
   24.210    8.1306
   24.240    7.6988
   24.270    8.3412
   24.300    7.8989
   24.330    7.7620
   24.360    8.0147
   24.390    8.2886
   24.420    7.9621
   24.450    7.6777
   24.480    8.1833
   24.510    8.4571
   24.540    8.3096
   24.570    8.5097
   24.600    8.8889
   24.630    8.8468
   24.660    8.1306
   24.690    8.3202
   24.720    8.1622
   24.750    7.9094
   24.780    8.0147
   24.810    7.7093
   24.840    7.9516
   24.870    7.7409
   24.900    7.7409
   24.930    7.8989
   24.960    7.6461
   24.990    7.6883
   25.020    7.9726
   25.050    7.6988
   25.080    7.3407
   25.110    7.4882
   25.140    7.5513
   25.170    7.6461
   25.200    7.8041
   25.230    7.5513
   25.260    7.2986
   25.290    7.1090
   25.320    7.4144
   25.350    7.0669
   25.380    7.3618
   25.410    7.5197
   25.440    6.8352
   25.470    6.7193
   25.500    7.2249
   25.530    7.1301
   25.560    7.2670
   25.590    7.0669
   25.620    7.5408
   25.650    7.1195
   25.680    7.3934
   25.710    7.2986
   25.740    7.2880
   25.770    7.7093
   25.800    7.8252
   25.830    7.5092
   25.860    8.2149
   25.890    7.6145
   25.920    7.5513
   25.950    7.3196
   25.980    7.2354
   26.010    7.2249
   26.040    7.2986
   26.070    6.7509
   26.100    7.1195
   26.130    6.7299
   26.160    7.2880
   26.190    7.4144
   26.220    7.3512
   26.250    7.1195
   26.280    7.3618
   26.310    7.6777
   26.340    7.5197
   26.370    7.2459
   26.400    7.0353
   26.430    7.2143
   26.460    7.4566
   26.490    7.1617
   26.520    7.2565
   26.550    7.3512
   26.580    7.0353
   26.610    7.0563
   26.640    7.4776
   26.670    7.0037
   26.700    7.2880
   26.730    7.0774
   26.760    7.0458
   26.790    6.9721
   26.820    6.6667
   26.850    7.0879
   26.880    6.6561
   26.910    7.0563
   26.940    7.1301
   26.970    7.1617
   27.000    7.4460
   27.030    7.3723
   27.060    7.3091
   27.090    7.2143
   27.120    7.3302
   27.150    6.8984
   27.180    7.1933
   27.210    7.3828
   27.240    6.8984
   27.270    6.9721
   27.300    6.9405
   27.330    6.8457
   27.360    7.0353
   27.390    7.0669
   27.420    7.0879
   27.450    7.0669
   27.480    7.0248
   27.510    6.9932
   27.540    7.4566
   27.570    7.1827
   27.600    7.0353
   27.630    7.0353
   27.660    7.1722
   27.690    7.0458
   27.720    7.1511
   27.750    7.1722
   27.780    7.0879
   27.810    6.6351
   27.840    6.8457
   27.870    7.2143
   27.900    6.7404
   27.930    6.8457
   27.960    6.8984
   27.990    7.3828
   28.020    6.8562
   28.050    7.3618
   28.080    7.0353
   28.110    6.9194
   28.140    7.5408
   28.170    7.1195
   28.200    7.6461
   28.230    7.5408
   28.260    6.5719
   28.290    7.1406
   28.320    7.0353
   28.350    6.9089
   28.380    6.8036
   28.410    6.8141
   28.440    6.9616
   28.470    7.1406
   28.500    7.0879
   28.530    6.5403
   28.560    6.8878
   28.590    6.7615
   28.620    6.3612
   28.650    6.5087
   28.680    6.5613
   28.710    6.3402
   28.740    6.2770
   28.770    6.9510
   28.800    6.5719
   28.830    7.0248
   28.860    6.6983
   28.890    6.6561
   28.920    6.6772
   28.950    6.6140
   28.980    6.6772
   29.010    6.9510
   29.040    6.9932
   29.070    6.8457
   29.100    6.1190
   29.130    7.0774
   29.160    6.9616
   29.190    6.5192
   29.220    6.5824
   29.250    6.7720
   29.280    6.7404
   29.310    7.1090
   29.340    7.0669
   29.370    6.2665
   29.400    6.3612
   29.430    6.5298
   29.460    6.5087
   29.490    6.3718
   29.520    6.7615
   29.550    6.3191
   29.580    6.4350
   29.610    6.6456
   29.640    6.5929
   29.670    6.6561
   29.700    6.6035
   29.730    6.0769
   29.760    6.7299
   29.790    6.6245
   29.820    6.8036
   29.850    6.8246
   29.880    6.2243
   29.910    6.5719
   29.940    6.4455
   29.970    6.2138
   30.000    6.4560
   30.030    6.9300
   30.060    6.7509
   30.090    6.4771
   30.120    6.6456
   30.150    6.9510
   30.180    6.6772
   30.210    6.3402
   30.240    6.7930
   30.270    6.5403
   30.300    6.4034
   30.330    6.7193
   30.360    6.6561
   30.390    6.3402
   30.420    6.5298
   30.450    6.2559
   30.480    6.3612
   30.510    6.4982
   30.540    6.3191
   30.570    6.6035
   30.600    6.7930
   30.630    6.5508
   30.660    6.2981
   30.690    6.5298
   30.720    6.6983
   30.750    6.1506
   30.780    6.5613
   30.810    6.1190
   30.840    6.6877
   30.870    6.7404
   30.900    5.8347
   30.930    6.2243
   30.960    6.5929
   30.990    6.5508
   31.020    6.5087
   31.050    6.0874
   31.080    6.1822
   31.110    6.2454
   31.140    6.1927
   31.170    6.2349
   31.200    6.2138
   31.230    5.9821
   31.260    6.3718
   31.290    6.4666
   31.320    6.4771
   31.350    6.3718
   31.380    6.5929
   31.410    6.3612
   31.440    7.0142
   31.470    6.2981
   31.500    6.4771
   31.530    6.1822
   31.560    6.4350
   31.590    6.6140
   31.620    6.5929
   31.650    5.9610
   31.680    6.5087
   31.710    6.4034
   31.740    6.5087
   31.770    6.3718
   31.800    6.4666
   31.830    6.8668
   31.860    6.6667
   31.890    6.5087
   31.920    6.5403
   31.950    6.6140
   31.980    6.4771
   32.010    6.7193
   32.040    6.4244
   32.070    5.9716
   32.100    6.3296
   32.130    6.1190
   32.160    6.2349
   32.190    6.3823
   32.220    6.5403
   32.250    6.1506
   32.280    6.4982
   32.310    6.0137
   32.340    6.5508
   32.370    6.2454
   32.400    6.0348
   32.430    6.2665
   32.460    6.6245
   32.490    6.1295
   32.520    6.4139
   32.550    6.1190
   32.580    6.1401
   32.610    6.1927
   32.640    6.0874
   32.670    6.1927
   32.700    5.9821
   32.730    6.8562
   32.760    6.4139
   32.790    5.8557
   32.820    6.1506
   32.850    5.8978
   32.880    6.2875
   32.910    6.2665
   32.940    6.7193
   32.970    6.0348
   33.000    6.1927
   33.030    6.0032
   33.060    6.3402
   33.090    6.0979
   33.120    6.2243
   33.150    6.1190
   33.180    6.1822
   33.210    6.1401
   33.240    6.3612
   33.270    5.6135
   33.300    5.7083
   33.330    6.2454
   33.360    6.0874
   33.390    6.0874
   33.420    5.8768
   33.450    5.9716
   33.480    5.9084
   33.510    6.0032
   33.540    5.7715
   33.570    5.8873
   33.600    6.3296
   33.630    6.0979
   33.660    6.1927
   33.690    6.1085
   33.720    5.9189
   33.750    5.9821
   33.780    6.3191
   33.810    5.7609
   33.840    5.8031
   33.870    6.1401
   33.900    6.4560
   33.930    6.2033
   33.960    6.4560
   33.990    6.2665
   34.020    6.2454
   34.050    5.8662
   34.080    5.9084
   34.110    5.6767
   34.140    5.7925
   34.170    6.2243
   34.200    6.0032
   34.230    6.5403
   34.260    5.7083
   34.290    5.4766
   34.320    6.0137
   34.350    5.8347
   34.380    5.4660
   34.410    5.6977
   34.440    5.9926
   34.470    5.9716
   34.500    5.5714
   34.530    5.8557
   34.560    5.7504
   34.590    5.5082
   34.620    5.7188
   34.650    5.8873
   34.680    5.6872
   34.710    5.7083
   34.740    5.9610
   34.770    5.8557
   34.800    5.6661
   34.830    6.1295
   34.860    5.8031
   34.890    5.8557
   34.920    5.8873
   34.950    5.7715
   34.980    5.9926
   35.010    5.8136
   35.040    5.9400
   35.070    5.6661
   35.100    5.7399
   35.130    5.6977
   35.160    5.6661
   35.190    6.1295
   35.220    5.4450
   35.250    5.8241
   35.280    5.5292
   35.310    5.7609
   35.340    5.8347
   35.370    5.9926
   35.400    6.1717
   35.430    5.6767
   35.460    5.9821
   35.490    5.7293
   35.520    5.7504
   35.550    5.7504
   35.580    5.5082
   35.610    5.3502
   35.640    5.8978
   35.670    5.3712
   35.700    5.4555
   35.730    5.9610
   35.760    5.7083
   35.790    5.7083
   35.820    5.6661
   35.850    5.5082
   35.880    6.0242
   35.910    5.9716
   35.940    5.7609
   35.970    5.8557
   36.000    5.5924
   36.030    5.9505
   36.060    5.5714
   36.090    5.3081
   36.120    5.4450
   36.150    5.6661
   36.180    5.7504
   36.210    5.7293
   36.240    5.6345
   36.270    5.4976
   36.300    5.7609
   36.330    5.8031
   36.360    5.5503
   36.390    5.4555
   36.420    5.7293
   36.450    5.6029
   36.480    5.4871
   36.510    5.8241
   36.540    5.6661
   36.570    5.3397
   36.600    5.8662
   36.630    5.0869
   36.660    5.8557
   36.690    6.0242
   36.720    5.6767
   36.750    5.8136
   36.780    5.8557
   36.810    5.5082
   36.840    5.6451
   36.870    5.4028
   36.900    5.3607
   36.930    5.4134
   36.960    5.5398
   36.990    5.4555
   37.020    5.5187
   37.050    5.4344
   37.080    5.4766
   37.110    5.6872
   37.140    5.3818
   37.170    5.6240
   37.200    5.6977
   37.230    5.5714
   37.260    5.4871
   37.290    5.6240
   37.320    5.6135
   37.350    5.5503
   37.380    5.4660
   37.410    5.6029
   37.440    5.1606
   37.470    5.7925
   37.500    5.4344
   37.530    5.2870
   37.560    5.2870
   37.590    5.4028
   37.620    5.4450
   37.650    5.2238
   37.680    5.5187
   37.710    5.4766
   37.740    5.4344
   37.770    5.7399
   37.800    5.9926
   37.830    5.1922
   37.860    5.6240
   37.890    5.9189
   37.920    5.4766
   37.950    5.6451
   37.980    5.3081
   38.010    5.4450
   38.040    5.4134
   38.070    5.2449
   38.100    5.5503
   38.130    5.7504
   38.160    5.2870
   38.190    4.9394
   38.220    5.1606
   38.250    5.4450
   38.280    5.9189
   38.310    5.2765
   38.340    5.3607
   38.370    5.2554
   38.400    5.5924
   38.430    5.4450
   38.460    5.3923
   38.490    5.5187
   38.520    5.3081
   38.550    5.3397
   38.580    5.3081
   38.610    5.6767
   38.640    5.7504
   38.670    5.2870
   38.700    5.2870
   38.730    5.2238
   38.760    4.9394
   38.790    5.6977
   38.820    5.4028
   38.850    5.3502
   38.880    5.3291
   38.910    5.5082
   38.940    5.6345
   38.970    5.5503
   39.000    5.7504
   39.030    5.5924
   39.060    5.8031
   39.090    5.6240
   39.120    5.2975
   39.150    5.6661
   39.180    5.1080
   39.210    5.7083
   39.240    5.6556
   39.270    5.5187
   39.300    5.5187
   39.330    5.4450
   39.360    5.3712
   39.390    5.3397
   39.420    5.3607
   39.450    5.3291
   39.480    5.3186
   39.510    5.5187
   39.540    5.3291
   39.570    5.6661
   39.600    5.2870
   39.630    5.4766
   39.660    5.4871
   39.690    5.4555
   39.720    5.6977
   39.750    5.4239
   39.780    5.5924
   39.810    5.8768
   39.840    5.6345
   39.870    5.8347
   39.900    5.6240
   39.930    5.6240
   39.960    5.6029
   39.990    5.1606