File: data/PXRD/PXRD_KE-269disp_Cu-Ka1_capillary-1mm_3s-deg.xyd
    1.500    5.5292
    1.530    5.3712
    1.560    5.2484
    1.590    5.1255
    1.620    5.5292
    1.650    5.3010
    1.680    5.0904
    1.710    5.8803
    1.740    5.4590
    1.770    5.3537
    1.800    4.5287
    1.830    5.3537
    1.860    5.5994
    1.890    4.8271
    1.920    5.1080
    1.950    5.0026
    1.980    5.0202
    2.010    5.1431
    2.040    5.0553
    2.070    5.0377
    2.100    5.2659
    2.130    5.1080
    2.160    4.7920
    2.190    5.2659
    2.220    5.0377
    2.250    5.2308
    2.280    4.7042
    2.310    4.7744
    2.340    4.8973
    2.370    4.7744
    2.400    4.8622
    2.430    5.0553
    2.460    4.8622
    2.490    5.0553
    2.520    5.2484
    2.550    5.1255
    2.580    5.2659
    2.610    4.5111
    2.640    4.7218
    2.670    5.3186
    2.700    4.9851
    2.730    4.6691
    2.760    4.8271
    2.790    4.8447
    2.820    4.6691
    2.850    4.6165
    2.880    4.6691
    2.910    5.1606
    2.940    5.0728
    2.970    4.3181
    3.000    4.9149
    3.030    5.4941
    3.060    5.2659
    3.090    5.3712
    3.120    4.4585
    3.150    4.4585
    3.180    5.0553
    3.210    4.8798
    3.240    4.5111
    3.270    4.7744
    3.300    4.7042
    3.330    4.8798
    3.360    4.7920
    3.390    4.5463
    3.420    4.9851
    3.450    5.2133
    3.480    4.5814
    3.510    4.5111
    3.540    4.8973
    3.570    5.1255
    3.600    4.5463
    3.630    4.8798
    3.660    4.6340
    3.690    4.9500
    3.720    4.7393
    3.750    4.6867
    3.780    4.5989
    3.810    4.8622
    3.840    4.8095
    3.870    4.4058
    3.900    4.5111
    3.930    4.6691
    3.960    4.3532
    3.990    4.8271
    4.020    4.6516
    4.050    4.8973
    4.080    4.4409
    4.110    4.7744
    4.140    4.3707
    4.170    4.5287
    4.200    4.7744
    4.230    4.6165
    4.260    4.8798
    4.290    4.6691
    4.320    4.5111
    4.350    4.6867
    4.380    4.6516
    4.410    4.3532
    4.440    4.8798
    4.470    4.9500
    4.500    4.7569
    4.530    4.9675
    4.560    4.6867
    4.590    4.2830
    4.620    4.6691
    4.650    4.3707
    4.680    4.2303
    4.710    5.0553
    4.740    5.0026
    4.770    4.2478
    4.800    4.7569
    4.830    4.5814
    4.860    4.4409
    4.890    4.2478
    4.920    4.9324
    4.950    4.3707
    4.980    4.7744
    5.010    4.7744
    5.040    4.5638
    5.070    4.7569
    5.100    4.8798
    5.130    4.5989
    5.160    4.7042
    5.190    4.9675
    5.220    4.8271
    5.250    4.9675
    5.280    5.1080
    5.310    4.7569
    5.340    4.8973
    5.370    4.8271
    5.400    4.8095
    5.430    4.4409
    5.460    4.5638
    5.490    4.9149
    5.520    4.8095
    5.550    4.1425
    5.580    4.8271
    5.610    4.6516
    5.640    4.7569
    5.670    4.2303
    5.700    4.7218
    5.730    5.0026
    5.760    4.5989
    5.790    4.8447
    5.820    4.8271
    5.850    4.7218
    5.880    4.8973
    5.910    5.3186
    5.940    4.6691
    5.970    4.6691
    6.000    4.5638
    6.030    4.7218
    6.060    4.4234
    6.090    5.0202
    6.120    4.6340
    6.150    4.4936
    6.180    4.9149
    6.210    4.7744
    6.240    4.5287
    6.270    4.8447
    6.300    4.6516
    6.330    4.7218
    6.360    5.0026
    6.390    4.6516
    6.420    4.7393
    6.450    4.7920
    6.480    4.8973
    6.510    5.2659
    6.540    4.5814
    6.570    4.5287
    6.600    4.9675
    6.630    4.4234
    6.660    4.7393
    6.690    4.6165
    6.720    4.6691
    6.750    4.5638
    6.780    4.7569
    6.810    4.9675
    6.840    5.0553
    6.870    4.4936
    6.900    4.7218
    6.930    4.6867
    6.960    4.8973
    6.990    4.5814
    7.020    4.6516
    7.050    4.5989
    7.080    4.6165
    7.110    4.6516
    7.140    5.0728
    7.170    5.2484
    7.200    4.9675
    7.230    5.1782
    7.260    5.0553
    7.290    4.6867
    7.320    4.9675
    7.350    4.8447
    7.380    4.7569
    7.410    4.7744
    7.440    5.0904
    7.470    4.7920
    7.500    5.0202
    7.530    4.7744
    7.560    4.7744
    7.590    5.0377
    7.620    4.7393
    7.650    4.9675
    7.680    5.1255
    7.710    4.8798
    7.740    5.4064
    7.770    4.8095
    7.800    4.5638
    7.830    5.0377
    7.860    4.5638
    7.890    5.6345
    7.920    5.4941
    7.950    5.3361
    7.980    5.5117
    8.010    5.4590
    8.040    4.8095
    8.070    5.7223
    8.100    6.0207
    8.130    7.0388
    8.160    6.4420
    8.190    6.0032
    8.220    5.5117
    8.250    4.3883
    8.280    4.5638
    8.310    5.0026
    8.340    5.3010
    8.370    4.9149
    8.400    5.0728
    8.430    4.8447
    8.460    5.0553
    8.490    4.8622
    8.520    5.1606
    8.550    5.0026
    8.580    5.1782
    8.610    4.9149
    8.640    5.1782
    8.670    5.4941
    8.700    5.3186
    8.730    4.9500
    8.760    5.3010
    8.790    4.6867
    8.820    4.9149
    8.850    5.0377
    8.880    5.2835
    8.910    5.0026
    8.940    5.3010
    8.970    5.5292
    9.000    4.8622
    9.030    5.5994
    9.060    5.1431
    9.090    5.0904
    9.120    4.9675
    9.150    5.0728
    9.180    4.6516
    9.210    4.9675
    9.240    5.1431
    9.270    4.9851
    9.300    5.4064
    9.330    4.7569
    9.360    5.0728
    9.390    5.2835
    9.420    5.4239
    9.450    5.7750
    9.480    5.2133
    9.510    5.0202
    9.540    5.0904
    9.570    5.4064
    9.600    5.4590
    9.630    5.4941
    9.660    5.6170
    9.690    5.5643
    9.720    5.1782
    9.750    5.0026
    9.780    5.8276
    9.810    5.4766
    9.840    5.7223
    9.870    5.5292
    9.900    5.6872
    9.930    5.4064
    9.960    5.4590
    9.990    5.6170
   10.020    5.5468
   10.050    5.6170
   10.080    5.1957
   10.110    5.2659
   10.140    5.8452
   10.170    5.5117
   10.200    5.5468
   10.230    5.5643
   10.260    5.5292
   10.290    5.9681
   10.320    5.9681
   10.350    5.4766
   10.380    5.8452
   10.410    5.8101
   10.440    6.0909
   10.470    5.9329
   10.500    6.3191
   10.530    5.7925
   10.560    5.9154
   10.590    6.3191
   10.620    6.3191
   10.650    7.5127
   10.680    7.4425
   10.710    6.8808
   10.740    6.3191
   10.770    5.9329
   10.800    6.3718
   10.830    6.1611
   10.860    5.8101
   10.890    5.8627
   10.920    5.6872
   10.950    5.7925
   10.980    5.8803
   11.010    5.8452
   11.040    5.0026
   11.070    5.8276
   11.100    5.9681
   11.130    6.0909
   11.160    6.1436
   11.190    5.9681
   11.220    5.6872
   11.250    5.6872
   11.280    5.6872
   11.310    5.7399
   11.340    6.2138
   11.370    5.8101
   11.400    6.2665
   11.430    5.9856
   11.460    5.8101
   11.490    6.3016
   11.520    6.1436
   11.550    6.6877
   11.580    6.2489
   11.610    5.6170
   11.640    5.5468
   11.670    6.2840
   11.700    6.1611
   11.730    6.0558
   11.760    6.0032
   11.790    6.3542
   11.820    6.4069
   11.850    5.8452
   11.880    6.0909
   11.910    6.4244
   11.940    6.1260
   11.970    6.2138
   12.000    6.3893
   12.030    6.5649
   12.060    6.3718
   12.090    5.6697
   12.120    6.4946
   12.150    6.0734
   12.180    6.6175
   12.210    6.3016
   12.240    6.8633
   12.270    6.3542
   12.300    6.0558
   12.330    6.6351
   12.360    6.9861
   12.390    6.5649
   12.420    6.3367
   12.450    6.3016
   12.480    6.5298
   12.510    6.4244
   12.540    7.1968
   12.570    7.1792
   12.600    7.0563
   12.630    7.1441
   12.660    6.4069
   12.690    6.7930
   12.720    6.9159
   12.750    6.6877
   12.780    7.1617
   12.810    6.7755
   12.840    6.7404
   12.870    7.2494
   12.900    6.8984
   12.930    6.6175
   12.960    7.1968
   12.990    6.7579
   13.020    7.3723
   13.050    7.3196
   13.080    7.4601
   13.110    7.0915
   13.140    7.1090
   13.170    6.9159
   13.200    7.4250
   13.230    7.6707
   13.260    8.1973
   13.290    7.4601
   13.320    7.7058
   13.350    7.2494
   13.380    7.8638
   13.410    7.2670
   13.440    7.7234
   13.470    7.8813
   13.500    7.0388
   13.530    8.0042
   13.560    8.0393
   13.590    7.8813
   13.620    7.6180
   13.650    7.8462
   13.680    8.6712
   13.710    7.6005
   13.740    8.2500
   13.770    8.5133
   13.800    8.3728
   13.830    8.1973
   13.860    7.9164
   13.890    8.4957
   13.920    8.3904
   13.950    7.8287
   13.980    8.3728
   14.010    8.6361
   14.040    9.2329
   14.070    8.2851
   14.100    8.9170
   14.130    8.8468
   14.160    8.3728
   14.190    8.2500
   14.220    8.4255
   14.250    9.1627
   14.280    9.1452
   14.310    8.9696
   14.340    8.9872
   14.370    9.6191
   14.400    8.9170
   14.430    9.1627
   14.460    8.8994
   14.490    8.5484
   14.520    9.9175
   14.550    9.3734
   14.580    8.8292
   14.610    9.0574
   14.640    9.1978
   14.670   10.3914
   14.700    9.5138
   14.730    9.6367
   14.760   10.1983
   14.790    9.9877
   14.820    9.4260
   14.850    9.7244
   14.880    9.2856
   14.910    9.9702
   14.940   10.1808
   14.970    9.8297
   15.000   10.3388
   15.030    9.9526
   15.060   10.8303
   15.090   10.5319
   15.120   10.2510
   15.150   10.2510
   15.180    9.8824
   15.210   10.6547
   15.240   11.2515
   15.270   10.6723
   15.300   11.7255
   15.330   11.8132
   15.360   11.2340
   15.390   11.7079
   15.420   11.4446
   15.450   11.4622
   15.480   11.6026
   15.510   12.1116
   15.540   11.3569
   15.570   11.5324
   15.600   11.3920
   15.630   12.0941
   15.660   12.6909
   15.690   11.9888
   15.720   12.4100
   15.750   12.6909
   15.780   12.1819
   15.810   12.5680
   15.840   13.0771
   15.870   12.4978
   15.900   13.2877
   15.930   13.3228
   15.960   12.6382
   15.990   13.0946
   16.020   14.0074
   16.050   13.0068
   16.080   13.8318
   16.110   13.1297
   16.140   13.9372
   16.170   14.2531
   16.200   13.8494
   16.230   14.4638
   16.260   13.9547
   16.290   14.1654
   16.320   14.4813
   16.350   14.7446
   16.380   14.9728
   16.410   16.1137
   16.440   15.4467
   16.470   15.4818
   16.500   14.1654
   16.530   14.6393
   16.560   14.5164
   16.590   14.5340
   16.620   15.7627
   16.650   15.0430
   16.680   15.1659
   16.710   16.3770
   16.740   15.4818
   16.770   15.2536
   16.800   16.1489
   16.830   17.2722
   16.860   15.8504
   16.890   16.9563
   16.920   15.5696
   16.950   16.9563
   16.980   16.3244
   17.010   16.2717
   17.040   16.5175
   17.070   16.5701
   17.100   17.7286
   17.130   17.2196
   17.160   17.9393
   17.190   17.5004
   17.220   17.8866
   17.250   17.2196
   17.280   17.0616
   17.310   17.5180
   17.340   17.0441
   17.370   18.0095
   17.400   18.1675
   17.430   18.5185
   17.460   17.9393
   17.490   17.5531
   17.520   19.0100
   17.550   18.2552
   17.580   18.9047
   17.610   18.6238
   17.640   19.3962
   17.670   18.5361
   17.700   19.7648
   17.730   19.7472
   17.760   20.0105
   17.790   19.5893
   17.820   21.9414
   17.850   21.4148
   17.880   20.7478
   17.910   19.6244
   17.940   19.3611
   17.970   20.1861
   18.000   20.7653
   18.030   20.3089
   18.060   21.3797
   18.090   20.4494
   18.120   20.8355
   18.150   20.7653
   18.180   19.9930
   18.210   21.3797
   18.240   20.4494
   18.270   21.5025
   18.300   20.2212
   18.330   19.9930
   18.360   22.4855
   18.390   21.7483
   18.420   21.3621
   18.450   23.4860
   18.480   22.8717
   18.510   23.5738
   18.540   23.4158
   18.570   22.4329
   18.600   22.3275
   18.630   21.2217
   18.660   22.9595
   18.690   21.6956
   18.720   22.3275
   18.750   22.2749
   18.780   22.5206
   18.810   21.9414
   18.840   21.7132
   18.870   21.8712
   18.900   22.5908
   18.930   22.6259
   18.960   23.2403
   18.990   22.8015
   19.020   22.4855
   19.050   23.2052
   19.080   22.9770
   19.110   22.1520
   19.140   21.7658
   19.170   22.9595
   19.200   21.5025
   19.230   21.1515
   19.260   22.2749
   19.290   22.6259
   19.320   22.8717
   19.350   21.6781
   19.380   21.9063
   19.410   21.8712
   19.440   21.8536
   19.470   23.0823
   19.500   22.1696
   19.530   21.9589
   19.560   22.2924
   19.590   23.5212
   19.620   21.9940
   19.650   22.0642
   19.680   22.3451
   19.710   21.6254
   19.740   21.7307
   19.770   21.2568
   19.800   22.4153
   19.830   21.6956
   19.860   21.1515
   19.890   20.6249
   19.920   21.3446
   19.950   21.6254
   19.980   21.9238
   20.010   21.6079
   20.040   21.2041
   20.070   21.6605
   20.100   20.5020
   20.130   21.2919
   20.160   20.4669
   20.190   20.9233
   20.220   21.4148
   20.250   21.3972
   20.280   21.3972
   20.310   21.5552
   20.340   21.3446
   20.370   21.4148
   20.400   21.4499
   20.430   20.3616
   20.460   20.2563
   20.490   21.0462
   20.520   20.0456
   20.550   19.9930
   20.580   20.0807
   20.610   20.2036
   20.640   20.3265
   20.670   19.8526
   20.700   19.9228
   20.730   19.2909
   20.760   20.7829
   20.790   18.9398
   20.820   19.2909
   20.850   20.3089
   20.880   18.5887
   20.910   19.6068
   20.940   19.2733
   20.970   18.2728
   21.000   19.1329
   21.030   19.9403
   21.060   19.2909
   21.090   18.2728
   21.120   18.6063
   21.150   18.6940
   21.180   18.0621
   21.210   17.6409
   21.240   18.4308
   21.270   17.5707
   21.300   17.7988
   21.330   18.0621
   21.360   17.2898
   21.390   17.0441
   21.420   17.5355
   21.450   17.1318
   21.480   18.9925
   21.510   16.9563
   21.540   18.0797
   21.570   17.1845
   21.600   17.0090
   21.630   17.0967
   21.660   17.0090
   21.690   16.5701
   21.720   16.7281
   21.750   17.0090
   21.780   16.0786
   21.810   16.7281
   21.840   16.4824
   21.870   16.3770
   21.900   15.9031
   21.930   16.4297
   21.960   16.2366
   21.990   16.0435
   22.020   15.8504
   22.050   15.8856
   22.080   15.8153
   22.110   15.4994
   22.140   15.5520
   22.170   15.6047
   22.200   15.0255
   22.230   15.5169
   22.260   15.5696
   22.290   14.7446
   22.320   15.3239
   22.350   14.8850
   22.380   14.7095
   22.410   14.7095
   22.440   15.0430
   22.470   14.8850
   22.500   14.6042
   22.530   14.1302
   22.560   15.3765
   22.590   14.4638
   22.620   14.7622
   22.650   15.0079
   22.680   14.8324
   22.710   14.3409
   22.740   14.2882
   22.770   13.9723
   22.800   13.6037
   22.830   14.2356
   22.860   12.7962
   22.890   13.4808
   22.920   13.9196
   22.950   12.8489
   22.980   12.8840
   23.010   13.3404
   23.040   12.6909
   23.070   13.1122
   23.100   12.8313
   23.130   12.9542
   23.160   12.5154
   23.190   13.5334
   23.220   13.0420
   23.250   12.7260
   23.280   12.6382
   23.310   12.9366
   23.340   12.7084
   23.370   12.8664
   23.400   12.7084
   23.430   12.4803
   23.460   13.0068
   23.490   12.6558
   23.520   11.7430
   23.550   12.3047
   23.580   12.4978
   23.610   12.2345
   23.640   11.6728
   23.670   12.1643
   23.700   12.5329
   23.730   11.9537
   23.760   13.0244
   23.790   12.8489
   23.820   13.3579
   23.850   11.3217
   23.880   12.2170
   23.910   11.5850
   23.940   11.3920
   23.970   11.0760
   24.000   10.7600
   24.030   10.9356
   24.060   11.1813
   24.090   11.9888
   24.120   11.2164
   24.150   11.6202
   24.180   10.7952
   24.210   10.8303
   24.240   10.7074
   24.270   11.1287
   24.300   11.0409
   24.330   10.8654
   24.360   10.7952
   24.390   11.1989
   24.420   11.2164
   24.450   10.9707
   24.480   11.0058
   24.510   11.0585
   24.540   10.6547
   24.570   10.7249
   24.600   10.7600
   24.630   10.4616
   24.660   10.4090
   24.690   10.4265
   24.720    9.9351
   24.750   10.3037
   24.780   10.4792
   24.810   10.4968
   24.840   10.4968
   24.870   10.4265
   24.900   10.4792
   24.930   10.0930
   24.960    9.7420
   24.990    9.6015
   25.020   10.0930
   25.050   10.2510
   25.080    9.9351
   25.110   10.6898
   25.140   10.7776
   25.170   11.4797
   25.200   12.0765
   25.230   12.6909
   25.260   11.0233
   25.290   10.6372
   25.320    9.1803
   25.350    9.3031
   25.380    9.2680
   25.410    9.7420
   25.440    9.7069
   25.470    9.1803
   25.500   10.2335
   25.530    9.8473
   25.560    9.4085
   25.590    9.7771
   25.620    9.6367
   25.650    9.3909
   25.680    9.8122
   25.710    9.6015
   25.740    9.2505
   25.770    9.5313
   25.800    9.2329
   25.830    9.3207
   25.860    8.4781
   25.890    9.0047
   25.920    9.1101
   25.950    9.1803
   25.980    8.8994
   26.010    9.2505
   26.040    9.4962
   26.070    9.1978
   26.100    8.6712
   26.130    8.7590
   26.160    8.7765
   26.190    8.7590
   26.220    8.6888
   26.250    9.3031
   26.280    8.7590
   26.310    9.1101
   26.340    8.7941
   26.370    8.4255
   26.400    9.0047
   26.430    8.4781
   26.460    8.3377
   26.490    8.2851
   26.520    8.7063
   26.550    8.9696
   26.580    8.5308
   26.610    8.7941
   26.640    8.3026
   26.670    8.6361
   26.700    9.1978
   26.730    9.6191
   26.760   10.1106
   26.790   11.2164
   26.820   10.8654
   26.850   10.3739
   26.880   10.9356
   26.910    9.2505
   26.940    8.6010
   26.970    8.3377
   27.000    8.0393
   27.030    8.4606
   27.060    7.9340
   27.090    7.9867
   27.120    8.1095
   27.150    8.6361
   27.180    8.4255
   27.210    8.6186
   27.240    8.4430
   27.270    8.5308
   27.300    8.0393
   27.330    7.9340
   27.360    7.8638
   27.390    8.0218
   27.420    7.5829
   27.450    7.6883
   27.480    8.0218
   27.510    7.4952
   27.540    7.9867
   27.570    8.0744
   27.600    7.8462
   27.630    7.8989
   27.660    8.2675
   27.690    7.7585
   27.720    7.7936
   27.750    7.8638
   27.780    8.3202
   27.810    7.5654
   27.840    7.8462
   27.870    7.4952
   27.900    7.2670
   27.930    7.8287
   27.960    7.8111
   27.990    7.7936
   28.020    7.5654
   28.050    7.2845
   28.080    7.2143
   28.110    7.6005
   28.140    7.4952
   28.170    6.8984
   28.200    7.8111
   28.230    7.4250
   28.260    6.9510
   28.290    7.3372
   28.320    7.5303
   28.350    7.0212
   28.380    7.1968
   28.410    6.9861
   28.440    7.3196
   28.470    7.4776
   28.500    7.2494
   28.530    7.5303
   28.560    7.2319
   28.590    7.2319
   28.620    6.9686
   28.650    7.5303
   28.680    7.3372
   28.710    6.8984
   28.740    7.3196
   28.770    7.6180
   28.800    7.3899
   28.830    7.0915
   28.860    7.1266
   28.890    6.7579
   28.920    7.4250
   28.950    7.4601
   28.980    6.6000
   29.010    7.5829
   29.040    7.4776
   29.070    7.0388
   29.100    6.7755
   29.130    6.9335
   29.160    6.6175
   29.190    7.5654
   29.220    7.4601
   29.250    6.9335
   29.280    7.0212
   29.310    7.0388
   29.340    7.0739
   29.370    7.1617
   29.400    6.7755
   29.430    7.4250
   29.460    7.0739
   29.490    7.1792
   29.520    6.8633
   29.550    6.2138
   29.580    6.9510
   29.610    6.9861
   29.640    6.8984
   29.670    6.8457
   29.700    6.7755
   29.730    6.7053
   29.760    6.7579
   29.790    7.1090
   29.820    7.1090
   29.850    6.9335
   29.880    6.7579
   29.910    6.6526
   29.940    6.6877
   29.970    6.3542
   30.000    6.9335
   30.030    6.6702
   30.060    6.6877
   30.090    6.7404
   30.120    6.8457
   30.150    6.4771
   30.180    6.5649
   30.210    6.5298
   30.240    6.0207
   30.270    6.6351
   30.300    6.7404
   30.330    6.6000
   30.360    6.3718
   30.390    6.1436
   30.420    6.7404
   30.450    6.8282
   30.480    6.7228
   30.510    7.0563
   30.540    7.0739
   30.570    6.6877
   30.600    6.5473
   30.630    6.6702
   30.660    5.9681
   30.690    7.0563
   30.720    6.5649
   30.750    6.7404
   30.780    6.1611
   30.810    6.4946
   30.840    6.1260
   30.870    6.8282
   30.900    6.5824
   30.930    6.9686
   30.960    6.0909
   30.990    6.3718
   31.020    6.7755
   31.050    6.8633
   31.080    6.3367
   31.110    6.1962
   31.140    5.6697
   31.170    6.2665
   31.200    6.6877
   31.230    6.2489
   31.260    5.9856
   31.290    6.3542
   31.320    6.4771
   31.350    6.0734
   31.380    6.9159
   31.410    6.2489
   31.440    6.3893
   31.470    6.3893
   31.500    6.3367
   31.530    6.3893
   31.560    5.7925
   31.590    6.4069
   31.620    6.2665
   31.650    5.7223
   31.680    6.4069
   31.710    6.5473
   31.740    6.5473
   31.770    6.4771
   31.800    6.4595
   31.830    6.1436
   31.860    6.8457
   31.890    5.6872
   31.920    6.4069
   31.950    6.6175
   31.980    6.0909
   32.010    6.1611
   32.040    6.3893
   32.070    6.5122
   32.100    6.3542
   32.130    6.0383
   32.160    6.4069
   32.190    6.0207
   32.220    6.3718
   32.250    5.4941
   32.280    5.8978
   32.310    5.9681
   32.340    5.9856
   32.370    5.4766
   32.400    5.8276
   32.430    6.1436
   32.460    5.8803
   32.490    6.4420
   32.520    5.9681
   32.550    5.6697
   32.580    6.0207
   32.610    6.0909
   32.640    6.0032
   32.670    6.0032
   32.700    5.8101
   32.730    5.9505
   32.760    5.5292
   32.790    6.2138
   32.820    6.0558
   32.850    6.0207
   32.880    5.6521
   32.910    5.9505
   32.940    5.7574
   32.970    6.0383
   33.000    5.4239
   33.030    5.6345
   33.060    5.8101
   33.090    5.6697
   33.120    5.9856
   33.150    6.0909
   33.180    5.6345
   33.210    5.8452
   33.240    5.7399
   33.270    5.8276
   33.300    5.6697
   33.330    5.8978
   33.360    5.9681
   33.390    5.9856
   33.420    5.8452
   33.450    5.6170
   33.480    5.6170
   33.510    5.7399
   33.540    5.7399
   33.570    5.4415
   33.600    5.9329
   33.630    5.8803
   33.660    5.9329
   33.690    6.0032
   33.720    6.0207
   33.750    6.1085
   33.780    5.8101
   33.810    5.6697
   33.840    5.9505
   33.870    5.8276
   33.900    5.9329
   33.930    5.6345
   33.960    5.7223
   33.990    5.5468
   34.020    5.6521
   34.050    5.5643
   34.080    5.4239
   34.110    5.7750
   34.140    5.7223
   34.170    5.7925
   34.200    5.5292
   34.230    5.7925
   34.260    5.3888
   34.290    5.6345
   34.320    5.3361
   34.350    5.0377
   34.380    5.8803
   34.410    5.4239
   34.440    5.1606
   34.470    5.6697
   34.500    5.2484
   34.530    5.8276
   34.560    5.4415
   34.590    5.6521
   34.620    5.8803
   34.650    5.1957
   34.680    5.2484
   34.710    5.6521
   34.740    5.3712
   34.770    5.9154
   34.800    5.2835
   34.830    5.3712
   34.860    5.6170
   34.890    5.6521
   34.920    5.6697
   34.950    5.1606
   34.980    5.7048
   35.010    5.2484
   35.040    5.4766
   35.070    4.8973
   35.100    5.3186
   35.130    5.5994
   35.160    5.4415
   35.190    5.3712
   35.220    5.4239
   35.250    5.4415
   35.280    5.2484
   35.310    5.6697
   35.340    5.3537
   35.370    5.2484
   35.400    5.6697
   35.430    5.3010
   35.460    5.7048
   35.490    5.0026
   35.520    5.5994
   35.550    4.9851
   35.580    5.3712
   35.610    5.4590
   35.640    5.3361
   35.670    5.2308
   35.700    5.4941
   35.730    5.5819
   35.760    5.1080
   35.790    4.8095
   35.820    5.3888
   35.850    5.0026
   35.880    5.3010
   35.910    5.5643
   35.940    5.1957
   35.970    5.4590
   36.000    5.1606
   36.030    5.1431
   36.060    5.0904
   36.090    4.9149
   36.120    5.1431
   36.150    5.2133
   36.180    5.0904
   36.210    5.1957
   36.240    5.2308
   36.270    4.8271
   36.300    5.5819
   36.330    4.9500
   36.360    5.3010
   36.390    5.2659
   36.420    5.2484
   36.450    5.2484
   36.480    5.5117
   36.510    4.9324
   36.540    5.5643
   36.570    4.9149
   36.600    5.1957
   36.630    4.8447
   36.660    5.1431
   36.690    5.3010
   36.720    4.8447
   36.750    5.5117
   36.780    5.0202
   36.810    5.1431
   36.840    4.7218
   36.870    4.5814
   36.900    5.0377
   36.930    4.9500
   36.960    4.6867
   36.990    5.1606
   37.020    5.1782
   37.050    4.9851
   37.080    5.0904
   37.110    5.0377
   37.140    4.8798
   37.170    5.2308
   37.200    5.2133
   37.230    5.1606
   37.260    4.9851
   37.290    5.0553
   37.320    4.9675
   37.350    4.3883
   37.380    4.9851
   37.410    5.0377
   37.440    5.2659
   37.470    5.1080
   37.500    4.6516
   37.530    5.1080
   37.560    4.5638
   37.590    5.2835
   37.620    5.2835
   37.650    5.0553
   37.680    5.0728
   37.710    4.8798
   37.740    5.3537
   37.770    4.8447
   37.800    4.9324
   37.830    4.9500
   37.860    4.6340
   37.890    4.8095
   37.920    4.5989
   37.950    5.1255
   37.980    5.0377
   38.010    5.3712
   38.040    4.6340
   38.070    4.6340
   38.100    4.8447
   38.130    4.5638
   38.160    5.4415
   38.190    5.1957
   38.220    4.8447
   38.250    4.8095
   38.280    5.3537
   38.310    4.8271
   38.340    4.6340
   38.370    4.5111
   38.400    4.7920
   38.430    4.5287
   38.460    4.3181
   38.490    4.7744
   38.520    4.4936
   38.550    4.9500
   38.580    4.8447
   38.610    4.6165
   38.640    4.7042
   38.670    4.9324
   38.700    5.0202
   38.730    4.7218
   38.760    4.3883
   38.790    4.7920
   38.820    5.1606
   38.850    4.8095
   38.880    4.8973
   38.910    5.1957
   38.940    5.0026
   38.970    5.1431
   39.000    4.7569
   39.030    4.8798
   39.060    5.0026
   39.090    4.4585
   39.120    4.7393
   39.150    5.3361
   39.180    4.9675
   39.210    4.8271
   39.240    4.3532
   39.270    4.5287
   39.300    4.5814
   39.330    5.2659
   39.360    4.7218
   39.390    4.8271
   39.420    4.8798
   39.450    4.7569
   39.480    5.0377
   39.510    4.5111
   39.540    4.3883
   39.570    4.9324
   39.600    4.8622
   39.630    4.4585
   39.660    5.0728
   39.690    4.5814
   39.720    5.0553
   39.750    4.8447
   39.780    4.5638
   39.810    4.8973
   39.840    4.5287
   39.870    4.6340
   39.900    4.5287
   39.930    4.5287
   39.960    4.4234
   39.990    5.0728