File: data/PXRD/PXRD_KE-222_Co-Ka1_capillary-1mm_5s-deg.xyd
    1.500    8.6142
    1.530    8.1648
    1.560    8.1862
    1.590    8.1648
    1.620    8.3681
    1.650    7.9187
    1.680    7.9080
    1.710    7.1054
    1.740    7.6405
    1.770    7.5120
    1.800    7.0412
    1.830    7.0733
    1.860    6.6132
    1.890    6.8165
    1.920    6.5383
    1.950    6.3242
    1.980    6.3028
    2.010    6.3028
    2.040    5.7357
    2.070    6.1637
    2.100    5.9176
    2.130    6.0139
    2.160    5.2434
    2.190    5.4468
    2.220    5.3612
    2.250    5.2970
    2.280    5.4682
    2.310    5.0829
    2.340    5.0936
    2.370    5.2327
    2.400    4.3767
    2.430    5.0615
    2.460    4.6549
    2.490    4.7298
    2.520    4.6870
    2.550    4.6335
    2.580    4.2376
    2.610    4.2376
    2.640    4.4195
    2.670    4.1520
    2.700    3.8844
    2.730    4.0021
    2.760    4.0021
    2.790    3.8737
    2.820    4.1413
    2.850    3.9914
    2.880    3.5741
    2.910    3.8630
    2.940    3.7988
    2.970    3.5741
    3.000    3.8202
    3.030    3.8951
    3.060    3.7881
    3.090    3.7774
    3.120    3.5420
    3.150    3.4992
    3.180    3.8844
    3.210    3.8951
    3.240    3.6811
    3.270    3.7025
    3.300    4.0556
    3.330    3.8630
    3.360    4.1199
    3.390    4.0877
    3.420    4.2269
    3.450    4.3660
    3.480    4.1734
    3.510    4.4730
    3.540    4.6763
    3.570    4.6014
    3.600    5.0294
    3.630    5.6501
    3.660    5.4361
    3.690    5.0829
    3.720    5.4468
    3.750    6.1744
    3.780    6.1958
    3.810    6.8486
    3.840    6.7737
    3.870    7.2766
    3.900    7.7368
    3.930    8.1327
    3.960    8.7747
    3.990    9.4168
    4.020   10.2194
    4.050   10.9791
    4.080   11.3430
    4.110   12.1562
    4.140   13.4403
    4.170   15.1418
    4.200   15.4307
    4.230   17.9026
    4.260   20.4494
    4.290   22.9321
    4.320   25.7999
    4.350   28.4751
    4.380   33.0872
    4.410   39.8181
    4.440   49.1172
    4.470   64.6228
    4.500   95.9765
    4.530  121.3055
    4.560   18.6517
    4.590    3.3387
    4.620    2.0974
    4.650    2.0974
    4.680    1.9048
    4.710    1.7978
    4.740    1.6265
    4.770    1.7335
    4.800    1.7978
    4.830    1.7121
    4.860    1.3804
    4.890    1.6479
    4.920    1.3269
    4.950    1.4767
    4.980    1.4981
    5.010    1.6693
    5.040    1.4339
    5.070    1.7335
    5.100    1.4874
    5.130    1.5837
    5.160    1.4981
    5.190    1.5516
    5.220    1.4232
    5.250    1.4874
    5.280    1.5516
    5.310    1.3697
    5.340    1.5302
    5.370    1.4232
    5.400    1.6051
    5.430    1.4339
    5.460    1.5516
    5.490    1.5730
    5.520    1.6586
    5.550    1.6693
    5.580    1.6907
    5.610    1.7978
    5.640    1.6158
    5.670    1.5623
    5.700    2.0546
    5.730    2.0760
    5.760    2.1295
    5.790    2.1723
    5.820    2.0867
    5.850    2.3328
    5.880    2.7608
    5.910    2.5361
    5.940    3.1140
    5.970    3.0391
    6.000    3.3494
    6.030    3.5741
    6.060    3.9914
    6.090    4.2162
    6.120    4.7619
    6.150    5.4789
    6.180    6.4526
    6.210    6.7844
    6.240    8.6249
    6.270   10.2087
    6.300   11.7710
    6.330   14.8636
    6.360   21.0166
    6.390   34.7459
    6.420   28.6998
    6.450    4.2804
    6.480    1.6800
    6.510    1.4125
    6.540    1.2306
    6.570    1.1985
    6.600    1.1664
    6.630    1.0808
    6.660    1.2734
    6.690    1.2948
    6.720    1.1022
    6.750    1.2413
    6.780    1.2841
    6.810    1.2413
    6.840    1.0487
    6.870    0.9203
    6.900    1.1450
    6.930    1.3055
    6.960    1.0808
    6.990    1.2520
    7.020    1.1771
    7.050    1.1771
    7.080    1.3162
    7.110    1.2306
    7.140    1.1022
    7.170    1.2627
    7.200    1.2199
    7.230    1.2948
    7.260    1.1557
    7.290    1.3911
    7.320    1.3590
    7.350    1.1450
    7.380    1.4018
    7.410    1.4018
    7.440    1.4981
    7.470    1.4660
    7.500    1.4232
    7.530    1.6907
    7.560    1.7549
    7.590    1.9048
    7.620    2.2151
    7.650    2.2793
    7.680    2.4933
    7.710    2.6859
    7.740    3.4671
    7.770    4.3553
    7.800    5.4682
    7.830    8.8818
    7.860    9.1921
    7.890    2.5896
    7.920    1.1343
    7.950    1.2306
    7.980    0.9417
    8.010    1.1343
    8.040    1.2092
    8.070    1.1557
    8.100    1.2841
    8.130    1.0487
    8.160    1.0701
    8.190    1.0273
    8.220    0.9631
    8.250    0.9845
    8.280    1.0808
    8.310    1.0059
    8.340    1.0594
    8.370    1.1129
    8.400    1.1450
    8.430    1.0808
    8.460    1.1450
    8.490    1.0915
    8.520    1.1236
    8.550    1.2841
    8.580    1.1557
    8.610    1.3162
    8.640    1.1771
    8.670    1.2948
    8.700    1.4339
    8.730    1.0915
    8.760    1.3162
    8.790    1.5730
    8.820    1.7228
    8.850    2.2151
    8.880    2.0546
    8.910    2.3970
    8.940    2.6859
    8.970    3.1675
    9.000    4.3232
    9.030    5.4575
    9.060    8.2397
    9.090    5.5752
    9.120    1.5730
    9.150    1.1129
    9.180    0.8668
    9.210    1.0166
    9.240    1.1129
    9.270    1.1129
    9.300    1.0380
    9.330    1.0594
    9.360    0.9310
    9.390    0.9631
    9.420    0.9417
    9.450    1.0487
    9.480    0.9203
    9.510    0.8561
    9.540    0.9524
    9.570    1.0594
    9.600    0.8989
    9.630    0.9203
    9.660    0.9952
    9.690    1.1343
    9.720    0.9417
    9.750    0.9310
    9.780    0.8882
    9.810    0.8989
    9.840    0.8989
    9.870    0.9845
    9.900    0.9952
    9.930    0.9952
    9.960    1.0273
    9.990    1.0701
   10.020    1.1664
   10.050    1.1450
   10.080    1.3055
   10.110    1.7549
   10.140    2.0653
   10.170    1.7657
   10.200    0.9631
   10.230    0.9417
   10.260    1.0166
   10.290    0.8454
   10.320    0.8989
   10.350    0.8454
   10.380    0.8668
   10.410    0.8882
   10.440    0.9524
   10.470    0.8775
   10.500    0.8882
   10.530    1.0594
   10.560    0.8882
   10.590    1.0059
   10.620    1.0059
   10.650    0.8882
   10.680    1.0594
   10.710    1.2306
   10.740    1.3162
   10.770    1.2948
   10.800    1.4981
   10.830    1.6372
   10.860    2.0225
   10.890    2.1937
   10.920    2.3863
   10.950    2.8250
   10.980    3.4136
   11.010    4.5479
   11.040    5.9604
   11.070    8.7212
   11.100   13.7186
   11.130   12.1990
   11.160    3.7774
   11.190    1.1771
   11.220    0.9524
   11.250    1.0487
   11.280    0.9096
   11.310    0.9417
   11.340    0.9203
   11.370    0.8026
   11.400    0.7919
   11.430    0.8347
   11.460    0.9845
   11.490    0.8347
   11.520    0.8347
   11.550    0.9096
   11.580    0.7919
   11.610    0.8989
   11.640    0.9310
   11.670    1.0380
   11.700    0.9524
   11.730    1.0059
   11.760    1.1343
   11.790    1.1450
   11.820    1.3269
   11.850    1.5623
   11.880    1.7764
   11.910    2.0760
   11.940    2.6003
   11.970    3.6383
   12.000    5.1043
   12.030    3.8523
   12.060    1.7764
   12.090    1.0273
   12.120    0.6849
   12.150    0.8561
   12.180    0.8240
   12.210    0.9203
   12.240    0.8240
   12.270    0.9631
   12.300    0.7812
   12.330    0.7491
   12.360    0.7919
   12.390    0.8882
   12.420    0.8026
   12.450    0.8561
   12.480    0.9952
   12.510    1.0059
   12.540    1.1129
   12.570    0.9738
   12.600    1.1664
   12.630    1.0915
   12.660    1.2627
   12.690    1.4339
   12.720    1.5623
   12.750    1.8620
   12.780    2.8357
   12.810    4.1948
   12.840    5.2648
   12.870    4.1520
   12.900    1.3483
   12.930    0.7277
   12.960    0.7919
   12.990    0.8347
   13.020    0.7170
   13.050    0.8347
   13.080    0.9310
   13.110    0.8775
   13.140    0.8026
   13.170    0.8240
   13.200    0.9096
   13.230    0.6849
   13.260    0.8347
   13.290    0.8347
   13.320    0.9310
   13.350    1.0166
   13.380    1.0166
   13.410    1.0273
   13.440    1.3483
   13.470    1.6907
   13.500    1.8513
   13.530    2.0653
   13.560    3.0498
   13.590    4.4088
   13.620    5.6822
   13.650    4.1734
   13.680    1.7014
   13.710    0.7919
   13.740    0.7812
   13.770    0.7063
   13.800    0.8026
   13.830    0.7919
   13.860    0.8775
   13.890    0.9096
   13.920    0.8347
   13.950    0.8668
   13.980    0.8882
   14.010    0.8454
   14.040    0.7705
   14.070    0.7063
   14.100    0.5993
   14.130    0.8668
   14.160    0.8454
   14.190    0.6742
   14.220    0.7919
   14.250    0.8775
   14.280    0.9096
   14.310    0.9203
   14.340    1.1450
   14.370    1.4553
   14.400    1.1557
   14.430    0.8989
   14.460    0.8240
   14.490    0.6207
   14.520    0.7063
   14.550    0.8133
   14.580    0.7063
   14.610    0.8026
   14.640    0.7063
   14.670    0.7919
   14.700    0.7170
   14.730    0.8454
   14.760    0.7170
   14.790    0.7705
   14.820    0.8561
   14.850    0.8882
   14.880    0.8347
   14.910    1.0701
   14.940    1.1129
   14.970    1.2841
   15.000    1.6907
   15.030    2.5254
   15.060    3.2852
   15.090    2.8571
   15.120    1.7871
   15.150    0.8882
   15.180    0.8026
   15.210    0.7705
   15.240    0.7705
   15.270    0.7491
   15.300    0.5886
   15.330    0.7063
   15.360    0.7384
   15.390    0.8133
   15.420    0.7812
   15.450    0.7705
   15.480    0.6849
   15.510    0.6314
   15.540    0.7277
   15.570    0.9096
   15.600    0.7919
   15.630    0.8561
   15.660    1.1236
   15.690    1.3162
   15.720    1.8513
   15.750    1.9690
   15.780    1.4446
   15.810    0.9952
   15.840    0.8026
   15.870    0.9203
   15.900    0.6314
   15.930    0.7812
   15.960    0.7491
   15.990    0.7277
   16.020    0.7705
   16.050    0.8347
   16.080    0.7598
   16.110    0.7170
   16.140    0.9310
   16.170    0.6956
   16.200    0.8454
   16.230    0.9845
   16.260    1.1450
   16.290    1.0915
   16.320    1.7871
   16.350    2.1616
   16.380    3.1461
   16.410    2.9428
   16.440    1.8192
   16.470    0.8668
   16.500    0.6100
   16.530    0.7063
   16.560    0.6207
   16.590    0.7491
   16.620    0.5993
   16.650    0.8026
   16.680    0.8561
   16.710    0.8775
   16.740    0.7063
   16.770    0.6314
   16.800    0.5993
   16.830    0.7384
   16.860    0.7063
   16.890    0.7277
   16.920    0.7598
   16.950    0.7812
   16.980    0.7491
   17.010    0.6742
   17.040    0.8347
   17.070    0.6849
   17.100    0.5993
   17.130    0.6528
   17.160    0.7277
   17.190    0.6100
   17.220    0.6314
   17.250    0.6207
   17.280    0.6742
   17.310    0.7277
   17.340    0.7384
   17.370    0.5886
   17.400    0.8454
   17.430    0.6742
   17.460    0.7063
   17.490    0.7919
   17.520    0.7812
   17.550    0.9631
   17.580    1.0166
   17.610    1.3162
   17.640    1.4446
   17.670    1.0701
   17.700    0.6528
   17.730    0.6956
   17.760    0.7170
   17.790    0.7598
   17.820    0.6849
   17.850    0.6956
   17.880    0.7277
   17.910    0.5886
   17.940    0.6956
   17.970    0.5778
   18.000    0.8882
   18.030    0.6421
   18.060    0.8133
   18.090    0.5886
   18.120    0.7063
   18.150    0.6742
   18.180    0.6849
   18.210    0.7598
   18.240    0.6635
   18.270    0.6100
   18.300    0.6956
   18.330    0.6956
   18.360    0.6314
   18.390    0.6528
   18.420    0.7170
   18.450    0.7063
   18.480    0.6314
   18.510    0.7705
   18.540    0.7705
   18.570    0.9096
   18.600    0.7919
   18.630    0.7170
   18.660    0.8561
   18.690    0.8133
   18.720    1.1557
   18.750    1.1343
   18.780    1.1664
   18.810    0.9952
   18.840    0.7919
   18.870    0.7170
   18.900    0.6100
   18.930    0.7063
   18.960    0.6100
   18.990    0.6742
   19.020    0.6421
   19.050    0.7277
   19.080    0.7812
   19.110    0.8989
   19.140    0.8026
   19.170    0.7384
   19.200    0.7598
   19.230    0.9524
   19.260    0.9845
   19.290    1.2841
   19.320    1.3376
   19.350    1.2092
   19.380    0.8989
   19.410    0.6849
   19.440    0.6421
   19.470    0.6314
   19.500    0.9096
   19.530    0.7063
   19.560    0.7491
   19.590    0.6314
   19.620    0.8133
   19.650    0.8561
   19.680    0.8240
   19.710    0.9952
   19.740    1.1450
   19.770    1.3162
   19.800    1.6800
   19.830    2.3649
   19.860    2.5575
   19.890    2.1295
   19.920    1.4767
   19.950    0.6635
   19.980    0.8133
   20.010    0.6849
   20.040    0.7063
   20.070    0.6956
   20.100    0.7491
   20.130    0.7063
   20.160    0.8026
   20.190    0.8454
   20.220    0.7705
   20.250    0.8240
   20.280    0.8240
   20.310    0.8561
   20.340    1.1236
   20.370    1.3162
   20.400    1.0166
   20.430    1.0059
   20.460    0.6956
   20.490    0.6421
   20.520    0.6635
   20.550    0.7063
   20.580    0.6314
   20.610    0.7705
   20.640    0.7384
   20.670    0.5671
   20.700    0.5564
   20.730    0.8133
   20.760    0.8347
   20.790    0.9952
   20.820    0.9310
   20.850    1.1985
   20.880    1.0380
   20.910    0.9631
   20.940    0.9310
   20.970    0.6314
   21.000    0.5993
   21.030    0.9203
   21.060    0.6742
   21.090    0.7812
   21.120    0.6314
   21.150    0.7812
   21.180    0.8026
   21.210    0.8133
   21.240    0.7491
   21.270    0.9631
   21.300    0.7919
   21.330    0.8775
   21.360    0.9952
   21.390    1.0915
   21.420    0.9524
   21.450    0.8561
   21.480    0.7277
   21.510    0.7277
   21.540    0.6421
   21.570    0.7277
   21.600    0.8561
   21.630    0.5886
   21.660    0.6421
   21.690    0.6849
   21.720    0.7277
   21.750    0.7598
   21.780    0.6742
   21.810    0.7598
   21.840    0.9310
   21.870    0.9738
   21.900    0.8561
   21.930    0.8240
   21.960    0.7705
   21.990    0.7170
   22.020    0.5886
   22.050    0.7277
   22.080    0.8668
   22.110    0.7063
   22.140    0.7277
   22.170    0.6956
   22.200    0.6742
   22.230    0.5886
   22.260    0.7277
   22.290    0.8989
   22.320    0.7812
   22.350    0.7919
   22.380    0.7491
   22.410    0.6849
   22.440    0.7277
   22.470    0.6528
   22.500    0.7812
   22.530    0.6207
   22.560    0.7598
   22.590    0.6742
   22.620    0.5886
   22.650    0.7491
   22.680    0.6207
   22.710    0.8775
   22.740    0.7598
   22.770    0.8882
   22.800    1.1985
   22.830    1.1664
   22.860    1.0808
   22.890    0.7598
   22.920    0.5886
   22.950    0.7705
   22.980    0.6742
   23.010    0.6742
   23.040    0.6742
   23.070    0.5778
   23.100    0.7384
   23.130    0.6956
   23.160    0.5993
   23.190    0.5886
   23.220    0.6100
   23.250    0.6956
   23.280    0.8454
   23.310    0.7812
   23.340    0.7063
   23.370    0.7277
   23.400    0.6849
   23.430    0.6635
   23.460    0.6314
   23.490    0.7919
   23.520    0.8454
   23.550    0.9524
   23.580    0.7384
   23.610    0.9952
   23.640    1.1343
   23.670    1.4018
   23.700    2.0332
   23.730    1.8727
   23.760    1.6051
   23.790    1.3911
   23.820    0.6849
   23.850    0.8561
   23.880    0.6956
   23.910    0.8240
   23.940    0.5993
   23.970    0.6849
   24.000    0.6421
   24.030    0.7384
   24.060    0.8347
   24.090    0.6956
   24.120    0.7919
   24.150    0.6956
   24.180    0.7919
   24.210    0.7170
   24.240    0.6956
   24.270    0.7491
   24.300    0.8561
   24.330    0.7919
   24.360    0.8026
   24.390    0.6314
   24.420    0.7598
   24.450    0.6956
   24.480    0.8347
   24.510    0.6849
   24.540    0.7598
   24.570    0.7384
   24.600    0.9310
   24.630    0.7384
   24.660    0.7170
   24.690    0.7277
   24.720    0.7812
   24.750    0.7277
   24.780    0.7063
   24.810    0.6314
   24.840    0.7063
   24.870    0.6207
   24.900    0.7705
   24.930    0.7812
   24.960    0.6207
   24.990    0.6849
   25.020    0.6742
   25.050    0.7491
   25.080    0.5886
   25.110    0.6956
   25.140    0.7277
   25.170    0.6635
   25.200    0.5671
   25.230    0.6421
   25.260    0.8240
   25.290    0.8561
   25.320    0.8454
   25.350    0.7384
   25.380    0.8989
   25.410    0.9524
   25.440    1.3911
   25.470    1.2092
   25.500    1.0594
   25.530    0.9417
   25.560    0.8026
   25.590    0.7705
   25.620    0.7063
   25.650    0.6742
   25.680    0.7277
   25.710    0.9096
   25.740    0.8347
   25.770    0.7277
   25.800    0.8882
   25.830    1.0273
   25.860    1.1664
   25.890    1.2520
   25.920    1.1129
   25.950    0.8026
   25.980    0.7598
   26.010    0.7384
   26.040    0.8133
   26.070    0.6742
   26.100    0.7812
   26.130    0.7705
   26.160    0.8454
   26.190    1.0380
   26.220    1.4874
   26.250    2.0760
   26.280    2.0225
   26.310    1.8085
   26.340    1.7228
   26.370    0.9203
   26.400    0.7170
   26.430    0.7491
   26.460    0.6421
   26.490    0.7919
   26.520    0.9417
   26.550    0.8454
   26.580    1.0915
   26.610    1.5944
   26.640    1.9583
   26.670    2.3114
   26.700    2.0011
   26.730    1.7228
   26.760    1.3697
   26.790    0.8989
   26.820    0.7277
   26.850    0.5993
   26.880    0.7277
   26.910    0.8026
   26.940    0.7598
   26.970    0.8668
   27.000    0.9738
   27.030    1.0594
   27.060    1.2306
   27.090    1.1129
   27.120    1.1236
   27.150    0.8775
   27.180    0.8668
   27.210    0.9738
   27.240    0.6528
   27.270    0.7384
   27.300    0.7170
   27.330    0.7812
   27.360    0.7277
   27.390    0.7705
   27.420    0.7812
   27.450    0.6849
   27.480    0.9524
   27.510    0.7812
   27.540    0.8347
   27.570    0.7919
   27.600    0.6849
   27.630    0.6742
   27.660    0.6635
   27.690    0.9096
   27.720    0.7277
   27.750    0.7063
   27.780    0.8026
   27.810    1.0380
   27.840    0.9952
   27.870    0.9203
   27.900    1.0380
   27.930    0.9738
   27.960    0.6207
   27.990    0.6849
   28.020    0.8133
   28.050    0.5564
   28.080    0.7277
   28.110    0.7598
   28.140    0.6528
   28.170    0.7170
   28.200    0.7812
   28.230    0.7384
   28.260    0.8026
   28.290    0.8240
   28.320    0.7277
   28.350    0.7277
   28.380    0.7919
   28.410    0.7384
   28.440    0.5671
   28.470    0.6528
   28.500    0.7705
   28.530    0.6849
   28.560    0.6956
   28.590    0.7705
   28.620    0.7919
   28.650    0.7812
   28.680    0.7812
   28.710    0.6742
   28.740    0.7598
   28.770    0.5029
   28.800    0.5350
   28.830    0.6207
   28.860    0.6635
   28.890    0.6742
   28.920    0.7598
   28.950    0.7384
   28.980    0.6956
   29.010    0.8668
   29.040    0.9096
   29.070    0.8454
   29.100    0.6528
   29.130    0.5671
   29.160    0.6956
   29.190    0.6742
   29.220    0.6849
   29.250    0.6849
   29.280    0.6956
   29.310    0.5993
   29.340    0.8561
   29.370    0.9096
   29.400    0.8347
   29.430    0.5993
   29.460    0.6528
   29.490    0.6421
   29.520    0.5136
   29.550    0.6956
   29.580    0.6635
   29.610    0.6742
   29.640    0.6956
   29.670    0.7491
   29.700    0.6635
   29.730    0.8240
   29.760    0.7277
   29.790    0.8775
   29.820    0.5136
   29.850    0.7277
   29.880    0.6742
   29.910    0.7063
   29.940    0.7491
   29.970    0.7705
   30.000    1.0487
   30.030    1.3162
   30.060    1.4553
   30.090    1.6158
   30.120    1.7228
   30.150    1.2520
   30.180    0.9310
   30.210    0.6207
   30.240    0.7384
   30.270    0.6100
   30.300    0.6314
   30.330    0.5993
   30.360    0.6956
   30.390    0.7812
   30.420    0.6314
   30.450    0.7919
   30.480    0.5886
   30.510    0.6635
   30.540    0.7277
   30.570    0.5671
   30.600    0.6314
   30.630    0.7384
   30.660    0.6635
   30.690    0.6956
   30.720    0.7063
   30.750    0.8668
   30.780    0.8668
   30.810    1.1022
   30.840    0.9310
   30.870    0.8668
   30.900    0.5778
   30.930    0.6314
   30.960    0.5457
   30.990    0.6742
   31.020    0.5671
   31.050    0.5886
   31.080    0.5993
   31.110    0.7063
   31.140    0.6100
   31.170    0.5671
   31.200    0.5136
   31.230    0.5778
   31.260    0.5886
   31.290    0.5886
   31.320    0.7384
   31.350    0.6314
   31.380    0.6849
   31.410    0.8347
   31.440    0.8347
   31.470    0.9845
   31.500    1.0808
   31.530    1.0166
   31.560    0.9417
   31.590    0.6956
   31.620    0.5993
   31.650    0.6207
   31.680    0.5671
   31.710    0.5136
   31.740    0.6849
   31.770    0.6207
   31.800    0.4601
   31.830    0.6528
   31.860    0.5457
   31.890    0.5886
   31.920    0.6421
   31.950    0.5886
   31.980    0.5564
   32.010    0.5350
   32.040    0.6314
   32.070    0.7277
   32.100    0.6956
   32.130    0.8454
   32.160    0.8026
   32.190    0.7598
   32.220    0.6742
   32.250    0.6849
   32.280    0.5671
   32.310    0.6207
   32.340    0.6956
   32.370    0.5136
   32.400    0.6207
   32.430    0.7598
   32.460    0.7063
   32.490    0.7170
   32.520    0.8133
   32.550    0.7598
   32.580    0.7384
   32.610    0.7063
   32.640    0.6849
   32.670    0.6528
   32.700    0.6956
   32.730    0.7491
   32.760    0.7705
   32.790    1.0059
   32.820    0.9524
   32.850    0.9631
   32.880    1.0059
   32.910    0.7384
   32.940    0.8240
   32.970    0.7598
   33.000    0.6421
   33.030    0.5886
   33.060    0.7063
   33.090    0.6956
   33.120    0.9096
   33.150    0.9310
   33.180    0.9631
   33.210    0.8668
   33.240    0.6849
   33.270    0.7170
   33.300    0.6742
   33.330    0.4601
   33.360    0.6100
   33.390    0.6421
   33.420    0.5778
   33.450    0.5350
   33.480    0.4922
   33.510    0.5886
   33.540    0.5671
   33.570    0.6207
   33.600    0.6421
   33.630    0.4387
   33.660    0.5993
   33.690    0.5350
   33.720    0.6100
   33.750    0.6956
   33.780    0.8668
   33.810    0.7705
   33.840    0.5778
   33.870    0.6421
   33.900    0.6207
   33.930    0.5457
   33.960    0.4601
   33.990    0.4815
   34.020    0.5671
   34.050    0.6742
   34.080    0.8026
   34.110    0.8240
   34.140    0.9310
   34.170    0.8668
   34.200    0.8454
   34.230    0.7170
   34.260    0.6314
   34.290    0.5671
   34.320    0.4922
   34.350    0.6100
   34.380    0.4601
   34.410    0.5886
   34.440    0.4708
   34.470    0.7170
   34.500    0.5778
   34.530    0.5886
   34.560    0.5671
   34.590    0.5029
   34.620    0.6207
   34.650    0.5457
   34.680    0.5886
   34.710    0.5886
   34.740    0.6421
   34.770    0.6956
   34.800    0.6207
   34.830    0.6528
   34.860    0.5564
   34.890    0.5350
   34.920    0.6528
   34.950    0.5671
   34.980    0.5993
   35.010    0.5564
   35.040    0.5778
   35.070    0.5136
   35.100    0.5457
   35.130    0.5029
   35.160    0.5457
   35.190    0.5350
   35.220    0.5243
   35.250    0.5350
   35.280    0.5778
   35.310    0.6742
   35.340    0.5243
   35.370    0.5243
   35.400    0.5457
   35.430    0.5457
   35.460    0.5564
   35.490    0.5993
   35.520    0.5136
   35.550    0.5457
   35.580    0.5243
   35.610    0.5029
   35.640    0.5457
   35.670    0.5886
   35.700    0.6207
   35.730    0.6956
   35.760    0.5350
   35.790    0.5671
   35.820    0.6100
   35.850    0.5136
   35.880    0.5564
   35.910    0.4387
   35.940    0.5457
   35.970    0.5457
   36.000    0.5243
   36.030    0.6956
   36.060    0.4494
   36.090    0.5457
   36.120    0.5778
   36.150    0.5029
   36.180    0.4708
   36.210    0.5029
   36.240    0.5243
   36.270    0.4815
   36.300    0.5029
   36.330    0.4922
   36.360    0.4708
   36.390    0.4173
   36.420    0.5029
   36.450    0.4173
   36.480    0.3745
   36.510    0.5457
   36.540    0.4494
   36.570    0.5671
   36.600    0.5993
   36.630    0.6314
   36.660    0.6421
   36.690    0.6956
   36.720    0.5243
   36.750    0.4922
   36.780    0.5136
   36.810    0.4601
   36.840    0.4066
   36.870    0.4922
   36.900    0.5029
   36.930    0.5671
   36.960    0.5457
   36.990    0.3959
   37.020    0.5029
   37.050    0.5457
   37.080    0.5778
   37.110    0.5564
   37.140    0.6100
   37.170    0.7063
   37.200    0.6528
   37.230    0.7063
   37.260    0.5457
   37.290    0.5457
   37.320    0.4922
   37.350    0.5564
   37.380    0.6314
   37.410    0.5993
   37.440    0.6100
   37.470    0.4922
   37.500    0.6635
   37.530    0.7170
   37.560    0.5671
   37.590    0.5886
   37.620    0.4815
   37.650    0.4494
   37.680    0.3959
   37.710    0.5457
   37.740    0.5564
   37.770    0.3852
   37.800    0.4280
   37.830    0.5029
   37.860    0.4494
   37.890    0.3959
   37.920    0.4922
   37.950    0.3745
   37.980    0.4708
   38.010    0.5243
   38.040    0.4066
   38.070    0.5564
   38.100    0.4494
   38.130    0.3638
   38.160    0.4601
   38.190    0.5029
   38.220    0.3424
   38.250    0.5243
   38.280    0.4173
   38.310    0.5350
   38.340    0.5136
   38.370    0.6635
   38.400    0.5457
   38.430    0.6421
   38.460    0.6849
   38.490    0.4922
   38.520    0.5243
   38.550    0.3638
   38.580    0.3638
   38.610    0.4494
   38.640    0.5564
   38.670    0.5029
   38.700    0.3210
   38.730    0.4494
   38.760    0.4494
   38.790    0.3852
   38.820    0.3852
   38.850    0.3745
   38.880    0.4922
   38.910    0.2996
   38.940    0.2675
   38.970    0.4280
   39.000    0.4066
   39.030    0.4173
   39.060    0.3531
   39.090    0.2996
   39.120    0.4815
   39.150    0.3852
   39.180    0.5029
   39.210    0.5136
   39.240    0.4708
   39.270    0.5029
   39.300    0.6314
   39.330    0.4066
   39.360    0.4066
   39.390    0.5243
   39.420    0.4280
   39.450    0.4815
   39.480    0.5671
   39.510    0.5564
   39.540    0.6314
   39.570    0.6314
   39.600    0.5457
   39.630    0.4387
   39.660    0.5136
   39.690    0.4387
   39.720    0.4601
   39.750    0.5993
   39.780    0.5136
   39.810    0.4173
   39.840    0.4280
   39.870    0.5778
   39.900    0.4387
   39.930    0.3424
   39.960    0.3317
   39.990    0.3745