File: data/PXRD/PXRD_KE-291_Cu-Ka1_film-3mm_3s-deg.xyd
    1.500   16.0962
    1.530   16.0611
    1.560   15.2887
    1.590   15.1483
    1.620   15.0079
    1.650   15.0957
    1.680   14.1127
    1.710   13.6037
    1.740   13.2350
    1.770   12.9191
    1.800   13.4281
    1.830   13.3228
    1.860   12.7787
    1.890   12.3047
    1.920   12.3749
    1.950   12.0941
    1.980   12.1467
    2.010   11.5850
    2.040   11.4622
    2.070   11.3744
    2.100   11.1813
    2.130   11.0585
    2.160   11.2866
    2.190   10.9356
    2.220   10.9356
    2.250   10.8303
    2.280   10.0579
    2.310   10.4441
    2.340   10.4616
    2.370   10.1281
    2.400   10.0228
    2.430   10.0579
    2.460   10.1457
    2.490   10.4090
    2.520    9.5313
    2.550   10.0228
    2.580    9.4436
    2.610    9.7244
    2.640    9.4962
    2.670    9.9175
    2.700    9.6718
    2.730    9.9351
    2.760    9.9702
    2.790   10.2510
    2.820    9.8473
    2.850   10.1808
    2.880   10.1281
    2.910   10.2335
    2.940   10.3914
    2.970   10.0930
    3.000   11.0409
    3.030   10.2686
    3.060   11.1287
    3.090   10.4792
    3.120   11.8659
    3.150   13.0946
    3.180   13.1999
    3.210   13.4457
    3.240   14.4111
    3.270   15.2361
    3.300   16.9738
    3.330   19.3435
    3.360   20.9935
    3.390   24.3637
    3.420   26.6983
    3.450   27.1195
    3.480   24.4164
    3.510   21.0462
    3.540   19.2909
    3.570   19.4664
    3.600   20.1685
    3.630   22.2749
    3.660   24.5568
    3.690   28.6993
    3.720   32.4557
    3.750   38.1253
    3.780   46.7790
    3.810   61.7167
    3.840   88.3096
    3.870   82.0256
    3.900   51.5359
    3.930   21.4499
    3.960   14.8850
    3.990   14.8148
    4.020   14.8148
    4.050   14.5340
    4.080   13.6739
    4.110   12.7962
    4.140   11.9186
    4.170   11.5850
    4.200   11.1462
    4.230    9.8122
    4.260    9.9351
    4.290    9.1276
    4.320    9.3558
    4.350    9.0223
    4.380    9.1452
    4.410    8.7941
    4.440    8.4957
    4.470    8.3377
    4.500    8.1622
    4.530    8.2149
    4.560    8.6010
    4.590    7.9691
    4.620    8.2324
    4.650    8.7765
    4.680    9.0574
    4.710    8.7063
    4.740    8.3553
    4.770    8.3728
    4.800    8.3026
    4.830    8.1797
    4.860    8.4957
    4.890    8.5659
    4.920    8.6010
    4.950    8.8643
    4.980    8.4606
    5.010    9.6015
    5.040    8.8819
    5.070    9.0047
    5.100    9.6191
    5.130   10.4441
    5.160   10.6021
    5.190   10.6196
    5.220   11.2340
    5.250   11.2866
    5.280   12.8313
    5.310   13.6914
    5.340   14.8499
    5.370   16.7106
    5.400   19.2909
    5.430   24.7499
    5.460   32.4557
    5.490   30.5775
    5.520   22.9068
    5.550   13.3930
    5.580   11.1111
    5.610   10.0404
    5.640   10.2686
    5.670   10.3563
    5.700    9.7069
    5.730    9.6718
    5.760    9.1101
    5.790    9.2505
    5.820    8.9696
    5.850    8.6888
    5.880    8.3202
    5.910    8.5835
    5.940    8.8468
    5.970    7.9691
    6.000    8.1973
    6.030    7.9691
    6.060    8.3728
    6.090    7.6356
    6.120    8.0569
    6.150    8.1797
    6.180    7.4776
    6.210    8.2324
    6.240    7.8813
    6.270    7.6883
    6.300    7.6005
    6.330    7.7409
    6.360    7.6180
    6.390    7.3899
    6.420    7.7585
    6.450    7.9691
    6.480    7.5654
    6.510    8.0042
    6.540    7.8111
    6.570    8.5659
    6.600    8.4255
    6.630    9.0750
    6.660    9.7771
    6.690   12.2170
    6.720   13.4457
    6.750   11.9186
    6.780    8.8117
    6.810    7.4425
    6.840    7.5303
    6.870    7.7936
    6.900    7.8462
    6.930    8.5659
    6.960    7.6356
    6.990    7.8638
    7.020    7.2670
    7.050    6.7404
    7.080    6.9159
    7.110    6.5473
    7.140    6.5824
    7.170    6.3016
    7.200    6.0383
    7.230    6.4595
    7.260    6.2313
    7.290    6.3016
    7.320    6.4946
    7.350    5.8803
    7.380    6.1611
    7.410    6.1085
    7.440    6.2665
    7.470    6.1085
    7.500    6.2138
    7.530    6.1962
    7.560    6.2313
    7.590    6.2489
    7.620    6.2138
    7.650    6.5298
    7.680    7.1792
    7.710    8.3026
    7.740    9.8297
    7.770   11.4622
    7.800    9.4787
    7.830    7.4952
    7.860    5.5117
    7.890    6.2313
    7.920    5.8978
    7.950    5.6872
    7.980    5.8627
    8.010    5.7399
    8.040    6.5298
    8.070    5.7574
    8.100    6.1611
    8.130    5.6697
    8.160    5.7048
    8.190    5.8803
    8.220    5.1957
    8.250    5.3186
    8.280    5.5994
    8.310    5.3537
    8.340    5.1606
    8.370    5.3361
    8.400    5.3712
    8.430    5.1606
    8.460    5.7223
    8.490    5.7399
    8.520    5.3010
    8.550    5.4064
    8.580    5.3186
    8.610    5.2484
    8.640    5.6521
    8.670    5.7223
    8.700    6.0383
    8.730    5.6521
    8.760    5.0202
    8.790    5.0553
    8.820    5.4064
    8.850    4.9324
    8.880    5.1255
    8.910    5.2835
    8.940    5.1957
    8.970    5.1080
    9.000    4.7218
    9.030    4.7218
    9.060    4.9500
    9.090    5.4064
    9.120    5.3361
    9.150    5.0904
    9.180    4.7393
    9.210    5.3010
    9.240    5.1080
    9.270    5.1255
    9.300    4.8095
    9.330    5.1431
    9.360    5.9154
    9.390    5.8276
    9.420    6.9335
    9.450    7.4425
    9.480    8.7063
    9.510   12.8489
    9.540   15.0079
    9.570   11.3393
    9.600    6.9335
    9.630    5.1606
    9.660    5.1255
    9.690    4.5814
    9.720    4.7920
    9.750    4.5814
    9.780    5.0904
    9.810    4.9324
    9.840    4.3707
    9.870    4.8798
    9.900    4.9851
    9.930    4.7569
    9.960    5.1431
    9.990    4.8973
   10.020    4.7218
   10.050    5.0026
   10.080    5.1957
   10.110    4.9149
   10.140    5.6697
   10.170    5.5292
   10.200    5.3712
   10.230    5.7399
   10.260    6.7228
   10.290    7.8287
   10.320    8.6537
   10.350    7.0037
   10.380    6.0032
   10.410    5.3888
   10.440    5.4239
   10.470    4.8973
   10.500    5.5468
   10.530    5.3361
   10.560    5.0026
   10.590    4.9500
   10.620    4.8798
   10.650    5.2308
   10.680    5.4064
   10.710    4.7218
   10.740    4.8973
   10.770    5.2484
   10.800    5.4239
   10.830    5.0202
   10.860    5.7399
   10.890    4.9500
   10.920    5.7925
   10.950    6.0032
   10.980    7.6005
   11.010    8.2500
   11.040    8.4079
   11.070    6.7053
   11.100    5.5468
   11.130    4.8447
   11.160    5.2835
   11.190    5.4239
   11.220    4.9675
   11.250    5.2133
   11.280    5.3361
   11.310    5.2308
   11.340    5.0904
   11.370    4.8447
   11.400    5.0904
   11.430    5.0728
   11.460    5.2308
   11.490    4.7393
   11.520    5.6872
   11.550    5.3888
   11.580    5.6872
   11.610    5.8803
   11.640    6.4420
   11.670    8.4430
   11.700    8.4255
   11.730    7.8462
   11.760    6.5473
   11.790    5.7223
   11.820    5.1782
   11.850    4.5287
   11.880    4.9500
   11.910    5.4415
   11.940    5.1957
   11.970    5.4239
   12.000    5.2484
   12.030    5.0553
   12.060    4.7920
   12.090    4.9851
   12.120    4.6691
   12.150    5.1957
   12.180    5.1431
   12.210    5.0026
   12.240    5.0202
   12.270    4.8271
   12.300    5.1255
   12.330    5.3712
   12.360    5.4766
   12.390    5.2308
   12.420    4.8622
   12.450    4.9324
   12.480    4.6516
   12.510    4.9851
   12.540    4.6340
   12.570    4.9675
   12.600    5.1957
   12.630    5.1080
   12.660    5.0202
   12.690    4.7744
   12.720    4.9500
   12.750    4.9324
   12.780    4.9500
   12.810    4.6340
   12.840    5.0202
   12.870    5.1606
   12.900    5.7048
   12.930    6.9861
   12.960    6.6175
   12.990    6.0383
   13.020    4.9675
   13.050    4.5814
   13.080    4.7042
   13.110    4.4234
   13.140    4.7569
   13.170    4.9851
   13.200    4.6516
   13.230    4.9149
   13.260    4.5989
   13.290    4.6516
   13.320    5.0377
   13.350    4.7744
   13.380    5.0026
   13.410    4.6516
   13.440    5.2308
   13.470    4.8622
   13.500    5.5994
   13.530    5.8101
   13.560    5.4415
   13.590    4.9149
   13.620    4.7569
   13.650    4.8973
   13.680    5.4415
   13.710    4.5111
   13.740    4.6867
   13.770    4.4936
   13.800    4.2830
   13.830    5.1957
   13.860    4.9675
   13.890    4.8271
   13.920    4.9149
   13.950    4.7042
   13.980    5.5292
   14.010    5.4941
   14.040    6.1611
   14.070    7.3899
   14.100    6.7404
   14.130    6.1611
   14.160    5.4590
   14.190    5.6521
   14.220    5.5292
   14.250    5.0904
   14.280    5.4064
   14.310    5.3186
   14.340    5.2659
   14.370    5.4590
   14.400    5.0728
   14.430    5.3010
   14.460    5.3010
   14.490    5.1782
   14.520    5.2659
   14.550    5.3010
   14.580    4.7393
   14.610    5.6345
   14.640    4.9675
   14.670    5.4415
   14.700    5.0553
   14.730    5.0202
   14.760    5.0904
   14.790    5.4239
   14.820    5.0377
   14.850    4.3883
   14.880    4.7744
   14.910    4.8798
   14.940    5.0377
   14.970    4.9149
   15.000    4.7569
   15.030    5.0026
   15.060    5.1255
   15.090    5.4239
   15.120    5.7574
   15.150    5.4766
   15.180    5.0377
   15.210    4.6867
   15.240    4.7042
   15.270    4.7569
   15.300    4.8095
   15.330    4.9324
   15.360    4.5989
   15.390    4.9675
   15.420    4.9675
   15.450    4.4058
   15.480    4.5463
   15.510    4.7042
   15.540    5.0026
   15.570    4.4409
   15.600    4.9324
   15.630    4.7920
   15.660    4.9324
   15.690    4.4585
   15.720    4.8447
   15.750    4.9149
   15.780    4.4409
   15.810    4.9851
   15.840    4.4585
   15.870    4.6691
   15.900    4.9500
   15.930    4.9500
   15.960    4.4936
   15.990    4.8973
   16.020    4.6867
   16.050    4.7393
   16.080    5.2133
   16.110    5.3888
   16.140    4.8973
   16.170    4.8271
   16.200    4.6340
   16.230    4.6867
   16.260    4.6691
   16.290    4.5111
   16.320    4.9851
   16.350    4.4234
   16.380    4.6691
   16.410    4.8798
   16.440    4.4234
   16.470    4.8271
   16.500    4.8447
   16.530    4.7920
   16.560    4.9500
   16.590    5.5468
   16.620    5.4415
   16.650    4.7218
   16.680    4.7920
   16.710    4.2303
   16.740    4.9851
   16.770    4.7569
   16.800    4.7744
   16.830    4.5814
   16.860    4.8271
   16.890    5.0904
   16.920    4.9851
   16.950    4.6516
   16.980    5.1255
   17.010    5.5117
   17.040    5.9856
   17.070    6.3718
   17.100    5.5292
   17.130    5.0202
   17.160    4.9149
   17.190    4.7569
   17.220    4.3532
   17.250    4.4409
   17.280    4.4234
   17.310    4.7393
   17.340    4.8095
   17.370    4.4760
   17.400    4.9500
   17.430    4.5638
   17.460    4.7393
   17.490    5.2308
   17.520    4.7042
   17.550    5.1782
   17.580    4.1250
   17.610    4.4234
   17.640    4.3707
   17.670    4.4058
   17.700    4.6691
   17.730    4.4585
   17.760    4.9324
   17.790    4.7218
   17.820    4.6516
   17.850    4.4234
   17.880    4.6165
   17.910    4.4585
   17.940    5.3361
   17.970    4.6516
   18.000    4.7744
   18.030    4.8271
   18.060    4.5989
   18.090    4.5287
   18.120    4.4234
   18.150    4.2303
   18.180    4.7393
   18.210    4.7218
   18.240    4.5287
   18.270    4.2127
   18.300    4.5111
   18.330    5.0904
   18.360    4.6867
   18.390    5.0026
   18.420    4.9324
   18.450    4.5814
   18.480    4.4585
   18.510    4.9324
   18.540    4.4058
   18.570    4.4234
   18.600    4.5111
   18.630    4.4585
   18.660    4.7744
   18.690    4.3532
   18.720    4.4760
   18.750    4.8095
   18.780    4.5287
   18.810    4.8798
   18.840    4.7920
   18.870    4.5287
   18.900    4.5287
   18.930    5.0377
   18.960    4.8973
   18.990    4.5287
   19.020    5.0202
   19.050    4.8973
   19.080    4.7218
   19.110    4.5989
   19.140    4.4936
   19.170    4.4409
   19.200    4.4409
   19.230    4.4234
   19.260    4.3532
   19.290    4.7569
   19.320    4.3532
   19.350    4.5814
   19.380    4.3181
   19.410    4.1601
   19.440    4.5111
   19.470    4.7218
   19.500    4.5287
   19.530    4.6867
   19.560    4.7218
   19.590    5.1080
   19.620    4.6165
   19.650    4.5111
   19.680    4.7744
   19.710    4.4585
   19.740    4.1601
   19.770    4.5111
   19.800    4.1425
   19.830    4.7920
   19.860    4.4585
   19.890    4.3532
   19.920    4.6165
   19.950    4.7393
   19.980    4.3532
   20.010    4.6691
   20.040    4.5111
   20.070    4.6516
   20.100    4.4585
   20.130    4.8973
   20.160    4.0372
   20.190    4.0197
   20.220    4.6691
   20.250    4.7218
   20.280    4.5463
   20.310    4.7920
   20.340    5.0026
   20.370    5.7925
   20.400    5.7223
   20.430    4.6691
   20.460    4.7042
   20.490    4.2127
   20.520    4.0197
   20.550    4.3356
   20.580    4.0372
   20.610    4.1952
   20.640    4.0372
   20.670    4.5638
   20.700    4.1601
   20.730    4.3005
   20.760    4.5111
   20.790    4.4409
   20.820    4.1776
   20.850    3.8617
   20.880    4.1601
   20.910    4.0372
   20.940    3.8968
   20.970    3.9670
   21.000    4.1425
   21.030    4.3707
   21.060    4.3181
   21.090    4.1776
   21.120    4.3356
   21.150    4.0197
   21.180    4.3356
   21.210    4.1250
   21.240    4.1074
   21.270    4.0548
   21.300    4.1952
   21.330    4.0723
   21.360    3.7213
   21.390    3.7213
   21.420    4.0197
   21.450    4.0899
   21.480    4.1952
   21.510    4.1952
   21.540    4.4936
   21.570    3.7213
   21.600    3.8968
   21.630    4.2303
   21.660    4.4234
   21.690    3.8792
   21.720    3.8441
   21.750    4.3532
   21.780    4.1952
   21.810    4.1952
   21.840    4.7569
   21.870    4.4409
   21.900    3.8792
   21.930    4.0021
   21.960    4.4760
   21.990    4.0899
   22.020    4.5111
   22.050    3.7388
   22.080    4.1952
   22.110    3.8266
   22.140    4.0899
   22.170    4.3707
   22.200    4.5287
   22.230    4.5463
   22.260    4.2127
   22.290    3.9319
   22.320    3.7739
   22.350    3.7037
   22.380    3.7739
   22.410    3.7564
   22.440    4.0372
   22.470    4.1074
   22.500    4.4585
   22.530    4.8973
   22.560    4.9149
   22.590    5.1957
   22.620    5.0728
   22.650    3.7564
   22.680    3.7739
   22.710    4.0899
   22.740    3.9670
   22.770    3.4580
   22.800    4.0548
   22.830    4.3181
   22.860    4.4936
   22.890    5.0202
   22.920    5.5994
   22.950    5.0377
   22.980    4.2478
   23.010    4.3181
   23.040    3.8441
   23.070    4.2830
   23.100    3.9494
   23.130    3.7213
   23.160    3.8792
   23.190    4.2303
   23.220    4.1776
   23.250    4.2303
   23.280    4.5814
   23.310    4.0723
   23.340    3.9494
   23.370    3.8090
   23.400    4.0899
   23.430    3.5808
   23.460    3.8968
   23.490    3.8617
   23.520    3.8441
   23.550    3.7213
   23.580    3.6335
   23.610    3.6159
   23.640    3.6159
   23.670    3.8266
   23.700    3.3175
   23.730    3.2122
   23.760    3.2122
   23.790    3.5282
   23.820    3.9670
   23.850    3.7739
   23.880    3.6159
   23.910    3.9670
   23.940    4.0372
   23.970    4.2303
   24.000    3.7213
   24.030    3.2649
   24.060    3.7037
   24.090    3.5808
   24.120    3.5282
   24.150    3.4404
   24.180    3.5457
   24.210    3.5808
   24.240    3.7915
   24.270    3.7213
   24.300    3.2824
   24.330    3.6510
   24.360    3.5106
   24.390    3.5808
   24.420    3.6686
   24.450    3.4580
   24.480    3.7739
   24.510    3.9670
   24.540    3.5633
   24.570    3.7388
   24.600    3.5106
   24.630    3.6335
   24.660    3.7037
   24.690    3.3351
   24.720    3.5633
   24.750    3.2649
   24.780    3.3000
   24.810    3.1245
   24.840    3.5457
   24.870    3.6510
   24.900    4.0197
   24.930    3.6159
   24.960    3.9319
   24.990    3.5808
   25.020    3.3702
   25.050    3.4580
   25.080    3.7213
   25.110    3.2649
   25.140    3.6335
   25.170    3.4931
   25.200    3.9319
   25.230    3.9494
   25.260    3.9670
   25.290    3.5808
   25.320    3.4931
   25.350    3.5633
   25.380    3.6335
   25.410    3.3000
   25.440    3.1947
   25.470    3.4755
   25.500    3.4229
   25.530    3.5984
   25.560    3.4755
   25.590    3.2649
   25.620    3.4404
   25.650    3.4053
   25.680    3.3702
   25.710    3.5633
   25.740    3.4229
   25.770    3.8792
   25.800    4.3356
   25.830    4.6691
   25.860    4.4409
   25.890    4.3707
   25.920    3.8617
   25.950    3.2298
   25.980    3.5106
   26.010    3.4755
   26.040    3.3175
   26.070    3.4580
   26.100    3.4053
   26.130    3.5808
   26.160    3.6159
   26.190    3.1245
   26.220    3.3702
   26.250    3.5106
   26.280    3.6510
   26.310    3.4931
   26.340    3.3175
   26.370    3.5457
   26.400    3.7564
   26.430    4.1952
   26.460    3.6686
   26.490    3.4229
   26.520    3.4931
   26.550    3.8090
   26.580    3.2298
   26.610    3.2649
   26.640    3.1596
   26.670    3.2649
   26.700    3.3175
   26.730    3.1947
   26.760    3.4053
   26.790    3.4053
   26.820    3.2649
   26.850    3.1771
   26.880    3.3175
   26.910    3.2649
   26.940    3.3175
   26.970    3.5282
   27.000    3.4580
   27.030    3.7915
   27.060    3.8266
   27.090    3.2473
   27.120    3.0893
   27.150    3.1771
   27.180    3.3702
   27.210    3.2824
   27.240    3.2824
   27.270    3.2824
   27.300    3.4053
   27.330    2.8787
   27.360    2.8787
   27.390    3.1947
   27.420    3.0893
   27.450    3.1771
   27.480    3.2649
   27.510    3.1245
   27.540    3.3175
   27.570    3.0191
   27.600    3.6862
   27.630    3.2649
   27.660    2.8260
   27.690    3.3702
   27.720    3.0542
   27.750    3.1771
   27.780    3.1420
   27.810    2.9665
   27.840    3.3351
   27.870    3.6335
   27.900    3.4053
   27.930    3.1596
   27.960    3.2298
   27.990    3.1596
   28.020    3.4580
   28.050    3.1596
   28.080    2.7207
   28.110    3.2298
   28.140    3.4229
   28.170    3.6510
   28.200    3.7213
   28.230    3.2298
   28.260    3.2473
   28.290    3.2824
   28.320    3.0191
   28.350    3.0367
   28.380    3.0718
   28.410    3.1947
   28.440    3.4404
   28.470    3.4931
   28.500    3.3175
   28.530    3.2122
   28.560    3.1069
   28.590    2.8787
   28.620    3.1596
   28.650    3.3000
   28.680    3.2649
   28.710    3.0893
   28.740    3.0893
   28.770    2.8787
   28.800    3.0718
   28.830    2.7909
   28.860    3.1420
   28.890    3.2122
   28.920    3.4580
   28.950    3.8090
   28.980    3.2824
   29.010    3.4404
   29.040    2.9314
   29.070    3.2298
   29.100    3.1069
   29.130    2.8436
   29.160    3.3000
   29.190    3.0016
   29.220    3.5633
   29.250    3.3526
   29.280    3.5106
   29.310    3.5984
   29.340    3.1947
   29.370    2.9138
   29.400    3.0893
   29.430    3.0367
   29.460    2.9314
   29.490    2.8612
   29.520    2.3697
   29.550    2.9840
   29.580    3.1596
   29.610    2.6856
   29.640    3.0367
   29.670    2.4750
   29.700    2.8612
   29.730    2.6681
   29.760    2.5628
   29.790    2.5628
   29.820    2.6330
   29.850    2.8963
   29.880    2.7734
   29.910    2.5979
   29.940    2.8260
   29.970    2.5276
   30.000    2.6154
   30.030    2.4223
   30.060    2.8085
   30.090    2.5979
   30.120    2.8612
   30.150    2.9489
   30.180    2.7383
   30.210    2.8963
   30.240    2.6681
   30.270    2.7909
   30.300    2.7558
   30.330    2.8612
   30.360    2.5101
   30.390    2.8963
   30.420    2.6330
   30.450    2.7383
   30.480    2.7734
   30.510    2.6681
   30.540    2.7032
   30.570    2.7909
   30.600    2.8963
   30.630    3.0893
   30.660    2.7558
   30.690    2.7383
   30.720    2.4223
   30.750    2.4750
   30.780    2.5276
   30.810    2.7383
   30.840    2.8436
   30.870    2.7383
   30.900    2.5452
   30.930    2.5452
   30.960    2.8436
   30.990    2.3872
   31.020    2.6681
   31.050    2.2819
   31.080    2.6681
   31.110    2.5276
   31.140    2.5101
   31.170    2.3346
   31.200    2.4048
   31.230    2.4399
   31.260    2.4750
   31.290    2.4925
   31.320    2.6505
   31.350    2.6505
   31.380    2.4223
   31.410    2.5276
   31.440    2.4574
   31.470    2.6154
   31.500    2.4750
   31.530    2.3521
   31.560    2.4574
   31.590    2.3521
   31.620    2.7558
   31.650    2.2995
   31.680    2.3346
   31.710    2.5101
   31.740    2.4223
   31.770    2.4048
   31.800    2.6856
   31.830    2.7558
   31.860    2.5101
   31.890    2.4574
   31.920    2.7383
   31.950    2.4750
   31.980    2.7558
   32.010    2.4399
   32.040    2.5101
   32.070    3.1947
   32.100    3.1771
   32.130    3.1069
   32.160    2.7734
   32.190    2.5276
   32.220    2.4048
   32.250    2.7558
   32.280    2.3521
   32.310    2.4399
   32.340    2.0713
   32.370    2.4925
   32.400    2.3170
   32.430    2.2819
   32.460    2.2819
   32.490    2.3346
   32.520    2.5628
   32.550    2.2643
   32.580    2.5452
   32.610    2.2819
   32.640    2.0537
   32.670    2.2643
   32.700    2.2643
   32.730    2.5979
   32.760    2.1766
   32.790    2.2292
   32.820    2.4223
   32.850    2.3521
   32.880    2.4750
   32.910    2.2643
   32.940    2.4399
   32.970    2.3697
   33.000    2.0713
   33.030    2.1941
   33.060    2.1064
   33.090    2.4223
   33.120    2.1941
   33.150    2.2995
   33.180    2.3346
   33.210    2.2643
   33.240    2.2292
   33.270    2.4750
   33.300    2.1590
   33.330    2.1064
   33.360    2.1415
   33.390    2.5803
   33.420    2.3697
   33.450    2.2819
   33.480    2.2117
   33.510    2.1766
   33.540    2.2468
   33.570    2.5803
   33.600    2.2468
   33.630    2.3170
   33.660    2.3346
   33.690    2.3170
   33.720    2.2468
   33.750    2.1239
   33.780    2.3521
   33.810    2.5979
   33.840    2.4223
   33.870    2.5803
   33.900    2.2292
   33.930    2.3521
   33.960    2.3872
   33.990    2.2468
   34.020    2.2995
   34.050    2.2995
   34.080    2.2995
   34.110    2.3521
   34.140    2.3521
   34.170    2.5803
   34.200    2.0362
   34.230    2.2819
   34.260    2.3872
   34.290    2.3521
   34.320    2.3346
   34.350    2.3872
   34.380    2.2292
   34.410    2.0713
   34.440    2.1590
   34.470    2.4750
   34.500    2.1941
   34.530    2.1766
   34.560    2.2643
   34.590    2.4574
   34.620    2.1590
   34.650    2.2643
   34.680    2.1941
   34.710    2.4399
   34.740    2.4223
   34.770    2.2292
   34.800    2.6330
   34.830    2.4750
   34.860    2.2995
   34.890    2.2468
   34.920    2.2117
   34.950    2.4399
   34.980    2.3170
   35.010    2.2117
   35.040    2.4399
   35.070    2.2117
   35.100    2.0011
   35.130    2.2995
   35.160    2.2819
   35.190    2.1766
   35.220    2.4223
   35.250    2.4399
   35.280    2.2468
   35.310    2.3346
   35.340    2.4750
   35.370    2.0186
   35.400    2.1590
   35.430    2.5101
   35.460    2.2468
   35.490    2.0011
   35.520    2.3872
   35.550    2.0362
   35.580    2.2819
   35.610    1.9484
   35.640    2.3697
   35.670    2.2995
   35.700    2.0888
   35.730    2.2292
   35.760    2.0362
   35.790    2.0011
   35.820    2.2995
   35.850    2.3872
   35.880    2.2292
   35.910    2.3697
   35.940    2.2292
   35.970    2.6154
   36.000    2.3521
   36.030    2.2643
   36.060    1.8957
   36.090    2.2819
   36.120    1.9835
   36.150    2.3170
   36.180    2.0011
   36.210    2.0713
   36.240    1.8255
   36.270    2.1941
   36.300    2.2468
   36.330    2.2117
   36.360    2.1064
   36.390    1.9659
   36.420    2.1064
   36.450    2.4750
   36.480    2.2995
   36.510    2.3697
   36.540    2.3346
   36.570    2.0537
   36.600    2.0362
   36.630    2.1590
   36.660    2.0186
   36.690    2.4223
   36.720    2.1239
   36.750    2.0713
   36.780    2.1415
   36.810    1.8957
   36.840    2.1941
   36.870    2.2292
   36.900    2.2819
   36.930    2.2292
   36.960    2.3170
   36.990    2.1590
   37.020    2.0713
   37.050    2.2117
   37.080    2.4399
   37.110    2.4750
   37.140    2.3346
   37.170    2.4574
   37.200    2.0537
   37.230    2.0713
   37.260    1.9835
   37.290    2.2819
   37.320    2.0713
   37.350    2.2819
   37.380    2.1064
   37.410    2.1766
   37.440    2.0537
   37.470    2.0011
   37.500    2.0186
   37.530    2.4574
   37.560    2.3872
   37.590    1.9835
   37.620    2.0537
   37.650    2.2995
   37.680    2.0537
   37.710    2.0011
   37.740    2.2643
   37.770    2.3697
   37.800    1.9659
   37.830    1.9835
   37.860    2.1064
   37.890    2.2117
   37.920    2.3170
   37.950    2.2292
   37.980    2.0888
   38.010    2.1590
   38.040    2.0186
   38.070    2.1415
   38.100    2.0537
   38.130    2.0186
   38.160    1.9484
   38.190    2.1766
   38.220    2.1941
   38.250    2.0362
   38.280    2.2292
   38.310    1.8957
   38.340    1.9133
   38.370    1.9659
   38.400    2.1941
   38.430    2.0537
   38.460    1.9484
   38.490    2.0362
   38.520    2.3872
   38.550    2.2117
   38.580    2.1415
   38.610    2.6330
   38.640    2.3872
   38.670    2.0011
   38.700    1.8957
   38.730    2.2292
   38.760    2.1415
   38.790    2.0537
   38.820    2.0011
   38.850    2.1590
   38.880    2.0011
   38.910    2.0362
   38.940    1.8431
   38.970    1.6675
   39.000    1.8957
   39.030    1.9484
   39.060    1.9133
   39.090    1.9484
   39.120    2.0011
   39.150    1.9484
   39.180    2.0011
   39.210    2.0713
   39.240    2.3521
   39.270    2.0362
   39.300    2.2643
   39.330    2.1766
   39.360    1.9308
   39.390    2.1064
   39.420    2.1766
   39.450    2.2292
   39.480    2.1590
   39.510    1.7904
   39.540    1.9308
   39.570    2.1590
   39.600    1.9659
   39.630    1.7904
   39.660    2.2995
   39.690    2.1415
   39.720    2.1064
   39.750    1.9484
   39.780    1.9659
   39.810    1.9835
   39.840    1.9133
   39.870    2.0362
   39.900    2.2117
   39.930    2.0713
   39.960    2.0186
   39.990    1.9835