File: data/PXRD/PXRD_KE-201_Cu-Ka1_capillary-1mm_5s-deg.xyd
    1.500   13.5334
    1.530   13.2701
    1.560   12.0274
    1.590   11.9537
    1.620   11.4376
    1.650   10.9637
    1.680   10.0158
    1.710    9.7736
    1.740    8.8257
    1.770    8.6888
    1.800    8.5940
    1.830    8.2991
    1.860    8.4360
    1.890    7.4987
    1.920    7.5513
    1.950    7.1406
    1.980    6.7193
    2.010    6.3086
    2.040    6.4455
    2.070    5.9610
    2.100    6.0664
    2.130    5.4555
    2.160    5.8873
    2.190    5.3818
    2.220    5.5608
    2.250    5.2975
    2.280    4.8973
    2.310    5.0132
    2.340    4.5919
    2.370    4.5076
    2.400    4.6445
    2.430    4.2865
    2.460    4.2127
    2.490    4.2022
    2.520    4.1917
    2.550    4.0442
    2.580    4.0021
    2.610    3.9494
    2.640    3.6546
    2.670    3.8863
    2.700    3.7177
    2.730    3.8652
    2.760    3.4755
    2.790    3.5492
    2.820    3.5176
    2.850    3.5808
    2.880    3.2017
    2.910    3.3491
    2.940    2.9279
    2.970    3.0858
    3.000    3.1385
    3.030    3.2122
    3.060    3.0226
    3.090    3.0753
    3.120    3.1385
    3.150    3.0226
    3.180    3.2965
    3.210    3.0121
    3.240    2.9384
    3.270    2.8015
    3.300    2.9595
    3.330    2.9384
    3.360    3.0121
    3.390    2.5592
    3.420    2.6856
    3.450    2.8120
    3.480    2.5908
    3.510    2.7278
    3.540    2.8752
    3.570    2.5803
    3.600    2.9279
    3.630    2.6330
    3.660    2.7488
    3.690    2.7067
    3.720    2.5171
    3.750    2.6435
    3.780    2.5908
    3.810    2.6330
    3.840    2.8963
    3.870    2.6014
    3.900    2.6962
    3.930    2.5698
    3.960    2.4961
    3.990    2.5487
    4.020    2.5171
    4.050    2.5382
    4.080    2.5171
    4.110    2.6330
    4.140    2.5592
    4.170    2.6962
    4.200    2.4434
    4.230    2.5171
    4.260    2.6646
    4.290    2.3697
    4.320    2.5487
    4.350    2.4645
    4.380    2.1801
    4.410    2.4434
    4.440    2.3591
    4.470    2.4434
    4.500    2.4434
    4.530    2.6330
    4.560    2.3907
    4.590    2.6962
    4.620    2.3802
    4.650    2.4750
    4.680    2.3697
    4.710    2.2749
    4.740    2.2643
    4.770    2.3381
    4.800    2.6751
    4.830    2.3591
    4.860    2.3275
    4.890    2.6540
    4.920    2.3381
    4.950    2.4223
    4.980    2.1801
    5.010    2.6962
    5.040    2.4434
    5.070    2.3591
    5.100    2.4855
    5.130    2.5382
    5.160    2.1906
    5.190    2.2117
    5.220    2.3802
    5.250    2.5171
    5.280    2.4961
    5.310    2.3591
    5.340    2.2749
    5.370    2.3381
    5.400    2.4434
    5.430    2.3802
    5.460    2.5171
    5.490    2.2538
    5.520    2.2433
    5.550    2.3591
    5.580    2.1801
    5.610    2.0432
    5.640    2.1801
    5.670    2.3381
    5.700    2.2117
    5.730    2.1590
    5.760    2.1274
    5.790    2.4118
    5.820    2.2012
    5.850    2.2854
    5.880    2.2959
    5.910    2.1590
    5.940    2.2854
    5.970    2.2012
    6.000    2.2538
    6.030    2.4118
    6.060    2.2538
    6.090    2.5487
    6.120    2.2222
    6.150    2.3170
    6.180    2.2959
    6.210    2.4539
    6.240    2.2012
    6.270    2.3591
    6.300    2.2433
    6.330    2.2959
    6.360    2.3802
    6.390    2.3170
    6.420    2.2012
    6.450    2.0221
    6.480    2.2433
    6.510    2.1696
    6.540    2.3065
    6.570    2.2433
    6.600    2.4645
    6.630    2.3697
    6.660    2.1696
    6.690    2.2328
    6.720    2.3486
    6.750    2.4223
    6.780    2.1064
    6.810    2.4961
    6.840    2.5171
    6.870    2.3907
    6.900    2.4329
    6.930    2.3486
    6.960    2.2538
    6.990    2.3591
    7.020    2.3381
    7.050    2.5276
    7.080    2.8752
    7.110    2.4329
    7.140    2.4434
    7.170    2.5698
    7.200    2.2643
    7.230    2.6224
    7.260    2.3170
    7.290    2.5171
    7.320    2.1696
    7.350    2.6330
    7.380    2.3697
    7.410    2.4539
    7.440    2.4645
    7.470    2.3381
    7.500    2.2117
    7.530    2.5803
    7.560    2.2854
    7.590    2.4118
    7.620    2.4645
    7.650    2.3697
    7.680    2.4223
    7.710    2.4855
    7.740    2.6119
    7.770    2.4329
    7.800    2.2117
    7.830    2.5698
    7.860    2.2643
    7.890    2.5276
    7.920    2.1696
    7.950    2.2328
    7.980    2.6014
    8.010    2.6435
    8.040    2.5066
    8.070    2.4118
    8.100    2.4434
    8.130    2.4434
    8.160    2.4223
    8.190    2.4434
    8.220    2.5592
    8.250    2.2959
    8.280    2.4013
    8.310    2.3802
    8.340    2.2538
    8.370    2.2959
    8.400    2.4750
    8.430    2.3486
    8.460    2.4645
    8.490    2.2538
    8.520    2.2749
    8.550    2.3170
    8.580    2.4645
    8.610    2.2538
    8.640    2.2433
    8.670    2.3170
    8.700    2.0221
    8.730    2.3697
    8.760    2.2538
    8.790    2.3275
    8.820    2.2538
    8.850    2.3907
    8.880    2.1590
    8.910    2.2433
    8.940    2.2222
    8.970    2.2749
    9.000    2.2433
    9.030    2.4329
    9.060    2.1590
    9.090    2.2117
    9.120    2.2433
    9.150    2.1274
    9.180    2.0537
    9.210    2.2643
    9.240    2.2538
    9.270    2.2433
    9.300    2.2012
    9.330    2.1696
    9.360    2.2749
    9.390    2.2749
    9.420    2.1274
    9.450    2.2328
    9.480    2.3170
    9.510    2.1590
    9.540    2.0748
    9.570    2.0221
    9.600    1.9484
    9.630    2.1380
    9.660    2.3907
    9.690    1.9589
    9.720    2.2222
    9.750    2.1485
    9.780    2.1696
    9.810    2.3170
    9.840    2.0326
    9.870    2.2012
    9.900    1.9589
    9.930    2.2222
    9.960    2.3486
    9.990    2.2328
   10.020    2.2328
   10.050    1.9484
   10.080    2.1696
   10.110    2.2959
   10.140    2.1906
   10.170    1.7799
   10.200    2.1590
   10.230    2.2117
   10.260    2.1906
   10.290    2.2749
   10.320    2.0853
   10.350    1.9800
   10.380    2.1064
   10.410    2.0642
   10.440    2.1801
   10.470    2.1485
   10.500    2.0642
   10.530    2.0958
   10.560    1.8220
   10.590    2.1169
   10.620    2.0326
   10.650    2.2117
   10.680    2.1064
   10.710    2.1906
   10.740    2.1274
   10.770    2.1274
   10.800    1.9800
   10.830    2.0221
   10.860    2.0221
   10.890    1.9484
   10.920    1.9589
   10.950    1.9589
   10.980    2.0537
   11.010    2.2012
   11.040    2.1169
   11.070    1.8431
   11.100    2.3697
   11.130    2.2749
   11.160    2.2854
   11.190    2.1906
   11.220    1.9273
   11.250    2.1064
   11.280    2.1380
   11.310    1.9379
   11.340    2.2117
   11.370    2.0116
   11.400    2.0537
   11.430    1.9379
   11.460    2.0432
   11.490    2.2854
   11.520    1.9168
   11.550    1.8536
   11.580    2.0958
   11.610    1.9800
   11.640    1.8325
   11.670    1.9168
   11.700    2.0537
   11.730    1.9589
   11.760    1.7799
   11.790    1.9273
   11.820    2.0853
   11.850    1.9168
   11.880    1.8957
   11.910    1.8536
   11.940    1.9695
   11.970    2.0221
   12.000    1.9905
   12.030    1.8536
   12.060    1.9589
   12.090    1.8009
   12.120    1.8641
   12.150    2.0011
   12.180    2.0748
   12.210    1.8220
   12.240    1.9168
   12.270    2.0958
   12.300    1.9273
   12.330    2.0326
   12.360    1.9379
   12.390    1.8009
   12.420    1.8641
   12.450    1.7588
   12.480    1.8115
   12.510    2.0011
   12.540    1.7483
   12.570    2.0116
   12.600    1.8009
   12.630    2.2012
   12.660    1.9484
   12.690    1.7694
   12.720    2.0011
   12.750    1.9589
   12.780    1.9273
   12.810    1.6535
   12.840    1.8747
   12.870    2.0748
   12.900    2.0642
   12.930    1.9063
   12.960    1.6324
   12.990    1.9063
   13.020    1.6851
   13.050    1.7904
   13.080    1.7378
   13.110    2.1380
   13.140    1.9379
   13.170    1.7799
   13.200    2.0642
   13.230    1.9695
   13.260    2.0642
   13.290    1.8220
   13.320    1.9379
   13.350    1.9168
   13.380    1.9589
   13.410    2.0221
   13.440    2.0642
   13.470    1.6746
   13.500    1.8009
   13.530    2.1485
   13.560    1.8641
   13.590    1.8536
   13.620    1.7062
   13.650    2.1380
   13.680    1.8009
   13.710    1.8431
   13.740    2.0958
   13.770    1.9168
   13.800    1.9168
   13.830    1.8220
   13.860    1.9063
   13.890    1.9379
   13.920    1.8325
   13.950    1.8431
   13.980    2.1380
   14.010    2.0432
   14.040    1.9063
   14.070    1.9379
   14.100    1.7378
   14.130    1.9589
   14.160    2.0642
   14.190    1.9168
   14.220    2.0221
   14.250    1.8115
   14.280    2.0537
   14.310    2.0221
   14.340    2.0011
   14.370    2.1485
   14.400    1.8957
   14.430    1.8536
   14.460    1.9589
   14.490    1.7272
   14.520    1.8220
   14.550    2.0326
   14.580    1.7904
   14.610    1.8220
   14.640    1.8431
   14.670    1.8957
   14.700    1.9273
   14.730    1.8325
   14.760    1.7483
   14.790    1.8115
   14.820    2.0116
   14.850    1.7904
   14.880    1.8747
   14.910    2.1380
   14.940    2.0537
   14.970    1.6956
   15.000    1.8431
   15.030    1.9168
   15.060    1.8009
   15.090    1.9063
   15.120    2.0958
   15.150    2.1169
   15.180    1.8220
   15.210    1.9695
   15.240    1.9800
   15.270    1.9800
   15.300    1.7378
   15.330    1.8431
   15.360    1.9695
   15.390    1.8957
   15.420    1.7588
   15.450    2.0116
   15.480    2.0537
   15.510    1.9800
   15.540    1.8325
   15.570    1.9379
   15.600    2.1064
   15.630    2.0221
   15.660    2.0537
   15.690    1.7694
   15.720    1.8957
   15.750    1.8325
   15.780    1.9905
   15.810    1.9168
   15.840    1.7272
   15.870    2.0432
   15.900    1.9484
   15.930    1.8115
   15.960    1.7799
   15.990    1.7694
   16.020    2.0116
   16.050    1.8641
   16.080    1.8747
   16.110    1.8957
   16.140    1.8747
   16.170    1.9695
   16.200    1.9273
   16.230    1.9589
   16.260    2.1064
   16.290    2.0116
   16.320    1.8852
   16.350    1.8009
   16.380    1.9905
   16.410    1.9063
   16.440    1.8957
   16.470    1.7904
   16.500    1.9800
   16.530    1.7588
   16.560    2.0432
   16.590    2.1696
   16.620    1.8431
   16.650    1.7799
   16.680    1.9695
   16.710    1.9905
   16.740    1.8325
   16.770    1.8852
   16.800    2.0116
   16.830    1.8641
   16.860    1.7904
   16.890    2.0011
   16.920    2.1485
   16.950    1.9905
   16.980    1.9800
   17.010    1.7062
   17.040    2.0011
   17.070    1.9168
   17.100    1.8536
   17.130    1.8852
   17.160    1.9484
   17.190    1.8220
   17.220    1.8536
   17.250    1.8641
   17.280    1.9905
   17.310    1.9379
   17.340    1.8431
   17.370    1.9800
   17.400    2.0011
   17.430    1.8852
   17.460    2.0642
   17.490    1.9063
   17.520    1.8431
   17.550    1.9168
   17.580    1.8957
   17.610    2.0221
   17.640    2.0958
   17.670    1.9589
   17.700    2.0748
   17.730    2.2538
   17.760    2.0537
   17.790    2.0958
   17.820    1.9695
   17.850    1.9695
   17.880    1.8431
   17.910    1.8641
   17.940    1.8852
   17.970    1.7799
   18.000    2.0326
   18.030    1.9379
   18.060    1.8852
   18.090    1.9800
   18.120    2.2328
   18.150    1.7904
   18.180    1.9695
   18.210    2.0116
   18.240    2.0642
   18.270    1.9168
   18.300    1.9379
   18.330    2.0958
   18.360    2.0642
   18.390    2.0537
   18.420    1.9905
   18.450    1.7904
   18.480    1.8431
   18.510    2.0326
   18.540    2.1380
   18.570    2.0432
   18.600    2.0221
   18.630    2.0326
   18.660    2.0116
   18.690    1.8325
   18.720    2.0748
   18.750    2.0958
   18.780    2.0432
   18.810    2.1274
   18.840    1.9905
   18.870    2.1274
   18.900    2.1380
   18.930    2.0011
   18.960    2.0853
   18.990    1.9379
   19.020    2.2959
   19.050    2.1274
   19.080    1.8325
   19.110    2.1380
   19.140    1.9273
   19.170    2.1801
   19.200    2.0326
   19.230    2.1064
   19.260    1.9905
   19.290    2.0326
   19.320    2.0011
   19.350    2.1590
   19.380    1.9905
   19.410    2.2643
   19.440    1.9063
   19.470    1.8641
   19.500    2.0748
   19.530    1.9589
   19.560    1.9273
   19.590    2.0432
   19.620    2.0537
   19.650    2.1906
   19.680    2.1801
   19.710    2.1064
   19.740    2.2222
   19.770    2.1169
   19.800    2.0432
   19.830    2.0221
   19.860    2.2854
   19.890    2.0116
   19.920    1.9063
   19.950    2.0748
   19.980    2.2328
   20.010    2.2749
   20.040    1.8852
   20.070    2.0116
   20.100    2.1906
   20.130    2.0853
   20.160    2.0221
   20.190    2.0011
   20.220    2.0642
   20.250    1.8852
   20.280    2.1801
   20.310    1.9800
   20.340    2.0326
   20.370    2.2433
   20.400    1.9484
   20.430    2.0537
   20.460    2.1064
   20.490    2.2643
   20.520    2.2433
   20.550    2.1064
   20.580    2.2643
   20.610    2.1485
   20.640    1.9905
   20.670    2.0642
   20.700    1.9484
   20.730    2.1274
   20.760    2.0011
   20.790    2.0748
   20.820    2.0958
   20.850    2.0853
   20.880    2.0221
   20.910    2.4434
   20.940    2.0853
   20.970    2.0221
   21.000    2.3381
   21.030    2.2117
   21.060    1.9800
   21.090    2.1590
   21.120    2.0642
   21.150    2.1801
   21.180    2.1274
   21.210    2.2012
   21.240    2.0748
   21.270    2.1801
   21.300    2.1485
   21.330    2.0326
   21.360    2.1380
   21.390    1.9905
   21.420    2.0748
   21.450    1.9168
   21.480    2.0748
   21.510    1.9589
   21.540    2.0537
   21.570    1.9273
   21.600    1.9168
   21.630    2.0432
   21.660    2.0432
   21.690    1.9379
   21.720    2.0537
   21.750    2.2117
   21.780    1.8747
   21.810    2.0642
   21.840    2.0326
   21.870    2.0537
   21.900    2.2222
   21.930    2.2643
   21.960    1.9800
   21.990    2.0116
   22.020    1.9589
   22.050    2.0432
   22.080    2.1274
   22.110    2.2854
   22.140    2.0958
   22.170    2.0853
   22.200    2.0011
   22.230    2.1590
   22.260    2.0853
   22.290    2.0537
   22.320    2.2328
   22.350    2.0116
   22.380    1.9695
   22.410    2.0958
   22.440    2.0116
   22.470    1.9273
   22.500    1.9273
   22.530    1.9589
   22.560    1.9273
   22.590    2.1169
   22.620    2.0326
   22.650    2.0221
   22.680    2.0011
   22.710    2.2012
   22.740    2.0011
   22.770    2.1274
   22.800    1.8747
   22.830    2.0853
   22.860    2.0326
   22.890    2.0011
   22.920    2.2854
   22.950    2.0326
   22.980    1.9063
   23.010    1.8957
   23.040    2.0116
   23.070    1.9379
   23.100    1.7904
   23.130    2.0642
   23.160    1.9695
   23.190    1.9168
   23.220    2.0537
   23.250    1.8431
   23.280    1.8957
   23.310    1.9063
   23.340    1.9800
   23.370    1.8220
   23.400    1.8431
   23.430    1.9905
   23.460    1.9589
   23.490    1.8431
   23.520    2.0853
   23.550    2.2538
   23.580    1.9589
   23.610    1.9905
   23.640    2.0011
   23.670    2.0011
   23.700    2.0326
   23.730    1.9063
   23.760    1.9589
   23.790    2.1274
   23.820    1.9589
   23.850    1.9484
   23.880    1.8431
   23.910    1.9484
   23.940    1.9589
   23.970    1.9273
   24.000    1.9273
   24.030    2.2012
   24.060    1.9168
   24.090    1.9273
   24.120    1.7272
   24.150    2.1906
   24.180    1.9168
   24.210    1.9379
   24.240    1.9484
   24.270    2.0958
   24.300    2.0011
   24.330    2.0958
   24.360    2.1380
   24.390    2.0011
   24.420    1.9800
   24.450    1.9273
   24.480    1.8852
   24.510    1.6746
   24.540    1.8431
   24.570    2.0642
   24.600    1.5798
   24.630    2.1485
   24.660    1.9800
   24.690    1.7483
   24.720    1.8536
   24.750    1.9484
   24.780    1.9695
   24.810    1.9063
   24.840    1.7904
   24.870    1.7588
   24.900    1.9168
   24.930    2.0116
   24.960    1.8536
   24.990    1.8641
   25.020    1.8325
   25.050    2.0642
   25.080    1.8852
   25.110    1.9063
   25.140    2.1274
   25.170    1.9273
   25.200    1.6851
   25.230    1.6430
   25.260    1.8431
   25.290    1.7799
   25.320    1.8852
   25.350    1.7588
   25.380    2.0011
   25.410    1.8431
   25.440    1.4955
   25.470    1.5903
   25.500    1.8536
   25.530    1.8115
   25.560    1.8115
   25.590    1.7904
   25.620    1.7904
   25.650    1.7483
   25.680    1.8009
   25.710    1.6746
   25.740    1.8009
   25.770    1.6219
   25.800    1.9484
   25.830    1.9063
   25.860    1.8325
   25.890    1.7588
   25.920    1.6956
   25.950    1.7483
   25.980    1.8325
   26.010    1.5587
   26.040    1.6640
   26.070    1.7062
   26.100    1.8431
   26.130    1.6008
   26.160    1.7483
   26.190    1.9063
   26.220    1.8115
   26.250    1.9168
   26.280    1.6008
   26.310    1.7483
   26.340    1.7799
   26.370    1.7062
   26.400    1.8220
   26.430    1.6324
   26.460    1.6640
   26.490    1.6956
   26.520    1.6219
   26.550    1.5377
   26.580    1.5377
   26.610    1.6851
   26.640    1.6640
   26.670    1.8009
   26.700    1.6851
   26.730    1.5692
   26.760    1.6956
   26.790    1.8115
   26.820    1.5692
   26.850    1.6430
   26.880    1.7272
   26.910    1.6324
   26.940    1.5903
   26.970    1.6851
   27.000    1.7272
   27.030    1.5271
   27.060    1.5482
   27.090    1.5166
   27.120    1.7799
   27.150    1.5482
   27.180    1.7272
   27.210    1.6324
   27.240    1.5903
   27.270    1.7062
   27.300    1.6219
   27.330    1.6851
   27.360    1.6008
   27.390    1.5903
   27.420    1.8431
   27.450    1.5692
   27.480    1.5482
   27.510    1.5061
   27.540    1.7694
   27.570    1.8220
   27.600    1.5377
   27.630    1.6008
   27.660    1.6430
   27.690    1.5587
   27.720    1.4218
   27.750    1.4955
   27.780    1.4850
   27.810    1.5482
   27.840    1.3691
   27.870    1.6535
   27.900    1.6851
   27.930    1.7904
   27.960    1.4534
   27.990    1.5903
   28.020    1.6324
   28.050    1.4639
   28.080    1.4745
   28.110    1.5798
   28.140    1.4639
   28.170    1.5271
   28.200    1.6746
   28.230    1.5166
   28.260    1.6956
   28.290    1.6114
   28.320    1.5166
   28.350    1.4429
   28.380    1.5903
   28.410    1.6008
   28.440    1.6008
   28.470    1.5166
   28.500    1.7167
   28.530    1.4955
   28.560    1.7272
   28.590    1.4745
   28.620    1.4850
   28.650    1.3375
   28.680    1.7378
   28.710    1.4323
   28.740    1.6324
   28.770    1.5061
   28.800    1.4955
   28.830    1.4955
   28.860    1.5587
   28.890    1.4323
   28.920    1.5587
   28.950    1.2533
   28.980    1.4218
   29.010    1.3060
   29.040    1.5061
   29.070    1.4850
   29.100    1.4745
   29.130    1.4429
   29.160    1.3270
   29.190    1.2112
   29.220    1.6430
   29.250    1.4113
   29.280    1.5166
   29.310    1.4113
   29.340    1.4113
   29.370    1.4955
   29.400    1.3691
   29.430    1.5166
   29.460    1.2954
   29.490    1.5692
   29.520    1.5377
   29.550    1.4955
   29.580    1.4113
   29.610    1.2006
   29.640    1.4955
   29.670    1.4639
   29.700    1.4007
   29.730    1.3481
   29.760    1.5271
   29.790    1.4218
   29.820    1.3797
   29.850    1.3375
   29.880    1.5271
   29.910    1.2954
   29.940    1.4429
   29.970    1.5061
   30.000    1.3481
   30.030    1.4007
   30.060    1.3165
   30.090    1.3270
   30.120    1.6956
   30.150    1.4113
   30.180    1.3165
   30.210    1.2638
   30.240    1.4007
   30.270    1.3165
   30.300    1.1480
   30.330    1.4323
   30.360    1.4534
   30.390    1.4113
   30.420    1.3797
   30.450    1.5061
   30.480    1.4639
   30.510    1.4955
   30.540    1.3270
   30.570    1.3902
   30.600    1.5166
   30.630    1.1690
   30.660    1.3586
   30.690    1.2638
   30.720    1.4218
   30.750    1.3481
   30.780    1.3165
   30.810    1.2849
   30.840    1.4429
   30.870    1.2954
   30.900    1.2744
   30.930    1.2006
   30.960    1.2638
   30.990    1.3691
   31.020    1.6535
   31.050    1.2112
   31.080    1.3691
   31.110    1.1690
   31.140    1.2533
   31.170    1.2533
   31.200    1.3165
   31.230    1.2954
   31.260    1.2744
   31.290    1.2638
   31.320    1.3375
   31.350    1.1901
   31.380    1.3902
   31.410    1.2112
   31.440    1.2744
   31.470    1.1480
   31.500    1.4007
   31.530    1.2849
   31.560    1.1901
   31.590    1.2112
   31.620    1.4323
   31.650    1.2954
   31.680    1.1585
   31.710    1.2322
   31.740    1.3165
   31.770    1.2954
   31.800    1.3902
   31.830    1.2638
   31.860    1.1796
   31.890    1.2322
   31.920    1.1374
   31.950    1.1901
   31.980    1.2849
   32.010    1.0953
   32.040    1.2954
   32.070    1.2849
   32.100    1.2533
   32.130    1.1164
   32.160    1.1901
   32.190    1.1690
   32.220    1.1058
   32.250    1.0216
   32.280    1.1374
   32.310    1.1585
   32.340    1.2849
   32.370    1.2322
   32.400    1.1901
   32.430    1.1796
   32.460    1.0742
   32.490    1.2533
   32.520    1.1480
   32.550    1.2322
   32.580    1.2744
   32.610    1.2428
   32.640    1.1269
   32.670    1.1796
   32.700    1.2428
   32.730    1.2112
   32.760    1.1480
   32.790    1.1901
   32.820    1.1901
   32.850    1.1058
   32.880    1.2533
   32.910    1.1058
   32.940    1.1585
   32.970    1.1901
   33.000    1.1374
   33.030    1.0216
   33.060    1.2533
   33.090    1.0111
   33.120    1.1901
   33.150    1.0427
   33.180    1.2322
   33.210    1.0532
   33.240    1.0111
   33.270    1.0427
   33.300    1.0953
   33.330    1.1690
   33.360    1.0427
   33.390    1.0953
   33.420    1.2006
   33.450    1.0005
   33.480    1.0532
   33.510    1.0953
   33.540    1.0321
   33.570    1.2006
   33.600    1.1164
   33.630    1.0321
   33.660    0.9795
   33.690    0.9795
   33.720    1.0953
   33.750    1.1374
   33.780    0.9795
   33.810    1.0742
   33.840    0.9057
   33.870    1.0427
   33.900    0.8847
   33.930    1.0953
   33.960    1.0742
   33.990    1.1164
   34.020    1.2006
   34.050    1.0848
   34.080    1.1374
   34.110    1.0953
   34.140    1.0848
   34.170    0.9584
   34.200    0.8320
   34.230    1.0848
   34.260    0.9163
   34.290    1.0111
   34.320    1.0848
   34.350    1.0216
   34.380    1.0637
   34.410    1.0742
   34.440    1.0111
   34.470    0.8636
   34.500    0.9057
   34.530    1.0953
   34.560    1.1690
   34.590    1.0427
   34.620    0.9795
   34.650    0.9057
   34.680    1.0742
   34.710    1.0532
   34.740    1.0005
   34.770    1.0005
   34.800    1.0637
   34.830    1.0111
   34.860    0.9057
   34.890    0.9479
   34.920    0.9584
   34.950    0.9689
   34.980    0.8425
   35.010    1.0953
   35.040    0.8952
   35.070    0.9584
   35.100    0.9795
   35.130    0.8425
   35.160    0.8847
   35.190    0.9163
   35.220    0.9057
   35.250    0.9057
   35.280    0.9057
   35.310    0.8320
   35.340    0.9689
   35.370    0.9584
   35.400    0.9057
   35.430    1.0216
   35.460    0.9057
   35.490    0.9795
   35.520    1.0111
   35.550    0.8110
   35.580    0.7162
   35.610    0.8425
   35.640    0.9479
   35.670    0.7478
   35.700    0.8425
   35.730    1.0216
   35.760    0.9689
   35.790    1.0321
   35.820    0.8320
   35.850    1.0005
   35.880    0.9057
   35.910    0.8320
   35.940    0.8004
   35.970    0.9373
   36.000    0.8004
   36.030    0.9268
   36.060    0.8425
   36.090    0.8741
   36.120    0.7899
   36.150    0.8425
   36.180    0.7899
   36.210    0.8636
   36.240    0.7583
   36.270    0.9373
   36.300    0.9689
   36.330    0.8215
   36.360    0.8636
   36.390    0.8636
   36.420    0.8741
   36.450    0.7794
   36.480    0.8636
   36.510    0.7899
   36.540    0.9268
   36.570    0.8215
   36.600    0.8425
   36.630    0.9163
   36.660    0.8215
   36.690    0.7583
   36.720    0.8847
   36.750    0.8004
   36.780    0.9479
   36.810    0.7688
   36.840    0.9373
   36.870    0.8215
   36.900    0.7478
   36.930    0.7899
   36.960    0.8847
   36.990    0.8320
   37.020    0.8004
   37.050    0.7267
   37.080    0.7899
   37.110    0.9057
   37.140    0.7583
   37.170    0.6003
   37.200    0.8636
   37.230    0.7688
   37.260    0.8531
   37.290    0.8425
   37.320    0.7794
   37.350    0.9268
   37.380    0.8847
   37.410    0.7794
   37.440    0.7794
   37.470    0.7162
   37.500    0.7794
   37.530    0.8320
   37.560    0.7267
   37.590    0.7056
   37.620    0.8847
   37.650    0.8004
   37.680    0.8320
   37.710    0.9057
   37.740    0.6846
   37.770    0.9689
   37.800    0.8215
   37.830    0.8741
   37.860    0.7478
   37.890    0.8110
   37.920    0.6846
   37.950    0.7583
   37.980    0.8004
   38.010    0.8425
   38.040    0.8847
   38.070    0.7688
   38.100    0.9268
   38.130    0.7478
   38.160    0.5898
   38.190    0.7372
   38.220    0.7794
   38.250    0.7372
   38.280    0.8110
   38.310    0.7794
   38.340    0.7899
   38.370    0.7794
   38.400    0.7688
   38.430    0.8004
   38.460    0.8636
   38.490    0.7372
   38.520    0.7478
   38.550    0.8425
   38.580    0.7372
   38.610    0.6424
   38.640    0.7583
   38.670    0.8531
   38.700    0.7162
   38.730    0.7794
   38.760    0.8531
   38.790    0.8004
   38.820    0.6530
   38.850    0.8531
   38.880    0.6951
   38.910    0.8215
   38.940    0.7583
   38.970    0.7372
   39.000    0.7162
   39.030    0.8425
   39.060    0.8110
   39.090    0.7267
   39.120    0.6530
   39.150    0.6846
   39.180    0.7372
   39.210    0.8636
   39.240    0.7794
   39.270    0.8004
   39.300    0.7583
   39.330    0.8215
   39.360    0.6846
   39.390    0.8004
   39.420    0.9163
   39.450    0.6530
   39.480    0.7583
   39.510    0.7688
   39.540    0.6846
   39.570    0.7794
   39.600    0.8110
   39.630    0.7794
   39.660    0.8110
   39.690    0.7899
   39.720    0.6740
   39.750    0.8847
   39.780    0.8004
   39.810    0.8215
   39.840    0.7372
   39.870    0.7899
   39.900    0.5687
   39.930    0.7267
   39.960    0.7688
   39.990    0.6635