File: data/PXRD/PXRD_KE-244_Co-Ka1_capillary-1mm_5s-deg.xyd
    1.500    1.4553
    1.530    1.4018
    1.560    1.5409
    1.590    1.3590
    1.620    1.3269
    1.650    1.2092
    1.680    1.1450
    1.710    1.1129
    1.740    1.0059
    1.770    1.0808
    1.800    1.0808
    1.830    0.9310
    1.860    1.0487
    1.890    0.9203
    1.920    0.9952
    1.950    0.9310
    1.980    0.8240
    2.010    0.8133
    2.040    0.8454
    2.070    0.8989
    2.100    0.7705
    2.130    0.6207
    2.160    0.7705
    2.190    0.8668
    2.220    0.8026
    2.250    0.6849
    2.280    0.6421
    2.310    0.6849
    2.340    0.6956
    2.370    0.8133
    2.400    0.7063
    2.430    0.5350
    2.460    0.7705
    2.490    0.5778
    2.520    0.6528
    2.550    0.5778
    2.580    0.5243
    2.610    0.5993
    2.640    0.5350
    2.670    0.5564
    2.700    0.5993
    2.730    0.6742
    2.760    0.5886
    2.790    0.5778
    2.820    0.6100
    2.850    0.6956
    2.880    0.5778
    2.910    0.5671
    2.940    0.6635
    2.970    0.5029
    3.000    0.6100
    3.030    0.6207
    3.060    0.5457
    3.090    0.5671
    3.120    0.4708
    3.150    0.6742
    3.180    0.5457
    3.210    0.5457
    3.240    0.6207
    3.270    0.6314
    3.300    0.7170
    3.330    0.7170
    3.360    0.7063
    3.390    0.7705
    3.420    0.8133
    3.450    0.8133
    3.480    0.9845
    3.510    1.0594
    3.540    1.1450
    3.570    1.2627
    3.600    1.4660
    3.630    1.9583
    3.660    2.0118
    3.690    1.1985
    3.720    0.9203
    3.750    0.7063
    3.780    0.6100
    3.810    0.6742
    3.840    0.5350
    3.870    0.4922
    3.900    0.5243
    3.930    0.5886
    3.960    0.5136
    3.990    0.4173
    4.020    0.5136
    4.050    0.4922
    4.080    0.6100
    4.110    0.3424
    4.140    0.5671
    4.170    0.5136
    4.200    0.4708
    4.230    0.5457
    4.260    0.5457
    4.290    0.4708
    4.320    0.3959
    4.350    0.4815
    4.380    0.4173
    4.410    0.4815
    4.440    0.6100
    4.470    0.5564
    4.500    0.5243
    4.530    0.5243
    4.560    0.5243
    4.590    0.5778
    4.620    0.5993
    4.650    0.4922
    4.680    0.4280
    4.710    0.4280
    4.740    0.5029
    4.770    0.4922
    4.800    0.4280
    4.830    0.4815
    4.860    0.5350
    4.890    0.4922
    4.920    0.5029
    4.950    0.3745
    4.980    0.4922
    5.010    0.5886
    5.040    0.5778
    5.070    0.5457
    5.100    0.4601
    5.130    0.4280
    5.160    0.4922
    5.190    0.6314
    5.220    0.5886
    5.250    0.3959
    5.280    0.4815
    5.310    0.5457
    5.340    0.4708
    5.370    0.5671
    5.400    0.5243
    5.430    0.5029
    5.460    0.3424
    5.490    0.6207
    5.520    0.4387
    5.550    0.5243
    5.580    0.5886
    5.610    0.4494
    5.640    0.5993
    5.670    0.5886
    5.700    0.6742
    5.730    0.7919
    5.760    0.7277
    5.790    0.5564
    5.820    0.3638
    5.850    0.5564
    5.880    0.4173
    5.910    0.6100
    5.940    0.5778
    5.970    0.5350
    6.000    0.4066
    6.030    0.4494
    6.060    0.5350
    6.090    0.4708
    6.120    0.5350
    6.150    0.4922
    6.180    0.4708
    6.210    0.5778
    6.240    0.4815
    6.270    0.3959
    6.300    0.4173
    6.330    0.5778
    6.360    0.5350
    6.390    0.4815
    6.420    0.5350
    6.450    0.4601
    6.480    0.4601
    6.510    0.4494
    6.540    0.4601
    6.570    0.4708
    6.600    0.4922
    6.630    0.5350
    6.660    0.5029
    6.690    0.4494
    6.720    0.5564
    6.750    0.4601
    6.780    0.7812
    6.810    0.6742
    6.840    0.5457
    6.870    0.4601
    6.900    0.6314
    6.930    0.5136
    6.960    0.5029
    6.990    0.4815
    7.020    0.5136
    7.050    0.5029
    7.080    0.3638
    7.110    0.5564
    7.140    0.6207
    7.170    0.4387
    7.200    0.4815
    7.230    0.5136
    7.260    0.6314
    7.290    0.6100
    7.320    0.6100
    7.350    0.7384
    7.380    0.5886
    7.410    0.5350
    7.440    0.4815
    7.470    0.5457
    7.500    0.5243
    7.530    0.4601
    7.560    0.4066
    7.590    0.4173
    7.620    0.5029
    7.650    0.5457
    7.680    0.5350
    7.710    0.5136
    7.740    0.3531
    7.770    0.5029
    7.800    0.5350
    7.830    0.3745
    7.860    0.4494
    7.890    0.4815
    7.920    0.4601
    7.950    0.3638
    7.980    0.5243
    8.010    0.4280
    8.040    0.3959
    8.070    0.4601
    8.100    0.4173
    8.130    0.4494
    8.160    0.4601
    8.190    0.3959
    8.220    0.4280
    8.250    0.5243
    8.280    0.5671
    8.310    0.4815
    8.340    0.3745
    8.370    0.4922
    8.400    0.3959
    8.430    0.3852
    8.460    0.4601
    8.490    0.3424
    8.520    0.4173
    8.550    0.4601
    8.580    0.4708
    8.610    0.4708
    8.640    0.4494
    8.670    0.4280
    8.700    0.4601
    8.730    0.4066
    8.760    0.4601
    8.790    0.6421
    8.820    0.5350
    8.850    0.4815
    8.880    0.5671
    8.910    0.5243
    8.940    0.4922
    8.970    0.3852
    9.000    0.4173
    9.030    0.3745
    9.060    0.4708
    9.090    0.5029
    9.120    0.4708
    9.150    0.3959
    9.180    0.5029
    9.210    0.4708
    9.240    0.5029
    9.270    0.5350
    9.300    0.5350
    9.330    0.4815
    9.360    0.4280
    9.390    0.4708
    9.420    0.4922
    9.450    0.4922
    9.480    0.4066
    9.510    0.6314
    9.540    0.2996
    9.570    0.4815
    9.600    0.4387
    9.630    0.4387
    9.660    0.4601
    9.690    0.4815
    9.720    0.5457
    9.750    0.4173
    9.780    0.4494
    9.810    0.4601
    9.840    0.4066
    9.870    0.4815
    9.900    0.4708
    9.930    0.5564
    9.960    0.5350
    9.990    0.5778
   10.020    0.3531
   10.050    0.4815
   10.080    0.4173
   10.110    0.5671
   10.140    0.4387
   10.170    0.4601
   10.200    0.4387
   10.230    0.5671
   10.260    0.5457
   10.290    0.4922
   10.320    0.4280
   10.350    0.3531
   10.380    0.4494
   10.410    0.5350
   10.440    0.3852
   10.470    0.6314
   10.500    0.4280
   10.530    0.5136
   10.560    0.5136
   10.590    0.5136
   10.620    0.4494
   10.650    0.4387
   10.680    0.4280
   10.710    0.3745
   10.740    0.4708
   10.770    0.4815
   10.800    0.4922
   10.830    0.4494
   10.860    0.3959
   10.890    0.5243
   10.920    0.4066
   10.950    0.5136
   10.980    0.5886
   11.010    0.4708
   11.040    0.5671
   11.070    0.5029
   11.100    0.4708
   11.130    0.4922
   11.160    0.5350
   11.190    0.4173
   11.220    0.5029
   11.250    0.4922
   11.280    0.4387
   11.310    0.5886
   11.340    0.5029
   11.370    0.4815
   11.400    0.5457
   11.430    0.5029
   11.460    0.6207
   11.490    0.5886
   11.520    0.7491
   11.550    0.7063
   11.580    0.5136
   11.610    0.4280
   11.640    0.5136
   11.670    0.4494
   11.700    0.4922
   11.730    0.5457
   11.760    0.4387
   11.790    0.4601
   11.820    0.4708
   11.850    0.4708
   11.880    0.5136
   11.910    0.5564
   11.940    0.6528
   11.970    0.5993
   12.000    0.5886
   12.030    0.6742
   12.060    0.7277
   12.090    0.7277
   12.120    0.6742
   12.150    0.5778
   12.180    0.4815
   12.210    0.4387
   12.240    0.4601
   12.270    0.5243
   12.300    0.5457
   12.330    0.4280
   12.360    0.4494
   12.390    0.4280
   12.420    0.5350
   12.450    0.5136
   12.480    0.4280
   12.510    0.4815
   12.540    0.4601
   12.570    0.4387
   12.600    0.4922
   12.630    0.3959
   12.660    0.4066
   12.690    0.4815
   12.720    0.4815
   12.750    0.3531
   12.780    0.3531
   12.810    0.4066
   12.840    0.4708
   12.870    0.4280
   12.900    0.3424
   12.930    0.3103
   12.960    0.3210
   12.990    0.2568
   13.020    0.3852
   13.050    0.3745
   13.080    0.3745
   13.110    0.4387
   13.140    0.3959
   13.170    0.4066
   13.200    0.5136
   13.230    0.3531
   13.260    0.3959
   13.290    0.5136
   13.320    0.5136
   13.350    0.5886
   13.380    0.4173
   13.410    0.4922
   13.440    0.5136
   13.470    0.5136
   13.500    0.4173
   13.530    0.4815
   13.560    0.5457
   13.590    0.4173
   13.620    0.6207
   13.650    0.7063
   13.680    0.6742
   13.710    0.5457
   13.740    0.5136
   13.770    0.4815
   13.800    0.5029
   13.830    0.4387
   13.860    0.4494
   13.890    0.5778
   13.920    0.4173
   13.950    0.4387
   13.980    0.4387
   14.010    0.3210
   14.040    0.3852
   14.070    0.4601
   14.100    0.4494
   14.130    0.3852
   14.160    0.3745
   14.190    0.3210
   14.220    0.4922
   14.250    0.4280
   14.280    0.4494
   14.310    0.3959
   14.340    0.4280
   14.370    0.4387
   14.400    0.5136
   14.430    0.3317
   14.460    0.3852
   14.490    0.4815
   14.520    0.2782
   14.550    0.4387
   14.580    0.5671
   14.610    0.5243
   14.640    0.3852
   14.670    0.3638
   14.700    0.4494
   14.730    0.4494
   14.760    0.4494
   14.790    0.2889
   14.820    0.4066
   14.850    0.4066
   14.880    0.3638
   14.910    0.2782
   14.940    0.3959
   14.970    0.3103
   15.000    0.3638
   15.030    0.5243
   15.060    0.4173
   15.090    0.4066
   15.120    0.3959
   15.150    0.4066
   15.180    0.3852
   15.210    0.3959
   15.240    0.3424
   15.270    0.4601
   15.300    0.4601
   15.330    0.4815
   15.360    0.4173
   15.390    0.3424
   15.420    0.3852
   15.450    0.3638
   15.480    0.4387
   15.510    0.4815
   15.540    0.4922
   15.570    0.2996
   15.600    0.3531
   15.630    0.4280
   15.660    0.3638
   15.690    0.4173
   15.720    0.3638
   15.750    0.4173
   15.780    0.3852
   15.810    0.5136
   15.840    0.4387
   15.870    0.3638
   15.900    0.5564
   15.930    0.3852
   15.960    0.3852
   15.990    0.3745
   16.020    0.4066
   16.050    0.4066
   16.080    0.3852
   16.110    0.4280
   16.140    0.3959
   16.170    0.3959
   16.200    0.4173
   16.230    0.4601
   16.260    0.4601
   16.290    0.4066
   16.320    0.4173
   16.350    0.3317
   16.380    0.3210
   16.410    0.4066
   16.440    0.2461
   16.470    0.3959
   16.500    0.4494
   16.530    0.4066
   16.560    0.4066
   16.590    0.4922
   16.620    0.4601
   16.650    0.4708
   16.680    0.4708
   16.710    0.3745
   16.740    0.4815
   16.770    0.3959
   16.800    0.3210
   16.830    0.4387
   16.860    0.4387
   16.890    0.4494
   16.920    0.4601
   16.950    0.4066
   16.980    0.4922
   17.010    0.4494
   17.040    0.3531
   17.070    0.3852
   17.100    0.3959
   17.130    0.3531
   17.160    0.4173
   17.190    0.4066
   17.220    0.3210
   17.250    0.5029
   17.280    0.4280
   17.310    0.4387
   17.340    0.4066
   17.370    0.4066
   17.400    0.4280
   17.430    0.3745
   17.460    0.3959
   17.490    0.3638
   17.520    0.4173
   17.550    0.3210
   17.580    0.4601
   17.610    0.4922
   17.640    0.4601
   17.670    0.3959
   17.700    0.4173
   17.730    0.3852
   17.760    0.4066
   17.790    0.4387
   17.820    0.4280
   17.850    0.4173
   17.880    0.4387
   17.910    0.3638
   17.940    0.4280
   17.970    0.4494
   18.000    0.4708
   18.030    0.3210
   18.060    0.3210
   18.090    0.4494
   18.120    0.4601
   18.150    0.3103
   18.180    0.4387
   18.210    0.4066
   18.240    0.4280
   18.270    0.4173
   18.300    0.4494
   18.330    0.4387
   18.360    0.4601
   18.390    0.2996
   18.420    0.3745
   18.450    0.3210
   18.480    0.4066
   18.510    0.3852
   18.540    0.3745
   18.570    0.4280
   18.600    0.3424
   18.630    0.4601
   18.660    0.5136
   18.690    0.4066
   18.720    0.4173
   18.750    0.4708
   18.780    0.3745
   18.810    0.5029
   18.840    0.4173
   18.870    0.4494
   18.900    0.4066
   18.930    0.3317
   18.960    0.3531
   18.990    0.3531
   19.020    0.3638
   19.050    0.3103
   19.080    0.3103
   19.110    0.2996
   19.140    0.3638
   19.170    0.4387
   19.200    0.3424
   19.230    0.3959
   19.260    0.3959
   19.290    0.4387
   19.320    0.4387
   19.350    0.4173
   19.380    0.5671
   19.410    0.4601
   19.440    0.4387
   19.470    0.3745
   19.500    0.4387
   19.530    0.3852
   19.560    0.3959
   19.590    0.4708
   19.620    0.3852
   19.650    0.3424
   19.680    0.2996
   19.710    0.3852
   19.740    0.4066
   19.770    0.4387
   19.800    0.4922
   19.830    0.3531
   19.860    0.4815
   19.890    0.3745
   19.920    0.3103
   19.950    0.4708
   19.980    0.3852
   20.010    0.3959
   20.040    0.4387
   20.070    0.4066
   20.100    0.4173
   20.130    0.3959
   20.160    0.5243
   20.190    0.4387
   20.220    0.3210
   20.250    0.4494
   20.280    0.4066
   20.310    0.3531
   20.340    0.4066
   20.370    0.4708
   20.400    0.3531
   20.430    0.4066
   20.460    0.3745
   20.490    0.4922
   20.520    0.4708
   20.550    0.3210
   20.580    0.4066
   20.610    0.3852
   20.640    0.5029
   20.670    0.4815
   20.700    0.4387
   20.730    0.4815
   20.760    0.4494
   20.790    0.4387
   20.820    0.5136
   20.850    0.5136
   20.880    0.3531
   20.910    0.4494
   20.940    0.3210
   20.970    0.4708
   21.000    0.4601
   21.030    0.3852
   21.060    0.3745
   21.090    0.4494
   21.120    0.5029
   21.150    0.3959
   21.180    0.4066
   21.210    0.4066
   21.240    0.3638
   21.270    0.3852
   21.300    0.4387
   21.330    0.4387
   21.360    0.3531
   21.390    0.3852
   21.420    0.3638
   21.450    0.4173
   21.480    0.4280
   21.510    0.3424
   21.540    0.5243
   21.570    0.4387
   21.600    0.3638
   21.630    0.3959
   21.660    0.4494
   21.690    0.5029
   21.720    0.3531
   21.750    0.3852
   21.780    0.3959
   21.810    0.4173
   21.840    0.4601
   21.870    0.3638
   21.900    0.4173
   21.930    0.4066
   21.960    0.4387
   21.990    0.5029
   22.020    0.4387
   22.050    0.4066
   22.080    0.4173
   22.110    0.4387
   22.140    0.4922
   22.170    0.3852
   22.200    0.3424
   22.230    0.3745
   22.260    0.3745
   22.290    0.4387
   22.320    0.4601
   22.350    0.4066
   22.380    0.4280
   22.410    0.3638
   22.440    0.4066
   22.470    0.3852
   22.500    0.4494
   22.530    0.3745
   22.560    0.4280
   22.590    0.4387
   22.620    0.3424
   22.650    0.3852
   22.680    0.4280
   22.710    0.3745
   22.740    0.4708
   22.770    0.4066
   22.800    0.4815
   22.830    0.4601
   22.860    0.4708
   22.890    0.5029
   22.920    0.3959
   22.950    0.4601
   22.980    0.3317
   23.010    0.5029
   23.040    0.3103
   23.070    0.4601
   23.100    0.4066
   23.130    0.3852
   23.160    0.4815
   23.190    0.4815
   23.220    0.4066
   23.250    0.4601
   23.280    0.4922
   23.310    0.4387
   23.340    0.4708
   23.370    0.4066
   23.400    0.3745
   23.430    0.4815
   23.460    0.4066
   23.490    0.4922
   23.520    0.4066
   23.550    0.4494
   23.580    0.4708
   23.610    0.4173
   23.640    0.3959
   23.670    0.4494
   23.700    0.5564
   23.730    0.4387
   23.760    0.5243
   23.790    0.3745
   23.820    0.4494
   23.850    0.5029
   23.880    0.4708
   23.910    0.4066
   23.940    0.3852
   23.970    0.3210
   24.000    0.5671
   24.030    0.4815
   24.060    0.3959
   24.090    0.4708
   24.120    0.4494
   24.150    0.4494
   24.180    0.3531
   24.210    0.5778
   24.240    0.5564
   24.270    0.4922
   24.300    0.4922
   24.330    0.4601
   24.360    0.5029
   24.390    0.4173
   24.420    0.4708
   24.450    0.4708
   24.480    0.5029
   24.510    0.4066
   24.540    0.4494
   24.570    0.3424
   24.600    0.5029
   24.630    0.4922
   24.660    0.4173
   24.690    0.3103
   24.720    0.4387
   24.750    0.4280
   24.780    0.4601
   24.810    0.3959
   24.840    0.4280
   24.870    0.3745
   24.900    0.5136
   24.930    0.3745
   24.960    0.5136
   24.990    0.4922
   25.020    0.5029
   25.050    0.4494
   25.080    0.3210
   25.110    0.5564
   25.140    0.3424
   25.170    0.3638
   25.200    0.4494
   25.230    0.4708
   25.260    0.4494
   25.290    0.3317
   25.320    0.4601
   25.350    0.4708
   25.380    0.4601
   25.410    0.4922
   25.440    0.4494
   25.470    0.4494
   25.500    0.4066
   25.530    0.5243
   25.560    0.5564
   25.590    0.4494
   25.620    0.4601
   25.650    0.5243
   25.680    0.4922
   25.710    0.4280
   25.740    0.5136
   25.770    0.3745
   25.800    0.5243
   25.830    0.5564
   25.860    0.5136
   25.890    0.4280
   25.920    0.5350
   25.950    0.4280
   25.980    0.4173
   26.010    0.4494
   26.040    0.4387
   26.070    0.4280
   26.100    0.4280
   26.130    0.4387
   26.160    0.5243
   26.190    0.4387
   26.220    0.4387
   26.250    0.4387
   26.280    0.5243
   26.310    0.3852
   26.340    0.4922
   26.370    0.4494
   26.400    0.4922
   26.430    0.3745
   26.460    0.5029
   26.490    0.4494
   26.520    0.3317
   26.550    0.4922
   26.580    0.4815
   26.610    0.5350
   26.640    0.4601
   26.670    0.5350
   26.700    0.5029
   26.730    0.5029
   26.760    0.3959
   26.790    0.3959
   26.820    0.4387
   26.850    0.3745
   26.880    0.4173
   26.910    0.4708
   26.940    0.4173
   26.970    0.4815
   27.000    0.5564
   27.030    0.4387
   27.060    0.4494
   27.090    0.4601
   27.120    0.4708
   27.150    0.3959
   27.180    0.5671
   27.210    0.4280
   27.240    0.4387
   27.270    0.5778
   27.300    0.4601
   27.330    0.4708
   27.360    0.3317
   27.390    0.4173
   27.420    0.4922
   27.450    0.5350
   27.480    0.4708
   27.510    0.5136
   27.540    0.4494
   27.570    0.3638
   27.600    0.5029
   27.630    0.3103
   27.660    0.4066
   27.690    0.5136
   27.720    0.5029
   27.750    0.5136
   27.780    0.4280
   27.810    0.4494
   27.840    0.4280
   27.870    0.5671
   27.900    0.4815
   27.930    0.5350
   27.960    0.4066
   27.990    0.5029
   28.020    0.4066
   28.050    0.4815
   28.080    0.4922
   28.110    0.3852
   28.140    0.3852
   28.170    0.3103
   28.200    0.5029
   28.230    0.4280
   28.260    0.3852
   28.290    0.4173
   28.320    0.4708
   28.350    0.3317
   28.380    0.3424
   28.410    0.5029
   28.440    0.4173
   28.470    0.3531
   28.500    0.4922
   28.530    0.5350
   28.560    0.3959
   28.590    0.3959
   28.620    0.4387
   28.650    0.4173
   28.680    0.3959
   28.710    0.4494
   28.740    0.4922
   28.770    0.4815
   28.800    0.4494
   28.830    0.4387
   28.860    0.4173
   28.890    0.3531
   28.920    0.4601
   28.950    0.4708
   28.980    0.4280
   29.010    0.4280
   29.040    0.4494
   29.070    0.4173
   29.100    0.6528
   29.130    0.4815
   29.160    0.4708
   29.190    0.4601
   29.220    0.5886
   29.250    0.4280
   29.280    0.4708
   29.310    0.4387
   29.340    0.3745
   29.370    0.3638
   29.400    0.3103
   29.430    0.3638
   29.460    0.5243
   29.490    0.4815
   29.520    0.4922
   29.550    0.3959
   29.580    0.4066
   29.610    0.4708
   29.640    0.3531
   29.670    0.4601
   29.700    0.3424
   29.730    0.4708
   29.760    0.3959
   29.790    0.4708
   29.820    0.3959
   29.850    0.4066
   29.880    0.4066
   29.910    0.5029
   29.940    0.4922
   29.970    0.4173
   30.000    0.3745
   30.030    0.4922
   30.060    0.4280
   30.090    0.3959
   30.120    0.4815
   30.150    0.3852
   30.180    0.4922
   30.210    0.4708
   30.240    0.3638
   30.270    0.5243
   30.300    0.5564
   30.330    0.4815
   30.360    0.4066
   30.390    0.4601
   30.420    0.4173
   30.450    0.5136
   30.480    0.3959
   30.510    0.5136
   30.540    0.3959
   30.570    0.4066
   30.600    0.3959
   30.630    0.3531
   30.660    0.3638
   30.690    0.4280
   30.720    0.3959
   30.750    0.3852
   30.780    0.4387
   30.810    0.5243
   30.840    0.4708
   30.870    0.3745
   30.900    0.4173
   30.930    0.3852
   30.960    0.4173
   30.990    0.5029
   31.020    0.3959
   31.050    0.4387
   31.080    0.3745
   31.110    0.3103
   31.140    0.4494
   31.170    0.3852
   31.200    0.2782
   31.230    0.4280
   31.260    0.3959
   31.290    0.4601
   31.320    0.4815
   31.350    0.4066
   31.380    0.4815
   31.410    0.4815
   31.440    0.3959
   31.470    0.4280
   31.500    0.4066
   31.530    0.4280
   31.560    0.4280
   31.590    0.3638
   31.620    0.3210
   31.650    0.3638
   31.680    0.4066
   31.710    0.3531
   31.740    0.4066
   31.770    0.4280
   31.800    0.3959
   31.830    0.4280
   31.860    0.4601
   31.890    0.3959
   31.920    0.3852
   31.950    0.3638
   31.980    0.4280
   32.010    0.3424
   32.040    0.4708
   32.070    0.3638
   32.100    0.4494
   32.130    0.3531
   32.160    0.3531
   32.190    0.3852
   32.220    0.4708
   32.250    0.4173
   32.280    0.4601
   32.310    0.3638
   32.340    0.4066
   32.370    0.3959
   32.400    0.3531
   32.430    0.3959
   32.460    0.3745
   32.490    0.4601
   32.520    0.2996
   32.550    0.3531
   32.580    0.4066
   32.610    0.3424
   32.640    0.4601
   32.670    0.3317
   32.700    0.4815
   32.730    0.3317
   32.760    0.3210
   32.790    0.4494
   32.820    0.3531
   32.850    0.3210
   32.880    0.3745
   32.910    0.4387
   32.940    0.3745
   32.970    0.4173
   33.000    0.4280
   33.030    0.4601
   33.060    0.2568
   33.090    0.3424
   33.120    0.4280
   33.150    0.3317
   33.180    0.2889
   33.210    0.3210
   33.240    0.3959
   33.270    0.2996
   33.300    0.3531
   33.330    0.3638
   33.360    0.4494
   33.390    0.3317
   33.420    0.4066
   33.450    0.2782
   33.480    0.2889
   33.510    0.3959
   33.540    0.4280
   33.570    0.3210
   33.600    0.3852
   33.630    0.3638
   33.660    0.4601
   33.690    0.3210
   33.720    0.3959
   33.750    0.3317
   33.780    0.3317
   33.810    0.3638
   33.840    0.3317
   33.870    0.4815
   33.900    0.4708
   33.930    0.3959
   33.960    0.3531
   33.990    0.3638
   34.020    0.4066
   34.050    0.3531
   34.080    0.3210
   34.110    0.3638
   34.140    0.3531
   34.170    0.3852
   34.200    0.3959
   34.230    0.3210
   34.260    0.3103
   34.290    0.3852
   34.320    0.3103
   34.350    0.3103
   34.380    0.3317
   34.410    0.5243
   34.440    0.2889
   34.470    0.2354
   34.500    0.4066
   34.530    0.4173
   34.560    0.3103
   34.590    0.3317
   34.620    0.2461
   34.650    0.3103
   34.680    0.3103
   34.710    0.3852
   34.740    0.3210
   34.770    0.3745
   34.800    0.3103
   34.830    0.2889
   34.860    0.3745
   34.890    0.4494
   34.920    0.2889
   34.950    0.3210
   34.980    0.3103
   35.010    0.3531
   35.040    0.2889
   35.070    0.2675
   35.100    0.2782
   35.130    0.2996
   35.160    0.3103
   35.190    0.4387
   35.220    0.3210
   35.250    0.2568
   35.280    0.3531
   35.310    0.4173
   35.340    0.2782
   35.370    0.3424
   35.400    0.3638
   35.430    0.3317
   35.460    0.3424
   35.490    0.3210
   35.520    0.3424
   35.550    0.3210
   35.580    0.3531
   35.610    0.3317
   35.640    0.3210
   35.670    0.2568
   35.700    0.2461
   35.730    0.3317
   35.760    0.3424
   35.790    0.3852
   35.820    0.2996
   35.850    0.3531
   35.880    0.3424
   35.910    0.3424
   35.940    0.2996
   35.970    0.3103
   36.000    0.3317
   36.030    0.3424
   36.060    0.2033
   36.090    0.2782
   36.120    0.3531
   36.150    0.2889
   36.180    0.3531
   36.210    0.3103
   36.240    0.2782
   36.270    0.3745
   36.300    0.2354
   36.330    0.2568
   36.360    0.2140
   36.390    0.3103
   36.420    0.3103
   36.450    0.3424
   36.480    0.3210
   36.510    0.3210
   36.540    0.3210
   36.570    0.3638
   36.600    0.2996
   36.630    0.2996
   36.660    0.3103
   36.690    0.2568
   36.720    0.2782
   36.750    0.3210
   36.780    0.3424
   36.810    0.2782
   36.840    0.3531
   36.870    0.2996
   36.900    0.2354
   36.930    0.3210
   36.960    0.2996
   36.990    0.2782
   37.020    0.3638
   37.050    0.3638
   37.080    0.3103
   37.110    0.2889
   37.140    0.2889
   37.170    0.2140
   37.200    0.2461
   37.230    0.3210
   37.260    0.2889
   37.290    0.2996
   37.320    0.3531
   37.350    0.2568
   37.380    0.1819
   37.410    0.2675
   37.440    0.2461
   37.470    0.2782
   37.500    0.2889
   37.530    0.3638
   37.560    0.2461
   37.590    0.2354
   37.620    0.2568
   37.650    0.2782
   37.680    0.1926
   37.710    0.2568
   37.740    0.2889
   37.770    0.3210
   37.800    0.3210
   37.830    0.2889
   37.860    0.3317
   37.890    0.2568
   37.920    0.2140
   37.950    0.3210
   37.980    0.2461
   38.010    0.2354
   38.040    0.2889
   38.070    0.1712
   38.100    0.2461
   38.130    0.3103
   38.160    0.3638
   38.190    0.3210
   38.220    0.2354
   38.250    0.2675
   38.280    0.3103
   38.310    0.3210
   38.340    0.2033
   38.370    0.2782
   38.400    0.3103
   38.430    0.2889
   38.460    0.2354
   38.490    0.3103
   38.520    0.2033
   38.550    0.3103
   38.580    0.2568
   38.610    0.2247
   38.640    0.2782
   38.670    0.2461
   38.700    0.2996
   38.730    0.2675
   38.760    0.2461
   38.790    0.2354
   38.820    0.3103
   38.850    0.2140
   38.880    0.2354
   38.910    0.2782
   38.940    0.2247
   38.970    0.2140
   39.000    0.2675
   39.030    0.2140
   39.060    0.3424
   39.090    0.1712
   39.120    0.2354
   39.150    0.1712
   39.180    0.2568
   39.210    0.2782
   39.240    0.2354
   39.270    0.2996
   39.300    0.2889
   39.330    0.3210
   39.360    0.2354
   39.390    0.2996
   39.420    0.2033
   39.450    0.3210
   39.480    0.2247
   39.510    0.2675
   39.540    0.2461
   39.570    0.2461
   39.600    0.2889
   39.630    0.2568
   39.660    0.2140
   39.690    0.2675
   39.720    0.2033
   39.750    0.2033
   39.780    0.2247
   39.810    0.2461
   39.840    0.2461
   39.870    0.2782
   39.900    0.1498
   39.930    0.2033
   39.960    0.2247
   39.990    0.2461