File: data/PXRD/PXRD_KE-048-3_Cu-Ka1_capillary-1mm_5s-deg.xyd
    1.500   39.4523
    1.530   39.2838
    1.560   38.8310
    1.590   39.0100
    1.620   37.3986
    1.650   37.1143
    1.680   37.4197
    1.710   35.7451
    1.740   36.1348
    1.770   35.2923
    1.800   34.7130
    1.830   33.7967
    1.860   33.7651
    1.890   32.4487
    1.920   32.9542
    1.950   33.2701
    1.980   32.7120
    2.010   31.1532
    2.040   31.2059
    2.070   31.3849
    2.100   32.0274
    2.130   31.2796
    2.160   32.3223
    2.190   31.7430
    2.220   31.3218
    2.250   31.9642
    2.280   32.1643
    2.310   32.2696
    2.340   33.6072
    2.370   33.6072
    2.400   33.7441
    2.430   35.0606
    2.460   34.9447
    2.490   34.8605
    2.520   36.3244
    2.550   36.0084
    2.580   37.7672
    2.610   39.1680
    2.640   40.3054
    2.670   41.5061
    2.700   42.9384
    2.730   44.5814
    2.760   46.9721
    2.790   47.7514
    2.820   49.3418
    2.850   52.3223
    2.880   54.6709
    2.910   57.3776
    2.940   59.3997
    2.970   62.7278
    3.000   66.6035
    3.030   70.1211
    3.060   74.9236
    3.090   79.4945
    3.120   85.9610
    3.150   90.3950
    3.180   97.9884
    3.210  106.3613
    3.240  113.0806
    3.270  124.3813
    3.300  137.5777
    3.330  151.3639
    3.360  169.0995
    3.390  195.7873
    3.420  225.0342
    3.450  259.1996
    3.480  275.7136
    3.510  251.2902
    3.540  187.9937
    3.570  126.9194
    3.600  100.2001
    3.630   90.6266
    3.660   89.6788
    3.690   91.7430
    3.720  100.0000
    3.750  110.2580
    3.780  120.5477
    3.810  134.0811
    3.840  152.9121
    3.870  170.0053
    3.900  179.2733
    3.930  173.3860
    3.960  150.0053
    3.990  116.1138
    4.020   84.4655
    4.050   60.6635
    4.080   42.6856
    4.110   32.2170
    4.140   26.1822
    4.170   21.9905
    4.200   19.3154
    4.230   17.2091
    4.260   15.7767
    4.290   13.9442
    4.320   13.5545
    4.350   12.2380
    4.380   12.3960
    4.410   12.0800
    4.440   11.4903
    4.470   11.1743
    4.500   10.8583
    4.530   10.6266
    4.560   10.0685
    4.590   10.2686
    4.620    9.6367
    4.650   10.1001
    4.680    9.8789
    4.710    9.4892
    4.740    9.5313
    4.770    9.4892
    4.800    9.1943
    4.830    9.5735
    4.860    8.8468
    4.890    9.3523
    4.920    9.3418
    4.950    9.8052
    4.980    9.5524
    5.010    9.6261
    5.040    9.0469
    5.070    8.9837
    5.100    9.4155
    5.130   10.1316
    5.160    9.9315
    5.190    9.7314
    5.220    9.9315
    5.250    9.7420
    5.280    9.8052
    5.310    9.6156
    5.340    9.5840
    5.370    8.9100
    5.400    9.1522
    5.430    9.2154
    5.460    8.8362
    5.490    8.8678
    5.520    8.7098
    5.550    8.6783
    5.580    8.3518
    5.610    8.2464
    5.640    8.1517
    5.670    8.4466
    5.700    8.6045
    5.730    8.2149
    5.760    8.5308
    5.790    8.3623
    5.820    8.1622
    5.850    8.3307
    5.880    8.3202
    5.910    8.3623
    5.940    8.9837
    5.970    8.0674
    6.000    8.8362
    6.030    8.2254
    6.060    8.1411
    6.090    8.7625
    6.120    8.1306
    6.150    8.2675
    6.180    8.6677
    6.210    8.9837
    6.240    9.1943
    6.270    9.6156
    6.300    9.4576
    6.330    9.8789
    6.360    9.8684
    6.390   10.1632
    6.420   10.2370
    6.450   10.8162
    6.480   11.7325
    6.510   11.9115
    6.540   12.5118
    6.570   12.4908
    6.600   13.6809
    6.630   14.6919
    6.660   15.6398
    6.690   16.6509
    6.720   18.3149
    6.750   20.2106
    6.780   22.3170
    6.810   24.2759
    6.840   28.1306
    6.870   32.2696
    6.900   38.7783
    6.930   44.4339
    6.960   50.0790
    6.990   48.5097
    7.020   39.7578
    7.050   28.2043
    7.080   18.9573
    7.110   14.4076
    7.140   12.3433
    7.170   11.3955
    7.200   10.9005
    7.230   10.7109
    7.260   10.5424
    7.290   10.6582
    7.320   11.5956
    7.350   11.4692
    7.380   11.7430
    7.410   11.8273
    7.440   12.9015
    7.470   13.5650
    7.500   14.5129
    7.530   14.5761
    7.560   15.6082
    7.590   17.7567
    7.620   18.3781
    7.650   21.2322
    7.680   23.6124
    7.710   26.4034
    7.740   31.4797
    7.770   34.2917
    7.800   37.5461
    7.830   38.6519
    7.860   38.9152
    7.890   36.2401
    7.920   32.7751
    7.950   27.8357
    7.980   24.4023
    8.010   20.0105
    8.040   16.7562
    8.070   14.6919
    8.100   12.3539
    8.130   12.1854
    8.160   11.3323
    8.190   10.4687
    8.220    9.8262
    8.250    9.4787
    8.280    9.6998
    8.310    8.8573
    8.340    9.1627
    8.370    8.6256
    8.400    8.5940
    8.430    8.3412
    8.460    8.3412
    8.490    8.1095
    8.520    8.5413
    8.550    8.5097
    8.580    7.8041
    8.610    7.9305
    8.640    7.5619
    8.670    8.0885
    8.700    8.0674
    8.730    7.8778
    8.760    7.6883
    8.790    7.7936
    8.820    7.6988
    8.850    7.9410
    8.880    7.6040
    8.910    7.7514
    8.940    8.2570
    8.970    8.0042
    9.000    7.5619
    9.030    7.7093
    9.060    7.4671
    9.090    7.7093
    9.120    8.2675
    9.150    7.6777
    9.180    7.7199
    9.210    7.4776
    9.240    7.4776
    9.270    8.1517
    9.300    7.6883
    9.330    7.6988
    9.360    7.5408
    9.390    7.9621
    9.420    7.9516
    9.450    7.4144
    9.480    7.9516
    9.510    7.4144
    9.540    8.0674
    9.570    7.6883
    9.600    7.6356
    9.630    7.4250
    9.660    8.0358
    9.690    8.0042
    9.720    7.5829
    9.750    8.0147
    9.780    7.9937
    9.810    7.3618
    9.840    7.6567
    9.870    7.7830
    9.900    7.9726
    9.930    8.2043
    9.960    7.8252
    9.990    8.1201
   10.020    7.9831
   10.050    8.2991
   10.080    7.8778
   10.110    7.9200
   10.140    7.8989
   10.170    7.7620
   10.200    8.0463
   10.230    8.1622
   10.260    8.4887
   10.290    7.9726
   10.320    8.5729
   10.350    8.2359
   10.380    8.8152
   10.410    8.7730
   10.440    9.3418
   10.470    8.5519
   10.500    9.1838
   10.530    8.7309
   10.560    8.4150
   10.590    7.8989
   10.620    8.0779
   10.650    8.3939
   10.680    8.3939
   10.710    8.0674
   10.740    8.1727
   10.770    7.9937
   10.800    7.8252
   10.830    7.7620
   10.860    7.5513
   10.890    7.3934
   10.920    8.0042
   10.950    7.8673
   10.980    8.2254
   11.010    8.1306
   11.040    8.2675
   11.070    8.2991
   11.100    7.5935
   11.130    7.8568
   11.160    7.9621
   11.190    8.0569
   11.220    8.1938
   11.250    8.1622
   11.280    8.6467
   11.310    8.2991
   11.340    8.2254
   11.370    8.4255
   11.400    8.7625
   11.430    9.0363
   11.460    8.8152
   11.490    8.7309
   11.520    9.3312
   11.550    9.4365
   11.580    9.6156
   11.610    9.8578
   11.640   10.2686
   11.670   10.3212
   11.700   10.5529
   11.730   11.2480
   11.760   10.7846
   11.790   11.0795
   11.820   10.4055
   11.850   10.4687
   11.880   10.4581
   11.910   10.3528
   11.940    9.8578
   11.970    8.7836
   12.000    9.1311
   12.030    8.9731
   12.060    8.8784
   12.090    8.4676
   12.120    8.1411
   12.150    8.2254
   12.180    8.0990
   12.210    8.1306
   12.240    7.7304
   12.270    7.8357
   12.300    8.4255
   12.330    8.2043
   12.360    8.0674
   12.390    7.5935
   12.420    7.7409
   12.450    8.0674
   12.480    8.5203
   12.510    8.1622
   12.540    8.3096
   12.570    8.4150
   12.600    8.2043
   12.630    7.7830
   12.660    8.0674
   12.690    8.1201
   12.720    7.9621
   12.750    7.8884
   12.780    8.0253
   12.810    8.7941
   12.840    8.1095
   12.870    8.6783
   12.900    8.3834
   12.930    8.5940
   12.960    8.5835
   12.990    8.7520
   13.020    8.0885
   13.050    8.7941
   13.080    8.8152
   13.110    8.5940
   13.140    8.9415
   13.170    8.6467
   13.200    8.7520
   13.230    7.9831
   13.260    8.1095
   13.290    8.5519
   13.320    8.3728
   13.350    8.8889
   13.380    8.1938
   13.410    8.0990
   13.440    7.7620
   13.470    8.2359
   13.500    8.2780
   13.530    8.0674
   13.560    7.6251
   13.590    8.0674
   13.620    7.6883
   13.650    8.2886
   13.680    8.3202
   13.710    7.5197
   13.740    8.0569
   13.770    7.7409
   13.800    7.8146
   13.830    7.9305
   13.860    7.9621
   13.890    7.5619
   13.920    8.0779
   13.950    7.3618
   13.980    7.2354
   14.010    7.3618
   14.040    7.5724
   14.070    7.8989
   14.100    7.8146
   14.130    7.6672
   14.160    7.4987
   14.190    7.5829
   14.220    7.7093
   14.250    7.2565
   14.280    7.7830
   14.310    7.5092
   14.340    8.0885
   14.370    7.7725
   14.400    8.0042
   14.430    8.0253
   14.460    7.5092
   14.490    7.4144
   14.520    7.6251
   14.550    7.7830
   14.580    7.5829
   14.610    7.5197
   14.640    7.6040
   14.670    7.9200
   14.700    7.8252
   14.730    7.9094
   14.760    7.7620
   14.790    8.0253
   14.820    7.7620
   14.850    8.1201
   14.880    8.3096
   14.910    7.9621
   14.940    7.7514
   14.970    8.0674
   15.000    7.9305
   15.030    8.3518
   15.060    7.5935
   15.090    8.3518
   15.120    8.2254
   15.150    8.0463
   15.180    8.1938
   15.210    8.0042
   15.240    7.8989
   15.270    8.0042
   15.300    8.4044
   15.330    8.3096
   15.360    7.9937
   15.390    8.0990
   15.420    8.5097
   15.450    8.3939
   15.480    8.4466
   15.510    9.0363
   15.540    8.6677
   15.570    8.3939
   15.600    8.4255
   15.630    8.9310
   15.660    8.6151
   15.690    8.5413
   15.720    8.3623
   15.750    8.8678
   15.780    8.6572
   15.810    8.4571
   15.840    8.2991
   15.870    8.5519
   15.900    8.1727
   15.930    8.0463
   15.960    7.8673
   15.990    8.1833
   16.020    7.5513
   16.050    8.1201
   16.080    7.7725
   16.110    7.3723
   16.140    7.5513
   16.170    7.6567
   16.200    7.7199
   16.230    8.2886
   16.260    7.7725
   16.290    7.6883
   16.320    7.7199
   16.350    7.3407
   16.380    7.6040
   16.410    7.1827
   16.440    8.2149
   16.470    7.4144
   16.500    7.7620
   16.530    7.3091
   16.560    7.2354
   16.590    7.2459
   16.620    7.6461
   16.650    7.4566
   16.680    7.3618
   16.710    7.6567
   16.740    7.6883
   16.770    7.4671
   16.800    7.4987
   16.830    7.6672
   16.860    7.6040
   16.890    7.5197
   16.920    7.7620
   16.950    7.6356
   16.980    7.3512
   17.010    7.6883
   17.040    6.9616
   17.070    7.0774
   17.100    7.3618
   17.130    7.5829
   17.160    7.3828
   17.190    7.4987
   17.220    7.8041
   17.250    7.9621
   17.280    7.5724
   17.310    7.6883
   17.340    7.9726
   17.370    8.0674
   17.400    8.2991
   17.430    7.9305
   17.460    8.2675
   17.490    8.0990
   17.520    8.3623
   17.550    8.2886
   17.580    8.3623
   17.610    8.1938
   17.640    7.9831
   17.670    8.3939
   17.700    8.3096
   17.730    8.3096
   17.760    8.4676
   17.790    8.0674
   17.820    7.9305
   17.850    8.3096
   17.880    7.9410
   17.910    8.0990
   17.940    8.2886
   17.970    8.2254
   18.000    7.8778
   18.030    8.1306
   18.060    8.4571
   18.090    7.8041
   18.120    8.0569
   18.150    8.0358
   18.180    7.6777
   18.210    8.2780
   18.240    8.1411
   18.270    8.1938
   18.300    7.8462
   18.330    8.3202
   18.360    8.0990
   18.390    8.3096
   18.420    8.2570
   18.450    7.6883
   18.480    8.0253
   18.510    7.5092
   18.540    7.8357
   18.570    7.5513
   18.600    7.6145
   18.630    7.6883
   18.660    7.5619
   18.690    7.6251
   18.720    7.6040
   18.750    8.0569
   18.780    7.8146
   18.810    7.5303
   18.840    7.9094
   18.870    7.6251
   18.900    7.6672
   18.930    7.8884
   18.960    7.6672
   18.990    7.8252
   19.020    7.5303
   19.050    7.6251
   19.080    7.6672
   19.110    7.7514
   19.140    7.7725
   19.170    8.3096
   19.200    7.6567
   19.230    8.0674
   19.260    8.5519
   19.290    7.6356
   19.320    8.0253
   19.350    8.5413
   19.380    8.2043
   19.410    7.9937
   19.440    8.4466
   19.470    8.4150
   19.500    8.1306
   19.530    8.3728
   19.560    8.4360
   19.590    8.8573
   19.620    8.8784
   19.650    8.5519
   19.680    8.6888
   19.710    8.1727
   19.740    8.5729
   19.770    9.0995
   19.800    8.7520
   19.830    8.9626
   19.860    8.9731
   19.890    9.0890
   19.920    9.1206
   19.950    8.4781
   19.980    9.2891
   20.010    8.7625
   20.040    8.8362
   20.070    9.6998
   20.100    9.4050
   20.130    9.5419
   20.160    9.5103
   20.190    9.0679
   20.220    9.6472
   20.250    9.0890
   20.280    9.3839
   20.310    8.9731
   20.340    9.3734
   20.370    9.5524
   20.400    9.2680
   20.430    9.4576
   20.460    9.2575
   20.490    8.5413
   20.520    9.1943
   20.550    9.1101
   20.580    9.1627
   20.610    9.0890
   20.640    8.8362
   20.670    8.8678
   20.700    8.7204
   20.730    9.1732
   20.760    8.7625
   20.790    9.3734
   20.820    9.5103
   20.850    9.2048
   20.880    9.2680
   20.910    9.5103
   20.940    9.4576
   20.970    9.8262
   21.000    9.8578
   21.030    9.8052
   21.060    9.7420
   21.090   10.2791
   21.120    9.6577
   21.150    9.0890
   21.180    9.5945
   21.210    9.2575
   21.240    9.3734
   21.270    9.4155
   21.300    9.3523
   21.330    9.0047
   21.360    9.4471
   21.390    8.8468
   21.420    8.9310
   21.450    8.9942
   21.480    9.0574
   21.510    9.0047
   21.540    8.5940
   21.570    8.9837
   21.600    8.5413
   21.630    8.4571
   21.660    8.9626
   21.690    8.6467
   21.720    8.7520
   21.750    9.0995
   21.780    8.4887
   21.810    8.3939
   21.840    8.9837
   21.870    8.9415
   21.900    8.7730
   21.930    9.0047
   21.960    8.7520
   21.990    8.8994
   22.020    9.1417
   22.050    9.1522
   22.080    9.6051
   22.110    8.8994
   22.140    9.7630
   22.170    9.0258
   22.200    9.5840
   22.230    9.2996
   22.260    9.5524
   22.290    9.9631
   22.320    9.6367
   22.350    9.5945
   22.380    9.4997
   22.410    9.5419
   22.440    9.8157
   22.470    9.5735
   22.500   10.1738
   22.530    9.6788
   22.560    9.8368
   22.590    9.8157
   22.620    9.7841
   22.650   10.2159
   22.680    9.3734
   22.710    9.8999
   22.740    9.6998
   22.770    9.5945
   22.800   10.3844
   22.830    9.8578
   22.860    9.3628
   22.890    9.8052
   22.920    9.6788
   22.950    9.2680
   22.980    9.4997
   23.010    9.1206
   23.040    9.1206
   23.070    8.6888
   23.100    8.7309
   23.130    8.7414
   23.160    8.8046
   23.190    8.2254
   23.220    8.7941
   23.250    8.9731
   23.280    8.4150
   23.310    8.6045
   23.340    8.5308
   23.370    8.3623
   23.400    8.4676
   23.430    8.2254
   23.460    8.3518
   23.490    8.3412
   23.520    8.2254
   23.550    8.3307
   23.580    8.1727
   23.610    8.4887
   23.640    8.3939
   23.670    8.3834
   23.700    7.9094
   23.730    8.6467
   23.760    8.4887
   23.790    8.4676
   23.820    8.5729
   23.850    8.5519
   23.880    8.4676
   23.910    8.5940
   23.940    8.6783
   23.970    8.4044
   24.000    8.4044
   24.030    8.5835
   24.060    8.6783
   24.090    8.5940
   24.120    8.2359
   24.150    8.0779
   24.180    8.3939
   24.210    8.4150
   24.240    8.4781
   24.270    8.3518
   24.300    8.6151
   24.330    8.6467
   24.360    8.3623
   24.390    8.5835
   24.420    8.6467
   24.450    8.9415
   24.480    8.9942
   24.510    9.0995
   24.540    9.3839
   24.570    9.0679
   24.600    8.8573
   24.630    9.5524
   24.660    9.0995
   24.690    9.1417
   24.720    8.6993
   24.750    8.9626
   24.780    8.8994
   24.810    8.8046
   24.840    8.2780
   24.870    8.7414
   24.900    8.7625
   24.930    8.5203
   24.960    8.1622
   24.990    8.6467
   25.020    8.5413
   25.050    7.9937
   25.080    8.2991
   25.110    8.0990
   25.140    8.0253
   25.170    7.8989
   25.200    7.8146
   25.230    7.9621
   25.260    7.6672
   25.290    8.0569
   25.320    8.0569
   25.350    7.6883
   25.380    7.8146
   25.410    8.4466
   25.440    7.7199
   25.470    8.0569
   25.500    7.6672
   25.530    8.2675
   25.560    7.8357
   25.590    7.9831
   25.620    7.4144
   25.650    7.3934
   25.680    7.7620
   25.710    7.4776
   25.740    7.6251
   25.770    7.4776
   25.800    7.4987
   25.830    7.9516
   25.860    7.8462
   25.890    7.4250
   25.920    7.8673
   25.950    7.6145
   25.980    7.7725
   26.010    7.5935
   26.040    7.8673
   26.070    7.4250
   26.100    8.1411
   26.130    8.0358
   26.160    7.6988
   26.190    7.8778
   26.220    7.8041
   26.250    7.8884
   26.280    7.8462
   26.310    8.1517
   26.340    8.0042
   26.370    7.8989
   26.400    7.6251
   26.430    7.7304
   26.460    7.6988
   26.490    7.0458
   26.520    7.7304
   26.550    7.6777
   26.580    7.5513
   26.610    7.8673
   26.640    7.3196
   26.670    7.8778
   26.700    7.7830
   26.730    7.9305
   26.760    7.9094
   26.790    7.4776
   26.820    7.7830
   26.850    7.8778
   26.880    7.5092
   26.910    7.8884
   26.940    7.9937
   26.970    7.1195
   27.000    7.6145
   27.030    7.3723
   27.060    7.7514
   27.090    7.7304
   27.120    7.6145
   27.150    7.2565
   27.180    7.6356
   27.210    7.5197
   27.240    7.9305
   27.270    7.4039
   27.300    7.6461
   27.330    7.6883
   27.360    7.6567
   27.390    7.8357
   27.420    7.5829
   27.450    7.6777
   27.480    7.5935
   27.510    7.8357
   27.540    7.3828
   27.570    7.4776
   27.600    7.5724
   27.630    7.4144
   27.660    7.3934
   27.690    7.5197
   27.720    7.1195
   27.750    7.5303
   27.780    7.4355
   27.810    7.5935
   27.840    7.2249
   27.870    7.2775
   27.900    7.2354
   27.930    7.9200
   27.960    7.4882
   27.990    7.7199
   28.020    7.4566
   28.050    7.2986
   28.080    7.7725
   28.110    7.3828
   28.140    8.0463
   28.170    8.0674
   28.200    7.7725
   28.230    7.6567
   28.260    7.4039
   28.290    8.0253
   28.320    7.4566
   28.350    7.2354
   28.380    7.4144
   28.410    7.0353
   28.440    7.2459
   28.470    7.1933
   28.500    7.1827
   28.530    7.4144
   28.560    7.2459
   28.590    7.2249
   28.620    7.6251
   28.650    7.3723
   28.680    7.0458
   28.710    7.0669
   28.740    7.1406
   28.770    7.1933
   28.800    7.3302
   28.830    7.3196
   28.860    7.0985
   28.890    7.1722
   28.920    7.4144
   28.950    6.9616
   28.980    7.1301
   29.010    7.3091
   29.040    6.9721
   29.070    6.7615
   29.100    7.3091
   29.130    7.2880
   29.160    7.0985
   29.190    7.2565
   29.220    7.4039
   29.250    7.1511
   29.280    7.0669
   29.310    6.9721
   29.340    7.0142
   29.370    7.1827
   29.400    7.1406
   29.430    7.0985
   29.460    7.2459
   29.490    7.2143
   29.520    6.8878
   29.550    7.0037
   29.580    7.3723
   29.610    7.4566
   29.640    6.8246
   29.670    7.1722
   29.700    6.7930
   29.730    7.2459
   29.760    6.6772
   29.790    6.8036
   29.820    6.9405
   29.850    7.3302
   29.880    7.1617
   29.910    6.5192
   29.940    7.0669
   29.970    6.9300
   30.000    6.8878
   30.030    6.9510
   30.060    6.9510
   30.090    7.0563
   30.120    7.1406
   30.150    7.2459
   30.180    6.9826
   30.210    7.1301
   30.240    7.1933
   30.270    7.3302
   30.300    6.4350
   30.330    6.6983
   30.360    7.3723
   30.390    7.0879
   30.420    6.8984
   30.450    6.9510
   30.480    7.1090
   30.510    6.7825
   30.540    7.0458
   30.570    6.9089
   30.600    6.7825
   30.630    6.7615
   30.660    6.6035
   30.690    7.4776
   30.720    7.2670
   30.750    6.8562
   30.780    6.8878
   30.810    6.8984
   30.840    6.7930
   30.870    7.1933
   30.900    6.7404
   30.930    7.2143
   30.960    6.9300
   30.990    6.7509
   31.020    6.8984
   31.050    6.2770
   31.080    7.0037
   31.110    6.8457
   31.140    6.8878
   31.170    6.7088
   31.200    6.9300
   31.230    7.0669
   31.260    7.1195
   31.290    6.5824
   31.320    6.8984
   31.350    6.7930
   31.380    6.8562
   31.410    6.9721
   31.440    6.7825
   31.470    7.1406
   31.500    6.5508
   31.530    6.7615
   31.560    6.8457
   31.590    6.9300
   31.620    7.2670
   31.650    6.6351
   31.680    7.0879
   31.710    7.0353
   31.740    6.7088
   31.770    6.8246
   31.800    7.1301
   31.830    6.8878
   31.860    7.0353
   31.890    6.9089
   31.920    7.1827
   31.950    6.8036
   31.980    7.5408
   32.010    7.0248
   32.040    6.9826
   32.070    6.9826
   32.100    7.0985
   32.130    6.7299
   32.160    6.8457
   32.190    6.9300
   32.220    6.6877
   32.250    7.1406
   32.280    7.0879
   32.310    7.0458
   32.340    7.2670
   32.370    6.9721
   32.400    7.0142
   32.430    6.9089
   32.460    7.0879
   32.490    7.0248
   32.520    6.5824
   32.550    6.8036
   32.580    6.7509
   32.610    7.1722
   32.640    6.6561
   32.670    7.0879
   32.700    6.8036
   32.730    6.9826
   32.760    6.7299
   32.790    6.9405
   32.820    6.5403
   32.850    6.3191
   32.880    6.8141
   32.910    6.6772
   32.940    6.8457
   32.970    6.2981
   33.000    6.4771
   33.030    6.8246
   33.060    6.5403
   33.090    6.7615
   33.120    6.6561
   33.150    6.6245
   33.180    6.7193
   33.210    6.4982
   33.240    6.4455
   33.270    6.5824
   33.300    6.1717
   33.330    6.3718
   33.360    6.4034
   33.390    6.3086
   33.420    6.3823
   33.450    6.4244
   33.480    6.7720
   33.510    6.4455
   33.540    6.4876
   33.570    6.7825
   33.600    6.6245
   33.630    6.2243
   33.660    6.6351
   33.690    6.8036
   33.720    6.2454
   33.750    6.2559
   33.780    6.1401
   33.810    6.0664
   33.840    6.0769
   33.870    6.2665
   33.900    6.6456
   33.930    6.5929
   33.960    6.2665
   33.990    6.4034
   34.020    6.4560
   34.050    6.3718
   34.080    6.4455
   34.110    6.5719
   34.140    6.5508
   34.170    5.9821
   34.200    6.0348
   34.230    6.3507
   34.260    6.5508
   34.290    6.4350
   34.320    6.2349
   34.350    6.6140
   34.380    5.9084
   34.410    6.1927
   34.440    6.0664
   34.470    6.7615
   34.500    6.4982
   34.530    6.3718
   34.560    6.4876
   34.590    6.1295
   34.620    6.0242
   34.650    6.4876
   34.680    6.2981
   34.710    6.4350
   34.740    6.6035
   34.770    6.2138
   34.800    6.0137
   34.830    6.6351
   34.860    6.6667
   34.890    6.0979
   34.920    6.4350
   34.950    6.1190
   34.980    6.3402
   35.010    6.3718
   35.040    6.1611
   35.070    6.4982
   35.100    5.9400
   35.130    6.3191
   35.160    6.4034
   35.190    5.8978
   35.220    6.1085
   35.250    6.3718
   35.280    6.0348
   35.310    6.2454
   35.340    6.5719
   35.370    5.6345
   35.400    6.5508
   35.430    6.3086
   35.460    6.1927
   35.490    6.2243
   35.520    6.3296
   35.550    6.6035
   35.580    6.2243
   35.610    6.2454
   35.640    6.2454
   35.670    6.3191
   35.700    6.6456
   35.730    6.1085
   35.760    6.3823
   35.790    6.1401
   35.820    6.3402
   35.850    6.2559
   35.880    6.6772
   35.910    6.0558
   35.940    6.3191
   35.970    6.1611
   36.000    6.3612
   36.030    6.2875
   36.060    6.6351
   36.090    6.1927
   36.120    6.3928
   36.150    6.2770
   36.180    6.4034
   36.210    5.9821
   36.240    6.5824
   36.270    6.4876
   36.300    5.9294
   36.330    6.2981
   36.360    6.0348
   36.390    5.7293
   36.420    6.7615
   36.450    5.8452
   36.480    5.9294
   36.510    5.9084
   36.540    5.8031
   36.570    5.9189
   36.600    6.2243
   36.630    6.3191
   36.660    5.9505
   36.690    5.6977
   36.720    6.6140
   36.750    5.8978
   36.780    6.1506
   36.810    6.2243
   36.840    6.0664
   36.870    6.0137
   36.900    6.1085
   36.930    6.0453
   36.960    6.2349
   36.990    6.4034
   37.020    5.9084
   37.050    6.0769
   37.080    6.1190
   37.110    6.1085
   37.140    5.9084
   37.170    6.2349
   37.200    5.7293
   37.230    6.2665
   37.260    6.3718
   37.290    5.5924
   37.320    5.8662
   37.350    6.2770
   37.380    6.2559
   37.410    6.4455
   37.440    5.9926
   37.470    6.0979
   37.500    6.0558
   37.530    5.7188
   37.560    5.9821
   37.590    6.0558
   37.620    5.9610
   37.650    5.9505
   37.680    6.0979
   37.710    5.8241
   37.740    6.2454
   37.770    5.8452
   37.800    5.6767
   37.830    6.2033
   37.860    6.2033
   37.890    6.1611
   37.920    6.1085
   37.950    6.2875
   37.980    5.7293
   38.010    5.9505
   38.040    5.6345
   38.070    6.3402
   38.100    5.8452
   38.130    6.0242
   38.160    5.6661
   38.190    5.7504
   38.220    5.6977
   38.250    5.9294
   38.280    5.9716
   38.310    5.7188
   38.340    5.4028
   38.370    6.0979
   38.400    6.2454
   38.430    6.0453
   38.460    5.8662
   38.490    5.8768
   38.520    5.7399
   38.550    5.7293
   38.580    5.6345
   38.610    6.1717
   38.640    6.2243
   38.670    6.0558
   38.700    6.0664
   38.730    5.6767
   38.760    5.9400
   38.790    6.1401
   38.820    6.3507
   38.850    5.7504
   38.880    5.8241
   38.910    5.8557
   38.940    6.0348
   38.970    6.0979
   39.000    6.0348
   39.030    6.0979
   39.060    6.0558
   39.090    6.2138
   39.120    6.0032
   39.150    6.5192
   39.180    6.0664
   39.210    6.0874
   39.240    5.3818
   39.270    5.7399
   39.300    5.9505
   39.330    6.0242
   39.360    6.0874
   39.390    5.6029
   39.420    6.0453
   39.450    6.2243
   39.480    5.4450
   39.510    5.9189
   39.540    6.0769
   39.570    5.7504
   39.600    6.4350
   39.630    6.1822
   39.660    6.1401
   39.690    5.6240
   39.720    5.9716
   39.750    5.8557
   39.780    5.9821
   39.810    6.1506
   39.840    6.2559
   39.870    5.6977
   39.900    5.9926
   39.930    6.0032
   39.960    5.8452
   39.990    6.1717