File: data/PXRD/PXRD_KE-188_Cu-Ka1_capillary-1mm_5s-deg.xyd
    1.500   21.7483
    1.530   21.6535
    1.560   20.1369
    1.590   18.9258
    1.620   18.0516
    1.650   17.0195
    1.680   15.9768
    1.710   15.3133
    1.740   14.9236
    1.770   14.7867
    1.800   13.7230
    1.830   12.9226
    1.860   12.5961
    1.890   12.1011
    1.920   11.6272
    1.950   11.3428
    1.980   10.9426
    2.010   10.8899
    2.040   10.3423
    2.070    9.6156
    2.100    9.0153
    2.130    8.7625
    2.160    8.5940
    2.190    9.0574
    2.220    8.2780
    2.250    8.4781
    2.280    7.7620
    2.310    7.7093
    2.340    6.9826
    2.370    7.7304
    2.400    7.2249
    2.430    6.8773
    2.460    7.1617
    2.490    6.8773
    2.520    6.7720
    2.550    6.6245
    2.580    6.0769
    2.610    6.3718
    2.640    5.9084
    2.670    6.1085
    2.700    5.8662
    2.730    5.8978
    2.760    5.6767
    2.790    5.5924
    2.820    5.3291
    2.850    5.1711
    2.880    5.0764
    2.910    5.3712
    2.940    5.1080
    2.970    4.8341
    3.000    5.1606
    3.030    4.8447
    3.060    5.0342
    3.090    4.8973
    3.120    4.8025
    3.150    4.7288
    3.180    4.8025
    3.210    4.7709
    3.240    5.1606
    3.270    4.8868
    3.300    4.7709
    3.330    4.5814
    3.360    4.6656
    3.390    4.4550
    3.420    4.5076
    3.450    4.9184
    3.480    4.8236
    3.510    4.7604
    3.540    5.0764
    3.570    5.1080
    3.600    5.0764
    3.630    5.8452
    3.660    5.4239
    3.690    6.0979
    3.720    5.8031
    3.750    6.7193
    3.780    7.3723
    3.810    8.1411
    3.840   10.5003
    3.870   13.0174
    3.900   12.7120
    3.930    8.4571
    3.960    4.1601
    3.990    3.8968
    4.020    3.5598
    4.050    3.9916
    4.080    3.4544
    4.110    3.6651
    4.140    3.6230
    4.170    3.4334
    4.200    3.6651
    4.230    3.7915
    4.260    3.5071
    4.290    3.7177
    4.320    3.8441
    4.350    3.5808
    4.380    3.6124
    4.410    3.5492
    4.440    3.5808
    4.470    3.5492
    4.500    3.3070
    4.530    3.6230
    4.560    3.6756
    4.590    3.5071
    4.620    3.1701
    4.650    3.6440
    4.680    3.6440
    4.710    3.5914
    4.740    3.4229
    4.770    3.5492
    4.800    3.3702
    4.830    3.3386
    4.860    3.7809
    4.890    3.4439
    4.920    3.5176
    4.950    3.5387
    4.980    3.3597
    5.010    3.4334
    5.040    3.3281
    5.070    3.5914
    5.100    3.4334
    5.130    3.4860
    5.160    3.4966
    5.190    3.5914
    5.220    3.4966
    5.250    3.4018
    5.280    3.5387
    5.310    3.4755
    5.340    3.7283
    5.370    4.1390
    5.400    4.0653
    5.430    4.7815
    5.460    5.2870
    5.490    5.9505
    5.520    5.8136
    5.550    4.9605
    5.580    3.4123
    5.610    3.1385
    5.640    3.2965
    5.670    3.3281
    5.700    3.2122
    5.730    3.2017
    5.760    3.1806
    5.790    3.2649
    5.820    3.4229
    5.850    3.2438
    5.880    2.9910
    5.910    3.4439
    5.940    3.1385
    5.970    2.9173
    6.000    3.0648
    6.030    3.0121
    6.060    3.2543
    6.090    3.0964
    6.120    3.1806
    6.150    3.0016
    6.180    3.2122
    6.210    3.1806
    6.240    3.2122
    6.270    3.1912
    6.300    3.0437
    6.330    3.1174
    6.360    3.0648
    6.390    2.9595
    6.420    2.9805
    6.450    3.4018
    6.480    3.2649
    6.510    3.4650
    6.540    3.1385
    6.570    3.2017
    6.600    3.6230
    6.630    3.4966
    6.660    3.7283
    6.690    3.9600
    6.720    3.7072
    6.750    3.8441
    6.780    3.7388
    6.810    3.3807
    6.840    3.0437
    6.870    3.4544
    6.900    3.2333
    6.930    3.3597
    6.960    3.4229
    6.990    3.4860
    7.020    3.0121
    7.050    3.1174
    7.080    3.1490
    7.110    3.2227
    7.140    3.2227
    7.170    3.5071
    7.200    3.0016
    7.230    3.2965
    7.260    3.3913
    7.290    3.1280
    7.320    3.2649
    7.350    3.1912
    7.380    3.3807
    7.410    3.1174
    7.440    3.1912
    7.470    3.0648
    7.500    3.2333
    7.530    3.2122
    7.560    3.5387
    7.590    3.2859
    7.620    3.2859
    7.650    3.5598
    7.680    3.6862
    7.710    3.4544
    7.740    3.4123
    7.770    3.5071
    7.800    3.8757
    7.830    3.6546
    7.860    3.2227
    7.890    3.1280
    7.920    3.3491
    7.950    3.1912
    7.980    3.4544
    8.010    3.3702
    8.040    3.2754
    8.070    3.1701
    8.100    3.2649
    8.130    3.4334
    8.160    2.9173
    8.190    3.1490
    8.220    2.8647
    8.250    2.9910
    8.280    3.1490
    8.310    3.1912
    8.340    3.1806
    8.370    3.1701
    8.400    3.1596
    8.430    3.2543
    8.460    3.2227
    8.490    3.0648
    8.520    3.2965
    8.550    3.0858
    8.580    2.9595
    8.610    3.1069
    8.640    3.2227
    8.670    3.3597
    8.700    3.0964
    8.730    3.2333
    8.760    3.2754
    8.790    3.3702
    8.820    3.3491
    8.850    3.2122
    8.880    3.2649
    8.910    3.5492
    8.940    2.9910
    8.970    3.2438
    9.000    3.0542
    9.030    3.3386
    9.060    3.1912
    9.090    3.2859
    9.120    3.1701
    9.150    3.1490
    9.180    3.0753
    9.210    3.1069
    9.240    3.2649
    9.270    3.6756
    9.300    3.4334
    9.330    3.0226
    9.360    3.1912
    9.390    3.2438
    9.420    3.6967
    9.450    3.3070
    9.480    3.7704
    9.510    4.1074
    9.540    4.4339
    9.570    4.1390
    9.600    4.1285
    9.630    3.6756
    9.660    3.3913
    9.690    2.9595
    9.720    3.4755
    9.750    3.3913
    9.780    3.1385
    9.810    3.2754
    9.840    3.1385
    9.870    3.2227
    9.900    3.1596
    9.930    3.2543
    9.960    3.4123
    9.990    3.0648
   10.020    3.4334
   10.050    3.4018
   10.080    3.1596
   10.110    3.1912
   10.140    3.1912
   10.170    3.1280
   10.200    3.3597
   10.230    3.7072
   10.260    3.4229
   10.290    3.4755
   10.320    3.4860
   10.350    3.8441
   10.380    3.4123
   10.410    3.1596
   10.440    3.2543
   10.470    3.1174
   10.500    3.1806
   10.530    3.2438
   10.560    3.0016
   10.590    3.1912
   10.620    3.0226
   10.650    2.9805
   10.680    3.1701
   10.710    3.0332
   10.740    3.1280
   10.770    3.2122
   10.800    2.9595
   10.830    3.0753
   10.860    3.0226
   10.890    3.1806
   10.920    3.1912
   10.950    3.2333
   10.980    3.1490
   11.010    3.5282
   11.040    3.4860
   11.070    3.3807
   11.100    3.1596
   11.130    2.8541
   11.160    3.1806
   11.190    3.1912
   11.220    3.1701
   11.250    3.1701
   11.280    3.2333
   11.310    3.1806
   11.340    3.1280
   11.370    3.0121
   11.400    3.0964
   11.430    2.8752
   11.460    3.2543
   11.490    2.8436
   11.520    2.9595
   11.550    3.1069
   11.580    3.1912
   11.610    3.0016
   11.640    3.1701
   11.670    3.1806
   11.700    3.5387
   11.730    3.2438
   11.760    3.2965
   11.790    3.1596
   11.820    2.9173
   11.850    2.8120
   11.880    2.8857
   11.910    2.9489
   11.940    2.6540
   11.970    3.0858
   12.000    2.7909
   12.030    3.0332
   12.060    2.8436
   12.090    3.1069
   12.120    2.9489
   12.150    3.0437
   12.180    3.1701
   12.210    3.0226
   12.240    2.7804
   12.270    3.0226
   12.300    2.9805
   12.330    3.0858
   12.360    3.0332
   12.390    3.0858
   12.420    2.7699
   12.450    2.8752
   12.480    2.9910
   12.510    2.8015
   12.540    3.0648
   12.570    3.0542
   12.600    2.7699
   12.630    3.0858
   12.660    2.8436
   12.690    2.9595
   12.720    3.0542
   12.750    3.1069
   12.780    3.0964
   12.810    2.9910
   12.840    2.8225
   12.870    2.8647
   12.900    2.9068
   12.930    2.8331
   12.960    3.0964
   12.990    3.1701
   13.020    2.8857
   13.050    3.1385
   13.080    2.8015
   13.110    2.9489
   13.140    2.7804
   13.170    2.8331
   13.200    3.0648
   13.230    2.6751
   13.260    2.9384
   13.290    2.5382
   13.320    2.9384
   13.350    2.8857
   13.380    2.8436
   13.410    2.9384
   13.440    2.6856
   13.470    2.9173
   13.500    3.2017
   13.530    2.8436
   13.560    2.8857
   13.590    2.7804
   13.620    2.8647
   13.650    2.6751
   13.680    2.8857
   13.710    3.0121
   13.740    3.0121
   13.770    3.0858
   13.800    2.6751
   13.830    2.9489
   13.860    2.6435
   13.890    2.8963
   13.920    2.6646
   13.950    2.8963
   13.980    2.9173
   14.010    2.9068
   14.040    2.9489
   14.070    2.8647
   14.100    2.9384
   14.130    2.7383
   14.160    2.9489
   14.190    2.7383
   14.220    2.8857
   14.250    3.0437
   14.280    2.8120
   14.310    2.7699
   14.340    2.7804
   14.370    2.6751
   14.400    2.8963
   14.430    3.3070
   14.460    2.7278
   14.490    3.0226
   14.520    3.0226
   14.550    2.8120
   14.580    2.6435
   14.610    2.7488
   14.640    2.8963
   14.670    2.9595
   14.700    2.7699
   14.730    3.0332
   14.760    3.0226
   14.790    2.8963
   14.820    3.0226
   14.850    2.6119
   14.880    2.7593
   14.910    2.6646
   14.940    2.7699
   14.970    2.6540
   15.000    2.8331
   15.030    2.9068
   15.060    2.5592
   15.090    2.6646
   15.120    2.7909
   15.150    2.9173
   15.180    2.8963
   15.210    2.7909
   15.240    2.8331
   15.270    3.0858
   15.300    2.7383
   15.330    2.9173
   15.360    3.0332
   15.390    2.8015
   15.420    2.7383
   15.450    3.0753
   15.480    3.0542
   15.510    2.9595
   15.540    2.9700
   15.570    3.0226
   15.600    3.0542
   15.630    2.8857
   15.660    3.0753
   15.690    3.0964
   15.720    2.9595
   15.750    2.9489
   15.780    2.8120
   15.810    2.9384
   15.840    2.9384
   15.870    2.9910
   15.900    3.0016
   15.930    3.0121
   15.960    2.9910
   15.990    2.9700
   16.020    3.2227
   16.050    3.1701
   16.080    2.9910
   16.110    3.2543
   16.140    3.5071
   16.170    3.0964
   16.200    3.1912
   16.230    3.0858
   16.260    2.9910
   16.290    3.3070
   16.320    3.3070
   16.350    2.9700
   16.380    3.1280
   16.410    3.0753
   16.440    2.8752
   16.470    2.9279
   16.500    3.0542
   16.530    2.8752
   16.560    2.9805
   16.590    3.1701
   16.620    3.0437
   16.650    2.9805
   16.680    2.7383
   16.710    3.0858
   16.740    2.8647
   16.770    3.0016
   16.800    2.9700
   16.830    2.9910
   16.860    2.9068
   16.890    2.8331
   16.920    2.7172
   16.950    2.8752
   16.980    3.0964
   17.010    2.9595
   17.040    3.0226
   17.070    3.0542
   17.100    2.8752
   17.130    3.1385
   17.160    2.9068
   17.190    2.6646
   17.220    2.7804
   17.250    3.1596
   17.280    2.6962
   17.310    2.6751
   17.340    2.7172
   17.370    3.2754
   17.400    2.9489
   17.430    2.7383
   17.460    2.7593
   17.490    2.8857
   17.520    2.7804
   17.550    3.0332
   17.580    3.1596
   17.610    3.0437
   17.640    3.0332
   17.670    3.0858
   17.700    3.2017
   17.730    2.8647
   17.760    3.0437
   17.790    3.1806
   17.820    3.0437
   17.850    2.9910
   17.880    3.0016
   17.910    2.7172
   17.940    2.6646
   17.970    3.0542
   18.000    2.8120
   18.030    3.0016
   18.060    2.8963
   18.090    3.0121
   18.120    2.7909
   18.150    3.0226
   18.180    2.9489
   18.210    2.6119
   18.240    2.7909
   18.270    2.8120
   18.300    3.2017
   18.330    3.1280
   18.360    2.9805
   18.390    2.8331
   18.420    2.9384
   18.450    3.0332
   18.480    2.9700
   18.510    2.9384
   18.540    2.7804
   18.570    2.9489
   18.600    2.9700
   18.630    3.0753
   18.660    2.9384
   18.690    2.6119
   18.720    2.7593
   18.750    3.1280
   18.780    2.8963
   18.810    2.7804
   18.840    3.0016
   18.870    2.8857
   18.900    3.0437
   18.930    3.2227
   18.960    3.3597
   18.990    3.6967
   19.020    3.8547
   19.050    3.8231
   19.080    3.3386
   19.110    2.7804
   19.140    2.6119
   19.170    3.0121
   19.200    2.8225
   19.230    2.9700
   19.260    3.0753
   19.290    2.5171
   19.320    2.7488
   19.350    3.0437
   19.380    2.8225
   19.410    2.9595
   19.440    3.1912
   19.470    2.7172
   19.500    2.9700
   19.530    2.7909
   19.560    2.8541
   19.590    3.0226
   19.620    2.9805
   19.650    3.0542
   19.680    2.9700
   19.710    2.9700
   19.740    2.7172
   19.770    2.9700
   19.800    2.8015
   19.830    3.0648
   19.860    3.0016
   19.890    3.0964
   19.920    3.0753
   19.950    2.8857
   19.980    2.7488
   20.010    3.0332
   20.040    3.0226
   20.070    3.0016
   20.100    2.8331
   20.130    2.9805
   20.160    2.9384
   20.190    3.0648
   20.220    2.8436
   20.250    3.0753
   20.280    3.0121
   20.310    3.0226
   20.340    2.8436
   20.370    2.7909
   20.400    3.2543
   20.430    2.7804
   20.460    2.9595
   20.490    3.0226
   20.520    2.9489
   20.550    2.9279
   20.580    2.9279
   20.610    3.0648
   20.640    2.9700
   20.670    3.0226
   20.700    3.1069
   20.730    3.1596
   20.760    2.8436
   20.790    3.0226
   20.820    2.9384
   20.850    2.9173
   20.880    2.8331
   20.910    3.1174
   20.940    2.8225
   20.970    2.7909
   21.000    3.0016
   21.030    2.9595
   21.060    3.0332
   21.090    2.9595
   21.120    2.8541
   21.150    3.0226
   21.180    2.8857
   21.210    2.8225
   21.240    2.8541
   21.270    3.1174
   21.300    3.1174
   21.330    2.7699
   21.360    3.1174
   21.390    2.9173
   21.420    3.0858
   21.450    2.8225
   21.480    2.9805
   21.510    2.8647
   21.540    3.0858
   21.570    3.0753
   21.600    2.8857
   21.630    2.9595
   21.660    2.9384
   21.690    2.9279
   21.720    3.0964
   21.750    2.9805
   21.780    3.0437
   21.810    2.9805
   21.840    3.1596
   21.870    2.9595
   21.900    3.1280
   21.930    3.3491
   21.960    3.0121
   21.990    2.8752
   22.020    2.9910
   22.050    2.8647
   22.080    2.9068
   22.110    2.8225
   22.140    2.9910
   22.170    3.4439
   22.200    3.0332
   22.230    2.9910
   22.260    2.9279
   22.290    2.9700
   22.320    3.0648
   22.350    2.9805
   22.380    3.2227
   22.410    2.9595
   22.440    2.7699
   22.470    2.8857
   22.500    2.8015
   22.530    3.2333
   22.560    3.3386
   22.590    3.6546
   22.620    3.0964
   22.650    3.3807
   22.680    3.0858
   22.710    2.9805
   22.740    2.8541
   22.770    2.7383
   22.800    3.0542
   22.830    2.8541
   22.860    3.0858
   22.890    2.8752
   22.920    3.4123
   22.950    2.9700
   22.980    2.8647
   23.010    2.8541
   23.040    3.1174
   23.070    3.4334
   23.100    3.0121
   23.130    2.9279
   23.160    2.9700
   23.190    3.3070
   23.220    3.0332
   23.250    3.1174
   23.280    2.8857
   23.310    2.9700
   23.340    2.9805
   23.370    2.8120
   23.400    2.8541
   23.430    2.7593
   23.460    2.5592
   23.490    2.8857
   23.520    3.1701
   23.550    3.2754
   23.580    2.9173
   23.610    3.4229
   23.640    2.8647
   23.670    2.8752
   23.700    2.9489
   23.730    2.9805
   23.760    2.9068
   23.790    3.0332
   23.820    2.8541
   23.850    2.9805
   23.880    3.1385
   23.910    2.7909
   23.940    2.7067
   23.970    2.7593
   24.000    2.8647
   24.030    3.2122
   24.060    3.1490
   24.090    2.9910
   24.120    3.0226
   24.150    2.8963
   24.180    2.9910
   24.210    2.7172
   24.240    2.8647
   24.270    3.0964
   24.300    3.1069
   24.330    2.7067
   24.360    2.8647
   24.390    3.0648
   24.420    2.9068
   24.450    2.9700
   24.480    2.9068
   24.510    2.7699
   24.540    3.0542
   24.570    2.8647
   24.600    2.8963
   24.630    2.9595
   24.660    2.9279
   24.690    2.7909
   24.720    2.8225
   24.750    2.9384
   24.780    2.9279
   24.810    2.8541
   24.840    2.9700
   24.870    2.9384
   24.900    2.8331
   24.930    2.9068
   24.960    2.8225
   24.990    2.8225
   25.020    2.7383
   25.050    2.7383
   25.080    2.9173
   25.110    2.8857
   25.140    2.8436
   25.170    2.7699
   25.200    3.0016
   25.230    2.9384
   25.260    3.0226
   25.290    2.6962
   25.320    2.8752
   25.350    2.8015
   25.380    2.8120
   25.410    2.6962
   25.440    2.7278
   25.470    3.2438
   25.500    3.1174
   25.530    2.8120
   25.560    2.6330
   25.590    3.1385
   25.620    3.1385
   25.650    2.8331
   25.680    2.9595
   25.710    2.7278
   25.740    2.6856
   25.770    2.7488
   25.800    3.0332
   25.830    2.7909
   25.860    3.0753
   25.890    2.8647
   25.920    3.0016
   25.950    3.2227
   25.980    2.7593
   26.010    2.9068
   26.040    2.7067
   26.070    2.6119
   26.100    2.7067
   26.130    2.8857
   26.160    3.0753
   26.190    3.0437
   26.220    3.2649
   26.250    2.6751
   26.280    2.7804
   26.310    2.8647
   26.340    2.7909
   26.370    2.9279
   26.400    2.5698
   26.430    2.8752
   26.460    2.8120
   26.490    2.6751
   26.520    2.5908
   26.550    2.6646
   26.580    2.7488
   26.610    2.9489
   26.640    2.5382
   26.670    2.7278
   26.700    2.8647
   26.730    2.8963
   26.760    2.7488
   26.790    2.7804
   26.820    3.0753
   26.850    2.9805
   26.880    2.6962
   26.910    2.6646
   26.940    2.7699
   26.970    2.9279
   27.000    2.6119
   27.030    2.6330
   27.060    2.7278
   27.090    2.9700
   27.120    2.7172
   27.150    2.8752
   27.180    2.6330
   27.210    2.7278
   27.240    2.5803
   27.270    2.5698
   27.300    2.8331
   27.330    2.6435
   27.360    2.9910
   27.390    2.6962
   27.420    2.6646
   27.450    2.4961
   27.480    2.5698
   27.510    2.8436
   27.540    2.8015
   27.570    2.6751
   27.600    2.8436
   27.630    2.6751
   27.660    2.8541
   27.690    2.6856
   27.720    2.7172
   27.750    2.7278
   27.780    2.5382
   27.810    2.8857
   27.840    2.8331
   27.870    2.4118
   27.900    2.6540
   27.930    3.0332
   27.960    3.2754
   27.990    3.4334
   28.020    3.4860
   28.050    3.7072
   28.080    3.2227
   28.110    3.0858
   28.140    2.8225
   28.170    2.7909
   28.200    2.8331
   28.230    2.7593
   28.260    2.6119
   28.290    2.6751
   28.320    2.6330
   28.350    2.7593
   28.380    2.7488
   28.410    2.6646
   28.440    2.7909
   28.470    2.4855
   28.500    2.6540
   28.530    2.4961
   28.560    2.4961
   28.590    2.5382
   28.620    2.9173
   28.650    2.5382
   28.680    2.7383
   28.710    2.5698
   28.740    2.6435
   28.770    2.7172
   28.800    2.8225
   28.830    2.7172
   28.860    2.7383
   28.890    2.6751
   28.920    2.8541
   28.950    3.2649
   28.980    3.3913
   29.010    3.3702
   29.040    3.4229
   29.070    2.9595
   29.100    2.5592
   29.130    2.7593
   29.160    2.8120
   29.190    2.5908
   29.220    2.7699
   29.250    2.7699
   29.280    2.5171
   29.310    2.6751
   29.340    2.6119
   29.370    3.0226
   29.400    2.6435
   29.430    2.9805
   29.460    2.6014
   29.490    2.7172
   29.520    2.5171
   29.550    2.6856
   29.580    2.4855
   29.610    2.7909
   29.640    2.7804
   29.670    2.4118
   29.700    3.0437
   29.730    2.8015
   29.760    2.6119
   29.790    2.5276
   29.820    2.6856
   29.850    2.8225
   29.880    2.6962
   29.910    2.4961
   29.940    2.4961
   29.970    2.6119
   30.000    2.5487
   30.030    2.6540
   30.060    2.6119
   30.090    2.4750
   30.120    2.5908
   30.150    2.5487
   30.180    2.5592
   30.210    2.7067
   30.240    2.7067
   30.270    2.7278
   30.300    2.6540
   30.330    2.5276
   30.360    2.6751
   30.390    2.6856
   30.420    2.4855
   30.450    2.7593
   30.480    2.7593
   30.510    2.6856
   30.540    2.7278
   30.570    2.5908
   30.600    2.6856
   30.630    2.5698
   30.660    2.6119
   30.690    2.5803
   30.720    2.5171
   30.750    2.5698
   30.780    2.5487
   30.810    2.6646
   30.840    2.4223
   30.870    2.5908
   30.900    2.7804
   30.930    2.8015
   30.960    2.5487
   30.990    2.6856
   31.020    2.5592
   31.050    2.7067
   31.080    2.8015
   31.110    2.6435
   31.140    2.6435
   31.170    2.6751
   31.200    2.5908
   31.230    2.5066
   31.260    2.6014
   31.290    2.4329
   31.320    2.6962
   31.350    2.6330
   31.380    2.5066
   31.410    2.5803
   31.440    2.4434
   31.470    2.5066
   31.500    2.5382
   31.530    2.6330
   31.560    2.6646
   31.590    2.3697
   31.620    2.6014
   31.650    2.7278
   31.680    2.7699
   31.710    2.5908
   31.740    2.9700
   31.770    2.9700
   31.800    2.9595
   31.830    3.2333
   31.860    2.9700
   31.890    2.6646
   31.920    2.6962
   31.950    2.5487
   31.980    2.7909
   32.010    2.9595
   32.040    3.1912
   32.070    3.8863
   32.100    3.9179
   32.130    3.8968
   32.160    4.1706
   32.190    3.5176
   32.220    2.6119
   32.250    2.8120
   32.280    2.5487
   32.310    2.6751
   32.340    2.8120
   32.370    2.5908
   32.400    2.6119
   32.430    2.6435
   32.460    2.5171
   32.490    2.5908
   32.520    2.4855
   32.550    2.4645
   32.580    2.4855
   32.610    2.4645
   32.640    2.5276
   32.670    2.7699
   32.700    2.2328
   32.730    2.3907
   32.760    2.5171
   32.790    2.4961
   32.820    2.3697
   32.850    2.4645
   32.880    2.5803
   32.910    2.4013
   32.940    2.3907
   32.970    2.4329
   33.000    2.4118
   33.030    2.7909
   33.060    2.5592
   33.090    2.5171
   33.120    2.5698
   33.150    2.6119
   33.180    2.2012
   33.210    2.1380
   33.240    2.2117
   33.270    2.2854
   33.300    2.2749
   33.330    2.4434
   33.360    2.3907
   33.390    2.5066
   33.420    2.3697
   33.450    2.3170
   33.480    2.3065
   33.510    2.4118
   33.540    2.4223
   33.570    2.3275
   33.600    2.1590
   33.630    2.0537
   33.660    2.4329
   33.690    2.5171
   33.720    2.3065
   33.750    2.7172
   33.780    2.7804
   33.810    2.9805
   33.840    3.0858
   33.870    3.0226
   33.900    2.8963
   33.930    2.6330
   33.960    2.6435
   33.990    2.6540
   34.020    2.6330
   34.050    2.2012
   34.080    2.4223
   34.110    2.3802
   34.140    2.3170
   34.170    2.2538
   34.200    2.3486
   34.230    2.3486
   34.260    2.1380
   34.290    2.4539
   34.320    2.4750
   34.350    2.2959
   34.380    2.3907
   34.410    2.3170
   34.440    2.0326
   34.470    2.3381
   34.500    2.4750
   34.530    2.4539
   34.560    2.1485
   34.590    2.2328
   34.620    2.4750
   34.650    2.5276
   34.680    2.1169
   34.710    2.2012
   34.740    2.1590
   34.770    2.2222
   34.800    2.3170
   34.830    2.3486
   34.860    2.4223
   34.890    2.1485
   34.920    2.2749
   34.950    2.2854
   34.980    2.1801
   35.010    2.1064
   35.040    2.0221
   35.070    2.4118
   35.100    2.1485
   35.130    2.1696
   35.160    2.3486
   35.190    2.2117
   35.220    2.0221
   35.250    2.1906
   35.280    2.2538
   35.310    2.1380
   35.340    2.4645
   35.370    2.2749
   35.400    2.5171
   35.430    2.2643
   35.460    2.2749
   35.490    2.2749
   35.520    2.1169
   35.550    1.9379
   35.580    2.0221
   35.610    2.3275
   35.640    2.0116
   35.670    2.0116
   35.700    2.2538
   35.730    2.4645
   35.760    2.3170
   35.790    2.3486
   35.820    2.2959
   35.850    2.2538
   35.880    2.2328
   35.910    2.3802
   35.940    2.3486
   35.970    2.0326
   36.000    2.1801
   36.030    2.2117
   36.060    2.1380
   36.090    2.1274
   36.120    2.1064
   36.150    2.2433
   36.180    2.2433
   36.210    2.1906
   36.240    2.3486
   36.270    2.1485
   36.300    2.1380
   36.330    2.0642
   36.360    2.2222
   36.390    2.1485
   36.420    2.2959
   36.450    2.0853
   36.480    2.1590
   36.510    2.2854
   36.540    1.9905
   36.570    1.9168
   36.600    2.2222
   36.630    2.2749
   36.660    2.2012
   36.690    2.2117
   36.720    2.0116
   36.750    2.0853
   36.780    2.1696
   36.810    2.0853
   36.840    2.2854
   36.870    2.0221
   36.900    2.1274
   36.930    2.1380
   36.960    2.2433
   36.990    2.2222
   37.020    2.4750
   37.050    2.1274
   37.080    2.2117
   37.110    2.2643
   37.140    2.2117
   37.170    2.3907
   37.200    1.8957
   37.230    2.2643
   37.260    1.9695
   37.290    2.3170
   37.320    2.1169
   37.350    2.2433
   37.380    1.8852
   37.410    1.9695
   37.440    2.1274
   37.470    2.0748
   37.500    2.0748
   37.530    2.0011
   37.560    2.1801
   37.590    2.1274
   37.620    2.1169
   37.650    2.2012
   37.680    2.0748
   37.710    2.2117
   37.740    2.1064
   37.770    2.1485
   37.800    2.3381
   37.830    2.1380
   37.860    2.3381
   37.890    2.0642
   37.920    2.1696
   37.950    1.8957
   37.980    2.2643
   38.010    2.0642
   38.040    2.0011
   38.070    2.3065
   38.100    2.1169
   38.130    2.0853
   38.160    1.8641
   38.190    2.2012
   38.220    2.0748
   38.250    2.1274
   38.280    2.2643
   38.310    2.3591
   38.340    2.3802
   38.370    2.1906
   38.400    2.0748
   38.430    2.2222
   38.460    2.1590
   38.490    2.2328
   38.520    2.4013
   38.550    2.1590
   38.580    2.5487
   38.610    2.3486
   38.640    2.4329
   38.670    2.3381
   38.700    2.5171
   38.730    2.2959
   38.760    2.3065
   38.790    2.0537
   38.820    2.0958
   38.850    2.2854
   38.880    2.0748
   38.910    2.2959
   38.940    2.2012
   38.970    2.2012
   39.000    2.2538
   39.030    2.1801
   39.060    2.1064
   39.090    2.4223
   39.120    2.1485
   39.150    2.0642
   39.180    2.3065
   39.210    2.3802
   39.240    2.3907
   39.270    2.2433
   39.300    2.3486
   39.330    2.2749
   39.360    2.2328
   39.390    2.2012
   39.420    2.1906
   39.450    2.3802
   39.480    2.0221
   39.510    2.3591
   39.540    2.4329
   39.570    2.3170
   39.600    2.1380
   39.630    2.3802
   39.660    2.2117
   39.690    2.1064
   39.720    2.0642
   39.750    2.1380
   39.780    1.9063
   39.810    2.0432
   39.840    2.1064
   39.870    2.0221
   39.900    2.0116
   39.930    2.2222
   39.960    2.0011
   39.990    1.8325