File: data/PXRD/PXRD_KE-097-2_Cu-Ka1_capillary-1mm_5s-deg.xyd
    1.500   26.7404
    1.530   26.4982
    1.560   25.6767
    1.590   25.7188
    1.620   24.4234
    1.650   23.7388
    1.680   23.2859
    1.710   23.1701
    1.740   22.3697
    1.770   22.1696
    1.800   21.4323
    1.830   21.5166
    1.860   20.9373
    1.890   20.4845
    1.920   20.6214
    1.950   19.7894
    1.980   19.0416
    2.010   19.1785
    2.040   19.6946
    2.070   19.1364
    2.100   19.4523
    2.130   18.7888
    2.160   18.9679
    2.190   18.5045
    2.220   19.2522
    2.250   19.3049
    2.280   18.4939
    2.310   19.2417
    2.340   19.9895
    2.370   19.0521
    2.400   20.3476
    2.430   20.3686
    2.460   20.7267
    2.490   20.2001
    2.520   21.0427
    2.550   21.2006
    2.580   22.4223
    2.610   22.3907
    2.640   23.4439
    2.670   23.5492
    2.700   24.3286
    2.730   25.8662
    2.760   26.1611
    2.790   26.5298
    2.820   28.4360
    2.850   28.0147
    2.880   30.1211
    2.910   30.4687
    2.940   32.3328
    2.970   33.5124
    3.000   36.3244
    3.030   36.9984
    3.060   39.3997
    3.090   41.3270
    3.120   44.8131
    3.150   46.8141
    3.180   49.4576
    3.210   52.9015
    3.240   57.2723
    3.270   63.6230
    3.300   69.7420
    3.330   75.1869
    3.360   84.3497
    3.390   93.5334
    3.420  103.6440
    3.450  109.2680
    3.480  106.3928
    3.510   90.9110
    3.540   71.6272
    3.570   56.3244
    3.600   47.7304
    3.630   42.4434
    3.660   40.5371
    3.690   39.1890
    3.720   39.5366
    3.750   40.4529
    3.780   42.8647
    3.810   44.0021
    3.840   44.5392
    3.870   45.7504
    3.900   48.1095
    3.930   47.7830
    3.960   47.7620
    3.990   47.4355
    4.020   45.2133
    4.050   43.3597
    4.080   40.2106
    4.110   36.8615
    4.140   33.5124
    4.170   29.5840
    4.200   26.8352
    4.230   24.5919
    4.260   21.2006
    4.290   19.7367
    4.320   17.8515
    4.350   15.9558
    4.380   14.8078
    4.410   14.1548
    4.440   12.5540
    4.470   11.7325
    4.500   11.7430
    4.530   10.3633
    4.560   10.2264
    4.590   10.1001
    4.620    9.4787
    4.650    9.3944
    4.680    9.1522
    4.710    8.6572
    4.740    8.7836
    4.770    8.3412
    4.800    8.6151
    4.830    8.2254
    4.860    8.2254
    4.890    8.1833
    4.920    7.9831
    4.950    7.8357
    4.980    7.6145
    5.010    7.7093
    5.040    7.9410
    5.070    7.3723
    5.100    7.5935
    5.130    7.6040
    5.160    7.2775
    5.190    7.3091
    5.220    7.1195
    5.250    7.2459
    5.280    7.0353
    5.310    7.3828
    5.340    7.3934
    5.370    7.1617
    5.400    6.9721
    5.430    6.7509
    5.460    6.9089
    5.490    7.1195
    5.520    6.9826
    5.550    7.3091
    5.580    6.5824
    5.610    6.9826
    5.640    6.5508
    5.670    6.7825
    5.700    7.0563
    5.730    6.6772
    5.760    6.6245
    5.790    7.0353
    5.820    6.8878
    5.850    6.8246
    5.880    6.7299
    5.910    6.4982
    5.940    6.3612
    5.970    6.3191
    6.000    6.3612
    6.030    6.7825
    6.060    6.3612
    6.090    6.6245
    6.120    6.8878
    6.150    6.8036
    6.180    6.7615
    6.210    6.8984
    6.240    6.7299
    6.270    6.5613
    6.300    6.8457
    6.330    6.7193
    6.360    7.1301
    6.390    7.1722
    6.420    6.9089
    6.450    7.2880
    6.480    7.3723
    6.510    7.3512
    6.540    8.1517
    6.570    7.8778
    6.600    8.8468
    6.630    8.1517
    6.660    8.6572
    6.690    9.0574
    6.720    9.5103
    6.750   10.1001
    6.780   10.3739
    6.810   11.3955
    6.840   11.7009
    6.870   12.9542
    6.900   14.3444
    6.930   14.8394
    6.960   15.3660
    6.990   14.8605
    7.020   13.6177
    7.050   11.8062
    7.080   10.3633
    7.110    9.4997
    7.140    8.9731
    7.170    7.7725
    7.200    7.4987
    7.230    7.7199
    7.260    7.9410
    7.290    7.6461
    7.320    7.4039
    7.350    7.5092
    7.380    7.4882
    7.410    7.6040
    7.440    7.3934
    7.470    7.9305
    7.500    7.4566
    7.530    7.3723
    7.560    7.8252
    7.590    7.7199
    7.620    7.8884
    7.650    8.2675
    7.680    7.9621
    7.710    8.4466
    7.740    8.7730
    7.770    8.8046
    7.800    8.5308
    7.830    9.2154
    7.860    9.3839
    7.890    9.6261
    7.920    9.1627
    7.950    9.1417
    7.980    9.7525
    8.010   10.1843
    8.040    9.8157
    8.070    9.4050
    8.100    9.5524
    8.130    9.1943
    8.160    9.9105
    8.190    9.0363
    8.220    9.3207
    8.250    9.6261
    8.280    8.8889
    8.310    9.2891
    8.340    8.5940
    8.370    9.0995
    8.400    8.6467
    8.430    8.2675
    8.460    8.0253
    8.490    8.1411
    8.520    7.9726
    8.550    7.8146
    8.580    7.7620
    8.610    7.3512
    8.640    7.3407
    8.670    7.2354
    8.700    7.4566
    8.730    6.9089
    8.760    7.2038
    8.790    6.7088
    8.820    7.1195
    8.850    6.8668
    8.880    6.7825
    8.910    7.0248
    8.940    6.8668
    8.970    6.6456
    9.000    6.3296
    9.030    6.3823
    9.060    6.3296
    9.090    6.3507
    9.120    6.4244
    9.150    6.6772
    9.180    6.4350
    9.210    6.3191
    9.240    6.2770
    9.270    6.4666
    9.300    6.7720
    9.330    6.5719
    9.360    6.5192
    9.390    6.4455
    9.420    5.8978
    9.450    6.0874
    9.480    6.5508
    9.510    6.2454
    9.540    6.6456
    9.570    6.3928
    9.600    6.3612
    9.630    6.0769
    9.660    6.0032
    9.690    6.1717
    9.720    6.4771
    9.750    6.2770
    9.780    6.4350
    9.810    6.4666
    9.840    6.3086
    9.870    6.5719
    9.900    6.2665
    9.930    6.2665
    9.960    6.0558
    9.990    6.5719
   10.020    6.4455
   10.050    6.2981
   10.080    6.7720
   10.110    6.1401
   10.140    6.2665
   10.170    6.8773
   10.200    6.4771
   10.230    6.3928
   10.260    6.5929
   10.290    6.7720
   10.320    6.3928
   10.350    6.6140
   10.380    7.0353
   10.410    6.9510
   10.440    7.1090
   10.470    7.1301
   10.500    7.2354
   10.530    6.7930
   10.560    6.5087
   10.590    6.6245
   10.620    6.0874
   10.650    6.6877
   10.680    6.4876
   10.710    5.9716
   10.740    6.1085
   10.770    6.1401
   10.800    6.4244
   10.830    6.4560
   10.860    6.4139
   10.890    5.9400
   10.920    6.4560
   10.950    6.2138
   10.980    6.1295
   11.010    6.4560
   11.040    6.3612
   11.070    6.3191
   11.100    6.3612
   11.130    6.1717
   11.160    6.3507
   11.190    6.1401
   11.220    6.6877
   11.250    6.2138
   11.280    6.3086
   11.310    6.0874
   11.340    6.1295
   11.370    6.1401
   11.400    6.0453
   11.430    5.9294
   11.460    6.5508
   11.490    6.6877
   11.520    6.2665
   11.550    6.4876
   11.580    6.4139
   11.610    6.3402
   11.640    6.4876
   11.670    6.8036
   11.700    6.4982
   11.730    6.2875
   11.760    6.7615
   11.790    6.2138
   11.820    6.3612
   11.850    6.3296
   11.880    6.6983
   11.910    6.6351
   11.940    6.3823
   11.970    6.3191
   12.000    6.4139
   12.030    6.6667
   12.060    6.6456
   12.090    6.5403
   12.120    6.4982
   12.150    7.1090
   12.180    6.6140
   12.210    6.1506
   12.240    6.9510
   12.270    6.4455
   12.300    6.6667
   12.330    6.5192
   12.360    6.3296
   12.390    6.2875
   12.420    6.3718
   12.450    6.5087
   12.480    6.5824
   12.510    6.2138
   12.540    6.4139
   12.570    6.3402
   12.600    6.4139
   12.630    6.4982
   12.660    6.4139
   12.690    6.5613
   12.720    6.5192
   12.750    6.4034
   12.780    6.4139
   12.810    6.3928
   12.840    6.3718
   12.870    6.2033
   12.900    6.3191
   12.930    6.1717
   12.960    6.5613
   12.990    5.7609
   13.020    5.9821
   13.050    5.8978
   13.080    6.3718
   13.110    6.6035
   13.140    6.6245
   13.170    6.3086
   13.200    6.1506
   13.230    6.6245
   13.260    6.2349
   13.290    6.1822
   13.320    6.1085
   13.350    6.0032
   13.380    6.3507
   13.410    6.3823
   13.440    6.2033
   13.470    6.4560
   13.500    6.2454
   13.530    5.8557
   13.560    5.7925
   13.590    6.2559
   13.620    5.9821
   13.650    6.3612
   13.680    6.1611
   13.710    6.2243
   13.740    6.7299
   13.770    6.4244
   13.800    6.2454
   13.830    6.1717
   13.860    6.4350
   13.890    6.4139
   13.920    6.4982
   13.950    6.1927
   13.980    6.2559
   14.010    6.3823
   14.040    5.9505
   14.070    6.0664
   14.100    6.0137
   14.130    6.4560
   14.160    6.0453
   14.190    6.5929
   14.220    6.2349
   14.250    6.0558
   14.280    5.6556
   14.310    5.8873
   14.340    6.3191
   14.370    6.2349
   14.400    5.8136
   14.430    6.2559
   14.460    6.0453
   14.490    6.1295
   14.520    6.0979
   14.550    5.9610
   14.580    5.8662
   14.610    6.0874
   14.640    6.1822
   14.670    5.9294
   14.700    6.1190
   14.730    5.9084
   14.760    5.8978
   14.790    6.0137
   14.820    5.8347
   14.850    6.1401
   14.880    6.2243
   14.910    5.8978
   14.940    5.5503
   14.970    5.7609
   15.000    5.8873
   15.030    5.7293
   15.060    5.8031
   15.090    5.9189
   15.120    6.5192
   15.150    5.5608
   15.180    5.9610
   15.210    6.3086
   15.240    5.8662
   15.270    6.0664
   15.300    5.5819
   15.330    6.1085
   15.360    6.1717
   15.390    5.8136
   15.420    6.2033
   15.450    6.0558
   15.480    5.8978
   15.510    6.0664
   15.540    6.2033
   15.570    6.1085
   15.600    6.3507
   15.630    6.0979
   15.660    5.4660
   15.690    6.1190
   15.720    6.3823
   15.750    6.0558
   15.780    6.1717
   15.810    6.3086
   15.840    6.0348
   15.870    6.5087
   15.900    6.1611
   15.930    6.2138
   15.960    6.0348
   15.990    6.2981
   16.020    6.2454
   16.050    5.8768
   16.080    6.1190
   16.110    6.0348
   16.140    6.4350
   16.170    6.1717
   16.200    6.0558
   16.230    6.0242
   16.260    6.5929
   16.290    6.2665
   16.320    6.1401
   16.350    5.8452
   16.380    5.9189
   16.410    6.2349
   16.440    6.2349
   16.470    6.1927
   16.500    6.1717
   16.530    6.1506
   16.560    6.0769
   16.590    5.7820
   16.620    5.3397
   16.650    6.2665
   16.680    5.5924
   16.710    5.7504
   16.740    5.8136
   16.770    5.6977
   16.800    6.0664
   16.830    6.1611
   16.860    6.1506
   16.890    6.0874
   16.920    5.8136
   16.950    6.1085
   16.980    6.1822
   17.010    5.8557
   17.040    5.7083
   17.070    5.8557
   17.100    5.8978
   17.130    5.9294
   17.160    5.9716
   17.190    5.7715
   17.220    6.0874
   17.250    6.0348
   17.280    5.8031
   17.310    5.9505
   17.340    5.9400
   17.370    5.7715
   17.400    5.9505
   17.430    5.8031
   17.460    5.7820
   17.490    6.3507
   17.520    6.1190
   17.550    5.7925
   17.580    6.1190
   17.610    5.9400
   17.640    6.1085
   17.670    5.8241
   17.700    6.0769
   17.730    6.5298
   17.760    6.2454
   17.790    5.9926
   17.820    6.1295
   17.850    5.8557
   17.880    6.2033
   17.910    6.2033
   17.940    6.1822
   17.970    5.8873
   18.000    5.7399
   18.030    5.9610
   18.060    6.0769
   18.090    5.6872
   18.120    6.0769
   18.150    6.3507
   18.180    6.0242
   18.210    6.0348
   18.240    6.0874
   18.270    6.2454
   18.300    5.9294
   18.330    5.9926
   18.360    5.9400
   18.390    6.1190
   18.420    5.8768
   18.450    6.3086
   18.480    6.2770
   18.510    6.1506
   18.540    6.2243
   18.570    6.1822
   18.600    6.0769
   18.630    6.1927
   18.660    6.4876
   18.690    6.1611
   18.720    6.1506
   18.750    5.9716
   18.780    6.1717
   18.810    6.2243
   18.840    5.9400
   18.870    5.9610
   18.900    6.3191
   18.930    6.0664
   18.960    5.9821
   18.990    6.2033
   19.020    6.3507
   19.050    6.0558
   19.080    6.1717
   19.110    5.9821
   19.140    6.3718
   19.170    6.1295
   19.200    6.3296
   19.230    6.5613
   19.260    6.2559
   19.290    6.4244
   19.320    5.9926
   19.350    6.4982
   19.380    6.2243
   19.410    6.5719
   19.440    6.2559
   19.470    6.3612
   19.500    6.6456
   19.530    6.6245
   19.560    6.2349
   19.590    6.2243
   19.620    6.0874
   19.650    6.5824
   19.680    6.4455
   19.710    6.2665
   19.740    6.5298
   19.770    6.3928
   19.800    6.5929
   19.830    6.2243
   19.860    6.4666
   19.890    6.8141
   19.920    6.6351
   19.950    6.7720
   19.980    6.0558
   20.010    6.8036
   20.040    6.4034
   20.070    6.6983
   20.100    6.6140
   20.130    6.4982
   20.160    6.6456
   20.190    6.6140
   20.220    6.2033
   20.250    6.3928
   20.280    6.5298
   20.310    6.7299
   20.340    6.6351
   20.370    6.3823
   20.400    6.3191
   20.430    6.6245
   20.460    6.0664
   20.490    6.5508
   20.520    6.4666
   20.550    6.7404
   20.580    6.9405
   20.610    6.6983
   20.640    6.8984
   20.670    6.5298
   20.700    6.8036
   20.730    6.7509
   20.760    6.3086
   20.790    6.7088
   20.820    6.3928
   20.850    6.8773
   20.880    6.7193
   20.910    6.8352
   20.940    6.4560
   20.970    6.2981
   21.000    6.6035
   21.030    6.3086
   21.060    6.5929
   21.090    6.5508
   21.120    6.6667
   21.150    6.6351
   21.180    6.4876
   21.210    6.4771
   21.240    6.5508
   21.270    6.5824
   21.300    6.5192
   21.330    6.5929
   21.360    6.8246
   21.390    6.4982
   21.420    6.7825
   21.450    6.2875
   21.480    6.6772
   21.510    6.8773
   21.540    6.6667
   21.570    6.8562
   21.600    6.4139
   21.630    6.7509
   21.660    6.5719
   21.690    6.4771
   21.720    6.7615
   21.750    6.2454
   21.780    6.7615
   21.810    6.6772
   21.840    6.5087
   21.870    6.5824
   21.900    6.4771
   21.930    6.6456
   21.960    6.3612
   21.990    6.6561
   22.020    6.6877
   22.050    6.5719
   22.080    6.6140
   22.110    6.5613
   22.140    7.0669
   22.170    6.6772
   22.200    6.8984
   22.230    6.3718
   22.260    6.6351
   22.290    6.8562
   22.320    7.0774
   22.350    6.6877
   22.380    6.7615
   22.410    6.9300
   22.440    6.6983
   22.470    6.6983
   22.500    6.6140
   22.530    6.7509
   22.560    6.6877
   22.590    6.4982
   22.620    6.6351
   22.650    6.5403
   22.680    6.7088
   22.710    6.2454
   22.740    6.6667
   22.770    6.6877
   22.800    6.4876
   22.830    6.3191
   22.860    6.6035
   22.890    6.3718
   22.920    6.4666
   22.950    6.6983
   22.980    6.7825
   23.010    6.4560
   23.040    6.9616
   23.070    6.6983
   23.100    6.9932
   23.130    6.4982
   23.160    6.3718
   23.190    6.7615
   23.220    6.4771
   23.250    6.7720
   23.280    6.7825
   23.310    6.5403
   23.340    6.4034
   23.370    6.4139
   23.400    6.4455
   23.430    6.2454
   23.460    6.4560
   23.490    7.0563
   23.520    6.5613
   23.550    6.2454
   23.580    6.4560
   23.610    6.4876
   23.640    6.7930
   23.670    6.0979
   23.700    6.6456
   23.730    6.6140
   23.760    6.5929
   23.790    6.3823
   23.820    6.6245
   23.850    6.2243
   23.880    6.4666
   23.910    6.6772
   23.940    6.1927
   23.970    6.3612
   24.000    6.2981
   24.030    6.3612
   24.060    6.4455
   24.090    6.6351
   24.120    6.2559
   24.150    6.3823
   24.180    6.7193
   24.210    6.4034
   24.240    6.2349
   24.270    6.4244
   24.300    6.1927
   24.330    6.2981
   24.360    6.1927
   24.390    6.0874
   24.420    6.7088
   24.450    6.3612
   24.480    6.2454
   24.510    6.0242
   24.540    6.3191
   24.570    6.1611
   24.600    6.4876
   24.630    6.2454
   24.660    6.7404
   24.690    6.3296
   24.720    6.1190
   24.750    6.1190
   24.780    6.2243
   24.810    6.1927
   24.840    6.2875
   24.870    6.2875
   24.900    6.2454
   24.930    6.2770
   24.960    6.2875
   24.990    6.2349
   25.020    5.9505
   25.050    6.2770
   25.080    6.0664
   25.110    5.7609
   25.140    6.0664
   25.170    6.0032
   25.200    6.2033
   25.230    6.1927
   25.260    6.2665
   25.290    6.2243
   25.320    6.1927
   25.350    6.0558
   25.380    5.8662
   25.410    6.2243
   25.440    6.0453
   25.470    5.6345
   25.500    6.2770
   25.530    6.4455
   25.560    5.9610
   25.590    6.3191
   25.620    6.1717
   25.650    6.2138
   25.680    6.1190
   25.710    6.0137
   25.740    6.2138
   25.770    6.0769
   25.800    6.2033
   25.830    6.0032
   25.860    6.0558
   25.890    6.0558
   25.920    5.6661
   25.950    5.6767
   25.980    6.1611
   26.010    5.8347
   26.040    6.2138
   26.070    6.0032
   26.100    6.0769
   26.130    6.4560
   26.160    5.9716
   26.190    5.7504
   26.220    5.9821
   26.250    6.2243
   26.280    6.2454
   26.310    5.7609
   26.340    5.9189
   26.370    5.6872
   26.400    5.8347
   26.430    6.0032
   26.460    5.7820
   26.490    5.8452
   26.520    5.5187
   26.550    5.4766
   26.580    5.7504
   26.610    6.0137
   26.640    5.8768
   26.670    5.8241
   26.700    5.7715
   26.730    5.8662
   26.760    5.8557
   26.790    5.7083
   26.820    5.6345
   26.850    5.6345
   26.880    5.9084
   26.910    6.0558
   26.940    5.6872
   26.970    5.5187
   27.000    6.0664
   27.030    5.7715
   27.060    5.8873
   27.090    5.7925
   27.120    5.8136
   27.150    5.7293
   27.180    5.7820
   27.210    5.7188
   27.240    5.6135
   27.270    5.5608
   27.300    5.6029
   27.330    5.6240
   27.360    5.3607
   27.390    5.7925
   27.420    6.0769
   27.450    5.6556
   27.480    5.5608
   27.510    5.5292
   27.540    5.3502
   27.570    5.8873
   27.600    5.3502
   27.630    5.5819
   27.660    5.5924
   27.690    5.8662
   27.720    5.2975
   27.750    5.6451
   27.780    5.5398
   27.810    5.7083
   27.840    5.7715
   27.870    6.1295
   27.900    5.7399
   27.930    5.5082
   27.960    5.7609
   27.990    5.7293
   28.020    5.7609
   28.050    5.6240
   28.080    6.0032
   28.110    6.0348
   28.140    5.6977
   28.170    5.4239
   28.200    5.6135
   28.230    5.8768
   28.260    5.5398
   28.290    5.7715
   28.320    5.4028
   28.350    5.7820
   28.380    5.6872
   28.410    5.6767
   28.440    5.9189
   28.470    5.5292
   28.500    5.4344
   28.530    5.6872
   28.560    5.5819
   28.590    5.9610
   28.620    5.2449
   28.650    5.9084
   28.680    5.8557
   28.710    5.4766
   28.740    5.5187
   28.770    5.3397
   28.800    5.7925
   28.830    5.4344
   28.860    5.4239
   28.890    5.7083
   28.920    5.6661
   28.950    5.4028
   28.980    5.4450
   29.010    5.6029
   29.040    5.9505
   29.070    5.3291
   29.100    5.5503
   29.130    5.5924
   29.160    5.7820
   29.190    5.5714
   29.220    5.4976
   29.250    5.3818
   29.280    5.1817
   29.310    5.5292
   29.340    5.4239
   29.370    5.2870
   29.400    5.1817
   29.430    5.0974
   29.460    5.3502
   29.490    5.2027
   29.520    5.4871
   29.550    5.6135
   29.580    5.3712
   29.610    5.6345
   29.640    5.3607
   29.670    5.3818
   29.700    5.2765
   29.730    5.0026
   29.760    5.2870
   29.790    5.4344
   29.820    5.5608
   29.850    5.4766
   29.880    5.3081
   29.910    5.2765
   29.940    5.2343
   29.970    5.6240
   30.000    5.2554
   30.030    5.2975
   30.060    5.2870
   30.090    5.4871
   30.120    5.0026
   30.150    5.4660
   30.180    5.2975
   30.210    5.1185
   30.240    5.3291
   30.270    5.6240
   30.300    5.3502
   30.330    5.4871
   30.360    5.0237
   30.390    5.3607
   30.420    5.4028
   30.450    5.4134
   30.480    5.3712
   30.510    5.4871
   30.540    5.4976
   30.570    5.2554
   30.600    5.6135
   30.630    5.0342
   30.660    5.5503
   30.690    4.9078
   30.720    5.2554
   30.750    5.0132
   30.780    5.1080
   30.810    5.2027
   30.840    5.1080
   30.870    5.1606
   30.900    5.0553
   30.930    5.4555
   30.960    5.1395
   30.990    5.0764
   31.020    5.2238
   31.050    5.3818
   31.080    5.2975
   31.110    5.3923
   31.140    5.3186
   31.170    5.0342
   31.200    5.3081
   31.230    4.9605
   31.260    4.9816
   31.290    4.8868
   31.320    5.4028
   31.350    5.0869
   31.380    5.0764
   31.410    5.2449
   31.440    5.4555
   31.470    4.8131
   31.500    5.1395
   31.530    5.0764
   31.560    5.3397
   31.590    4.9184
   31.620    5.3081
   31.650    5.2238
   31.680    5.6029
   31.710    5.6767
   31.740    5.7715
   31.770    5.6135
   31.800    5.7609
   31.830    5.9505
   31.860    5.4660
   31.890    5.1606
   31.920    5.1606
   31.950    5.2449
   31.980    5.5714
   32.010    5.4450
   32.040    5.5082
   32.070    5.6767
   32.100    5.3397
   32.130    5.0132
   32.160    5.4028
   32.190    5.1922
   32.220    5.5398
   32.250    5.2133
   32.280    5.1080
   32.310    5.2027
   32.340    5.0974
   32.370    5.0342
   32.400    5.0448
   32.430    5.3291
   32.460    5.4028
   32.490    5.1922
   32.520    4.8973
   32.550    5.0764
   32.580    5.2343
   32.610    4.8025
   32.640    5.1922
   32.670    4.8657
   32.700    5.0658
   32.730    4.9289
   32.760    4.7920
   32.790    5.1711
   32.820    5.1185
   32.850    4.8973
   32.880    5.2027
   32.910    4.8236
   32.940    4.7499
   32.970    5.1080
   33.000    5.2343
   33.030    4.8868
   33.060    4.8236
   33.090    5.0026
   33.120    4.8552
   33.150    5.0448
   33.180    4.6761
   33.210    5.1817
   33.240    4.7393
   33.270    4.9921
   33.300    5.0448
   33.330    5.0764
   33.360    5.1711
   33.390    4.4971
   33.420    5.0658
   33.450    4.8552
   33.480    5.0553
   33.510    4.9921
   33.540    5.0448
   33.570    4.8868
   33.600    4.6867
   33.630    5.1501
   33.660    4.7288
   33.690    4.6340
   33.720    4.8657
   33.750    5.1290
   33.780    5.1185
   33.810    5.2765
   33.840    5.1185
   33.870    4.7709
   33.900    4.7604
   33.930    4.7920
   33.960    4.9710
   33.990    5.0342
   34.020    5.2343
   34.050    4.9816
   34.080    5.2343
   34.110    4.8552
   34.140    4.5919
   34.170    4.7499
   34.200    4.7499
   34.230    4.8131
   34.260    4.7499
   34.290    4.7183
   34.320    5.0448
   34.350    4.6130
   34.380    4.8341
   34.410    4.8657
   34.440    4.6867
   34.470    4.8025
   34.500    4.8763
   34.530    4.5814
   34.560    4.5708
   34.590    4.6867
   34.620    4.7499
   34.650    4.6761
   34.680    4.8657
   34.710    4.2338
   34.740    4.5708
   34.770    4.9184
   34.800    4.9816
   34.830    4.7604
   34.860    4.6551
   34.890    4.7183
   34.920    4.4023
   34.950    4.4444
   34.980    4.4760
   35.010    4.5182
   35.040    4.7604
   35.070    4.9816
   35.100    4.4339
   35.130    4.2338
   35.160    4.7077
   35.190    4.4444
   35.220    4.6972
   35.250    4.6656
   35.280    4.6235
   35.310    5.0342
   35.340    4.7393
   35.370    4.7077
   35.400    4.7815
   35.430    4.8447
   35.460    4.7815
   35.490    4.3813
   35.520    4.9289
   35.550    4.6024
   35.580    4.7288
   35.610    4.6130
   35.640    4.7499
   35.670    4.4234
   35.700    4.3813
   35.730    4.4128
   35.760    5.0237
   35.790    4.6656
   35.820    4.8552
   35.850    4.6656
   35.880    4.6130
   35.910    4.4023
   35.940    4.7709
   35.970    4.5498
   36.000    4.5392
   36.030    4.6761
   36.060    4.6445
   36.090    4.4866
   36.120    4.7604
   36.150    4.2970
   36.180    4.7920
   36.210    4.7604
   36.240    4.5708
   36.270    4.4866
   36.300    4.4234
   36.330    4.6867
   36.360    4.6656
   36.390    4.5708
   36.420    4.4550
   36.450    4.6551
   36.480    4.8341
   36.510    4.8236
   36.540    4.6445
   36.570    4.7499
   36.600    4.3075
   36.630    4.4339
   36.660    4.6235
   36.690    4.4866
   36.720    4.5182
   36.750    4.8657
   36.780    4.3391
   36.810    4.5814
   36.840    4.9078
   36.870    4.4655
   36.900    4.5498
   36.930    4.4339
   36.960    4.5498
   36.990    4.4339
   37.020    4.3181
   37.050    4.4971
   37.080    4.2549
   37.110    4.6656
   37.140    4.3286
   37.170    4.4760
   37.200    4.0758
   37.230    4.2654
   37.260    4.5287
   37.290    4.6867
   37.320    4.2549
   37.350    4.5182
   37.380    4.3391
   37.410    4.3707
   37.440    4.5603
   37.470    4.4234
   37.500    4.4866
   37.530    4.2654
   37.560    4.3181
   37.590    4.8657
   37.620    4.2549
   37.650    4.5814
   37.680    4.4866
   37.710    4.4339
   37.740    4.6867
   37.770    4.6130
   37.800    4.8552
   37.830    4.5603
   37.860    4.5076
   37.890    4.4339
   37.920    4.5287
   37.950    4.3181
   37.980    4.4550
   38.010    4.4444
   38.040    4.3181
   38.070    4.6340
   38.100    4.5076
   38.130    4.4550
   38.160    4.1811
   38.190    4.5287
   38.220    4.1706
   38.250    4.4234
   38.280    4.5708
   38.310    4.4444
   38.340    4.4023
   38.370    4.2970
   38.400    4.0337
   38.430    4.2022
   38.460    4.1706
   38.490    4.5498
   38.520    4.4444
   38.550    4.0548
   38.580    4.3391
   38.610    4.4234
   38.640    4.2549
   38.670    4.4128
   38.700    4.2022
   38.730    4.6445
   38.760    4.3918
   38.790    4.2865
   38.820    4.1390
   38.850    4.5076
   38.880    4.7393
   38.910    4.2970
   38.940    4.6235
   38.970    4.5603
   39.000    4.4128
   39.030    4.2970
   39.060    4.4655
   39.090    4.5182
   39.120    4.3286
   39.150    4.6445
   39.180    4.3602
   39.210    4.4339
   39.240    4.4655
   39.270    4.4971
   39.300    4.2970
   39.330    4.2022
   39.360    4.4550
   39.390    4.6656
   39.420    4.4023
   39.450    4.6761
   39.480    4.2759
   39.510    4.5076
   39.540    4.6340
   39.570    4.5392
   39.600    4.5498
   39.630    4.2759
   39.660    4.1390
   39.690    4.4550
   39.720    4.2654
   39.750    4.4339
   39.780    4.7077
   39.810    4.2022
   39.840    4.4971
   39.870    4.2654
   39.900    4.4023
   39.930    4.4023
   39.960    4.1811
   39.990    3.9600