File: data/PXRD/PXRD_KE-129_Cu-Ka1_film-3mm_5s-deg.xyd
    1.500   19.3892
    1.530   19.1575
    1.560   18.2306
    1.590   18.1464
    1.620   17.6093
    1.650   16.9142
    1.680   16.7667
    1.710   16.1243
    1.740   16.0821
    1.770   15.4081
    1.800   15.2080
    1.830   14.5866
    1.860   14.5234
    1.890   14.7130
    1.920   13.1754
    1.950   14.2601
    1.980   12.8383
    2.010   13.3123
    2.040   13.2070
    2.070   12.6804
    2.100   12.3012
    2.130   12.1748
    2.160   12.3117
    2.190   12.1854
    2.220   11.9642
    2.250   11.4797
    2.280   11.6377
    2.310   11.9221
    2.340   10.9847
    2.370   11.1532
    2.400   11.3849
    2.430   11.3639
    2.460   11.2375
    2.490   10.6056
    2.520   11.2164
    2.550   11.0058
    2.580   10.9426
    2.610   11.9221
    2.640   11.4060
    2.670   10.9742
    2.700   11.3217
    2.730   11.0690
    2.760   11.4797
    2.790   11.9853
    2.820   11.8694
    2.850   12.7436
    2.880   12.7857
    2.910   13.7335
    2.940   13.9231
    2.970   13.9652
    3.000   15.2501
    3.030   16.0506
    3.060   17.2512
    3.090   18.5150
    3.120   19.0521
    3.150   20.8320
    3.180   23.4755
    3.210   25.1817
    3.240   27.4671
    3.270   30.8583
    3.300   35.0290
    3.330   39.6946
    3.360   43.9284
    3.390   49.2996
    3.420   55.5134
    3.450   60.9268
    3.480   60.4002
    3.510   54.8499
    3.540   44.9921
    3.570   34.2285
    3.600   28.2675
    3.630   23.9179
    3.660   21.4639
    3.690   20.8741
    3.720   20.8741
    3.750   20.3265
    3.780   20.7794
    3.810   21.4218
    3.840   22.7383
    3.870   23.5282
    3.900   24.2654
    3.930   24.8025
    3.960   26.5298
    3.990   26.7404
    4.020   27.5092
    4.050   28.0990
    4.080   27.5303
    4.110   26.7825
    4.140   25.9926
    4.170   25.2133
    4.200   23.9494
    4.230   22.9595
    4.260   20.2844
    4.290   19.4313
    4.320   18.3465
    4.350   15.5977
    4.380   13.9126
    4.410   13.6914
    4.440   12.4065
    4.470   11.7536
    4.500   10.5635
    4.530   10.0790
    4.560    9.3418
    4.590    9.3523
    4.620    8.7414
    4.650    8.5729
    4.680    8.7836
    4.710    8.3623
    4.740    8.4992
    4.770    8.0569
    4.800    8.2464
    4.830    7.7936
    4.860    8.0358
    4.890    7.7304
    4.920    8.0990
    4.950    8.1306
    4.980    7.5197
    5.010    7.4987
    5.040    7.5724
    5.070    7.9410
    5.100    7.9937
    5.130    8.2254
    5.160    7.5303
    5.190    7.9726
    5.220    8.4781
    5.250    8.0042
    5.280    8.2359
    5.310    8.1517
    5.340    8.6783
    5.370    8.3412
    5.400    8.2359
    5.430    8.2359
    5.460    8.2254
    5.490    8.5413
    5.520    7.9094
    5.550    8.3834
    5.580    8.8046
    5.610    8.0253
    5.640    7.8146
    5.670    7.6567
    5.700    7.5513
    5.730    7.7620
    5.760    8.0779
    5.790    7.3828
    5.820    7.5619
    5.850    7.5092
    5.880    7.2565
    5.910    7.4671
    5.940    7.0248
    5.970    7.1722
    6.000    6.8457
    6.030    6.8984
    6.060    6.9300
    6.090    6.9932
    6.120    6.7404
    6.150    6.9510
    6.180    6.6877
    6.210    6.7088
    6.240    6.8036
    6.270    6.6667
    6.300    6.5403
    6.330    6.6245
    6.360    6.7088
    6.390    5.9821
    6.420    6.2243
    6.450    6.3507
    6.480    6.4244
    6.510    6.2981
    6.540    6.7193
    6.570    6.5929
    6.600    6.3402
    6.630    6.9510
    6.660    6.3296
    6.690    7.0353
    6.720    7.4882
    6.750    6.8246
    6.780    7.4987
    6.810    8.0253
    6.840    8.1622
    6.870    9.0995
    6.900    9.5629
    6.930   10.5845
    6.960   10.3318
    6.990   10.8689
    7.020    9.6788
    7.050    8.8573
    7.080    8.2675
    7.110    7.3512
    7.140    6.9089
    7.170    6.6667
    7.200    6.3086
    7.230    6.1927
    7.260    6.3191
    7.290    5.9505
    7.320    6.3507
    7.350    5.8557
    7.380    6.0558
    7.410    6.2243
    7.440    5.8241
    7.470    5.4555
    7.500    5.7925
    7.530    5.9294
    7.560    5.9400
    7.590    6.0664
    7.620    5.9610
    7.650    6.1506
    7.680    5.9926
    7.710    5.6661
    7.740    5.8978
    7.770    5.8873
    7.800    5.9189
    7.830    5.8136
    7.860    6.2559
    7.890    6.6035
    7.920    6.1085
    7.950    5.8978
    7.980    6.2559
    8.010    6.0769
    8.040    6.4876
    8.070    6.4876
    8.100    6.7404
    8.130    6.7720
    8.160    6.3718
    8.190    6.3823
    8.220    6.4455
    8.250    6.3612
    8.280    6.2138
    8.310    6.4982
    8.340    6.4244
    8.370    6.2138
    8.400    6.0874
    8.430    6.2033
    8.460    6.3612
    8.490    6.1506
    8.520    6.2033
    8.550    6.3612
    8.580    5.7820
    8.610    5.8873
    8.640    6.0558
    8.670    6.0664
    8.700    5.7609
    8.730    5.8136
    8.760    5.7083
    8.790    5.3818
    8.820    5.2765
    8.850    5.2659
    8.880    5.3502
    8.910    5.0132
    8.940    5.4028
    8.970    5.4028
    9.000    5.3923
    9.030    5.1501
    9.060    5.0448
    9.090    4.8973
    9.120    5.0869
    9.150    5.0448
    9.180    5.0026
    9.210    4.8236
    9.240    5.0342
    9.270    4.6445
    9.300    4.8131
    9.330    4.9289
    9.360    4.9605
    9.390    5.1290
    9.420    4.8973
    9.450    5.1711
    9.480    5.0869
    9.510    4.6340
    9.540    5.0974
    9.570    5.0026
    9.600    4.7288
    9.630    4.9394
    9.660    4.7077
    9.690    4.7288
    9.720    4.7077
    9.750    4.7288
    9.780    4.8236
    9.810    4.6130
    9.840    4.7393
    9.870    4.9184
    9.900    4.9289
    9.930    4.7499
    9.960    5.0342
    9.990    5.1711
   10.020    4.7815
   10.050    4.6972
   10.080    4.5392
   10.110    4.7077
   10.140    4.7815
   10.170    4.8447
   10.200    4.6761
   10.230    4.5076
   10.260    4.7815
   10.290    4.7920
   10.320    5.0764
   10.350    4.8973
   10.380    4.8236
   10.410    5.0448
   10.440    4.8973
   10.470    4.8447
   10.500    5.5187
   10.530    5.1395
   10.560    4.8657
   10.590    4.8868
   10.620    5.0237
   10.650    4.8657
   10.680    4.7183
   10.710    4.7920
   10.740    4.9500
   10.770    4.9605
   10.800    5.1606
   10.830    5.1185
   10.860    4.6656
   10.890    4.9605
   10.920    5.0869
   10.950    5.1290
   10.980    5.0342
   11.010    5.0869
   11.040    4.6867
   11.070    4.9921
   11.100    5.0974
   11.130    4.6761
   11.160    4.8025
   11.190    4.6445
   11.220    4.8131
   11.250    4.8763
   11.280    4.7604
   11.310    4.9921
   11.340    4.6340
   11.370    4.8025
   11.400    5.0764
   11.430    4.6867
   11.460    4.8973
   11.490    4.7183
   11.520    5.0869
   11.550    4.5919
   11.580    5.0026
   11.610    5.2343
   11.640    4.6867
   11.670    4.8236
   11.700    4.6340
   11.730    4.5287
   11.760    4.8657
   11.790    5.0869
   11.820    5.0342
   11.850    4.6551
   11.880    5.0869
   11.910    4.7499
   11.940    4.6972
   11.970    5.1080
   12.000    5.3291
   12.030    4.8657
   12.060    4.9921
   12.090    4.8657
   12.120    4.7393
   12.150    5.0658
   12.180    5.1711
   12.210    4.8552
   12.240    4.7288
   12.270    4.6972
   12.300    4.9500
   12.330    4.9184
   12.360    4.9605
   12.390    5.0658
   12.420    4.7077
   12.450    5.0237
   12.480    4.8552
   12.510    4.8447
   12.540    4.9500
   12.570    4.8552
   12.600    4.8025
   12.630    4.8236
   12.660    4.9078
   12.690    5.2870
   12.720    4.8973
   12.750    5.1711
   12.780    5.0658
   12.810    5.0237
   12.840    5.0026
   12.870    4.7499
   12.900    4.7183
   12.930    4.8341
   12.960    4.6972
   12.990    4.9605
   13.020    4.9921
   13.050    4.7709
   13.080    4.8447
   13.110    4.8131
   13.140    4.6130
   13.170    4.4128
   13.200    4.8447
   13.230    4.6340
   13.260    4.6656
   13.290    4.9184
   13.320    4.6656
   13.350    4.3918
   13.380    4.5603
   13.410    4.6340
   13.440    4.9605
   13.470    4.6551
   13.500    4.4444
   13.530    4.3181
   13.560    4.4760
   13.590    5.1080
   13.620    4.6445
   13.650    4.4971
   13.680    4.7393
   13.710    4.7815
   13.740    4.7183
   13.770    4.6656
   13.800    4.8447
   13.830    4.7815
   13.860    4.5287
   13.890    4.9184
   13.920    4.8131
   13.950    4.9394
   13.980    4.7183
   14.010    4.6340
   14.040    4.5498
   14.070    4.5076
   14.100    4.6972
   14.130    4.6972
   14.160    4.7920
   14.190    5.0132
   14.220    5.1080
   14.250    4.8341
   14.280    4.6972
   14.310    4.8763
   14.340    4.7815
   14.370    4.8973
   14.400    4.8341
   14.430    5.1501
   14.460    4.8341
   14.490    4.8341
   14.520    5.1711
   14.550    4.6761
   14.580    5.0132
   14.610    4.7920
   14.640    5.0869
   14.670    4.9289
   14.700    4.6551
   14.730    4.3602
   14.760    4.3813
   14.790    4.7288
   14.820    4.7077
   14.850    4.7393
   14.880    4.7183
   14.910    4.5708
   14.940    4.8973
   14.970    4.8868
   15.000    4.8341
   15.030    4.6445
   15.060    4.7920
   15.090    4.5708
   15.120    4.7709
   15.150    4.8131
   15.180    4.4760
   15.210    4.4971
   15.240    4.5076
   15.270    4.7499
   15.300    4.4760
   15.330    4.6024
   15.360    4.6656
   15.390    4.3075
   15.420    4.4550
   15.450    4.4760
   15.480    4.5708
   15.510    4.3497
   15.540    4.4550
   15.570    4.7815
   15.600    4.2233
   15.630    4.4550
   15.660    4.3707
   15.690    4.8552
   15.720    4.4866
   15.750    4.4339
   15.780    4.4339
   15.810    4.4971
   15.840    4.5603
   15.870    4.5076
   15.900    4.4971
   15.930    4.5603
   15.960    4.4655
   15.990    4.5814
   16.020    4.3813
   16.050    4.5708
   16.080    4.6024
   16.110    4.7815
   16.140    4.6656
   16.170    4.2970
   16.200    4.6656
   16.230    4.3391
   16.260    4.5498
   16.290    4.4339
   16.320    4.7499
   16.350    4.5287
   16.380    4.6024
   16.410    4.4234
   16.440    4.7393
   16.470    4.7077
   16.500    4.5708
   16.530    4.8447
   16.560    4.8552
   16.590    4.4760
   16.620    4.6340
   16.650    4.4550
   16.680    4.6235
   16.710    4.6445
   16.740    4.6761
   16.770    4.6761
   16.800    4.4760
   16.830    4.7499
   16.860    4.6867
   16.890    4.3918
   16.920    4.4866
   16.950    4.2549
   16.980    4.4444
   17.010    4.6340
   17.040    4.2865
   17.070    4.2654
   17.100    4.7077
   17.130    4.7288
   17.160    4.4971
   17.190    4.7077
   17.220    4.4234
   17.250    4.4339
   17.280    4.6024
   17.310    4.2865
   17.340    4.4128
   17.370    4.5603
   17.400    4.2654
   17.430    4.6656
   17.460    4.6024
   17.490    4.2970
   17.520    4.6445
   17.550    4.6972
   17.580    4.4339
   17.610    4.3602
   17.640    4.3497
   17.670    4.5182
   17.700    4.5182
   17.730    4.2233
   17.760    4.6024
   17.790    4.6340
   17.820    4.6761
   17.850    4.2549
   17.880    4.3391
   17.910    4.3813
   17.940    4.3813
   17.970    4.5498
   18.000    4.3391
   18.030    4.6235
   18.060    4.6445
   18.090    4.3813
   18.120    4.5498
   18.150    4.1601
   18.180    4.6340
   18.210    4.4866
   18.240    4.5708
   18.270    4.4234
   18.300    4.3286
   18.330    4.6445
   18.360    4.5287
   18.390    4.5392
   18.420    4.6340
   18.450    4.4128
   18.480    4.4339
   18.510    4.3497
   18.540    4.5814
   18.570    4.8236
   18.600    4.4550
   18.630    4.6024
   18.660    4.4444
   18.690    4.5182
   18.720    4.3181
   18.750    4.4760
   18.780    4.3497
   18.810    4.7288
   18.840    4.4550
   18.870    4.4023
   18.900    4.5182
   18.930    4.6551
   18.960    4.3497
   18.990    4.7393
   19.020    4.7604
   19.050    4.5498
   19.080    4.4444
   19.110    4.7393
   19.140    4.8763
   19.170    4.5603
   19.200    4.6130
   19.230    4.3286
   19.260    4.7288
   19.290    4.5287
   19.320    4.4339
   19.350    4.4128
   19.380    4.6867
   19.410    4.7077
   19.440    4.3707
   19.470    4.5708
   19.500    4.7183
   19.530    4.4128
   19.560    4.5392
   19.590    4.4866
   19.620    4.4444
   19.650    4.6130
   19.680    4.5287
   19.710    4.4971
   19.740    4.4234
   19.770    4.7499
   19.800    4.6445
   19.830    4.6130
   19.860    4.4234
   19.890    4.5603
   19.920    4.6656
   19.950    4.4128
   19.980    4.5919
   20.010    4.6867
   20.040    4.4339
   20.070    4.4339
   20.100    4.3602
   20.130    4.6235
   20.160    4.3813
   20.190    4.4971
   20.220    4.4971
   20.250    4.3075
   20.280    4.4550
   20.310    4.5287
   20.340    4.7288
   20.370    4.8341
   20.400    4.3602
   20.430    4.5076
   20.460    4.5919
   20.490    4.2022
   20.520    4.3813
   20.550    4.4866
   20.580    4.4866
   20.610    4.7183
   20.640    4.7499
   20.670    4.4760
   20.700    4.3075
   20.730    4.4234
   20.760    4.2970
   20.790    4.2233
   20.820    4.5603
   20.850    4.3497
   20.880    4.5498
   20.910    4.7393
   20.940    4.6551
   20.970    4.2443
   21.000    4.3391
   21.030    4.5498
   21.060    4.4866
   21.090    4.5182
   21.120    4.4971
   21.150    4.4128
   21.180    4.6340
   21.210    4.5287
   21.240    4.1601
   21.270    4.4866
   21.300    4.4971
   21.330    4.5287
   21.360    4.5498
   21.390    4.4550
   21.420    4.5287
   21.450    4.6130
   21.480    4.5076
   21.510    4.5603
   21.540    4.8025
   21.570    4.4128
   21.600    4.4339
   21.630    4.5708
   21.660    4.3707
   21.690    4.3286
   21.720    4.2654
   21.750    4.5182
   21.780    4.2443
   21.810    4.6130
   21.840    4.1917
   21.870    4.4444
   21.900    4.4550
   21.930    4.3918
   21.960    4.2022
   21.990    4.6867
   22.020    4.5498
   22.050    4.3813
   22.080    4.4655
   22.110    4.6656
   22.140    4.1601
   22.170    4.1811
   22.200    4.5076
   22.230    4.4234
   22.260    4.1180
   22.290    4.3075
   22.320    4.2759
   22.350    4.4655
   22.380    4.2443
   22.410    4.4866
   22.440    4.1285
   22.470    4.3813
   22.500    4.4866
   22.530    4.3918
   22.560    4.1074
   22.590    4.3497
   22.620    4.0126
   22.650    4.0126
   22.680    4.3075
   22.710    4.0021
   22.740    4.1811
   22.770    4.3602
   22.800    4.4655
   22.830    4.3075
   22.860    4.0337
   22.890    4.0337
   22.920    4.0232
   22.950    4.2654
   22.980    4.2338
   23.010    3.8125
   23.040    4.7393
   23.070    3.8547
   23.100    4.3075
   23.130    4.1601
   23.160    3.8441
   23.190    4.2233
   23.220    4.2338
   23.250    4.2338
   23.280    4.0758
   23.310    4.0864
   23.340    3.9810
   23.370    4.2338
   23.400    4.1917
   23.430    4.1496
   23.460    4.0548
   23.490    4.3391
   23.520    4.0653
   23.550    3.9916
   23.580    4.3918
   23.610    4.1917
   23.640    3.7704
   23.670    4.0653
   23.700    4.3181
   23.730    4.3075
   23.760    3.8652
   23.790    4.0232
   23.820    3.9705
   23.850    4.0969
   23.880    3.9179
   23.910    3.8652
   23.940    3.8336
   23.970    4.4128
   24.000    4.2022
   24.030    3.9810
   24.060    4.0232
   24.090    3.7599
   24.120    4.1180
   24.150    3.8863
   24.180    4.2759
   24.210    4.1706
   24.240    3.9916
   24.270    4.1180
   24.300    3.6546
   24.330    4.0126
   24.360    3.9073
   24.390    4.1285
   24.420    3.9916
   24.450    3.9705
   24.480    4.1390
   24.510    4.0758
   24.540    4.1180
   24.570    4.0442
   24.600    4.1496
   24.630    4.0969
   24.660    3.8125
   24.690    4.2127
   24.720    4.1811
   24.750    3.8863
   24.780    4.1811
   24.810    3.8863
   24.840    3.8863
   24.870    4.0232
   24.900    3.9494
   24.930    3.6546
   24.960    3.7388
   24.990    3.9073
   25.020    4.1811
   25.050    3.9179
   25.080    3.7493
   25.110    4.0442
   25.140    3.9073
   25.170    3.7283
   25.200    3.9073
   25.230    3.7072
   25.260    3.9284
   25.290    3.6967
   25.320    3.8757
   25.350    3.8757
   25.380    3.9073
   25.410    3.6651
   25.440    3.6230
   25.470    3.6019
   25.500    3.9284
   25.530    3.9389
   25.560    3.7704
   25.590    3.7809
   25.620    3.9284
   25.650    3.6335
   25.680    3.7493
   25.710    3.7072
   25.740    3.6756
   25.770    3.8863
   25.800    3.8863
   25.830    3.7283
   25.860    3.7388
   25.890    3.9389
   25.920    3.8336
   25.950    3.7915
   25.980    3.5176
   26.010    3.6335
   26.040    3.8757
   26.070    3.9810
   26.100    3.8547
   26.130    3.6756
   26.160    3.5176
   26.190    3.6862
   26.220    3.6335
   26.250    3.6335
   26.280    3.8231
   26.310    3.8863
   26.340    3.5071
   26.370    3.7177
   26.400    3.4018
   26.430    3.6862
   26.460    3.4544
   26.490    3.7599
   26.520    3.2438
   26.550    3.4018
   26.580    3.7915
   26.610    3.7704
   26.640    3.7599
   26.670    3.5914
   26.700    3.6651
   26.730    3.5492
   26.760    3.5387
   26.790    3.7599
   26.820    3.6124
   26.850    3.6546
   26.880    3.6335
   26.910    3.5492
   26.940    3.5387
   26.970    3.4018
   27.000    3.7599
   27.030    3.4860
   27.060    3.4966
   27.090    3.5176
   27.120    3.4755
   27.150    3.6124
   27.180    3.3070
   27.210    3.8757
   27.240    3.2333
   27.270    3.7177
   27.300    3.5282
   27.330    3.5703
   27.360    3.4544
   27.390    3.5492
   27.420    3.5071
   27.450    3.5492
   27.480    3.4755
   27.510    3.2965
   27.540    3.6230
   27.570    3.4334
   27.600    3.7072
   27.630    3.6440
   27.660    3.5703
   27.690    3.4439
   27.720    3.2017
   27.750    3.5914
   27.780    3.3070
   27.810    3.3491
   27.840    3.4229
   27.870    3.2333
   27.900    3.5387
   27.930    3.3597
   27.960    3.5071
   27.990    3.1912
   28.020    3.8020
   28.050    3.4229
   28.080    3.6019
   28.110    3.6967
   28.140    3.6335
   28.170    3.4334
   28.200    3.6967
   28.230    3.3913
   28.260    3.4755
   28.290    3.5176
   28.320    3.6124
   28.350    3.4229
   28.380    3.3386
   28.410    3.4439
   28.440    3.4123
   28.470    3.5914
   28.500    3.2754
   28.530    3.4755
   28.560    2.9595
   28.590    3.6019
   28.620    3.5703
   28.650    3.4018
   28.680    3.3913
   28.710    3.1701
   28.740    3.6124
   28.770    3.4334
   28.800    3.6335
   28.830    3.3281
   28.860    3.4018
   28.890    3.1806
   28.920    3.4229
   28.950    3.6230
   28.980    3.4966
   29.010    3.4123
   29.040    3.3702
   29.070    3.3281
   29.100    3.3597
   29.130    3.2543
   29.160    3.5492
   29.190    3.0964
   29.220    3.0332
   29.250    3.3491
   29.280    3.4755
   29.310    3.3491
   29.340    3.4966
   29.370    3.3281
   29.400    3.3597
   29.430    2.9700
   29.460    3.3491
   29.490    3.2543
   29.520    3.4334
   29.550    3.0332
   29.580    3.3491
   29.610    3.1490
   29.640    3.1912
   29.670    3.0437
   29.700    3.5914
   29.730    3.1701
   29.760    3.3491
   29.790    3.0542
   29.820    3.2543
   29.850    3.0542
   29.880    2.8225
   29.910    3.2754
   29.940    3.0648
   29.970    2.9595
   30.000    2.9910
   30.030    3.1701
   30.060    3.2438
   30.090    3.3281
   30.120    2.4961
   30.150    3.2965
   30.180    3.1701
   30.210    2.9068
   30.240    3.0016
   30.270    2.9489
   30.300    3.0542
   30.330    3.0542
   30.360    3.0858
   30.390    3.0648
   30.420    3.3070
   30.450    3.3702
   30.480    3.2438
   30.510    3.2649
   30.540    3.2754
   30.570    3.0437
   30.600    3.1174
   30.630    3.0648
   30.660    3.1174
   30.690    3.0648
   30.720    3.1069
   30.750    3.1912
   30.780    2.8120
   30.810    3.1069
   30.840    3.0964
   30.870    3.1385
   30.900    3.1596
   30.930    2.8541
   30.960    3.0226
   30.990    2.9700
   31.020    3.3597
   31.050    3.3597
   31.080    3.0121
   31.110    2.9384
   31.140    3.0332
   31.170    3.0016
   31.200    2.8436
   31.230    3.1069
   31.260    3.3597
   31.290    2.9068
   31.320    2.8857
   31.350    2.8541
   31.380    3.0858
   31.410    2.8752
   31.440    2.9068
   31.470    3.1596
   31.500    2.9805
   31.530    3.1806
   31.560    3.0648
   31.590    2.9279
   31.620    2.9910
   31.650    3.0542
   31.680    2.8015
   31.710    2.7172
   31.740    3.0858
   31.770    3.0753
   31.800    2.8436
   31.830    3.0332
   31.860    2.9173
   31.890    3.1174
   31.920    2.9595
   31.950    3.0226
   31.980    3.0016
   32.010    2.9805
   32.040    3.2122
   32.070    3.1280
   32.100    3.0542
   32.130    2.8120
   32.160    2.9173
   32.190    2.8436
   32.220    2.9805
   32.250    2.8436
   32.280    2.7699
   32.310    2.9910
   32.340    2.7909
   32.370    2.8120
   32.400    2.8436
   32.430    3.0964
   32.460    2.8225
   32.490    2.8225
   32.520    2.6435
   32.550    2.7699
   32.580    3.1490
   32.610    2.8225
   32.640    2.9700
   32.670    3.1280
   32.700    2.6014
   32.730    2.7383
   32.760    2.7488
   32.790    2.7383
   32.820    2.8752
   32.850    2.8120
   32.880    2.8015
   32.910    2.6856
   32.940    2.9173
   32.970    2.8120
   33.000    2.6856
   33.030    2.9595
   33.060    2.7804
   33.090    2.8752
   33.120    2.6646
   33.150    2.7804
   33.180    2.8541
   33.210    2.9805
   33.240    2.7172
   33.270    2.6751
   33.300    2.7804
   33.330    3.1280
   33.360    2.7909
   33.390    2.8120
   33.420    2.6856
   33.450    2.8225
   33.480    2.7699
   33.510    2.8015
   33.540    2.7804
   33.570    2.9068
   33.600    2.6435
   33.630    2.8541
   33.660    2.7593
   33.690    2.5276
   33.720    2.8541
   33.750    2.7804
   33.780    2.7278
   33.810    2.6224
   33.840    2.9805
   33.870    2.9910
   33.900    2.6962
   33.930    2.9595
   33.960    2.9279
   33.990    2.5276
   34.020    2.7488
   34.050    2.8331
   34.080    2.8963
   34.110    2.7067
   34.140    2.7488
   34.170    2.8647
   34.200    2.7593
   34.230    2.7278
   34.260    2.9384
   34.290    2.6540
   34.320    3.1174
   34.350    2.6224
   34.380    2.5698
   34.410    2.5382
   34.440    2.8436
   34.470    2.9910
   34.500    2.9910
   34.530    2.8857
   34.560    2.8225
   34.590    2.7699
   34.620    2.9173
   34.650    2.6646
   34.680    2.8541
   34.710    2.6962
   34.740    2.8436
   34.770    2.8436
   34.800    2.6856
   34.830    2.8120
   34.860    2.8436
   34.890    2.7067
   34.920    2.7383
   34.950    2.7909
   34.980    2.7278
   35.010    2.7278
   35.040    2.8436
   35.070    2.8752
   35.100    2.8331
   35.130    2.8015
   35.160    2.9489
   35.190    2.6856
   35.220    2.8647
   35.250    2.7278
   35.280    2.9068
   35.310    2.7909
   35.340    2.7909
   35.370    2.6751
   35.400    2.6540
   35.430    2.5171
   35.460    2.9068
   35.490    2.6646
   35.520    2.7804
   35.550    2.6224
   35.580    2.7488
   35.610    2.5803
   35.640    2.6119
   35.670    2.4855
   35.700    2.8436
   35.730    2.7593
   35.760    2.4539
   35.790    2.6224
   35.820    2.8963
   35.850    2.6014
   35.880    2.6856
   35.910    2.6435
   35.940    2.8015
   35.970    2.6224
   36.000    2.5066
   36.030    3.0332
   36.060    2.9173
   36.090    3.0437
   36.120    2.8541
   36.150    2.8752
   36.180    2.5698
   36.210    2.5803
   36.240    2.6856
   36.270    2.6330
   36.300    2.6646
   36.330    2.8541
   36.360    2.7804
   36.390    2.5592
   36.420    2.6962
   36.450    2.6751
   36.480    2.9595
   36.510    2.6856
   36.540    2.7699
   36.570    2.6435
   36.600    2.6119
   36.630    2.9700
   36.660    2.7488
   36.690    2.7909
   36.720    2.6540
   36.750    2.4855
   36.780    2.8331
   36.810    2.4223
   36.840    2.7172
   36.870    2.8752
   36.900    2.6751
   36.930    2.6014
   36.960    2.8331
   36.990    2.5171
   37.020    2.6330
   37.050    2.7909
   37.080    2.7804
   37.110    2.6014
   37.140    2.7699
   37.170    2.5908
   37.200    2.4855
   37.230    2.4539
   37.260    2.6119
   37.290    2.5592
   37.320    2.5592
   37.350    2.6330
   37.380    2.7593
   37.410    2.6224
   37.440    2.7488
   37.470    2.7278
   37.500    2.7488
   37.530    2.7699
   37.560    2.8120
   37.590    2.7172
   37.620    2.6330
   37.650    2.6856
   37.680    2.7593
   37.710    2.8436
   37.740    2.6224
   37.770    2.3907
   37.800    2.5382
   37.830    2.5487
   37.860    2.6540
   37.890    2.5382
   37.920    2.6119
   37.950    2.8225
   37.980    2.9805
   38.010    2.6962
   38.040    2.5698
   38.070    2.8120
   38.100    2.5487
   38.130    2.5171
   38.160    2.4434
   38.190    2.6330
   38.220    2.6224
   38.250    2.6646
   38.280    2.6856
   38.310    2.7383
   38.340    2.7488
   38.370    2.4645
   38.400    2.3486
   38.430    2.5698
   38.460    2.9910
   38.490    2.4961
   38.520    2.6224
   38.550    2.7699
   38.580    2.6435
   38.610    2.6751
   38.640    2.8541
   38.670    2.8120
   38.700    2.5803
   38.730    2.5592
   38.760    2.4855
   38.790    2.6856
   38.820    2.7067
   38.850    2.5698
   38.880    2.4961
   38.910    2.6224
   38.940    2.7909
   38.970    2.7172
   39.000    2.4329
   39.030    2.6646
   39.060    2.5803
   39.090    2.5698
   39.120    2.7172
   39.150    2.7067
   39.180    2.5592
   39.210    2.6119
   39.240    2.3486
   39.270    2.4013
   39.300    2.4855
   39.330    2.7804
   39.360    2.6962
   39.390    2.6856
   39.420    2.6856
   39.450    2.6435
   39.480    2.6014
   39.510    2.6646
   39.540    2.6330
   39.570    2.7909
   39.600    2.2538
   39.630    2.6014
   39.660    2.9279
   39.690    2.6856
   39.720    2.6540
   39.750    2.5908
   39.780    2.5382
   39.810    2.6014
   39.840    2.3697
   39.870    2.4329
   39.900    2.7909
   39.930    2.3907
   39.960    2.8225
   39.990    2.7278