File: data/PXRD/PXRD_KE-053-2_Cu-Ka1_capillary-1mm_60s-deg.xyd
    1.500   40.2624
    1.530   40.0711
    1.560   39.3207
    1.590   38.6300
    1.620   37.6198
    1.650   37.0686
    1.680   36.2322
    1.710   35.6723
    1.740   35.0728
    1.770   34.4532
    1.800   33.6589
    1.830   33.0964
    1.860   32.6426
    1.890   31.9668
    1.920   31.7114
    1.950   31.2261
    1.980   30.5468
    2.010   29.9737
    2.040   29.6261
    2.070   29.3453
    2.100   28.8661
    2.130   28.6598
    2.160   28.4711
    2.190   28.0130
    2.220   27.7471
    2.250   27.4522
    2.280   27.2951
    2.310   27.1783
    2.340   27.0265
    2.370   27.0116
    2.400   26.6509
    2.430   26.7974
    2.460   26.5596
    2.490   26.5333
    2.520   26.5333
    2.550   26.4464
    2.580   26.7527
    2.610   26.7369
    2.640   26.7097
    2.670   26.8703
    2.700   27.4469
    2.730   27.6821
    2.760   27.7286
    2.790   28.4351
    2.820   28.4667
    2.850   29.0346
    2.880   29.3655
    2.910   30.1062
    2.940   30.6433
    2.970   31.4701
    3.000   32.3969
    3.030   33.4580
    3.060   34.3005
    3.090   35.5099
    3.120   36.4121
    3.150   37.6689
    3.180   39.3391
    3.210   40.9628
    3.240   42.5039
    3.270   44.6445
    3.300   46.7895
    3.330   49.3988
    3.360   51.8562
    3.390   55.3142
    3.420   58.4904
    3.450   62.1213
    3.480   66.5061
    3.510   70.1764
    3.540   74.0477
    3.570   79.0188
    3.600   84.6358
    3.630   92.0423
    3.660  100.0921
    3.690  109.6314
    3.720  121.1918
    3.750  136.0918
    3.780  154.4892
    3.810  179.9789
    3.840  217.7593
    3.870  285.2922
    3.900  358.1271
    3.930  334.5524
    3.960  188.9767
    3.990   48.9108
    4.020   23.1402
    4.050   18.0490
    4.080   15.7249
    4.110   14.4752
    4.140   13.6502
    4.170   13.0902
    4.200   12.5926
    4.230   12.3881
    4.260   12.0107
    4.290   11.8589
    4.320   11.6465
    4.350   11.5859
    4.380   11.2902
    4.410   11.3718
    4.440   11.2445
    4.470   11.2138
    4.500   11.2182
    4.530   11.2270
    4.560   11.3182
    4.590   11.1857
    4.620   11.4473
    4.650   11.3691
    4.680   11.4279
    4.710   11.6535
    4.740   11.8097
    4.770   11.8510
    4.800   12.0362
    4.830   12.2213
    4.860   12.5136
    4.890   12.7611
    4.920   13.1034
    4.950   13.3860
    4.980   13.8801
    5.010   14.4128
    5.040   14.7823
    5.070   15.6600
    5.100   15.9935
    5.130   16.7465
    5.160   17.6084
    5.190   18.4957
    5.220   19.9210
    5.250   21.3428
    5.280   23.0586
    5.310   24.8289
    5.340   27.0028
    5.370   30.3572
    5.400   33.8169
    5.430   38.8433
    5.460   46.3621
    5.490   59.6068
    5.520   73.9196
    5.550   72.1827
    5.580   45.3010
    5.610   17.5628
    5.640   10.8513
    5.670    9.8359
    5.700    9.2838
    5.730    9.1680
    5.760    8.9073
    5.790    8.9257
    5.820    8.7537
    5.850    8.6835
    5.880    8.7055
    5.910    8.6098
    5.940    8.7458
    5.970    8.6414
    6.000    8.6317
    6.030    8.5817
    6.060    8.6633
    6.090    8.6546
    6.120    8.6107
    6.150    8.7432
    6.180    8.8073
    6.210    8.8529
    6.240    8.9521
    6.270    8.9161
    6.300    9.0284
    6.330    9.0750
    6.360    9.3611
    6.390    9.5278
    6.420    9.4971
    6.450   10.0070
    6.480   10.1159
    6.510   10.5749
    6.540   10.7697
    6.570   11.2357
    6.600   11.8334
    6.630   12.6619
    6.660   13.5352
    6.690   14.9272
    6.720   17.2679
    6.750   20.6029
    6.780   22.7927
    6.810   19.7472
    6.840   13.2263
    6.870    9.0750
    6.900    8.4518
    6.930    8.2579
    6.960    8.2447
    6.990    8.4018
    7.020    8.1411
    7.050    8.0648
    7.080    8.1332
    7.110    7.9805
    7.140    7.9173
    7.170    7.9744
    7.200    8.0534
    7.230    8.0885
    7.260    8.1894
    7.290    8.0788
    7.320    8.4229
    7.350    8.3114
    7.380    8.4852
    7.410    8.6177
    7.440    8.8827
    7.470    8.9442
    7.500    9.3277
    7.530    9.4216
    7.560    9.8903
    7.590   10.4002
    7.620   10.8241
    7.650   11.4236
    7.680   12.2134
    7.710   13.2184
    7.740   14.8289
    7.770   17.3837
    7.800   21.1927
    7.830   23.3790
    7.860   20.4889
    7.890   13.3289
    7.920    8.7493
    7.950    7.8752
    7.980    7.8331
    8.010    7.6259
    8.040    7.6610
    8.070    7.5917
    8.100    7.5118
    8.130    7.4671
    8.160    7.4697
    8.190    7.3723
    8.220    7.4381
    8.250    7.3583
    8.280    7.3934
    8.310    7.3363
    8.340    7.4092
    8.370    7.4829
    8.400    7.4408
    8.430    7.3583
    8.460    7.4715
    8.490    7.4969
    8.520    7.5803
    8.550    7.5821
    8.580    7.6066
    8.610    7.6461
    8.640    7.6847
    8.670    7.8699
    8.700    8.1780
    8.730    8.6300
    8.760    8.8055
    8.790    8.4150
    8.820    7.7585
    8.850    7.4803
    8.880    7.2845
    8.910    7.2661
    8.940    7.3978
    8.970    7.4451
    9.000    7.3855
    9.030    7.6022
    9.060    7.7567
    9.090    7.9331
    9.120    8.0147
    9.150    8.2956
    9.180    8.6151
    9.210    8.7116
    9.240    9.3444
    9.270    9.5480
    9.300   10.1694
    9.330   10.9461
    9.360   11.8317
    9.390   12.8910
    9.420   14.3584
    9.450   16.0593
    9.480   18.6633
    9.510   22.3556
    9.540   28.4746
    9.570   36.6237
    9.600   40.1624
    9.630   32.2722
    9.660   17.5592
    9.690    9.3418
    9.720    7.8910
    9.750    7.4487
    9.780    7.3425
    9.810    7.2389
    9.840    7.1810
    9.870    7.3705
    9.900    7.2679
    9.930    7.3249
    9.960    7.4566
    9.990    7.4320
   10.020    7.5979
   10.050    7.8471
   10.080    7.9489
   10.110    8.2052
   10.140    8.2772
   10.170    8.8801
   10.200    9.4339
   10.230   10.1343
   10.260   10.9452
   10.290   12.3407
   10.320   14.8350
   10.350   17.3188
   10.380   17.0888
   10.410   13.8248
   10.440    9.4155
   10.470    7.5671
   10.500    7.2073
   10.530    7.0414
   10.560    7.0247
   10.590    7.0300
   10.620    6.9923
   10.650    7.0792
   10.680    7.0458
   10.710    7.2055
   10.740    7.4214
   10.770    7.5083
   10.800    7.6022
   10.830    7.8682
   10.860    8.1490
   10.890    8.4588
   10.920    8.8397
   10.950    9.5577
   10.980   10.6977
   11.010   11.8887
   11.040   14.1417
   11.070   16.3042
   11.100   15.9979
   11.130   12.8892
   11.160    9.0635
   11.190    7.3381
   11.220    6.9282
   11.250    6.8870
   11.280    6.9414
   11.310    6.9835
   11.340    6.9958
   11.370    7.0397
   11.400    7.0405
   11.430    7.2942
   11.460    7.3442
   11.490    7.7751
   11.520    7.8980
   11.550    8.1920
   11.580    8.6001
   11.610    9.3207
   11.640   10.2027
   11.670   11.4446
   11.700   13.5133
   11.730   16.1348
   11.760   17.5873
   11.790   15.5880
   11.820   11.2919
   11.850    7.8629
   11.880    7.0748
   11.910    6.7457
   11.940    6.5815
   11.970    6.6342
   12.000    6.5886
   12.030    6.6684
   12.060    6.6272
   12.090    6.5245
   12.120    6.7316
   12.150    6.7737
   12.180    6.7193
   12.210    6.9423
   12.240    6.9853
   12.270    6.9861
   12.300    7.2161
   12.330    7.3258
   12.360    7.9235
   12.390    8.1543
   12.420    8.0191
   12.450    7.4539
   12.480    6.8238
   12.510    6.6605
   12.540    6.5859
   12.570    6.5754
   12.600    6.6061
   12.630    6.6517
   12.660    6.7378
   12.690    6.8159
   12.720    6.9642
   12.750    7.0853
   12.780    7.1748
   12.810    7.6101
   12.840    7.8489
   12.870    8.3570
   12.900    9.1065
   12.930   10.1062
   12.960   11.7957
   12.990   13.4694
   13.020   13.5993
   13.050   11.3419
   13.080    8.5861
   13.110    6.9642
   13.140    6.6912
   13.170    6.5561
   13.200    6.5886
   13.230    6.4938
   13.260    6.5912
   13.290    6.6412
   13.320    6.6965
   13.350    6.8808
   13.380    6.9124
   13.410    7.0704
   13.440    7.3284
   13.470    7.7357
   13.500    8.1464
   13.530    8.9837
   13.560   10.0509
   13.590   10.5889
   13.620    9.7376
   13.650    8.0929
   13.680    6.9423
   13.710    6.6588
   13.740    6.5122
   13.770    6.6667
   13.800    6.5192
   13.830    6.6149
   13.860    6.6737
   13.890    6.7720
   13.920    7.0607
   13.950    7.1871
   13.980    7.4302
   14.010    7.9507
   14.040    8.5721
   14.070    9.4594
   14.100   10.9408
   14.130   12.3319
   14.160   12.1362
   14.190   10.3704
   14.220    8.0139
   14.250    6.8887
   14.280    6.5552
   14.310    6.4788
   14.340    6.3876
   14.370    6.3612
   14.400    6.4297
   14.430    6.1962
   14.460    6.3411
   14.490    6.3174
   14.520    6.3007
   14.550    6.3542
   14.580    6.3156
   14.610    6.2524
   14.640    6.3437
   14.670    6.3841
   14.700    6.3261
   14.730    6.3235
   14.760    6.4121
   14.790    6.3419
   14.820    6.3358
   14.850    6.3999
   14.880    6.3691
   14.910    6.3367
   14.940    6.4867
   14.970    6.4701
   15.000    6.4709
   15.030    6.6737
   15.060    6.6202
   15.090    6.7878
   15.120    7.0994
   15.150    7.4592
   15.180    7.7541
   15.210    7.6409
   15.240    7.4653
   15.270    6.7983
   15.300    6.4244
   15.330    6.4806
   15.360    6.2410
   15.390    6.3963
   15.420    6.2805
   15.450    6.3867
   15.480    6.3130
   15.510    6.3586
   15.540    6.3182
   15.570    6.4016
   15.600    6.3981
   15.630    6.3481
   15.660    6.3411
   15.690    6.2866
   15.720    6.3490
   15.750    6.3279
   15.780    6.3744
   15.810    6.3393
   15.840    6.4007
   15.870    6.2893
   15.900    6.3542
   15.930    6.3560
   15.960    6.4508
   15.990    6.6035
   16.020    6.6790
   16.050    6.6588
   16.080    6.7922
   16.110    7.0432
   16.140    7.5540
   16.170    7.8383
   16.200    7.8699
   16.230    7.4820
   16.260    7.0695
   16.290    6.5420
   16.320    6.6096
   16.350    6.4130
   16.380    6.3884
   16.410    6.5385
   16.440    6.4973
   16.470    6.5587
   16.500    6.6737
   16.530    6.6904
   16.560    7.0028
   16.590    7.4381
   16.620    7.8445
   16.650    8.1455
   16.680    8.1789
   16.710    7.6110
   16.740    7.0362
   16.770    6.5552
   16.800    6.4376
   16.830    6.6877
   16.860    6.7667
   16.890    6.7720
   16.920    7.0028
   16.950    7.2529
   16.980    7.5768
   17.010    8.0753
   17.040    9.0556
   17.070   10.3282
   17.100   11.4780
   17.130   11.7860
   17.160   10.5204
   17.190    8.6335
   17.220    7.1722
   17.250    6.6667
   17.280    6.4938
   17.310    6.5368
   17.340    6.5192
   17.370    6.5657
   17.400    6.4815
   17.430    6.5543
   17.460    6.7694
   17.490    6.8887
   17.520    7.1687
   17.550    7.3662
   17.580    7.6365
   17.610    7.1704
   17.640    6.8984
   17.670    6.4499
   17.700    6.5429
   17.730    6.5306
   17.760    6.4165
   17.790    6.5921
   17.820    6.4859
   17.850    6.6675
   17.880    6.6456
   17.910    6.8685
   17.940    7.0458
   17.970    7.2916
   18.000    7.5048
   18.030    7.4241
   18.060    7.0686
   18.090    6.7939
   18.120    6.6395
   18.150    6.4674
   18.180    6.5175
   18.210    6.5929
   18.240    6.4587
   18.270    6.6359
   18.300    6.8598
   18.330    6.8554
   18.360    7.1081
   18.390    7.5821
   18.420    7.9709
   18.450    7.8515
   18.480    7.5294
   18.510    6.8808
   18.540    6.5613
   18.570    6.4788
   18.600    6.5666
   18.630    6.4990
   18.660    6.4622
   18.690    6.5973
   18.720    6.4903
   18.750    6.5763
   18.780    6.6649
   18.810    6.8773
   18.840    6.8905
   18.870    6.9598
   18.900    6.7694
   18.930    6.5771
   18.960    6.6544
   18.990    6.4955
   19.020    6.6605
   19.050    6.5745
   19.080    6.5438
   19.110    6.4613
   19.140    6.5929
   19.170    6.5377
   19.200    6.5526
   19.230    6.5631
   19.260    6.6956
   19.290    6.7123
   19.320    6.5903
   19.350    6.5815
   19.380    6.4095
   19.410    6.4622
   19.440    6.5991
   19.470    6.6596
   19.500    6.6596
   19.530    6.9177
   19.560    6.9967
   19.590    7.4057
   19.620    7.7787
   19.650    8.1727
   19.680    8.2570
   19.710    7.6839
   19.740    7.1959
   19.770    6.7667
   19.800    6.4806
   19.830    6.4815
   19.860    6.4973
   19.890    6.5201
   19.920    6.5438
   19.950    6.3920
   19.980    6.5640
   20.010    6.7632
   20.040    6.7527
   20.070    6.8071
   20.100    6.5771
   20.130    6.4955
   20.160    6.5771
   20.190    6.5921
   20.220    6.7448
   20.250    6.9063
   20.280    7.2126
   20.310    7.3390
   20.340    8.0262
   20.370    8.8441
   20.400    9.7683
   20.430   10.6512
   20.460   10.3651
   20.490    9.4295
   20.520    8.1982
   20.550    7.1388
   20.580    6.6842
   20.610    6.5684
   20.640    6.6131
   20.670    6.4508
   20.700    6.5991
   20.730    6.5438
   20.760    6.5807
   20.790    6.5771
   20.820    6.6245
   20.850    6.5842
   20.880    6.5850
   20.910    6.6368
   20.940    6.4631
   20.970    6.5324
   21.000    6.5692
   21.030    6.4946
   21.060    6.5183
   21.090    6.4797
   21.120    6.4920
   21.150    6.6272
   21.180    6.6368
   21.210    6.6474
   21.240    6.5166
   21.270    6.5482
   21.300    6.5482
   21.330    6.5227
   21.360    6.6123
   21.390    6.5324
   21.420    6.5701
   21.450    6.6087
   21.480    6.4674
   21.510    6.5025
   21.540    6.6509
   21.570    6.4402
   21.600    6.6632
   21.630    6.5982
   21.660    6.6509
   21.690    6.6658
   21.720    6.7430
   21.750    6.7369
   21.780    6.8861
   21.810    7.0686
   21.840    7.3460
   21.870    7.6295
   21.900    8.0648
   21.930    8.1481
   21.960    8.0025
   21.990    7.4750
   22.020    6.9756
   22.050    6.9107
   22.080    6.7720
   22.110    6.8799
   22.140    6.8940
   22.170    6.9782
   22.200    7.2714
   22.230    7.5575
   22.260    7.7523
   22.290    7.6944
   22.320    7.6259
   22.350    7.3311
   22.380    6.9730
   22.410    6.9721
   22.440    7.1564
   22.470    7.3065
   22.500    7.6347
   22.530    8.3017
   22.560    9.2742
   22.590   10.4722
   22.620   11.1620
   22.650   10.7952
   22.680    9.9035
   22.710    8.6607
   22.740    7.6821
   22.770    7.2152
   22.800    7.2661
   22.830    7.6005
   22.860    8.2096
   22.890    9.0662
   22.920   10.1071
   22.950   10.9347
   22.980   11.3876
   23.010   10.7091
   23.040    9.3497
   23.070    8.0402
   23.100    7.1766
   23.130    6.9914
   23.160    6.9300
   23.190    6.9370
   23.220    7.2486
   23.250    7.5364
   23.280    7.9902
   23.310    7.9542
   23.340    8.0314
   23.370    7.5742
   23.400    6.9940
   23.430    6.9247
   23.460    6.6491
   23.490    6.6649
   23.520    6.6087
   23.550    6.6280
   23.580    6.7518
   23.610    6.6833
   23.640    6.8440
   23.670    6.9519
   23.700    6.7413
   23.730    6.7413
   23.760    6.5394
   23.790    6.5771
   23.820    6.7114
   23.850    6.8422
   23.880    7.0958
   23.910    7.3609
   23.940    7.6540
   23.970    7.8849
   24.000    7.7620
   24.030    7.6224
   24.060    7.2503
   24.090    6.7606
   24.120    6.5833
   24.150    6.6087
   24.180    6.6535
   24.210    6.5333
   24.240    6.6561
   24.270    6.6693
   24.300    6.5341
   24.330    6.7149
   24.360    6.6491
   24.390    6.4797
   24.420    6.4543
   24.450    6.5043
   24.480    6.5298
   24.510    6.5517
   24.540    6.5833
   24.570    6.7702
   24.600    6.8966
   24.630    6.8931
   24.660    6.9458
   24.690    6.7184
   24.720    6.5113
   24.750    6.5140
   24.780    6.4236
   24.810    6.5341
   24.840    6.4306
   24.870    6.5210
   24.900    6.6798
   24.930    6.6816
   24.960    6.6535
   24.990    6.7351
   25.020    6.5324
   25.050    6.5087
   25.080    6.4894
   25.110    6.4946
   25.140    6.6114
   25.170    6.7369
   25.200    6.9405
   25.230    6.9598
   25.260    7.0484
   25.290    7.0800
   25.320    6.9273
   25.350    6.7105
   25.380    6.5262
   25.410    6.4288
   25.440    6.5219
   25.470    6.6693
   25.500    6.6614
   25.530    6.8211
   25.560    6.8984
   25.590    6.9668
   25.620    6.9528
   25.650    6.6807
   25.680    6.6798
   25.710    6.6640
   25.740    7.0002
   25.770    7.4162
   25.800    8.0420
   25.830    8.9740
   25.860    9.5138
   25.890    9.5901
   25.920    9.3268
   25.950    8.4896
   25.980    7.5522
   26.010    6.8150
   26.040    6.5780
   26.070    6.4244
   26.100    6.4587
   26.130    6.6052
   26.160    6.6298
   26.190    6.5719
   26.220    6.6149
   26.250    6.5306
   26.280    6.5254
   26.310    6.3147
   26.340    6.4279
   26.370    6.5464
   26.400    6.8887
   26.430    7.1301
   26.460    7.2731
   26.490    7.4434
   26.520    7.2363
   26.550    7.1108
   26.580    6.7852
   26.610    6.5543
   26.640    6.3533
   26.670    6.2138
   26.700    6.3086
   26.730    6.2419
   26.760    6.2033
   26.790    6.3463
   26.820    6.3314
   26.850    6.1840
   26.880    6.3103
   26.910    6.3375
   26.940    6.3867
   26.970    6.6833
   27.000    6.8589
   27.030    7.3012
   27.060    7.5478
   27.090    7.6110
   27.120    7.4601
   27.150    7.2108
   27.180    6.6948
   27.210    6.4218
   27.240    6.3086
   27.270    6.1067
   27.300    6.3481
   27.330    6.3288
   27.360    6.2085
   27.390    6.0181
   27.420    6.2454
   27.450    6.3121
   27.480    6.2498
   27.510    6.2120
   27.540    6.2313
   27.570    6.4894
   27.600    6.7966
   27.630    6.8791
   27.660    7.1582
   27.690    6.9668
   27.720    6.9686
   27.750    6.7281
   27.780    6.3937
   27.810    6.3288
   27.840    6.2454
   27.870    6.3709
   27.900    6.5666
   27.930    6.7650
   27.960    6.6842
   27.990    6.6737
   28.020    6.8352
   28.050    6.5728
   28.080    6.5921
   28.110    6.4762
   28.140    6.7149
   28.170    7.0634
   28.200    7.4100
   28.230    7.5908
   28.260    7.4487
   28.290    7.3846
   28.320    6.9484
   28.350    6.6754
   28.380    6.5561
   28.410    6.5122
   28.440    7.0388
   28.470    7.1072
   28.500    7.2407
   28.530    7.3346
   28.560    7.1520
   28.590    6.8457
   28.620    6.6228
   28.650    6.3419
   28.680    6.2252
   28.710    6.2033
   28.740    6.2823
   28.770    6.2638
   28.800    6.2761
   28.830    6.2410
   28.860    6.1594
   28.890    6.1787
   28.920    6.1480
   28.950    6.0541
   28.980    6.3525
   29.010    6.3551
   29.040    6.3762
   29.070    6.3033
   29.100    6.4104
   29.130    6.2577
   29.160    6.3446
   29.190    6.3349
   29.220    6.2401
   29.250    6.5289
   29.280    6.7149
   29.310    6.9572
   29.340    7.0528
   29.370    6.9519
   29.400    6.8527
   29.430    6.6123
   29.460    6.3024
   29.490    6.0453
   29.520    6.0664
   29.550    5.9996
   29.580    5.9856
   29.610    5.9435
   29.640    5.9259
   29.670    5.9751
   29.700    5.9856
   29.730    6.0664
   29.760    6.0023
   29.790    6.2173
   29.820    6.2542
   29.850    6.2902
   29.880    6.3911
   29.910    6.4797
   29.940    6.3876
   29.970    6.2033
   30.000    6.1225
   30.030    6.0409
   30.060    6.1146
   30.090    6.1146
   30.120    6.1831
   30.150    6.1541
   30.180    6.2077
   30.210    6.0611
   30.240    6.1032
   30.270    5.9356
   30.300    6.1155
   30.330    6.0102
   30.360    6.1129
   30.390    6.0813
   30.420    6.3024
   30.450    6.1875
   30.480    5.9540
   30.510    5.9926
   30.540    5.9347
   30.570    6.0014
   30.600    6.1497
   30.630    6.3200
   30.660    6.3068
   30.690    6.3463
   30.720    6.3051
   30.750    6.2752
   30.780    6.1339
   30.810    5.8864
   30.840    5.7504
   30.870    5.9242
   30.900    5.9189
   30.930    5.9970
   30.960    5.9619
   30.990    5.8013
   31.020    5.8768
   31.050    5.7232
   31.080    5.8013
   31.110    5.7443
   31.140    5.7995
   31.170    5.7048
   31.200    5.8206
   31.230    5.7311
   31.260    5.6582
   31.290    5.8829
   31.320    5.7048
   31.350    5.8153
   31.380    5.9461
   31.410    6.1102
   31.440    6.2603
   31.470    6.2384
   31.500    6.1769
   31.530    6.1374
   31.560    6.0075
   31.590    5.8022
   31.620    5.8136
   31.650    5.8268
   31.680    5.8487
   31.710    5.8373
   31.740    5.7820
   31.770    5.8970
   31.800    5.9171
   31.830    5.8355
   31.860    5.8443
   31.890    5.9207
   31.920    5.8452
   31.950    5.9645
   31.980    6.0470
   32.010    5.9777
   32.040    5.8935
   32.070    5.9760
   32.100    5.9663
   32.130    6.1989
   32.160    6.1611
   32.190    5.9224
   32.220    5.8768
   32.250    5.7320
   32.280    5.8671
   32.310    5.6872
   32.340    5.6574
   32.370    5.6091
   32.400    5.6433
   32.430    5.6214
   32.460    5.5687
   32.490    5.6609
   32.520    5.6644
   32.550    5.5591
   32.580    5.5582
   32.610    5.6240
   32.640    5.5714
   32.670    5.5512
   32.700    5.6582
   32.730    5.5731
   32.760    5.6969
   32.790    5.6240
   32.820    5.6556
   32.850    5.7390
   32.880    5.6679
   32.910    5.8338
   32.940    5.9821
   32.970    5.9988
   33.000    6.0435
   33.030    5.7732
   33.060    5.7776
   33.090    5.6108
   33.120    5.4599
   33.150    5.5819
   33.180    5.3993
   33.210    5.5161
   33.240    5.4880
   33.270    5.3976
   33.300    5.4836
   33.330    5.4265
   33.360    5.4397
   33.390    5.4344
   33.420    5.4546
   33.450    5.4099
   33.480    5.4880
   33.510    5.3985
   33.540    5.3932
   33.570    5.3528
   33.600    5.5389
   33.630    5.5143
   33.660    5.5766
   33.690    5.5608
   33.720    5.6302
   33.750    5.5731
   33.780    5.6249
   33.810    5.5696
   33.840    5.8943
   33.870    5.9540
   33.900    5.9233
   33.930    6.0348
   33.960    6.0962
   33.990    5.9408
   34.020    5.9031
   34.050    5.7337
   34.080    5.5854
   34.110    5.5126
   34.140    5.5705
   34.170    5.5213
   34.200    5.5977
   34.230    5.4511
   34.260    5.4862
   34.290    5.3590
   34.320    5.4301
   34.350    5.4660
   34.380    5.4880
   34.410    5.4151
   34.440    5.4379
   34.470    5.3765
   34.500    5.4028
   34.530    5.2861
   34.560    5.4143
   34.590    5.3414
   34.620    5.3195
   34.650    5.3300
   34.680    5.1729
   34.710    5.3844
   34.740    5.3809
   34.770    5.3730
   34.800    5.4143
   34.830    5.4678
   34.860    5.5819
   34.890    5.5977
   34.920    5.6135
   34.950    5.5722
   34.980    5.3037
   35.010    5.3423
   35.040    5.1817
   35.070    5.2387
   35.100    5.1711
   35.130    5.1931
   35.160    5.2045
   35.190    5.0772
   35.220    5.1510
   35.250    5.2396
   35.280    5.2352
   35.310    5.3739
   35.340    5.3537
   35.370    5.2273
   35.400    5.2054
   35.430    5.2773
   35.460    5.1922
   35.490    5.2080
   35.520    5.1123
   35.550    5.2010
   35.580    5.0860
   35.610    5.1246
   35.640    5.1290
   35.670    5.1948
   35.700    5.2852
   35.730    5.2273
   35.760    5.2615
   35.790    5.3326
   35.820    5.3686
   35.850    5.3230
   35.880    5.2966
   35.910    5.2686
   35.940    5.2475
   35.970    5.2115
   36.000    5.2422
   36.030    5.2712
   36.060    5.3985
   36.090    5.3318
   36.120    5.2975
   36.150    5.3133
   36.180    5.2036
   36.210    5.2194
   36.240    5.1948
   36.270    5.2887
   36.300    5.2062
   36.330    5.2405
   36.360    5.1685
   36.390    5.1343
   36.420    5.0176
   36.450    5.0746
   36.480    5.0869
   36.510    5.1246
   36.540    5.1492
   36.570    5.1167
   36.600    5.2010
   36.630    5.1948
   36.660    5.2659
   36.690    5.3326
   36.720    5.2422
   36.750    5.2545
   36.780    5.2106
   36.810    5.1747
   36.840    5.1088
   36.870    4.9043
   36.900    4.9412
   36.930    5.0360
   36.960    4.9043
   36.990    5.1123
   37.020    5.1325
   37.050    5.2405
   37.080    5.3791
   37.110    5.3318
   37.140    5.6152
   37.170    5.4687
   37.200    5.4458
   37.230    5.4397
   37.260    5.3072
   37.290    5.1650
   37.320    5.0325
   37.350    4.8789
   37.380    4.8964
   37.410    5.0667
   37.440    5.0623
   37.470    5.0246
   37.500    5.0325
   37.530    5.1088
   37.560    5.1009
   37.590    5.1518
   37.620    5.1905
   37.650    5.1115
   37.680    5.1896
   37.710    4.9868
   37.740    5.1360
   37.770    5.0570
   37.800    5.1395
   37.830    5.0965
   37.860    5.0167
   37.890    4.9561
   37.920    5.1167
   37.950    5.1510
   37.980    5.1387
   38.010    5.1492
   38.040    5.1246
   38.070    5.0386
   38.100    5.0755
   38.130    5.1123
   38.160    4.9614
   38.190    4.9307
   38.220    4.9570
   38.250    5.0246
   38.280    4.9579
   38.310    4.9684
   38.340    4.9210
   38.370    5.0421
   38.400    5.0369
   38.430    5.0316
   38.460    5.0044
   38.490    5.0518
   38.520    5.0307
   38.550    4.9324
   38.580    5.0281
   38.610    4.9219
   38.640    5.0184
   38.670    5.0061
   38.700    4.9579
   38.730    4.9026
   38.760    4.9526
   38.790    4.9324
   38.820    4.9956
   38.850    4.9473
   38.880    5.0009
   38.910    4.9596
   38.940    5.0693
   38.970    4.9491
   39.000    4.9710
   39.030    4.8648
   39.060    4.9219
   39.090    4.8982
   39.120    4.9140
   39.150    4.9175
   39.180    4.9026
   39.210    4.9193
   39.240    5.0632
   39.270    5.0140
   39.300    5.0843
   39.330    5.0404
   39.360    5.0711
   39.390    5.0597
   39.420    4.8964
   39.450    4.9403
   39.480    4.8956
   39.510    4.9640
   39.540    4.8754
   39.570    4.9605
   39.600    4.9824
   39.630    4.9974
   39.660    4.8815
   39.690    4.8938
   39.720    4.9666
   39.750    4.9465
   39.780    4.9947
   39.810    4.9473
   39.840    4.9956
   39.870    4.9456
   39.900    4.9149
   39.930    4.9298
   39.960    4.8622
   39.990    4.9061