File: data/PXRD/PXRD_KE-228_Co-Ka1_capillary-1mm_5s-deg_MOCOF-1.xyd
    1.500    4.9652
    1.530    4.8796
    1.560    4.1413
    1.590    4.7084
    1.620    4.2804
    1.650    4.3874
    1.680    4.5051
    1.710    4.2269
    1.740    4.3660
    1.770    3.9486
    1.800    4.0663
    1.830    3.8844
    1.860    3.5955
    1.890    3.8523
    1.920    3.7881
    1.950    3.8202
    1.980    3.6169
    2.010    3.5741
    2.040    3.6169
    2.070    3.5848
    2.100    3.3173
    2.130    3.5099
    2.160    3.0391
    2.190    3.5527
    2.220    3.0391
    2.250    2.8464
    2.280    2.9642
    2.310    2.9642
    2.340    2.9320
    2.370    2.9535
    2.400    3.1461
    2.430    3.2317
    2.460    2.8464
    2.490    2.8892
    2.520    2.8036
    2.550    2.9535
    2.580    2.6217
    2.610    2.8464
    2.640    2.6645
    2.670    2.6966
    2.700    2.8250
    2.730    2.6110
    2.760    2.6431
    2.790    2.8036
    2.820    2.7822
    2.850    2.5575
    2.880    3.0177
    2.910    2.7180
    2.940    2.4291
    2.970    2.7073
    3.000    2.7501
    3.030    2.8571
    3.060    2.7287
    3.090    2.7929
    3.120    2.9320
    3.150    2.9213
    3.180    2.8464
    3.210    3.1354
    3.240    2.9320
    3.270    3.0177
    3.300    3.2745
    3.330    3.1354
    3.360    3.0926
    3.390    3.4457
    3.420    3.4350
    3.450    3.4457
    3.480    3.6918
    3.510    3.6383
    3.540    3.5206
    3.570    3.4350
    3.600    3.9486
    3.630    4.4302
    3.660    4.1948
    3.690    4.8582
    3.720    4.9866
    3.750    5.0829
    3.780    5.3933
    3.810    5.7785
    3.840    6.0888
    3.870    6.2493
    3.900    6.5276
    3.930    7.3194
    3.960    7.5334
    3.990    8.3253
    4.020    8.9353
    4.050    9.4275
    4.080   10.4655
    4.110   10.9577
    4.140   12.2953
    4.170   13.4082
    4.200   14.2643
    4.230   15.4093
    4.260   17.7742
    4.290   19.4115
    4.320   21.8085
    4.350   24.8903
    4.380   28.2076
    4.410   34.2322
    4.440   40.0000
    4.470   51.7817
    4.500   74.3606
    4.530   92.4345
    4.560   32.3917
    4.590    7.2231
    4.620    3.9272
    4.650    2.8785
    4.680    2.3542
    4.710    2.0011
    4.740    2.0439
    4.770    1.8085
    4.800    1.5516
    4.830    1.5409
    4.860    1.4660
    4.890    1.4874
    4.920    1.6158
    4.950    1.7335
    4.980    1.4767
    5.010    1.4874
    5.040    1.4553
    5.070    1.4446
    5.100    1.2841
    5.130    1.4660
    5.160    1.3483
    5.190    1.4874
    5.220    1.3162
    5.250    1.2734
    5.280    1.4874
    5.310    1.3269
    5.340    1.2841
    5.370    1.2520
    5.400    1.3269
    5.430    1.3162
    5.460    1.4125
    5.490    1.3590
    5.520    1.4125
    5.550    1.4446
    5.580    1.4660
    5.610    1.4874
    5.640    1.4874
    5.670    1.5195
    5.700    1.6051
    5.730    1.9583
    5.760    1.8513
    5.790    1.7121
    5.820    1.8192
    5.850    1.7764
    5.880    1.9583
    5.910    2.1616
    5.940    2.2686
    5.970    2.1081
    6.000    2.7501
    6.030    2.7394
    6.060    3.0712
    6.090    3.2959
    6.120    3.2959
    6.150    3.7667
    6.180    3.9272
    6.210    4.8261
    6.240    5.5752
    6.270    6.2493
    6.300    7.3087
    6.330    8.6998
    6.360   11.6961
    6.390   17.3676
    6.420   17.2178
    6.450    6.2172
    6.480    2.0974
    6.510    1.6372
    6.540    1.3804
    6.570    1.2734
    6.600    1.3697
    6.630    1.1878
    6.660    0.9631
    6.690    1.0915
    6.720    1.2306
    6.750    1.0487
    6.780    1.0808
    6.810    1.2413
    6.840    0.9738
    6.870    1.0915
    6.900    0.8775
    6.930    0.9738
    6.960    1.0701
    6.990    0.9738
    7.020    0.9845
    7.050    1.0701
    7.080    0.7919
    7.110    1.0273
    7.140    0.9631
    7.170    1.1129
    7.200    1.0380
    7.230    0.8775
    7.260    1.0059
    7.290    1.0594
    7.320    1.0808
    7.350    1.0915
    7.380    1.1343
    7.410    1.3269
    7.440    1.2092
    7.470    1.2841
    7.500    1.3911
    7.530    1.0701
    7.560    1.2306
    7.590    1.3269
    7.620    1.3911
    7.650    1.7764
    7.680    1.7442
    7.710    1.6586
    7.740    2.1830
    7.770    2.4291
    7.800    3.1354
    7.830    4.1199
    7.860    4.9973
    7.890    2.5575
    7.920    1.1985
    7.950    0.9310
    7.980    0.9096
    8.010    0.9310
    8.040    0.9524
    8.070    0.9738
    8.100    0.9845
    8.130    0.8775
    8.160    0.9524
    8.190    0.9631
    8.220    0.8668
    8.250    0.9738
    8.280    0.8989
    8.310    0.7812
    8.340    1.0808
    8.370    0.7491
    8.400    0.8561
    8.430    0.9524
    8.460    0.9310
    8.490    0.7705
    8.520    1.0273
    8.550    0.9310
    8.580    1.1022
    8.610    0.8347
    8.640    1.1557
    8.670    1.1450
    8.700    1.0808
    8.730    0.8668
    8.760    1.1129
    8.790    1.2306
    8.820    1.2734
    8.850    1.5088
    8.880    1.6158
    8.910    1.6693
    8.940    1.9797
    8.970    2.2044
    9.000    2.6217
    9.030    3.7667
    9.060    5.1578
    9.090    4.8261
    9.120    2.1509
    9.150    1.0380
    9.180    1.0273
    9.210    0.7598
    9.240    0.8882
    9.270    0.8989
    9.300    0.8347
    9.330    0.7598
    9.360    0.7598
    9.390    0.8454
    9.420    0.8133
    9.450    0.7705
    9.480    0.8668
    9.510    0.8240
    9.540    0.8454
    9.570    0.9310
    9.600    0.7705
    9.630    0.9310
    9.660    0.8240
    9.690    0.6956
    9.720    0.8561
    9.750    0.9096
    9.780    0.9417
    9.810    0.6100
    9.840    0.6849
    9.870    0.8561
    9.900    0.8240
    9.930    0.8775
    9.960    0.9631
    9.990    0.7384
   10.020    0.9417
   10.050    0.9417
   10.080    0.8989
   10.110    1.1450
   10.140    1.3376
   10.170    1.2627
   10.200    0.8454
   10.230    0.7705
   10.260    0.7491
   10.290    0.8989
   10.320    0.8668
   10.350    0.7277
   10.380    0.7705
   10.410    0.9310
   10.440    0.8026
   10.470    0.7277
   10.500    0.8454
   10.530    0.7063
   10.560    0.9631
   10.590    0.9417
   10.620    0.8026
   10.650    0.8347
   10.680    0.8882
   10.710    1.1129
   10.740    0.9524
   10.770    0.9631
   10.800    1.1557
   10.830    1.1664
   10.860    1.4446
   10.890    1.6800
   10.920    1.8513
   10.950    2.0011
   10.980    2.3970
   11.010    3.0070
   11.040    3.8202
   11.070    5.0080
   11.100    7.4371
   11.130    8.7105
   11.160    4.7833
   11.190    1.4446
   11.220    1.1985
   11.250    0.8561
   11.280    0.8240
   11.310    0.7812
   11.340    0.7705
   11.370    0.8026
   11.400    0.8561
   11.430    0.5886
   11.460    0.8561
   11.490    0.9631
   11.520    0.7705
   11.550    0.7598
   11.580    0.8133
   11.610    0.7277
   11.640    0.9952
   11.670    0.9417
   11.700    0.7598
   11.730    1.0059
   11.760    0.8347
   11.790    1.0166
   11.820    0.8989
   11.850    1.0380
   11.880    1.2948
   11.910    1.5837
   11.940    1.6158
   11.970    2.1081
   12.000    3.0819
   12.030    3.1033
   12.060    1.8941
   12.090    1.0166
   12.120    0.6956
   12.150    0.6100
   12.180    0.7277
   12.210    0.8454
   12.240    0.7384
   12.270    0.7919
   12.300    0.8775
   12.330    0.7598
   12.360    0.8882
   12.390    0.8240
   12.420    0.8775
   12.450    0.7384
   12.480    0.8026
   12.510    0.6742
   12.540    0.8668
   12.570    0.8989
   12.600    0.9952
   12.630    0.8775
   12.660    0.9952
   12.690    1.1129
   12.720    1.1450
   12.750    1.4446
   12.780    1.7657
   12.810    2.2579
   12.840    3.3280
   12.870    2.8571
   12.900    1.7657
   12.930    0.8668
   12.960    0.8240
   12.990    0.6956
   13.020    0.6742
   13.050    0.8347
   13.080    0.7812
   13.110    0.8240
   13.140    0.5993
   13.170    0.6956
   13.200    0.6849
   13.230    0.6421
   13.260    0.7919
   13.290    0.7384
   13.320    0.6207
   13.350    0.8026
   13.380    0.7812
   13.410    1.0059
   13.440    1.0487
   13.470    1.1129
   13.500    1.4125
   13.530    1.5195
   13.560    1.9690
   13.590    2.4719
   13.620    3.6169
   13.650    3.0605
   13.680    2.0546
   13.710    0.9631
   13.740    0.8240
   13.770    0.7063
   13.800    0.7063
   13.830    0.7170
   13.860    0.6421
   13.890    0.7170
   13.920    0.6635
   13.950    0.8561
   13.980    0.7063
   14.010    0.7277
   14.040    0.7063
   14.070    0.8347
   14.100    0.7384
   14.130    0.7491
   14.160    0.5886
   14.190    0.8240
   14.220    0.8133
   14.250    0.7063
   14.280    0.8668
   14.310    0.9417
   14.340    0.9417
   14.370    1.1129
   14.400    0.9631
   14.430    0.8454
   14.460    0.6956
   14.490    0.5778
   14.520    0.6207
   14.550    0.5886
   14.580    0.6100
   14.610    0.6314
   14.640    0.6528
   14.670    0.7063
   14.700    0.8454
   14.730    0.6100
   14.760    0.6528
   14.790    0.8026
   14.820    0.6956
   14.850    0.8133
   14.880    0.8133
   14.910    0.8133
   14.940    0.8240
   14.970    0.9845
   15.000    1.2306
   15.030    1.6479
   15.060    2.2900
   15.090    2.3863
   15.120    1.9048
   15.150    1.0487
   15.180    0.7812
   15.210    0.7063
   15.240    0.5778
   15.270    0.6421
   15.300    0.6956
   15.330    0.6849
   15.360    0.6528
   15.390    0.6635
   15.420    0.6314
   15.450    0.5778
   15.480    0.6207
   15.510    0.6207
   15.540    0.8026
   15.570    0.7812
   15.600    0.8026
   15.630    0.8775
   15.660    0.9524
   15.690    1.1129
   15.720    1.1664
   15.750    1.4553
   15.780    1.5409
   15.810    1.0915
   15.840    0.6742
   15.870    0.5671
   15.900    0.6528
   15.930    0.6314
   15.960    0.6849
   15.990    0.5778
   16.020    0.5886
   16.050    0.6207
   16.080    0.6528
   16.110    0.5778
   16.140    0.5886
   16.170    0.7812
   16.200    0.8989
   16.230    0.7812
   16.260    0.8989
   16.290    0.8775
   16.320    0.9952
   16.350    1.5837
   16.380    1.8620
   16.410    2.1830
   16.440    1.8192
   16.470    0.9203
   16.500    0.7598
   16.530    0.7170
   16.560    0.5886
   16.590    0.6849
   16.620    0.5778
   16.650    0.5778
   16.680    0.5564
   16.710    0.5993
   16.740    0.5457
   16.770    0.6956
   16.800    0.5993
   16.830    0.6742
   16.860    0.6207
   16.890    0.7170
   16.920    0.6956
   16.950    0.5778
   16.980    0.6956
   17.010    0.6100
   17.040    0.5778
   17.070    0.5993
   17.100    0.5993
   17.130    0.7384
   17.160    0.5886
   17.190    0.5457
   17.220    0.6100
   17.250    0.7598
   17.280    0.6635
   17.310    0.5886
   17.340    0.6956
   17.370    0.6100
   17.400    0.6100
   17.430    0.7277
   17.460    0.6314
   17.490    0.7598
   17.520    0.6528
   17.550    0.7919
   17.580    0.8133
   17.610    1.0273
   17.640    0.9845
   17.670    0.9310
   17.700    0.8026
   17.730    0.7705
   17.760    0.8026
   17.790    0.7598
   17.820    0.6100
   17.850    0.6956
   17.880    0.5778
   17.910    0.6314
   17.940    0.5993
   17.970    0.6207
   18.000    0.6528
   18.030    0.5350
   18.060    0.6528
   18.090    0.5136
   18.120    0.7170
   18.150    0.4922
   18.180    0.5886
   18.210    0.5029
   18.240    0.5886
   18.270    0.8026
   18.300    0.6528
   18.330    0.6314
   18.360    0.5564
   18.390    0.5886
   18.420    0.5886
   18.450    0.7170
   18.480    0.7063
   18.510    0.5243
   18.540    0.6100
   18.570    0.5993
   18.600    0.6849
   18.630    0.6314
   18.660    0.8026
   18.690    0.7384
   18.720    0.7491
   18.750    0.7063
   18.780    0.9952
   18.810    0.8668
   18.840    0.9096
   18.870    0.5886
   18.900    0.7491
   18.930    0.5564
   18.960    0.5993
   18.990    0.5778
   19.020    0.7170
   19.050    0.6421
   19.080    0.6100
   19.110    0.7277
   19.140    0.5778
   19.170    0.5671
   19.200    0.5886
   19.230    0.7705
   19.260    0.7598
   19.290    0.8454
   19.320    1.0808
   19.350    1.0915
   19.380    0.9310
   19.410    0.6528
   19.440    0.5136
   19.470    0.6742
   19.500    0.7063
   19.530    0.7384
   19.560    0.6421
   19.590    0.6100
   19.620    0.7170
   19.650    0.8026
   19.680    0.7277
   19.710    0.6528
   19.740    0.8561
   19.770    0.8561
   19.800    1.1664
   19.830    1.4874
   19.860    2.0118
   19.890    1.7549
   19.920    1.3055
   19.950    0.8454
   19.980    0.6956
   20.010    0.6956
   20.040    0.6100
   20.070    0.7598
   20.100    0.6421
   20.130    0.6956
   20.160    0.6742
   20.190    0.5457
   20.220    0.6421
   20.250    0.7812
   20.280    0.6100
   20.310    0.8347
   20.340    0.7598
   20.370    0.9203
   20.400    0.9524
   20.430    0.9524
   20.460    0.7598
   20.490    0.6742
   20.520    0.6421
   20.550    0.6528
   20.580    0.5350
   20.610    0.6314
   20.640    0.6849
   20.670    0.6635
   20.700    0.6849
   20.730    0.6207
   20.760    0.7491
   20.790    0.6421
   20.820    0.9310
   20.850    0.8347
   20.880    0.8347
   20.910    0.8989
   20.940    0.8026
   20.970    0.7277
   21.000    0.6849
   21.030    0.6314
   21.060    0.5886
   21.090    0.6421
   21.120    0.4708
   21.150    0.5778
   21.180    0.7491
   21.210    0.5778
   21.240    0.6421
   21.270    0.7491
   21.300    0.7705
   21.330    0.8561
   21.360    0.8882
   21.390    1.1022
   21.420    0.9631
   21.450    0.8347
   21.480    0.8347
   21.510    0.5993
   21.540    0.7705
   21.570    0.5886
   21.600    0.6742
   21.630    0.5993
   21.660    0.6207
   21.690    0.7812
   21.720    0.7063
   21.750    0.6849
   21.780    0.6849
   21.810    0.5564
   21.840    0.6956
   21.870    0.6849
   21.900    0.8240
   21.930    0.6742
   21.960    0.6635
   21.990    0.6207
   22.020    0.6742
   22.050    0.5993
   22.080    0.7170
   22.110    0.7277
   22.140    0.7491
   22.170    0.5886
   22.200    0.6421
   22.230    0.8240
   22.260    0.6528
   22.290    0.5778
   22.320    0.7705
   22.350    0.7812
   22.380    0.7705
   22.410    0.6956
   22.440    0.5350
   22.470    0.6742
   22.500    0.7063
   22.530    0.5993
   22.560    0.5993
   22.590    0.7384
   22.620    0.7598
   22.650    0.5993
   22.680    0.5350
   22.710    0.7063
   22.740    0.8026
   22.770    0.9524
   22.800    0.8882
   22.830    0.9738
   22.860    0.9631
   22.890    0.8989
   22.920    0.8133
   22.950    0.5993
   22.980    0.6849
   23.010    0.7277
   23.040    0.5993
   23.070    0.8454
   23.100    0.7491
   23.130    0.7063
   23.160    0.7491
   23.190    0.6742
   23.220    0.7812
   23.250    0.6207
   23.280    0.7491
   23.310    0.7598
   23.340    0.8347
   23.370    0.7277
   23.400    0.6207
   23.430    0.7491
   23.460    0.7277
   23.490    0.5993
   23.520    0.8347
   23.550    0.7491
   23.580    0.6207
   23.610    0.6849
   23.640    0.8347
   23.670    0.8989
   23.700    1.1450
   23.730    1.4874
   23.760    1.5195
   23.790    1.1878
   23.820    0.9738
   23.850    0.6742
   23.880    0.6956
   23.910    0.6100
   23.940    0.7384
   23.970    0.7063
   24.000    0.6742
   24.030    0.7598
   24.060    0.7170
   24.090    0.7812
   24.120    0.7919
   24.150    0.6849
   24.180    0.8882
   24.210    0.6207
   24.240    0.7491
   24.270    0.7491
   24.300    0.7491
   24.330    0.7384
   24.360    0.5778
   24.390    0.6314
   24.420    0.6314
   24.450    0.6421
   24.480    0.7063
   24.510    0.6528
   24.540    0.7919
   24.570    0.6849
   24.600    0.6421
   24.630    0.7598
   24.660    0.6421
   24.690    0.6849
   24.720    0.6849
   24.750    0.8133
   24.780    0.6635
   24.810    0.6528
   24.840    0.8240
   24.870    0.5564
   24.900    0.6742
   24.930    0.6314
   24.960    0.6421
   24.990    0.5457
   25.020    0.6956
   25.050    0.6314
   25.080    0.5886
   25.110    0.7491
   25.140    0.7170
   25.170    0.5671
   25.200    0.7063
   25.230    0.7170
   25.260    0.6956
   25.290    0.6421
   25.320    0.5993
   25.350    0.6207
   25.380    0.7170
   25.410    0.7277
   25.440    0.9738
   25.470    1.0915
   25.500    1.0166
   25.530    0.7812
   25.560    0.8133
   25.590    0.6635
   25.620    0.5671
   25.650    0.6956
   25.680    0.6849
   25.710    0.6956
   25.740    0.7063
   25.770    0.7705
   25.800    0.6742
   25.830    0.8882
   25.860    0.8989
   25.890    0.9203
   25.920    0.8775
   25.950    1.0915
   25.980    0.8561
   26.010    0.6956
   26.040    0.7598
   26.070    0.6207
   26.100    0.7384
   26.130    0.7491
   26.160    0.7063
   26.190    0.8989
   26.220    1.1343
   26.250    1.2520
   26.280    1.6479
   26.310    2.0332
   26.340    1.4018
   26.370    1.0380
   26.400    0.8561
   26.430    0.7384
   26.460    0.6635
   26.490    0.7598
   26.520    0.8347
   26.550    0.8454
   26.580    0.8454
   26.610    1.0808
   26.640    1.2841
   26.670    1.7978
   26.700    1.8192
   26.730    1.6800
   26.760    1.4553
   26.790    1.0487
   26.820    0.7812
   26.850    0.5564
   26.880    0.7384
   26.910    0.7063
   26.940    0.8347
   26.970    0.5457
   27.000    0.6849
   27.030    0.8454
   27.060    0.8668
   27.090    0.9417
   27.120    0.8668
   27.150    0.7384
   27.180    0.6635
   27.210    0.6421
   27.240    0.6956
   27.270    0.7812
   27.300    0.5886
   27.330    0.6207
   27.360    0.7598
   27.390    0.6528
   27.420    0.7812
   27.450    0.7598
   27.480    0.6528
   27.510    0.6742
   27.540    0.6207
   27.570    0.7063
   27.600    0.6100
   27.630    0.7384
   27.660    0.6421
   27.690    0.5350
   27.720    0.7277
   27.750    0.5778
   27.780    0.7277
   27.810    0.6849
   27.840    0.9631
   27.870    1.0059
   27.900    0.8454
   27.930    0.8775
   27.960    0.8668
   27.990    0.6421
   28.020    0.7705
   28.050    0.6100
   28.080    0.6421
   28.110    0.7277
   28.140    0.5993
   28.170    0.6956
   28.200    0.6956
   28.230    0.5671
   28.260    0.6421
   28.290    0.7063
   28.320    0.6207
   28.350    0.5993
   28.380    0.6314
   28.410    0.5886
   28.440    0.5457
   28.470    0.5564
   28.500    0.5778
   28.530    0.5243
   28.560    0.8882
   28.590    0.7277
   28.620    0.7705
   28.650    0.6207
   28.680    0.8775
   28.710    0.6100
   28.740    0.6207
   28.770    0.6207
   28.800    0.6528
   28.830    0.7063
   28.860    0.6849
   28.890    0.6100
   28.920    0.5778
   28.950    0.6314
   28.980    0.7812
   29.010    0.6956
   29.040    0.5350
   29.070    0.7384
   29.100    0.5350
   29.130    0.6314
   29.160    0.5029
   29.190    0.6314
   29.220    0.6314
   29.250    0.5671
   29.280    0.7170
   29.310    0.6635
   29.340    0.7598
   29.370    0.6956
   29.400    0.9310
   29.430    0.6421
   29.460    0.7277
   29.490    0.6635
   29.520    0.7063
   29.550    0.5136
   29.580    0.5993
   29.610    0.6528
   29.640    0.6421
   29.670    0.6742
   29.700    0.6635
   29.730    0.6528
   29.760    0.7170
   29.790    0.7384
   29.820    0.6635
   29.850    0.6207
   29.880    0.5671
   29.910    0.5671
   29.940    0.5993
   29.970    0.5886
   30.000    0.7170
   30.030    0.8561
   30.060    1.1129
   30.090    1.1878
   30.120    1.3697
   30.150    0.9952
   30.180    1.0594
   30.210    0.7919
   30.240    0.5886
   30.270    0.5457
   30.300    0.5886
   30.330    0.6421
   30.360    0.4815
   30.390    0.5886
   30.420    0.5886
   30.450    0.6742
   30.480    0.7063
   30.510    0.6742
   30.540    0.6528
   30.570    0.5778
   30.600    0.6100
   30.630    0.3959
   30.660    0.5457
   30.690    0.6207
   30.720    0.7384
   30.750    0.6635
   30.780    0.8133
   30.810    0.7063
   30.840    0.8347
   30.870    0.8133
   30.900    0.7598
   30.930    0.5350
   30.960    0.6207
   30.990    0.5243
   31.020    0.6207
   31.050    0.6207
   31.080    0.5993
   31.110    0.4922
   31.140    0.6207
   31.170    0.5778
   31.200    0.5778
   31.230    0.5350
   31.260    0.5993
   31.290    0.5029
   31.320    0.5350
   31.350    0.6314
   31.380    0.6207
   31.410    0.6742
   31.440    0.6742
   31.470    0.8882
   31.500    0.8347
   31.530    0.7919
   31.560    1.0594
   31.590    0.7277
   31.620    0.7384
   31.650    0.6956
   31.680    0.5564
   31.710    0.6314
   31.740    0.4815
   31.770    0.5564
   31.800    0.5564
   31.830    0.5778
   31.860    0.6742
   31.890    0.5778
   31.920    0.6100
   31.950    0.5350
   31.980    0.5457
   32.010    0.6742
   32.040    0.6207
   32.070    0.7491
   32.100    0.5457
   32.130    0.5029
   32.160    0.7277
   32.190    0.6956
   32.220    0.6635
   32.250    0.7812
   32.280    0.6207
   32.310    0.7919
   32.340    0.5564
   32.370    0.6314
   32.400    0.6207
   32.430    0.6421
   32.460    0.5564
   32.490    0.5993
   32.520    0.5671
   32.550    0.5778
   32.580    0.7705
   32.610    0.5136
   32.640    0.6314
   32.670    0.5778
   32.700    0.5993
   32.730    0.7491
   32.760    0.5671
   32.790    0.7170
   32.820    0.8347
   32.850    0.7277
   32.880    0.8347
   32.910    0.7063
   32.940    0.7705
   32.970    0.6742
   33.000    0.5350
   33.030    0.5993
   33.060    0.6100
   33.090    0.7063
   33.120    0.6742
   33.150    0.7170
   33.180    0.7812
   33.210    0.8454
   33.240    0.7491
   33.270    0.7277
   33.300    0.5993
   33.330    0.5564
   33.360    0.5136
   33.390    0.4494
   33.420    0.4494
   33.450    0.5243
   33.480    0.5886
   33.510    0.5993
   33.540    0.5564
   33.570    0.5778
   33.600    0.5886
   33.630    0.5350
   33.660    0.4922
   33.690    0.5671
   33.720    0.5993
   33.750    0.5993
   33.780    0.4922
   33.810    0.5350
   33.840    0.6635
   33.870    0.6100
   33.900    0.4815
   33.930    0.6742
   33.960    0.5778
   33.990    0.4922
   34.020    0.5029
   34.050    0.5671
   34.080    0.5350
   34.110    0.6528
   34.140    0.6314
   34.170    0.5671
   34.200    0.7491
   34.230    0.7384
   34.260    0.5457
   34.290    0.5671
   34.320    0.6100
   34.350    0.5564
   34.380    0.5029
   34.410    0.5136
   34.440    0.5457
   34.470    0.4601
   34.500    0.5029
   34.530    0.5243
   34.560    0.5136
   34.590    0.5136
   34.620    0.5457
   34.650    0.5564
   34.680    0.6742
   34.710    0.5886
   34.740    0.5671
   34.770    0.6742
   34.800    0.7063
   34.830    0.7384
   34.860    0.5564
   34.890    0.5886
   34.920    0.4601
   34.950    0.5029
   34.980    0.4280
   35.010    0.5029
   35.040    0.4922
   35.070    0.5886
   35.100    0.5029
   35.130    0.5671
   35.160    0.5671
   35.190    0.6742
   35.220    0.5243
   35.250    0.5457
   35.280    0.5564
   35.310    0.4708
   35.340    0.4066
   35.370    0.5350
   35.400    0.6207
   35.430    0.5029
   35.460    0.5350
   35.490    0.4922
   35.520    0.4494
   35.550    0.4922
   35.580    0.6100
   35.610    0.5778
   35.640    0.4815
   35.670    0.5564
   35.700    0.6421
   35.730    0.5993
   35.760    0.6635
   35.790    0.5136
   35.820    0.6314
   35.850    0.5564
   35.880    0.4922
   35.910    0.5029
   35.940    0.5778
   35.970    0.5993
   36.000    0.4922
   36.030    0.5243
   36.060    0.5457
   36.090    0.5564
   36.120    0.5457
   36.150    0.4066
   36.180    0.4815
   36.210    0.3852
   36.240    0.5136
   36.270    0.6528
   36.300    0.5350
   36.330    0.4708
   36.360    0.4708
   36.390    0.4387
   36.420    0.4280
   36.450    0.3852
   36.480    0.4708
   36.510    0.5029
   36.540    0.4280
   36.570    0.5993
   36.600    0.5564
   36.630    0.5778
   36.660    0.6207
   36.690    0.5886
   36.720    0.4280
   36.750    0.4066
   36.780    0.4387
   36.810    0.4280
   36.840    0.3638
   36.870    0.5564
   36.900    0.5029
   36.930    0.5136
   36.960    0.4494
   36.990    0.4494
   37.020    0.5564
   37.050    0.5886
   37.080    0.5136
   37.110    0.4815
   37.140    0.4601
   37.170    0.5778
   37.200    0.5886
   37.230    0.4708
   37.260    0.5350
   37.290    0.5993
   37.320    0.5564
   37.350    0.4066
   37.380    0.4494
   37.410    0.4173
   37.440    0.4601
   37.470    0.4387
   37.500    0.4601
   37.530    0.5457
   37.560    0.3959
   37.590    0.4815
   37.620    0.4708
   37.650    0.5564
   37.680    0.4280
   37.710    0.4815
   37.740    0.4601
   37.770    0.5243
   37.800    0.4173
   37.830    0.5243
   37.860    0.4494
   37.890    0.4708
   37.920    0.5136
   37.950    0.4708
   37.980    0.3745
   38.010    0.4173
   38.040    0.5243
   38.070    0.5136
   38.100    0.5029
   38.130    0.4922
   38.160    0.4387
   38.190    0.4815
   38.220    0.3745
   38.250    0.4280
   38.280    0.4494
   38.310    0.5136
   38.340    0.5457
   38.370    0.4387
   38.400    0.4280
   38.430    0.5564
   38.460    0.4173
   38.490    0.5029
   38.520    0.4815
   38.550    0.4387
   38.580    0.4387
   38.610    0.3531
   38.640    0.3959
   38.670    0.3959
   38.700    0.3424
   38.730    0.3852
   38.760    0.4708
   38.790    0.5993
   38.820    0.3959
   38.850    0.4280
   38.880    0.4708
   38.910    0.4601
   38.940    0.4066
   38.970    0.4708
   39.000    0.3852
   39.030    0.3638
   39.060    0.3210
   39.090    0.3424
   39.120    0.4815
   39.150    0.4173
   39.180    0.5029
   39.210    0.3424
   39.240    0.5029
   39.270    0.5243
   39.300    0.3317
   39.330    0.3852
   39.360    0.4922
   39.390    0.4280
   39.420    0.4708
   39.450    0.4494
   39.480    0.4708
   39.510    0.4922
   39.540    0.5671
   39.570    0.5886
   39.600    0.6314
   39.630    0.5136
   39.660    0.4601
   39.690    0.4601
   39.720    0.4708
   39.750    0.2996
   39.780    0.3959
   39.810    0.3745
   39.840    0.3317
   39.870    0.3531
   39.900    0.3959
   39.930    0.3852
   39.960    0.4601
   39.990    0.4280