File: data/PXRD/PXRD_KE-053-5_Cu-Ka1_film-3mm_5s-deg.xyd
    1.500    9.1943
    1.515    9.0258
    1.530    9.3734
    1.545    9.5419
    1.560    9.3944
    1.575    9.2470
    1.590    8.6888
    1.605    8.6993
    1.620    8.7625
    1.635    8.4360
    1.650    8.2254
    1.665    7.9094
    1.680    8.2464
    1.695    8.0042
    1.710    8.4044
    1.725    8.0990
    1.740    8.0463
    1.755    7.7725
    1.770    7.6567
    1.785    7.9200
    1.800    8.0147
    1.815    7.8673
    1.830    8.0253
    1.845    7.6461
    1.860    7.0879
    1.875    7.1511
    1.890    7.0248
    1.905    7.0142
    1.920    7.0774
    1.935    6.9616
    1.950    7.0985
    1.965    6.9300
    1.980    6.6983
    1.995    7.1933
    2.010    7.2670
    2.025    6.8141
    2.040    6.9194
    2.055    6.7404
    2.070    7.0142
    2.085    6.7930
    2.100    6.5929
    2.115    6.7088
    2.130    6.5298
    2.145    6.4982
    2.160    6.4455
    2.175    6.6456
    2.190    6.6561
    2.205    6.4244
    2.220    6.4560
    2.235    6.3823
    2.250    6.3402
    2.265    6.2349
    2.280    5.8768
    2.295    5.8873
    2.310    6.1401
    2.325    5.9610
    2.340    6.0874
    2.355    6.3718
    2.370    6.0979
    2.385    6.3296
    2.400    6.1085
    2.415    5.7715
    2.430    6.1190
    2.445    5.9926
    2.460    6.1506
    2.475    6.0348
    2.490    5.8557
    2.505    6.2875
    2.520    6.1506
    2.535    6.3823
    2.550    6.1401
    2.565    6.3296
    2.580    6.1085
    2.595    6.1401
    2.610    5.9189
    2.625    5.8241
    2.640    5.6240
    2.655    5.6556
    2.670    5.6029
    2.685    5.6345
    2.700    5.7609
    2.715    5.8031
    2.730    5.7293
    2.745    5.6029
    2.760    5.9189
    2.775    5.9716
    2.790    5.9294
    2.805    5.4028
    2.820    5.9084
    2.835    5.8978
    2.850    5.4344
    2.865    5.6977
    2.880    6.0769
    2.895    5.9716
    2.910    5.8452
    2.925    5.8241
    2.940    5.4344
    2.955    5.7293
    2.970    5.3397
    2.985    5.6029
    3.000    5.6135
    3.015    5.5924
    3.030    5.8978
    3.045    5.6661
    3.060    5.5082
    3.075    5.8241
    3.090    5.4976
    3.105    5.7925
    3.120    5.2554
    3.135    5.1711
    3.150    5.4239
    3.165    5.6135
    3.180    5.4450
    3.195    5.3607
    3.210    5.3502
    3.225    5.2554
    3.240    5.7293
    3.255    5.6767
    3.270    5.4450
    3.285    5.3291
    3.300    5.2554
    3.315    5.3397
    3.330    5.5608
    3.345    5.5187
    3.360    5.4134
    3.375    5.2133
    3.390    5.5082
    3.405    5.2554
    3.420    5.6977
    3.435    5.5714
    3.450    5.7504
    3.465    5.9716
    3.480    5.4555
    3.495    5.2870
    3.510    5.5503
    3.525    5.2027
    3.540    5.7293
    3.555    5.5187
    3.570    5.4871
    3.585    5.7083
    3.600    5.4660
    3.615    5.6767
    3.630    5.3607
    3.645    5.3607
    3.660    5.7715
    3.675    5.3712
    3.690    5.7188
    3.705    5.6977
    3.720    5.6345
    3.735    5.4344
    3.750    5.3397
    3.765    5.5398
    3.780    5.4555
    3.795    5.3712
    3.810    5.7188
    3.825    5.6661
    3.840    5.7504
    3.855    5.4239
    3.870    5.4660
    3.885    5.4660
    3.900    5.7715
    3.915    5.6345
    3.930    5.4660
    3.945    5.5819
    3.960    5.3397
    3.975    5.2238
    3.990    5.5082
    4.005    5.6661
    4.020    5.6345
    4.035    5.4976
    4.050    5.7820
    4.065    5.4134
    4.080    5.3186
    4.095    5.6029
    4.110    5.7609
    4.125    5.6977
    4.140    5.2238
    4.155    5.6977
    4.170    5.3923
    4.185    5.5714
    4.200    5.4450
    4.215    5.4660
    4.230    5.6029
    4.245    6.1085
    4.260    5.8557
    4.275    6.0032
    4.290    5.9294
    4.305    5.9505
    4.320    5.8452
    4.335    5.5398
    4.350    5.7188
    4.365    5.7399
    4.380    5.1290
    4.395    5.5398
    4.410    5.4660
    4.425    5.8241
    4.440    5.8978
    4.455    5.5924
    4.470    5.3818
    4.485    5.6345
    4.500    5.3397
    4.515    5.9610
    4.530    5.5398
    4.545    5.6240
    4.560    5.7293
    4.575    5.2027
    4.590    5.6345
    4.605    5.7399
    4.620    5.4660
    4.635    5.4766
    4.650    5.6240
    4.665    5.6872
    4.680    5.4871
    4.695    5.8873
    4.710    5.6872
    4.725    5.6029
    4.740    5.6556
    4.755    5.7715
    4.770    5.2238
    4.785    5.1817
    4.800    5.6767
    4.815    5.9400
    4.830    5.9926
    4.845    5.6029
    4.860    5.6240
    4.875    5.6977
    4.890    5.7083
    4.905    5.6556
    4.920    5.8873
    4.935    5.9716
    4.950    5.9189
    4.965    5.8452
    4.980    6.0348
    4.995    5.8136
    5.010    5.5398
    5.025    5.9610
    5.040    6.2981
    5.055    6.2665
    5.070    5.9294
    5.085    6.0769
    5.100    6.1822
    5.115    6.2138
    5.130    6.6877
    5.145    6.5403
    5.160    6.2875
    5.175    6.3086
    5.190    6.4455
    5.205    6.4876
    5.220    6.5929
    5.235    6.4560
    5.250    6.8352
    5.265    6.6140
    5.280    6.7825
    5.295    6.9300
    5.310    7.0458
    5.325    7.3723
    5.340    7.2354
    5.355    7.2249
    5.370    7.3407
    5.385    6.7930
    5.400    7.2354
    5.415    7.5513
    5.430    7.2143
    5.445    7.3828
    5.460    7.3934
    5.475    7.1511
    5.490    6.9932
    5.505    7.2038
    5.520    7.9200
    5.535    7.8884
    5.550    7.3091
    5.565    7.5092
    5.580    7.3618
    5.595    7.3196
    5.610    7.2459
    5.625    7.2459
    5.640    7.3407
    5.655    7.5935
    5.670    7.4460
    5.685    7.1090
    5.700    6.9405
    5.715    6.8878
    5.730    6.7930
    5.745    6.7825
    5.760    6.8457
    5.775    6.4034
    5.790    7.0669
    5.805    6.5929
    5.820    6.6667
    5.835    6.4455
    5.850    6.3402
    5.865    6.2559
    5.880    6.1085
    5.895    6.1401
    5.910    6.7404
    5.925    6.3507
    5.940    6.1506
    5.955    5.8978
    5.970    5.8452
    5.985    5.9294
    6.000    5.8873
    6.015    5.7188
    6.030    5.8136
    6.045    5.4871
    6.060    5.4555
    6.075    5.4871
    6.090    5.5924
    6.105    5.2870
    6.120    5.6029
    6.135    5.7293
    6.150    5.6135
    6.165    5.6767
    6.180    5.3291
    6.195    5.8768
    6.210    5.6240
    6.225    5.5187
    6.240    5.6556
    6.255    5.5819
    6.270    5.5292
    6.285    5.4871
    6.300    5.2659
    6.315    5.5292
    6.330    5.4766
    6.345    5.3818
    6.360    5.3818
    6.375    5.4766
    6.390    5.3081
    6.405    5.4239
    6.420    5.4028
    6.435    5.2027
    6.450    5.2027
    6.465    5.2765
    6.480    5.4871
    6.495    4.9078
    6.510    5.1185
    6.525    5.2554
    6.540    5.3186
    6.555    5.1711
    6.570    4.8341
    6.585    5.4450
    6.600    4.9710
    6.615    4.9289
    6.630    5.1395
    6.645    5.4660
    6.660    5.0448
    6.675    5.0553
    6.690    4.8868
    6.705    4.9710
    6.720    4.9500
    6.735    4.8763
    6.750    4.8341
    6.765    4.6340
    6.780    4.3707
    6.795    4.6024
    6.810    4.7077
    6.825    4.5287
    6.840    4.7288
    6.855    4.8236
    6.870    5.0132
    6.885    4.6551
    6.900    4.7709
    6.915    4.8236
    6.930    4.5603
    6.945    4.9289
    6.960    4.7499
    6.975    4.7393
    6.990    4.9289
    7.005    4.5498
    7.020    4.7815
    7.035    4.7393
    7.050    4.5708
    7.065    4.8025
    7.080    4.4023
    7.095    4.5392
    7.110    4.0653
    7.125    4.4866
    7.140    4.4550
    7.155    4.2022
    7.170    4.3813
    7.185    5.0132
    7.200    4.7077
    7.215    4.5708
    7.230    4.2127
    7.245    4.4023
    7.260    4.5708
    7.275    4.6972
    7.290    4.5287
    7.305    4.6340
    7.320    4.2549
    7.335    4.3075
    7.350    4.3075
    7.365    4.2970
    7.380    4.1285
    7.395    4.2970
    7.410    4.5498
    7.425    4.3497
    7.440    4.5182
    7.455    4.4128
    7.470    4.1917
    7.485    4.3181
    7.500    4.4866
    7.515    4.6235
    7.530    3.9179
    7.545    4.1180
    7.560    4.2127
    7.575    3.8441
    7.590    4.1706
    7.605    4.2865
    7.620    4.4339
    7.635    4.0232
    7.650    3.8125
    7.665    3.8863
    7.680    4.0021
    7.695    4.0442
    7.710    4.1496
    7.725    4.2022
    7.740    4.1180
    7.755    3.8652
    7.770    3.8652
    7.785    4.0337
    7.800    4.1496
    7.815    3.7283
    7.830    3.8231
    7.845    4.0653
    7.860    3.8547
    7.875    4.0021
    7.890    4.1285
    7.905    4.0337
    7.920    3.8336
    7.935    3.7283
    7.950    3.7915
    7.965    4.0864
    7.980    4.0021
    7.995    3.7599
    8.010    3.8968
    8.025    3.8020
    8.040    3.8652
    8.055    3.9179
    8.070    3.5282
    8.085    3.5914
    8.100    3.7704
    8.115    3.5598
    8.130    3.5914
    8.145    3.7493
    8.160    3.8125
    8.175    3.8020
    8.190    3.7177
    8.205    3.8441
    8.220    3.7809
    8.235    3.8441
    8.250    3.8020
    8.265    3.6756
    8.280    3.7599
    8.295    3.7283
    8.310    3.7915
    8.325    3.5914
    8.340    3.4966
    8.355    3.7599
    8.370    3.7072
    8.385    3.4755
    8.400    3.6230
    8.415    3.4229
    8.430    3.8757
    8.445    3.8652
    8.460    3.6651
    8.475    3.8231
    8.490    3.3807
    8.505    3.7283
    8.520    3.5282
    8.535    3.4018
    8.550    3.6546
    8.565    3.8231