File: data/PXRD/PXRD_KE-287_Co-Ka1_film-3mm_5s-deg.xyd
    1.500    3.1140
    1.530    3.1033
    1.560    3.1461
    1.590    2.8357
    1.620    2.6431
    1.650    2.6966
    1.680    2.8250
    1.710    2.5361
    1.740    2.4933
    1.770    2.4291
    1.800    2.3970
    1.830    2.0974
    1.860    2.3221
    1.890    2.0546
    1.920    2.2579
    1.950    2.1616
    1.980    2.1081
    2.010    2.4184
    2.040    1.8620
    2.070    2.1616
    2.100    1.8406
    2.130    2.0653
    2.160    1.9583
    2.190    1.9583
    2.220    1.9369
    2.250    1.8834
    2.280    1.9583
    2.310    1.6586
    2.340    1.8513
    2.370    1.5730
    2.400    1.7228
    2.430    1.8085
    2.460    1.7335
    2.490    1.8727
    2.520    1.6372
    2.550    1.8941
    2.580    1.5944
    2.610    1.3911
    2.640    1.6479
    2.670    1.5623
    2.700    1.7121
    2.730    1.5730
    2.760    1.6158
    2.790    1.6479
    2.820    1.5302
    2.850    1.5409
    2.880    1.4981
    2.910    1.4553
    2.940    1.5944
    2.970    1.4874
    3.000    1.4018
    3.030    1.6051
    3.060    1.3162
    3.090    1.5195
    3.120    1.3804
    3.150    1.3590
    3.180    1.1985
    3.210    1.3590
    3.240    1.3376
    3.270    1.4553
    3.300    1.4446
    3.330    1.4018
    3.360    1.3483
    3.390    1.3269
    3.420    1.3269
    3.450    1.4232
    3.480    1.4018
    3.510    1.4018
    3.540    1.3590
    3.570    1.3269
    3.600    1.4018
    3.630    1.3376
    3.660    1.4232
    3.690    1.4125
    3.720    1.4553
    3.750    1.5516
    3.780    1.1236
    3.810    1.3590
    3.840    1.3590
    3.870    1.2841
    3.900    1.3697
    3.930    1.3269
    3.960    1.3590
    3.990    1.2841
    4.020    1.2948
    4.050    1.4767
    4.080    1.3911
    4.110    1.3269
    4.140    1.3590
    4.170    1.2841
    4.200    1.2627
    4.230    1.3376
    4.260    1.2948
    4.290    1.4018
    4.320    1.5302
    4.350    1.4232
    4.380    1.6479
    4.410    1.5730
    4.440    1.4553
    4.470    1.6693
    4.500    1.8299
    4.530    2.3114
    4.560    1.6693
    4.590    1.2627
    4.620    1.4339
    4.650    1.4018
    4.680    1.1664
    4.710    1.3483
    4.740    1.3590
    4.770    1.2627
    4.800    1.4981
    4.830    1.4125
    4.860    1.4018
    4.890    1.5623
    4.920    1.2520
    4.950    1.2841
    4.980    1.4767
    5.010    1.3055
    5.040    1.3804
    5.070    1.2948
    5.100    1.3804
    5.130    1.2627
    5.160    1.2948
    5.190    1.4446
    5.220    1.5409
    5.250    1.3697
    5.280    1.4339
    5.310    1.3269
    5.340    1.3269
    5.370    1.4446
    5.400    1.3483
    5.430    1.2948
    5.460    1.4018
    5.490    1.4767
    5.520    1.3376
    5.550    1.3483
    5.580    1.3483
    5.610    1.5195
    5.640    1.4553
    5.670    1.3483
    5.700    1.4339
    5.730    1.5623
    5.760    1.4018
    5.790    1.4660
    5.820    1.4232
    5.850    1.4339
    5.880    1.3911
    5.910    1.6051
    5.940    1.4553
    5.970    1.4446
    6.000    1.6372
    6.030    1.6907
    6.060    1.5516
    6.090    1.6693
    6.120    1.7442
    6.150    1.9690
    6.180    1.8513
    6.210    1.8513
    6.240    1.6158
    6.270    1.7657
    6.300    1.9583
    6.330    1.9583
    6.360    1.7871
    6.390    1.9476
    6.420    2.1402
    6.450    1.9904
    6.480    1.8085
    6.510    2.0118
    6.540    1.9262
    6.570    1.7228
    6.600    1.7121
    6.630    1.7764
    6.660    1.7871
    6.690    1.8620
    6.720    1.7871
    6.750    1.6051
    6.780    1.7978
    6.810    1.5944
    6.840    1.4660
    6.870    1.6479
    6.900    1.4232
    6.930    1.3483
    6.960    1.5302
    6.990    1.3055
    7.020    1.3911
    7.050    1.4767
    7.080    1.5623
    7.110    1.6800
    7.140    1.2520
    7.170    1.4232
    7.200    1.2948
    7.230    1.4125
    7.260    1.2734
    7.290    1.2841
    7.320    1.3162
    7.350    1.3162
    7.380    1.2948
    7.410    1.4339
    7.440    1.4125
    7.470    1.4018
    7.500    1.3376
    7.530    1.3162
    7.560    1.2520
    7.590    1.3697
    7.620    1.4125
    7.650    1.2199
    7.680    1.2092
    7.710    1.1450
    7.740    1.2092
    7.770    1.3269
    7.800    1.2627
    7.830    1.4232
    7.860    1.7014
    7.890    1.3590
    7.920    1.1129
    7.950    1.2734
    7.980    1.1878
    8.010    1.1985
    8.040    1.0915
    8.070    1.1450
    8.100    1.1878
    8.130    1.2841
    8.160    1.2734
    8.190    0.9203
    8.220    1.1022
    8.250    1.1878
    8.280    1.2413
    8.310    1.1450
    8.340    1.0594
    8.370    1.1985
    8.400    1.1664
    8.430    0.9203
    8.460    1.0594
    8.490    0.9417
    8.520    1.1985
    8.550    1.0915
    8.580    0.8561
    8.610    1.1129
    8.640    1.0701
    8.670    0.7705
    8.700    1.1129
    8.730    1.0915
    8.760    0.8775
    8.790    1.1450
    8.820    0.9417
    8.850    1.1343
    8.880    1.2199
    8.910    1.1557
    8.940    1.0915
    8.970    0.9417
    9.000    0.9310
    9.030    0.9952
    9.060    1.0487
    9.090    1.1343
    9.120    0.9524
    9.150    0.9417
    9.180    1.0808
    9.210    1.0166
    9.240    0.8561
    9.270    0.9096
    9.300    1.0166
    9.330    0.9096
    9.360    0.8989
    9.390    0.8989
    9.420    0.8133
    9.450    0.8240
    9.480    0.9524
    9.510    0.9524
    9.540    0.9738
    9.570    0.9738
    9.600    1.0487
    9.630    0.7491
    9.660    0.9203
    9.690    0.8989
    9.720    0.8133
    9.750    0.9845
    9.780    0.7919
    9.810    0.7491
    9.840    0.9096
    9.870    0.8347
    9.900    1.0059
    9.930    0.9738
    9.960    0.8347
    9.990    0.7812
   10.020    0.9631
   10.050    0.8775
   10.080    0.8454
   10.110    0.9310
   10.140    0.7919
   10.170    0.9845
   10.200    0.8347
   10.230    0.8561
   10.260    0.7598
   10.290    0.8561
   10.320    0.9310
   10.350    0.7170
   10.380    1.0701
   10.410    0.7919
   10.440    0.8026
   10.470    0.8989
   10.500    0.7812
   10.530    0.7705
   10.560    0.7919
   10.590    0.9310
   10.620    0.7384
   10.650    0.7384
   10.680    0.7384
   10.710    0.8026
   10.740    0.9631
   10.770    0.9524
   10.800    0.6956
   10.830    0.8026
   10.860    0.8454
   10.890    0.7919
   10.920    0.7170
   10.950    0.8989
   10.980    0.7705
   11.010    0.9096
   11.040    0.9845
   11.070    0.9738
   11.100    1.0380
   11.130    1.4232
   11.160    0.9845
   11.190    0.8454
   11.220    0.7277
   11.250    0.6849
   11.280    0.9310
   11.310    0.9096
   11.340    0.6956
   11.370    0.7491
   11.400    0.7063
   11.430    0.8561
   11.460    0.8989
   11.490    0.8240
   11.520    0.8133
   11.550    0.8775
   11.580    0.8454
   11.610    0.7491
   11.640    0.9203
   11.670    0.8026
   11.700    0.8775
   11.730    0.7491
   11.760    0.8026
   11.790    0.8240
   11.820    0.7705
   11.850    0.9096
   11.880    0.7384
   11.910    0.8775
   11.940    0.9203
   11.970    1.0915
   12.000    0.9952
   12.030    1.1985
   12.060    0.8668
   12.090    1.0487
   12.120    1.0380
   12.150    0.7812
   12.180    0.6421
   12.210    0.9096
   12.240    0.8668
   12.270    0.7384
   12.300    0.9310
   12.330    0.9203
   12.360    0.7491
   12.390    0.7812
   12.420    0.8454
   12.450    0.9310
   12.480    0.6742
   12.510    0.8882
   12.540    0.9631
   12.570    0.8882
   12.600    0.9524
   12.630    0.8347
   12.660    0.8347
   12.690    0.8882
   12.720    0.7812
   12.750    0.7919
   12.780    0.8989
   12.810    0.9310
   12.840    0.9845
   12.870    0.9310
   12.900    0.9203
   12.930    0.8240
   12.960    0.9096
   12.990    0.8882
   13.020    0.8454
   13.050    1.0059
   13.080    0.9096
   13.110    0.7919
   13.140    0.7705
   13.170    0.7277
   13.200    0.8133
   13.230    0.8989
   13.260    0.7919
   13.290    0.9417
   13.320    0.9952
   13.350    0.9417
   13.380    0.9096
   13.410    1.0166
   13.440    0.7812
   13.470    0.8454
   13.500    0.8668
   13.530    0.8454
   13.560    0.9845
   13.590    0.8882
   13.620    1.0594
   13.650    1.1450
   13.680    0.8454
   13.710    0.8347
   13.740    0.8347
   13.770    0.8026
   13.800    0.8454
   13.830    0.8133
   13.860    0.8561
   13.890    0.7812
   13.920    0.8133
   13.950    0.7705
   13.980    0.8133
   14.010    0.8882
   14.040    0.6528
   14.070    0.8882
   14.100    0.7812
   14.130    0.7063
   14.160    0.8989
   14.190    0.8133
   14.220    0.7812
   14.250    0.7491
   14.280    0.8454
   14.310    0.8775
   14.340    0.7705
   14.370    0.7384
   14.400    1.0380
   14.430    0.8133
   14.460    0.8561
   14.490    0.9310
   14.520    0.7705
   14.550    0.7277
   14.580    0.7705
   14.610    0.7919
   14.640    0.6528
   14.670    0.7170
   14.700    0.9845
   14.730    0.8133
   14.760    0.7812
   14.790    0.6528
   14.820    0.7812
   14.850    0.6635
   14.880    0.7063
   14.910    0.7170
   14.940    0.8882
   14.970    0.7277
   15.000    0.7705
   15.030    0.8240
   15.060    0.8882
   15.090    1.0915
   15.120    0.7705
   15.150    0.7812
   15.180    0.7063
   15.210    0.5778
   15.240    0.7170
   15.270    0.7812
   15.300    0.7491
   15.330    0.7277
   15.360    0.6421
   15.390    0.8775
   15.420    0.9096
   15.450    0.7598
   15.480    0.8026
   15.510    0.7277
   15.540    0.5350
   15.570    0.8240
   15.600    0.7277
   15.630    0.7812
   15.660    0.8454
   15.690    0.8454
   15.720    0.8240
   15.750    0.9203
   15.780    0.9096
   15.810    0.7491
   15.840    0.8026
   15.870    0.9631
   15.900    0.6635
   15.930    0.7919
   15.960    0.8240
   15.990    0.9096
   16.020    0.8668
   16.050    0.7277
   16.080    0.8026
   16.110    0.6742
   16.140    0.7277
   16.170    0.7384
   16.200    0.8668
   16.230    0.8668
   16.260    0.9096
   16.290    0.8026
   16.320    0.7919
   16.350    0.8989
   16.380    0.8240
   16.410    0.9310
   16.440    0.8133
   16.470    0.7598
   16.500    0.8668
   16.530    0.8240
   16.560    0.8775
   16.590    0.7491
   16.620    0.7812
   16.650    0.8133
   16.680    1.0380
   16.710    0.8347
   16.740    0.8561
   16.770    0.9738
   16.800    0.8668
   16.830    0.7812
   16.860    0.8561
   16.890    0.8989
   16.920    0.7598
   16.950    0.7491
   16.980    0.8561
   17.010    0.8026
   17.040    0.7812
   17.070    0.9203
   17.100    0.7705
   17.130    0.9417
   17.160    0.9417
   17.190    0.8989
   17.220    0.8561
   17.250    0.7491
   17.280    0.8026
   17.310    0.8775
   17.340    0.8989
   17.370    0.8775
   17.400    0.7705
   17.430    0.7063
   17.460    0.8454
   17.490    0.6956
   17.520    0.7170
   17.550    0.8026
   17.580    0.8882
   17.610    0.7063
   17.640    0.8561
   17.670    0.7919
   17.700    0.7598
   17.730    0.8454
   17.760    0.6742
   17.790    0.7063
   17.820    0.7384
   17.850    0.7598
   17.880    0.7705
   17.910    0.8133
   17.940    0.8989
   17.970    0.8347
   18.000    0.6314
   18.030    0.6956
   18.060    0.7277
   18.090    0.6742
   18.120    0.7170
   18.150    0.9417
   18.180    0.7170
   18.210    0.6207
   18.240    0.8775
   18.270    0.7170
   18.300    0.7812
   18.330    0.7277
   18.360    0.7170
   18.390    0.7705
   18.420    0.8026
   18.450    0.8347
   18.480    0.7705
   18.510    0.6956
   18.540    0.7919
   18.570    0.6956
   18.600    0.7598
   18.630    0.8561
   18.660    0.8240
   18.690    0.8026
   18.720    0.6421
   18.750    0.8454
   18.780    0.7384
   18.810    0.7384
   18.840    0.7919
   18.870    0.8133
   18.900    0.5778
   18.930    0.8347
   18.960    0.7063
   18.990    0.7705
   19.020    0.8775
   19.050    0.7705
   19.080    0.7170
   19.110    0.7277
   19.140    0.6421
   19.170    0.7705
   19.200    0.6528
   19.230    0.9417
   19.260    0.8240
   19.290    0.8775
   19.320    0.7277
   19.350    0.9417
   19.380    0.7705
   19.410    0.6849
   19.440    0.7170
   19.470    0.7384
   19.500    0.7384
   19.530    0.6849
   19.560    0.8026
   19.590    0.7170
   19.620    0.6956
   19.650    0.7705
   19.680    0.7170
   19.710    0.6421
   19.740    0.7491
   19.770    0.7919
   19.800    0.7491
   19.830    0.8133
   19.860    0.8454
   19.890    0.9203
   19.920    0.9096
   19.950    0.7384
   19.980    0.7384
   20.010    0.8026
   20.040    0.6849
   20.070    0.7705
   20.100    0.7705
   20.130    0.7705
   20.160    0.7277
   20.190    0.7491
   20.220    0.8347
   20.250    0.7491
   20.280    0.6421
   20.310    0.8026
   20.340    0.7812
   20.370    0.7812
   20.400    0.8347
   20.430    0.6742
   20.460    0.8026
   20.490    0.8454
   20.520    0.7384
   20.550    0.7705
   20.580    0.7919
   20.610    0.7491
   20.640    0.7598
   20.670    0.7277
   20.700    0.9631
   20.730    0.7277
   20.760    0.5886
   20.790    0.6100
   20.820    0.7063
   20.850    0.6421
   20.880    0.7170
   20.910    0.6849
   20.940    0.7598
   20.970    0.8026
   21.000    0.7277
   21.030    0.6528
   21.060    0.6742
   21.090    0.6742
   21.120    0.7063
   21.150    0.6849
   21.180    0.8882
   21.210    0.7598
   21.240    0.7384
   21.270    0.6207
   21.300    0.7705
   21.330    0.7170
   21.360    0.7063
   21.390    0.7170
   21.420    0.7491
   21.450    0.7491
   21.480    0.7812
   21.510    0.7598
   21.540    0.6849
   21.570    0.8026
   21.600    0.6314
   21.630    0.7598
   21.660    0.6849
   21.690    0.7063
   21.720    0.7277
   21.750    0.8026
   21.780    0.8347
   21.810    0.7277
   21.840    0.7491
   21.870    0.7812
   21.900    0.8454
   21.930    0.7598
   21.960    0.5778
   21.990    0.7705
   22.020    0.7384
   22.050    0.7277
   22.080    0.6742
   22.110    0.8561
   22.140    1.0701
   22.170    0.8454
   22.200    0.7277
   22.230    0.7491
   22.260    0.7812
   22.290    0.5136
   22.320    0.9096
   22.350    0.6421
   22.380    0.7919
   22.410    0.6742
   22.440    0.6849
   22.470    0.6742
   22.500    0.7384
   22.530    0.7705
   22.560    0.7705
   22.590    0.6421
   22.620    0.8668
   22.650    0.6635
   22.680    0.6314
   22.710    0.6956
   22.740    0.6742
   22.770    0.7170
   22.800    0.7491
   22.830    0.6314
   22.860    0.8133
   22.890    0.7170
   22.920    0.6314
   22.950    0.6635
   22.980    0.6956
   23.010    0.6314
   23.040    0.6635
   23.070    0.8133
   23.100    0.7170
   23.130    0.7491
   23.160    0.7384
   23.190    0.6207
   23.220    0.6742
   23.250    0.8347
   23.280    0.6635
   23.310    0.6742
   23.340    0.6956
   23.370    0.7170
   23.400    0.6314
   23.430    0.7919
   23.460    0.7812
   23.490    0.7384
   23.520    0.7491
   23.550    0.5993
   23.580    0.6100
   23.610    0.6742
   23.640    0.7705
   23.670    0.6528
   23.700    0.7919
   23.730    0.6635
   23.760    0.6528
   23.790    0.6956
   23.820    0.6314
   23.850    0.6956
   23.880    0.5243
   23.910    0.7277
   23.940    0.6635
   23.970    0.6314
   24.000    0.6314
   24.030    0.6100
   24.060    0.6314
   24.090    0.6635
   24.120    0.7812
   24.150    0.7170
   24.180    0.6849
   24.210    0.6956
   24.240    0.7170
   24.270    0.5350
   24.300    0.5029
   24.330    0.5671
   24.360    0.7491
   24.390    0.7170
   24.420    0.7598
   24.450    0.5993
   24.480    0.7812
   24.510    0.6528
   24.540    0.6314
   24.570    0.6207
   24.600    0.7384
   24.630    0.5350
   24.660    0.6956
   24.690    0.6849
   24.720    0.5886
   24.750    0.6421
   24.780    0.7491
   24.810    0.6849
   24.840    0.6635
   24.870    0.7063
   24.900    0.5778
   24.930    0.5136
   24.960    0.7491
   24.990    0.7491
   25.020    0.6207
   25.050    0.6849
   25.080    0.6528
   25.110    0.7277
   25.140    0.5243
   25.170    0.6742
   25.200    0.6528
   25.230    0.5671
   25.260    0.5886
   25.290    0.7170
   25.320    0.7170
   25.350    0.6207
   25.380    0.6635
   25.410    0.6956
   25.440    0.6742
   25.470    0.5778
   25.500    0.6635
   25.530    0.8775
   25.560    0.6528
   25.590    0.5993
   25.620    0.5886
   25.650    0.6421
   25.680    0.6528
   25.710    0.8240
   25.740    0.6207
   25.770    0.8347
   25.800    0.6635
   25.830    0.6421
   25.860    0.6100
   25.890    0.6421
   25.920    0.6421
   25.950    0.6314
   25.980    0.5671
   26.010    0.5350
   26.040    0.5886
   26.070    0.6100
   26.100    0.5671
   26.130    0.5778
   26.160    0.5671
   26.190    0.6849
   26.220    0.7384
   26.250    0.6100
   26.280    0.6421
   26.310    0.7812
   26.340    0.6100
   26.370    0.5243
   26.400    0.7812
   26.430    0.6314
   26.460    0.5886
   26.490    0.6314
   26.520    0.5886
   26.550    0.6528
   26.580    0.5671
   26.610    0.5778
   26.640    0.6314
   26.670    0.5886
   26.700    0.6421
   26.730    0.6100
   26.760    0.5029
   26.790    0.6956
   26.820    0.6635
   26.850    0.5029
   26.880    0.4387
   26.910    0.6314
   26.940    0.7063
   26.970    0.7384
   27.000    0.6100
   27.030    0.7063
   27.060    0.5564
   27.090    0.4922
   27.120    0.6421
   27.150    0.5243
   27.180    0.5886
   27.210    0.5243
   27.240    0.7063
   27.270    0.6207
   27.300    0.6742
   27.330    0.6421
   27.360    0.4815
   27.390    0.5993
   27.420    0.5029
   27.450    0.6207
   27.480    0.5564
   27.510    0.5886
   27.540    0.5671
   27.570    0.5457
   27.600    0.5243
   27.630    0.5457
   27.660    0.4815
   27.690    0.4387
   27.720    0.4815
   27.750    0.4815
   27.780    0.5136
   27.810    0.5136
   27.840    0.6849
   27.870    0.5886
   27.900    0.5350
   27.930    0.4815
   27.960    0.5457
   27.990    0.5243
   28.020    0.5243
   28.050    0.4708
   28.080    0.5350
   28.110    0.5671
   28.140    0.5243
   28.170    0.5350
   28.200    0.5564
   28.230    0.5457
   28.260    0.5029
   28.290    0.4173
   28.320    0.5993
   28.350    0.5564
   28.380    0.6956
   28.410    0.5993
   28.440    0.6207
   28.470    0.4922
   28.500    0.6100
   28.530    0.4494
   28.560    0.5243
   28.590    0.5886
   28.620    0.5564
   28.650    0.5564
   28.680    0.5350
   28.710    0.4922
   28.740    0.4601
   28.770    0.4815
   28.800    0.5029
   28.830    0.5457
   28.860    0.4601
   28.890    0.5350
   28.920    0.5564
   28.950    0.6528
   28.980    0.5136
   29.010    0.4922
   29.040    0.5029
   29.070    0.4601
   29.100    0.4708
   29.130    0.6207
   29.160    0.5136
   29.190    0.5350
   29.220    0.5136
   29.250    0.4815
   29.280    0.4815
   29.310    0.5243
   29.340    0.5243
   29.370    0.5564
   29.400    0.5029
   29.430    0.5457
   29.460    0.5457
   29.490    0.4815
   29.520    0.5778
   29.550    0.5243
   29.580    0.4708
   29.610    0.5136
   29.640    0.4922
   29.670    0.6314
   29.700    0.5243
   29.730    0.5993
   29.760    0.6421
   29.790    0.6100
   29.820    0.6314
   29.850    0.5457
   29.880    0.6314
   29.910    0.5243
   29.940    0.4601
   29.970    0.5671
   30.000    0.5243
   30.030    0.5671
   30.060    0.7063
   30.090    0.6528
   30.120    0.7812
   30.150    0.6635
   30.180    0.5778
   30.210    0.5350
   30.240    0.4280
   30.270    0.4387
   30.300    0.5778
   30.330    0.5778
   30.360    0.6849
   30.390    0.4922
   30.420    0.4066
   30.450    0.4815
   30.480    0.4708
   30.510    0.5350
   30.540    0.5457
   30.570    0.5564
   30.600    0.5350
   30.630    0.5136
   30.660    0.5671
   30.690    0.4815
   30.720    0.4173
   30.750    0.4922
   30.780    0.5778
   30.810    0.5243
   30.840    0.4815
   30.870    0.4601
   30.900    0.4387
   30.930    0.4601
   30.960    0.5243
   30.990    0.5564
   31.020    0.5350
   31.050    0.5993
   31.080    0.4494
   31.110    0.4708
   31.140    0.4708
   31.170    0.4494
   31.200    0.4173
   31.230    0.4280
   31.260    0.5136
   31.290    0.3852
   31.320    0.4280
   31.350    0.4708
   31.380    0.4815
   31.410    0.4494
   31.440    0.4922
   31.470    0.4922
   31.500    0.4173
   31.530    0.5886
   31.560    0.5029
   31.590    0.4387
   31.620    0.3852
   31.650    0.4708
   31.680    0.4601
   31.710    0.5243
   31.740    0.5778
   31.770    0.4922
   31.800    0.4280
   31.830    0.3745
   31.860    0.4601
   31.890    0.3959
   31.920    0.4280
   31.950    0.4280
   31.980    0.5350
   32.010    0.3638
   32.040    0.4066
   32.070    0.5029
   32.100    0.5350
   32.130    0.4601
   32.160    0.4387
   32.190    0.4494
   32.220    0.5350
   32.250    0.4922
   32.280    0.4922
   32.310    0.4280
   32.340    0.4815
   32.370    0.3852
   32.400    0.4708
   32.430    0.3210
   32.460    0.3745
   32.490    0.4922
   32.520    0.5243
   32.550    0.4280
   32.580    0.5029
   32.610    0.4601
   32.640    0.5886
   32.670    0.6100
   32.700    0.6635
   32.730    0.3531
   32.760    0.4387
   32.790    0.4066
   32.820    0.5243
   32.850    0.4815
   32.880    0.5029
   32.910    0.5671
   32.940    0.5671
   32.970    0.4066
   33.000    0.3959
   33.030    0.3745
   33.060    0.6314
   33.090    0.4280
   33.120    0.4494
   33.150    0.3959
   33.180    0.3852
   33.210    0.5671
   33.240    0.4922
   33.270    0.4280
   33.300    0.4708
   33.330    0.4815
   33.360    0.5564
   33.390    0.3852
   33.420    0.3959
   33.450    0.4601
   33.480    0.4708
   33.510    0.3531
   33.540    0.5564
   33.570    0.4387
   33.600    0.5564
   33.630    0.4066
   33.660    0.3638
   33.690    0.4173
   33.720    0.4815
   33.750    0.4708
   33.780    0.5778
   33.810    0.5029
   33.840    0.5671
   33.870    0.5457
   33.900    0.3638
   33.930    0.3852
   33.960    0.4280
   33.990    0.4494
   34.020    0.3531
   34.050    0.4280
   34.080    0.4066
   34.110    0.4387
   34.140    0.4922
   34.170    0.3531
   34.200    0.3638
   34.230    0.5243
   34.260    0.4066
   34.290    0.4494
   34.320    0.4280
   34.350    0.4601
   34.380    0.3745
   34.410    0.4173
   34.440    0.3531
   34.470    0.4601
   34.500    0.4066
   34.530    0.2996
   34.560    0.4066
   34.590    0.3745
   34.620    0.3745
   34.650    0.3745
   34.680    0.3638
   34.710    0.3638
   34.740    0.3959
   34.770    0.2675
   34.800    0.3959
   34.830    0.3959
   34.860    0.4066
   34.890    0.3745
   34.920    0.3424
   34.950    0.3852
   34.980    0.3638
   35.010    0.4280
   35.040    0.3638
   35.070    0.4601
   35.100    0.3531
   35.130    0.3103
   35.160    0.3531
   35.190    0.4494
   35.220    0.4173
   35.250    0.3424
   35.280    0.4173
   35.310    0.3959
   35.340    0.3638
   35.370    0.2889
   35.400    0.3638
   35.430    0.3852
   35.460    0.4601
   35.490    0.3852
   35.520    0.3852
   35.550    0.3317
   35.580    0.2889
   35.610    0.2996
   35.640    0.3531
   35.670    0.3424
   35.700    0.3210
   35.730    0.3210
   35.760    0.3531
   35.790    0.3959
   35.820    0.3103
   35.850    0.3745
   35.880    0.3745
   35.910    0.2996
   35.940    0.3852
   35.970    0.3317
   36.000    0.2996
   36.030    0.3103
   36.060    0.4708
   36.090    0.3317
   36.120    0.3317
   36.150    0.3317
   36.180    0.2675
   36.210    0.3959
   36.240    0.3531
   36.270    0.2140
   36.300    0.3852
   36.330    0.2247
   36.360    0.3638
   36.390    0.2889
   36.420    0.2889
   36.450    0.3531
   36.480    0.2675
   36.510    0.3424
   36.540    0.2889
   36.570    0.2354
   36.600    0.3103
   36.630    0.2889
   36.660    0.3531
   36.690    0.2782
   36.720    0.3103
   36.750    0.3959
   36.780    0.2996
   36.810    0.3317
   36.840    0.3424
   36.870    0.2247
   36.900    0.3745
   36.930    0.2782
   36.960    0.3424
   36.990    0.3424
   37.020    0.3531
   37.050    0.2247
   37.080    0.3103
   37.110    0.3852
   37.140    0.3959
   37.170    0.3959
   37.200    0.4494
   37.230    0.3959
   37.260    0.2675
   37.290    0.2675
   37.320    0.3210
   37.350    0.2675
   37.380    0.3745
   37.410    0.2782
   37.440    0.4066
   37.470    0.5136
   37.500    0.7384
   37.530    0.5029
   37.560    0.3317
   37.590    0.2782
   37.620    0.2675
   37.650    0.2996
   37.680    0.3317
   37.710    0.2782
   37.740    0.2675
   37.770    0.2889
   37.800    0.2140
   37.830    0.3959
   37.860    0.3531
   37.890    0.2568
   37.920    0.2033
   37.950    0.3103
   37.980    0.3317
   38.010    0.3210
   38.040    0.2568
   38.070    0.2354
   38.100    0.2675
   38.130    0.3103
   38.160    0.2568
   38.190    0.2461
   38.220    0.2996
   38.250    0.2675
   38.280    0.2996
   38.310    0.2461
   38.340    0.4066
   38.370    0.2782
   38.400    0.4066
   38.430    0.2996
   38.460    0.3103
   38.490    0.3210
   38.520    0.2782
   38.550    0.2782
   38.580    0.3317
   38.610    0.2568
   38.640    0.2033
   38.670    0.2568
   38.700    0.2782
   38.730    0.2247
   38.760    0.2675
   38.790    0.3103
   38.820    0.2461
   38.850    0.3638
   38.880    0.2675
   38.910    0.2675
   38.940    0.2782
   38.970    0.3210
   39.000    0.2889
   39.030    0.3424
   39.060    0.2675
   39.090    0.2461
   39.120    0.3103
   39.150    0.2461
   39.180    0.3210
   39.210    0.2675
   39.240    0.2568
   39.270    0.3317
   39.300    0.3317
   39.330    0.2782
   39.360    0.2568
   39.390    0.3638
   39.420    0.3531
   39.450    0.3210
   39.480    0.2461
   39.510    0.3317
   39.540    0.4387
   39.570    0.3103
   39.600    0.3317
   39.630    0.2354
   39.660    0.2889
   39.690    0.2782
   39.720    0.2782
   39.750    0.2782
   39.780    0.2996
   39.810    0.2247
   39.840    0.2354
   39.870    0.3103
   39.900    0.2033
   39.930    0.2247
   39.960    0.2996
   39.990    0.2354