File: data/PXRD/PXRD_KE-049-4_Cu-Ka1_capillary-0.5mm_5s-deg.xyd
    1.500   15.3818
    1.530   15.2027
    1.560   15.1132
    1.590   14.9447
    1.620   14.4497
    1.650   13.8441
    1.680   14.1390
    1.710   13.9547
    1.740   13.7757
    1.770   13.7019
    1.800   13.0806
    1.830   13.1332
    1.860   12.9279
    1.890   12.6751
    1.920   13.2017
    1.950   12.9279
    1.980   12.6435
    2.010   12.7436
    2.040   12.6330
    2.070   12.6277
    2.100   13.0806
    2.130   13.0542
    2.160   12.7804
    2.190   12.9858
    2.220   12.8910
    2.250   12.9331
    2.280   13.2807
    2.310   13.2438
    2.340   13.8178
    2.370   13.4229
    2.400   13.6072
    2.430   14.0021
    2.460   14.2127
    2.490   14.2338
    2.520   14.8341
    2.550   14.8815
    2.580   15.6240
    2.610   16.0295
    2.640   15.9452
    2.670   16.6614
    2.700   17.3881
    2.730   18.2306
    2.760   18.2675
    2.790   18.8889
    2.820   19.7472
    2.850   21.1374
    2.880   21.1954
    2.910   21.8115
    2.940   23.5124
    2.970   25.0711
    3.000   25.5608
    3.030   27.6198
    3.060   28.7204
    3.090   30.0843
    3.120   33.1754
    3.150   34.5340
    3.180   37.3670
    3.210   39.3207
    3.240   42.9542
    3.270   46.8141
    3.300   51.1638
    3.330   57.2407
    3.360   64.0495
    3.390   72.4697
    3.420   84.1654
    3.450   97.1933
    3.480  102.8647
    3.510   92.7804
    3.540   66.4192
    3.570   43.8599
    3.600   32.2117
    3.630   27.2091
    3.660   25.3607
    3.690   25.0448
    3.720   25.5345
    3.750   26.6403
    3.780   28.5255
    3.810   29.1996
    3.840   31.9589
    3.870   35.0395
    3.900   38.9258
    3.930   41.6851
    3.960   41.8747
    3.990   42.4118
    4.020   43.5598
    4.050   46.1822
    4.080   47.9042
    4.110   46.5350
    4.140   44.1969
    4.170   41.1901
    4.200   37.1090
    4.230   32.9753
    4.260   28.7572
    4.290   24.4023
    4.320   20.8899
    4.350   17.2933
    4.380   14.4181
    4.410   12.6751
    4.440   10.9163
    4.470    9.8052
    4.500    9.0943
    4.530    8.4623
    4.560    7.9726
    4.590    7.6777
    4.620    6.8826
    4.650    6.6509
    4.680    6.9932
    4.710    6.6087
    4.740    6.4402
    4.770    6.4771
    4.800    6.3560
    4.830    6.1401
    4.860    5.7609
    4.890    5.9610
    4.920    6.1453
    4.950    5.9716
    4.980    6.2349
    5.010    5.8504
    5.040    5.9189
    5.070    5.8241
    5.100    5.8557
    5.130    6.0242
    5.160    5.8768
    5.190    5.9189
    5.220    6.0295
    5.250    6.1190
    5.280    5.9610
    5.310    6.1822
    5.340    6.0032
    5.370    5.8610
    5.400    6.2243
    5.430    6.4297
    5.460    6.4034
    5.490    6.7193
    5.520    6.8404
    5.550    7.2986
    5.580    6.5350
    5.610    5.6661
    5.640    5.3239
    5.670    5.4028
    5.700    5.3976
    5.730    5.1395
    5.760    5.6345
    5.790    5.3607
    5.820    5.0184
    5.850    5.3186
    5.880    5.2133
    5.910    5.3449
    5.940    5.3923
    5.970    5.3502
    6.000    5.3712
    6.030    5.3502
    6.060    5.2923
    6.090    5.4239
    6.120    5.6609
    6.150    5.2923
    6.180    5.4186
    6.210    5.5240
    6.240    5.6082
    6.270    5.7925
    6.300    5.6872
    6.330    5.6767
    6.360    5.6451
    6.390    5.9558
    6.420    5.7715
    6.450    5.7346
    6.480    6.1295
    6.510    6.2507
    6.540    6.3665
    6.570    6.3402
    6.600    6.3981
    6.630    6.9300
    6.660    7.0511
    6.690    7.7357
    6.720    7.7936
    6.750    8.5887
    6.780    9.3944
    6.810    9.7736
    6.840   10.3791
    6.870   11.0900
    6.900   11.9589
    6.930   14.0653
    6.960   15.5556
    6.990   15.4608
    7.020   13.2912
    7.050   10.2475
    7.080    7.6093
    7.110    6.8615
    7.140    6.0084
    7.170    6.0611
    7.200    5.8399
    7.230    5.8978
    7.260    5.4818
    7.290    5.7451
    7.320    5.3976
    7.350    5.6819
    7.380    5.7346
    7.410    5.6398
    7.440    5.5292
    7.470    5.6661
    7.500    5.5556
    7.530    5.6767
    7.560    5.7662
    7.590    5.6187
    7.620    5.8978
    7.650    6.1243
    7.680    5.7504
    7.710    5.8504
    7.740    6.3296
    7.770    6.0979
    7.800    6.6667
    7.830    6.9458
    7.860    6.9300
    7.890    7.0616
    7.920    7.3986
    7.950    7.1037
    7.980    7.5566
    8.010    7.7830
    8.040    8.0727
    8.070    7.8357
    8.100    8.1517
    8.130    8.4466
    8.160    8.8468
    8.190    8.6625
    8.220    8.6888
    8.250    8.9679
    8.280    8.8310
    8.310    9.1469
    8.340    9.0785
    8.370    9.0258
    8.400    8.5466
    8.430    8.5097
    8.460    8.6045
    8.490    8.2464
    8.520    7.9410
    8.550    7.6935
    8.580    7.1143
    8.610    7.4460
    8.640    7.0616
    8.670    6.8773
    8.700    6.9405
    8.730    6.4086
    8.760    6.2243
    8.790    6.0611
    8.820    6.0348
    8.850    5.8978
    8.880    5.8083
    8.910    5.9716
    8.940    5.7873
    8.970    5.6872
    9.000    6.0874
    9.030    5.7662
    9.060    5.8452
    9.090    5.5924
    9.120    6.2138
    9.150    6.0769
    9.180    6.0242
    9.210    6.2454
    9.240    6.3928
    9.270    6.4929
    9.300    6.6719
    9.330    6.6456
    9.360    6.2717
    9.390    6.0453
    9.420    6.1822
    9.450    5.6819
    9.480    5.5292
    9.510    5.7293
    9.540    5.7715
    9.570    5.9768
    9.600    5.9558
    9.630    5.7241
    9.660    5.4713
    9.690    5.4608
    9.720    5.4713
    9.750    5.3133
    9.780    5.5503
    9.810    5.4081
    9.840    5.2501
    9.870    5.3291
    9.900    5.0764
    9.930    5.1764
    9.960    5.4134
    9.990    5.4976
   10.020    5.2343
   10.050    5.4502
   10.080    5.4976
   10.110    5.4397
   10.140    5.4397
   10.170    5.5661
   10.200    5.5503
   10.230    5.6503
   10.260    5.5292
   10.290    5.8662
   10.320    5.7609
   10.350    5.9136
   10.380    6.0506
   10.410    6.0032
   10.440    6.0242
   10.470    6.0611
   10.500    5.9347
   10.530    5.9610
   10.560    5.4713
   10.590    5.2659
   10.620    5.1343
   10.650    5.2080
   10.680    5.1501
   10.710    5.1659
   10.740    5.3291
   10.770    5.3449
   10.800    5.1659
   10.830    5.4081
   10.860    5.5029
   10.890    5.1764
   10.920    5.3291
   10.950    5.2238
   10.980    4.9658
   11.010    4.9500
   11.040    5.1711
   11.070    5.3818
   11.100    5.3397
   11.130    4.9394
   11.160    5.2975
   11.190    5.0342
   11.220    5.1290
   11.250    5.0342
   11.280    5.3449
   11.310    5.3818
   11.340    4.9816
   11.370    5.0079
   11.400    5.0869
   11.430    5.2396
   11.460    5.0132
   11.490    5.2185
   11.520    5.1027
   11.550    5.3133
   11.580    5.0079
   11.610    5.1817
   11.640    5.2923
   11.670    5.1553
   11.700    5.0658
   11.730    5.4976
   11.760    5.5450
   11.790    5.4766
   11.820    5.3555
   11.850    5.4608
   11.880    5.1343
   11.910    5.2870
   11.940    5.3765
   11.970    5.3607
   12.000    5.4608
   12.030    5.2870
   12.060    5.6240
   12.090    5.3397
   12.120    5.6187
   12.150    5.7030
   12.180    5.7188
   12.210    5.9084
   12.240    5.8452
   12.270    5.6977
   12.300    5.8083
   12.330    5.8926
   12.360    5.8241
   12.390    5.6925
   12.420    5.5977
   12.450    5.7609
   12.480    5.6345
   12.510    5.7662
   12.540    5.5029
   12.570    5.6872
   12.600    5.5924
   12.630    5.7293
   12.660    5.8136
   12.690    5.6714
   12.720    5.6345
   12.750    5.5872
   12.780    5.4292
   12.810    5.5556
   12.840    5.4871
   12.870    5.7293
   12.900    5.3712
   12.930    5.5029
   12.960    5.5398
   12.990    5.6082
   13.020    5.3502
   13.050    5.6872
   13.080    5.5556
   13.110    5.1237
   13.140    5.3186
   13.170    5.4871
   13.200    5.3239
   13.230    5.2080
   13.260    5.2712
   13.290    5.1869
   13.320    5.3502
   13.350    5.4028
   13.380    5.3870
   13.410    5.1448
   13.440    5.3344
   13.470    5.2975
   13.500    5.4818
   13.530    5.5398
   13.560    5.1448
   13.590    5.6398
   13.620    5.5661
   13.650    5.2712
   13.680    5.3397
   13.710    5.1817
   13.740    5.1027
   13.770    5.3976
   13.800    5.2817
   13.830    5.2607
   13.860    4.9868
   13.890    5.3607
   13.920    5.0922
   13.950    5.1869
   13.980    5.0342
   14.010    5.0922
   14.040    5.1711
   14.070    5.0500
   14.100    4.9131
   14.130    5.2975
   14.160    5.0448
   14.190    5.2133
   14.220    4.9289
   14.250    4.7709
   14.280    4.8447
   14.310    4.6972
   14.340    4.9974
   14.370    4.8025
   14.400    4.8920
   14.430    4.8868
   14.460    4.9289
   14.490    4.6445
   14.520    4.9763
   14.550    4.6972
   14.580    4.6972
   14.610    4.9026
   14.640    4.8289
   14.670    4.7973
   14.700    4.9552
   14.730    4.8236
   14.760    4.7709
   14.790    4.8552
   14.820    4.8236
   14.850    4.9078
   14.880    4.9131
   14.910    4.8815
   14.940    4.7077
   14.970    4.8657
   15.000    4.8341
   15.030    4.7920
   15.060    4.8499
   15.090    4.6498
   15.120    4.9026
   15.150    4.7551
   15.180    5.0026
   15.210    5.0816
   15.240    5.1343
   15.270    4.9868
   15.300    4.9552
   15.330    5.1237
   15.360    4.9289
   15.390    5.0132
   15.420    5.1027
   15.450    5.1975
   15.480    4.8552
   15.510    5.1185
   15.540    4.8131
   15.570    5.1448
   15.600    5.1711
   15.630    4.8131
   15.660    4.9394
   15.690    5.0395
   15.720    5.0237
   15.750    5.0974
   15.780    4.9658
   15.810    4.9447
   15.840    4.9868
   15.870    4.9447
   15.900    5.0342
   15.930    5.0922
   15.960    4.9974
   15.990    4.9816
   16.020    5.1027
   16.050    5.0395
   16.080    4.8447
   16.110    4.9710
   16.140    4.7815
   16.170    5.2607
   16.200    4.7183
   16.230    4.9658
   16.260    4.6656
   16.290    4.8710
   16.320    4.7130
   16.350    4.7130
   16.380    4.9763
   16.410    5.0974
   16.440    5.1922
   16.470    5.0290
   16.500    4.7341
   16.530    5.0395
   16.560    5.0764
   16.590    4.7341
   16.620    4.8236
   16.650    4.8131
   16.680    5.2291
   16.710    4.7077
   16.740    4.9763
   16.770    4.9552
   16.800    4.9710
   16.830    5.0132
   16.860    4.9131
   16.890    4.8447
   16.920    4.8394
   16.950    5.0132
   16.980    4.9710
   17.010    4.6919
   17.040    5.0553
   17.070    4.9710
   17.100    5.3397
   17.130    5.1606
   17.160    5.1606
   17.190    5.0026
   17.220    4.7604
   17.250    4.7815
   17.280    4.9868
   17.310    4.8183
   17.340    5.0606
   17.370    4.9605
   17.400    5.0342
   17.430    4.9921
   17.460    4.9763
   17.490    5.0711
   17.520    4.8710
   17.550    4.9710
   17.580    5.0764
   17.610    5.4134
   17.640    5.0816
   17.670    5.0816
   17.700    4.8447
   17.730    5.0184
   17.760    5.2765
   17.790    5.1606
   17.820    5.1659
   17.850    5.0184
   17.880    5.2975
   17.910    4.9236
   17.940    5.1606
   17.970    5.3660
   18.000    5.1869
   18.030    5.1395
   18.060    4.9236
   18.090    5.0606
   18.120    5.0395
   18.150    4.9974
   18.180    5.2396
   18.210    5.0974
   18.240    5.3344
   18.270    4.9552
   18.300    5.2659
   18.330    5.0132
   18.360    5.2133
   18.390    5.0026
   18.420    5.0606
   18.450    5.0764
   18.480    5.1395
   18.510    5.0132
   18.540    4.9184
   18.570    5.0658
   18.600    4.9974
   18.630    4.8657
   18.660    5.0237
   18.690    4.7815
   18.720    4.7446
   18.750    4.9184
   18.780    5.0553
   18.810    4.9658
   18.840    4.8605
   18.870    4.8552
   18.900    4.8763
   18.930    5.1343
   18.960    5.0606
   18.990    4.9974
   19.020    5.1659
   19.050    4.9763
   19.080    5.0026
   19.110    5.0132
   19.140    5.0184
   19.170    4.9184
   19.200    5.0658
   19.230    4.9026
   19.260    4.9078
   19.290    4.8552
   19.320    4.7973
   19.350    5.0079
   19.380    5.2712
   19.410    5.1817
   19.440    5.2238
   19.470    5.2870
   19.500    5.4924
   19.530    5.3660
   19.560    5.4397
   19.590    5.3818
   19.620    5.2291
   19.650    5.5345
   19.680    5.6609
   19.710    5.3712
   19.740    5.4134
   19.770    5.5292
   19.800    5.6819
   19.830    5.5503
   19.860    5.6977
   19.890    5.7030
   19.920    5.9136
   19.950    5.5714
   19.980    5.8978
   20.010    5.6029
   20.040    5.6609
   20.070    5.6661
   20.100    5.5292
   20.130    5.5240
   20.160    5.6503
   20.190    5.5187
   20.220    5.5556
   20.250    5.5398
   20.280    5.4344
   20.310    5.3923
   20.340    5.5450
   20.370    5.5345
   20.400    5.5924
   20.430    5.5398
   20.460    5.6451
   20.490    5.8189
   20.520    5.4397
   20.550    5.2765
   20.580    5.4713
   20.610    5.5345
   20.640    5.2133
   20.670    5.5556
   20.700    5.2975
   20.730    5.5450
   20.760    5.3923
   20.790    5.4660
   20.820    5.4239
   20.850    5.5977
   20.880    5.7925
   20.910    5.4081
   20.940    5.5292
   20.970    5.6819
   21.000    5.6240
   21.030    5.7346
   21.060    5.6556
   21.090    5.5924
   21.120    5.8083
   21.150    5.5977
   21.180    5.5398
   21.210    5.4134
   21.240    5.9084
   21.270    5.9242
   21.300    5.4871
   21.330    5.7609
   21.360    5.6398
   21.390    5.5714
   21.420    5.7451
   21.450    5.3870
   21.480    5.5977
   21.510    5.4239
   21.540    5.8031
   21.570    5.6714
   21.600    5.5661
   21.630    5.5029
   21.660    5.7188
   21.690    5.2765
   21.720    5.4081
   21.750    5.3397
   21.780    5.3502
   21.810    5.5714
   21.840    5.6872
   21.870    5.5872
   21.900    5.5345
   21.930    5.6872
   21.960    5.3923
   21.990    5.7030
   22.020    5.3344
   22.050    5.4713
   22.080    5.4818
   22.110    5.3660
   22.140    5.5450
   22.170    5.5766
   22.200    5.2501
   22.230    5.4502
   22.260    5.4555
   22.290    5.4081
   22.320    5.5450
   22.350    5.4186
   22.380    5.5608
   22.410    5.5977
   22.440    5.3186
   22.470    5.2607
   22.500    5.3081
   22.530    5.4397
   22.560    5.3186
   22.590    5.3818
   22.620    5.5345
   22.650    5.5240
   22.680    5.5082
   22.710    5.4450
   22.740    5.5292
   22.770    5.2870
   22.800    5.7135
   22.830    5.3923
   22.860    5.4555
   22.890    5.5345
   22.920    5.4028
   22.950    5.4450
   22.980    5.4344
   23.010    5.6503
   23.040    5.5398
   23.070    5.5029
   23.100    5.8294
   23.130    5.5714
   23.160    5.3765
   23.190    5.4924
   23.220    5.4818
   23.250    5.5924
   23.280    5.3923
   23.310    5.3870
   23.340    5.5556
   23.370    5.2554
   23.400    5.3870
   23.430    5.4028
   23.460    5.3607
   23.490    5.4292
   23.520    5.2870
   23.550    5.3344
   23.580    5.1869
   23.610    5.5029
   23.640    5.6029
   23.670    5.1869
   23.700    5.4976
   23.730    5.2659
   23.760    5.4134
   23.790    5.3870
   23.820    5.3923
   23.850    5.6398
   23.880    5.4239
   23.910    5.3028
   23.940    5.0869
   23.970    5.2607
   24.000    5.3133
   24.030    5.3239
   24.060    5.2870
   24.090    5.3765
   24.120    5.2396
   24.150    5.2817
   24.180    5.4608
   24.210    4.8920
   24.240    4.9763
   24.270    5.2607
   24.300    4.9552
   24.330    5.2027
   24.360    5.2817
   24.390    5.4186
   24.420    5.3133
   24.450    5.0500
   24.480    5.4397
   24.510    5.4660
   24.540    4.9658
   24.570    5.2554
   24.600    5.3555
   24.630    5.4081
   24.660    5.3291
   24.690    5.2817
   24.720    5.4397
   24.750    5.1711
   24.780    5.1975
   24.810    5.0237
   24.840    5.1922
   24.870    5.1606
   24.900    5.1553
   24.930    5.0079
   24.960    5.0711
   24.990    5.1501
   25.020    5.2291
   25.050    5.1764
   25.080    5.1553
   25.110    4.9500
   25.140    5.1395
   25.170    5.2027
   25.200    5.0237
   25.230    5.1237
   25.260    5.2817
   25.290    5.2554
   25.320    5.1132
   25.350    5.0816
   25.380    5.2765
   25.410    4.9974
   25.440    5.2185
   25.470    4.9552
   25.500    4.9816
   25.530    5.2291
   25.560    5.1080
   25.590    4.9710
   25.620    4.8289
   25.650    4.8605
   25.680    5.3344
   25.710    5.1237
   25.740    4.9289
   25.770    5.0026
   25.800    5.0869
   25.830    4.8657
   25.860    5.1817
   25.890    5.0816
   25.920    4.9605
   25.950    4.8236
   25.980    5.0869
   26.010    5.0290
   26.040    4.8710
   26.070    4.8025
   26.100    4.9658
   26.130    4.7446
   26.160    4.9394
   26.190    4.9026
   26.220    5.0184
   26.250    5.0237
   26.280    4.8552
   26.310    4.8763
   26.340    4.9289
   26.370    4.8025
   26.400    4.7288
   26.430    5.0553
   26.460    4.8394
   26.490    4.7341
   26.520    5.0290
   26.550    5.0869
   26.580    4.8183
   26.610    4.8447
   26.640    4.9394
   26.670    4.9974
   26.700    4.8447
   26.730    4.7025
   26.760    4.7288
   26.790    4.6603
   26.820    4.8394
   26.850    4.9500
   26.880    4.9342
   26.910    4.8078
   26.940    4.8499
   26.970    4.7235
   27.000    4.7709
   27.030    4.8236
   27.060    4.5182
   27.090    4.8236
   27.120    5.1922
   27.150    4.8868
   27.180    4.8025
   27.210    4.9236
   27.240    4.7867
   27.270    4.8341
   27.300    4.7657
   27.330    4.7499
   27.360    4.5761
   27.390    4.9921
   27.420    4.7025
   27.450    4.7867
   27.480    4.5076
   27.510    4.5498
   27.540    4.5129
   27.570    4.6182
   27.600    4.6393
   27.630    4.4444
   27.660    4.6393
   27.690    4.7183
   27.720    4.8499
   27.750    4.6130
   27.780    4.6498
   27.810    4.6761
   27.840    4.6182
   27.870    4.6603
   27.900    4.8183
   27.930    4.7183
   27.960    4.7025
   27.990    4.7867
   28.020    5.0869
   28.050    4.7657
   28.080    4.9131
   28.110    4.7130
   28.140    4.7446
   28.170    4.8657
   28.200    5.0448
   28.230    5.0922
   28.260    5.0606
   28.290    4.5076
   28.320    4.7446
   28.350    4.6445
   28.380    4.6603
   28.410    4.7183
   28.440    4.4655
   28.470    4.7815
   28.500    4.8552
   28.530    4.6656
   28.560    4.5919
   28.590    4.7077
   28.620    4.6919
   28.650    4.9447
   28.680    4.5024
   28.710    4.5708
   28.740    4.3391
   28.770    4.6235
   28.800    4.7183
   28.830    4.5234
   28.860    4.7288
   28.890    4.6761
   28.920    4.6603
   28.950    4.5603
   28.980    4.5550
   29.010    4.6709
   29.040    4.5761
   29.070    4.6551
   29.100    4.4076
   29.130    4.5445
   29.160    4.5340
   29.190    4.4181
   29.220    4.2970
   29.250    4.4181
   29.280    4.3971
   29.310    4.1706
   29.340    4.6235
   29.370    4.5972
   29.400    4.5076
   29.430    4.4971
   29.460    4.5129
   29.490    4.5972
   29.520    4.4866
   29.550    4.3128
   29.580    4.2443
   29.610    4.3971
   29.640    4.4602
   29.670    4.3971
   29.700    4.4076
   29.730    4.4392
   29.760    4.4550
   29.790    4.3497
   29.820    4.7551
   29.850    4.3971
   29.880    4.3918
   29.910    4.4655
   29.940    4.3181
   29.970    4.3865
   30.000    4.6130
   30.030    4.5340
   30.060    4.3391
   30.090    4.4655
   30.120    4.3549
   30.150    4.3865
   30.180    4.3181
   30.210    4.4866
   30.240    4.3075
   30.270    4.3339
   30.300    4.3181
   30.330    4.3971
   30.360    4.3339
   30.390    4.6077
   30.420    4.5550
   30.450    4.2022
   30.480    4.4076
   30.510    4.4286
   30.540    4.2549
   30.570    4.2707
   30.600    4.4602
   30.630    4.4866
   30.660    4.3391
   30.690    4.2075
   30.720    4.3128
   30.750    4.5814
   30.780    3.9284
   30.810    4.1127
   30.840    4.3602
   30.870    4.2812
   30.900    4.3075
   30.930    4.1969
   30.960    4.3918
   30.990    4.3128
   31.020    4.1285
   31.050    4.4286
   31.080    4.2285
   31.110    4.3181
   31.140    4.2759
   31.170    4.2075
   31.200    4.0390
   31.230    4.3655
   31.260    4.0706
   31.290    4.2917
   31.320    4.2707
   31.350    3.9600
   31.380    4.4076
   31.410    4.3444
   31.440    4.3760
   31.470    4.2233
   31.500    4.2707
   31.530    4.2180
   31.560    4.0600
   31.590    4.4708
   31.620    4.2759
   31.650    4.4708
   31.680    4.3497
   31.710    4.5498
   31.740    4.5287
   31.770    4.4760
   31.800    4.1864
   31.830    4.2496
   31.860    4.4866
   31.890    4.2443
   31.920    4.3391
   31.950    4.3707
   31.980    4.2022
   32.010    4.1180
   32.040    4.2601
   32.070    4.0653
   32.100    4.1759
   32.130    4.1601
   32.160    4.1811
   32.190    4.0653
   32.220    4.0758
   32.250    3.9810
   32.280    4.0706
   32.310    3.9494
   32.340    4.1496
   32.370    4.0284
   32.400    4.2127
   32.430    4.1285
   32.460    3.9547
   32.490    3.9916
   32.520    4.3865
   32.550    4.0653
   32.580    4.0232
   32.610    4.0284
   32.640    4.1443
   32.670    4.2391
   32.700    4.0232
   32.730    4.0232
   32.760    3.8547
   32.790    4.0548
   32.820    3.8020
   32.850    3.7441
   32.880    3.9494
   32.910    3.8599
   32.940    3.9810
   32.970    3.9494
   33.000    4.0548
   33.030    4.1548
   33.060    4.0126
   33.090    3.8915
   33.120    3.9021
   33.150    4.1285
   33.180    4.0390
   33.210    3.8336
   33.240    3.8652
   33.270    3.8810
   33.300    3.7915
   33.330    3.7651
   33.360    4.1496
   33.390    3.8073
   33.420    3.8125
   33.450    3.9968
   33.480    3.8441
   33.510    4.1496
   33.540    3.5229
   33.570    3.8389
   33.600    3.7862
   33.630    3.8336
   33.660    3.7388
   33.690    3.7967
   33.720    3.7809
   33.750    3.9600
   33.780    3.6809
   33.810    3.7441
   33.840    3.7072
   33.870    3.8863
   33.900    3.6862
   33.930    3.7546
   33.960    3.7967
   33.990    3.8915
   34.020    3.6967
   34.050    3.7915
   34.080    3.8336
   34.110    3.8547
   34.140    3.6756
   34.170    4.0179
   34.200    3.7599
   34.230    3.6862
   34.260    3.7072
   34.290    3.8020
   34.320    3.6546
   34.350    3.7177
   34.380    3.7388
   34.410    3.6651
   34.440    3.7177
   34.470    3.7072
   34.500    3.7230
   34.530    3.6177
   34.560    3.6177
   34.590    3.8336
   34.620    3.7335
   34.650    3.8178
   34.680    3.7335
   34.710    3.4597
   34.740    3.6282
   34.770    3.6651
   34.800    3.7757
   34.830    3.5650
   34.860    3.5914
   34.890    3.5282
   34.920    3.9021
   34.950    3.5492
   34.980    3.7335
   35.010    3.5492
   35.040    3.7546
   35.070    3.6809
   35.100    3.5387
   35.130    3.6124
   35.160    3.5966
   35.190    3.5229
   35.220    3.7546
   35.250    3.6598
   35.280    3.6862
   35.310    3.7441
   35.340    3.7177
   35.370    3.6914
   35.400    3.6124
   35.430    3.5018
   35.460    3.8705
   35.490    3.8915
   35.520    3.7651
   35.550    3.4860
   35.580    3.5176
   35.610    3.4387
   35.640    3.6704
   35.670    3.4966
   35.700    3.6019
   35.730    3.6546
   35.760    3.4176
   35.790    3.6124
   35.820    3.6019
   35.850    3.4650
   35.880    3.5756
   35.910    3.5124
   35.940    3.4597
   35.970    3.4597
   36.000    3.6862
   36.030    3.5334
   36.060    3.7019
   36.090    3.5914
   36.120    3.2754
   36.150    3.5492
   36.180    3.5545
   36.210    3.4544
   36.240    3.5598
   36.270    3.5018
   36.300    3.6072
   36.330    3.4176
   36.360    3.7230
   36.390    3.4913
   36.420    3.4913
   36.450    3.4808
   36.480    3.5440
   36.510    3.5071
   36.540    3.5334
   36.570    3.3965
   36.600    3.4702
   36.630    3.4808
   36.660    3.5124
   36.690    3.3649
   36.720    3.5650
   36.750    3.4755
   36.780    3.4808
   36.810    3.4492
   36.840    3.2912
   36.870    3.4597
   36.900    3.5703
   36.930    3.4966
   36.960    3.4071
   36.990    3.4492
   37.020    3.4387
   37.050    3.4229
   37.080    3.4176
   37.110    3.2227
   37.140    3.4808
   37.170    3.3860
   37.200    3.4387
   37.230    3.5440
   37.260    3.4492
   37.290    3.5440
   37.320    3.3228
   37.350    3.1754
   37.380    3.3017
   37.410    3.3281
   37.440    3.4334
   37.470    3.3017
   37.500    3.2122
   37.530    3.3281
   37.560    3.3649
   37.590    3.4123
   37.620    3.2491
   37.650    3.2017
   37.680    3.0700
   37.710    3.1332
   37.740    3.5071
   37.770    3.4071
   37.800    3.4281
   37.830    3.3702
   37.860    3.4387
   37.890    3.2701
   37.920    3.2385
   37.950    3.4439
   37.980    3.3702
   38.010    3.3175
   38.040    3.3439
   38.070    3.3965
   38.100    3.2385
   38.130    3.0648
   38.160    3.4281
   38.190    3.3702
   38.220    3.1859
   38.250    3.2227
   38.280    3.3544
   38.310    3.2333
   38.340    3.2965
   38.370    3.3228
   38.400    3.2859
   38.430    3.2543
   38.460    3.3439
   38.490    3.0858
   38.520    3.4966
   38.550    3.3597
   38.580    3.1754
   38.610    3.4123
   38.640    3.4387
   38.670    3.2280
   38.700    3.5282
   38.730    3.2543
   38.760    3.3333
   38.790    3.0964
   38.820    3.3649
   38.850    3.3965
   38.880    3.2649
   38.910    3.3439
   38.940    3.4755
   38.970    3.1596
   39.000    3.3649
   39.030    3.3755
   39.060    3.3281
   39.090    3.3017
   39.120    3.3544
   39.150    3.2491
   39.180    3.1174
   39.210    3.2965
   39.240    3.3439
   39.270    3.4123
   39.300    3.4597
   39.330    3.1280
   39.360    3.2017
   39.390    3.2649
   39.420    3.3017
   39.450    3.2596
   39.480    3.2491
   39.510    3.3860
   39.540    3.3386
   39.570    3.2385
   39.600    3.2649
   39.630    3.1332
   39.660    3.2596
   39.690    3.2701
   39.720    3.5282
   39.750    3.2385
   39.780    3.3333
   39.810    3.2859
   39.840    3.2912
   39.870    3.3070
   39.900    3.4544
   39.930    3.0858
   39.960    3.3491
   39.990    3.2701