File: data/PXRD/PXRD_KE-049-6_Cu-Ka1_capillary-1mm_5s-deg.xyd
    1.500   24.2127
    1.530   23.8968
    1.560   23.2754
    1.590   23.0332
    1.620   23.3913
    1.650   21.9800
    1.680   22.1801
    1.710   21.5061
    1.740   21.4323
    1.770   20.7372
    1.800   20.5898
    1.830   20.3476
    1.860   20.0948
    1.890   20.2001
    1.920   19.8420
    1.950   19.2312
    1.980   20.0105
    2.010   19.2206
    2.040   19.8526
    2.070   19.2733
    2.100   19.5366
    2.130   19.5471
    2.160   20.0421
    2.190   20.1685
    2.220   20.7056
    2.250   19.6314
    2.280   21.0532
    2.310   20.5055
    2.340   21.7167
    2.370   21.6746
    2.400   21.9273
    2.430   22.1380
    2.460   23.6230
    2.490   24.4866
    2.520   24.0232
    2.550   24.5919
    2.580   26.1190
    2.610   25.9716
    2.640   27.2354
    2.670   28.3412
    2.700   29.2680
    2.730   30.3107
    2.760   31.3744
    2.790   33.1227
    2.820   35.2396
    2.850   36.4297
    2.880   36.9142
    2.910   40.6424
    2.940   42.1485
    2.970   44.3813
    3.000   47.0774
    3.030   49.6261
    3.060   52.6488
    3.090   57.0090
    3.120   60.8426
    3.150   63.9495
    3.180   69.7841
    3.210   75.2817
    3.240   82.1590
    3.270   92.1854
    3.300  102.5803
    3.330  113.8599
    3.360  130.7004
    3.390  150.1527
    3.420  172.7014
    3.450  177.6303
    3.480  156.5982
    3.510  111.3323
    3.540   73.3017
    3.570   52.1748
    3.600   43.9179
    3.630   40.5582
    3.660   39.5787
    3.690   40.9163
    3.720   42.7278
    3.750   44.7709
    3.780   47.8357
    3.810   50.0158
    3.840   53.5124
    3.870   57.1775
    3.900   62.7909
    3.930   66.8562
    3.960   72.7857
    3.990   77.4934
    4.020   82.2538
    4.050   82.9173
    4.080   82.5276
    4.110   78.3254
    4.140   70.6688
    4.170   64.4971
    4.200   54.7130
    4.230   46.1611
    4.260   39.0627
    4.290   33.0806
    4.320   27.0879
    4.350   22.8752
    4.380   19.5577
    4.410   16.8088
    4.440   15.6714
    4.470   13.2175
    4.500   12.1748
    4.530   11.8589
    4.560   10.5951
    4.590   10.6898
    4.620    9.9526
    4.650    9.4365
    4.680    9.0995
    4.710    8.7098
    4.740    8.5835
    4.770    9.0153
    4.800    8.2991
    4.830    8.2149
    4.860    8.2043
    4.890    8.2043
    4.920    7.8884
    4.950    8.5940
    4.980    7.8146
    5.010    7.8462
    5.040    8.1306
    5.070    8.0253
    5.100    7.8778
    5.130    8.0358
    5.160    7.7304
    5.190    8.1411
    5.220    7.8989
    5.250    7.7936
    5.280    8.1622
    5.310    7.8989
    5.340    7.8884
    5.370    7.9094
    5.400    7.4987
    5.430    7.1827
    5.460    7.2249
    5.490    6.9300
    5.520    7.5303
    5.550    7.2459
    5.580    7.0879
    5.610    7.4039
    5.640    6.8457
    5.670    7.3196
    5.700    6.8773
    5.730    7.0037
    5.760    7.1827
    5.790    7.1406
    5.820    6.7404
    5.850    7.3934
    5.880    7.0037
    5.910    7.0353
    5.940    7.0563
    5.970    7.0353
    6.000    7.3302
    6.030    7.0669
    6.060    7.5092
    6.090    7.5619
    6.120    7.4987
    6.150    7.2775
    6.180    7.1406
    6.210    7.4355
    6.240    7.3407
    6.270    7.7409
    6.300    8.1622
    6.330    7.8146
    6.360    7.5619
    6.390    7.6461
    6.420    8.5203
    6.450    8.4992
    6.480    8.5729
    6.510    8.8784
    6.540    8.8889
    6.570    9.3734
    6.600    9.6367
    6.630   10.3423
    6.660   10.7425
    6.690   11.5745
    6.720   11.7114
    6.750   13.2701
    6.780   14.1759
    6.810   16.3876
    6.840   17.9884
    6.870   20.8110
    6.900   22.8120
    6.930   24.7499
    6.960   24.2549
    6.990   20.6740
    7.020   15.2291
    7.050   11.7220
    7.080   10.0053
    7.110    8.8573
    7.140    8.2570
    7.170    7.8146
    7.200    7.7304
    7.230    8.0674
    7.260    7.8146
    7.290    7.7199
    7.320    7.8357
    7.350    7.1827
    7.380    7.6777
    7.410    7.4355
    7.440    7.8357
    7.470    7.7620
    7.500    7.8252
    7.530    7.8041
    7.560    7.8041
    7.590    8.0253
    7.620    7.8778
    7.650    8.0674
    7.680    8.3096
    7.710    9.1627
    7.740    9.3839
    7.770    9.0469
    7.800    9.4997
    7.830    9.5735
    7.860    9.7525
    7.890   10.3739
    7.920   10.5635
    7.950   11.1006
    7.980   11.6377
    8.010   11.9221
    8.040   11.7114
    8.070   13.0595
    8.100   13.7862
    8.130   13.7862
    8.160   13.9442
    8.190   14.1548
    8.220   13.9126
    8.250   14.3233
    8.280   14.4918
    8.310   13.7125
    8.340   13.1648
    8.370   13.2280
    8.400   13.4281
    8.430   12.8489
    8.460   11.8589
    8.490   11.9010
    8.520   11.3849
    8.550   11.2902
    8.580   10.3528
    8.610   10.6688
    8.640    9.6577
    8.670    8.8573
    8.700    8.8994
    8.730    8.4781
    8.760    8.4360
    8.790    8.2570
    8.820    8.3202
    8.850    8.0885
    8.880    7.9094
    8.910    7.9200
    8.940    7.6461
    8.970    8.3202
    9.000    8.3412
    9.030    8.6151
    9.060    8.6045
    9.090    8.3096
    9.120    8.9626
    9.150    9.2891
    9.180    9.0679
    9.210    9.1101
    9.240    9.3523
    9.270    9.2891
    9.300    9.2259
    9.330    8.5308
    9.360    8.5203
    9.390    7.9516
    9.420    8.0569
    9.450    7.5197
    9.480    7.3407
    9.510    7.1301
    9.540    7.6777
    9.570    6.9405
    9.600    6.8141
    9.630    6.9089
    9.660    7.1511
    9.690    6.8668
    9.720    7.1933
    9.750    7.3091
    9.780    7.2143
    9.810    7.0774
    9.840    7.1722
    9.870    7.4355
    9.900    6.9510
    9.930    7.4776
    9.960    7.4566
    9.990    7.6567
   10.020    7.7304
   10.050    7.6567
   10.080    7.7093
   10.110    7.1722
   10.140    7.7093
   10.170    8.0463
   10.200    7.5724
   10.230    7.2143
   10.260    8.0779
   10.290    7.4987
   10.320    7.8146
   10.350    7.9305
   10.380    8.3096
   10.410    8.4150
   10.440    8.8152
   10.470    8.4676
   10.500    7.7830
   10.530    7.6567
   10.560    7.3091
   10.590    7.1933
   10.620    6.9194
   10.650    7.5092
   10.680    7.2143
   10.710    7.3302
   10.740    7.4355
   10.770    7.2775
   10.800    7.4355
   10.830    7.3407
   10.860    7.5724
   10.890    7.1511
   10.920    6.9194
   10.950    7.0458
   10.980    7.3723
   11.010    7.2459
   11.040    7.0879
   11.070    7.2565
   11.100    6.8562
   11.130    7.0985
   11.160    7.0879
   11.190    7.1301
   11.220    7.3091
   11.250    6.8668
   11.280    7.2038
   11.310    6.9194
   11.340    6.8668
   11.370    7.0458
   11.400    7.0037
   11.430    6.9510
   11.460    6.6667
   11.490    6.9721
   11.520    6.6561
   11.550    6.9194
   11.580    6.8036
   11.610    7.1511
   11.640    6.7088
   11.670    6.9089
   11.700    6.8562
   11.730    6.9616
   11.760    7.2249
   11.790    7.0037
   11.820    7.2143
   11.850    7.8146
   11.880    7.5092
   11.910    7.3828
   11.940    8.2043
   11.970    7.9200
   12.000    7.8884
   12.030    8.4255
   12.060    7.6672
   12.090    8.5097
   12.120    8.4571
   12.150    8.2254
   12.180    8.2043
   12.210    8.2359
   12.240    8.6361
   12.270    8.8152
   12.300    8.4887
   12.330    8.0885
   12.360    8.3728
   12.390    8.3834
   12.420    7.8357
   12.450    8.2991
   12.480    7.8673
   12.510    8.3412
   12.540    7.9410
   12.570    8.0885
   12.600    8.2991
   12.630    7.8673
   12.660    8.3412
   12.690    8.0358
   12.720    7.6040
   12.750    7.7093
   12.780    7.8568
   12.810    7.6145
   12.840    7.5303
   12.870    7.3512
   12.900    7.8989
   12.930    7.6567
   12.960    7.4566
   12.990    7.4671
   13.020    7.6040
   13.050    7.3302
   13.080    7.5724
   13.110    7.2986
   13.140    7.4671
   13.170    7.5513
   13.200    7.5092
   13.230    7.6356
   13.260    7.1933
   13.290    7.5619
   13.320    7.6567
   13.350    7.2775
   13.380    7.8252
   13.410    7.6145
   13.440    7.5197
   13.470    7.4460
   13.500    7.9831
   13.530    7.7304
   13.560    7.3196
   13.590    7.5935
   13.620    7.3828
   13.650    7.3196
   13.680    7.4776
   13.710    7.1827
   13.740    7.1195
   13.770    6.9616
   13.800    7.1090
   13.830    7.2670
   13.860    7.1511
   13.890    7.2986
   13.920    7.1827
   13.950    7.2249
   13.980    7.2880
   14.010    7.3512
   14.040    6.6456
   14.070    6.8668
   14.100    7.0248
   14.130    6.7720
   14.160    6.9826
   14.190    6.6877
   14.220    7.3618
   14.250    6.3296
   14.280    7.0879
   14.310    6.4666
   14.340    6.7299
   14.370    6.8457
   14.400    6.6456
   14.430    6.5508
   14.460    6.7299
   14.490    7.0248
   14.520    6.7509
   14.550    6.7509
   14.580    6.6245
   14.610    6.7509
   14.640    6.4982
   14.670    6.8141
   14.700    6.4350
   14.730    6.2770
   14.760    6.8036
   14.790    6.5824
   14.820    6.5824
   14.850    6.7720
   14.880    6.7825
   14.910    6.3718
   14.940    6.2981
   14.970    6.7299
   15.000    7.0142
   15.030    6.3296
   15.060    6.8246
   15.090    6.7404
   15.120    6.7088
   15.150    6.9194
   15.180    6.9510
   15.210    7.0142
   15.240    6.9194
   15.270    6.7720
   15.300    7.2038
   15.330    6.7615
   15.360    6.9510
   15.390    7.2038
   15.420    6.9089
   15.450    6.9300
   15.480    7.2670
   15.510    7.3196
   15.540    7.1827
   15.570    7.1090
   15.600    7.0248
   15.630    6.9721
   15.660    7.0985
   15.690    7.3618
   15.720    6.8668
   15.750    6.8562
   15.780    6.9300
   15.810    6.8246
   15.840    7.0879
   15.870    7.0142
   15.900    6.6351
   15.930    7.0037
   15.960    7.1301
   15.990    6.9300
   16.020    6.9194
   16.050    7.1617
   16.080    6.7193
   16.110    7.2880
   16.140    6.4876
   16.170    6.6667
   16.200    6.6561
   16.230    6.7720
   16.260    6.8457
   16.290    6.4982
   16.320    6.3718
   16.350    7.0142
   16.380    6.3718
   16.410    6.9826
   16.440    6.6772
   16.470    7.1827
   16.500    6.6877
   16.530    6.5087
   16.560    6.8562
   16.590    6.7509
   16.620    6.7299
   16.650    6.7509
   16.680    6.6561
   16.710    6.5613
   16.740    6.8352
   16.770    6.5719
   16.800    6.8878
   16.830    7.1722
   16.860    7.0142
   16.890    6.5824
   16.920    6.6245
   16.950    6.7930
   16.980    6.9510
   17.010    6.6667
   17.040    7.0985
   17.070    7.3723
   17.100    7.1090
   17.130    6.8773
   17.160    7.0563
   17.190    6.5192
   17.220    6.8141
   17.250    6.6772
   17.280    6.7509
   17.310    6.4560
   17.340    6.8457
   17.370    7.1827
   17.400    7.0037
   17.430    7.1090
   17.460    6.8984
   17.490    6.7193
   17.520    6.5403
   17.550    7.1195
   17.580    6.7930
   17.610    7.0669
   17.640    7.2038
   17.670    6.9510
   17.700    7.2249
   17.730    7.0774
   17.760    6.6456
   17.790    6.7930
   17.820    7.1195
   17.850    7.2565
   17.880    7.5092
   17.910    6.7299
   17.940    7.2143
   17.970    6.9089
   18.000    7.3407
   18.030    6.7509
   18.060    6.9510
   18.090    6.9405
   18.120    6.9089
   18.150    6.9194
   18.180    7.2354
   18.210    7.0669
   18.240    6.8984
   18.270    6.7404
   18.300    7.0458
   18.330    7.1933
   18.360    6.9194
   18.390    7.1827
   18.420    6.9510
   18.450    7.0142
   18.480    7.2670
   18.510    7.4460
   18.540    7.1827
   18.570    6.9616
   18.600    6.9932
   18.630    6.3507
   18.660    6.4876
   18.690    6.8036
   18.720    6.9616
   18.750    6.9089
   18.780    6.8773
   18.810    6.5508
   18.840    6.6772
   18.870    7.0879
   18.900    6.8562
   18.930    6.7509
   18.960    6.7404
   18.990    6.7299
   19.020    7.0458
   19.050    6.6983
   19.080    7.1195
   19.110    7.1090
   19.140    6.7509
   19.170    6.9826
   19.200    6.8668
   19.230    7.0248
   19.260    6.6561
   19.290    7.0774
   19.320    7.4144
   19.350    7.1722
   19.380    7.2249
   19.410    7.5619
   19.440    7.7936
   19.470    7.4671
   19.500    7.3407
   19.530    7.4355
   19.560    7.2249
   19.590    7.7199
   19.620    7.6145
   19.650    7.9305
   19.680    7.6567
   19.710    7.9621
   19.740    7.6672
   19.770    7.7936
   19.800    7.7199
   19.830    8.1833
   19.860    7.6883
   19.890    8.2780
   19.920    8.0253
   19.950    7.4144
   19.980    7.6251
   20.010    7.8146
   20.040    8.1727
   20.070    7.7936
   20.100    8.0147
   20.130    7.7620
   20.160    7.9621
   20.190    7.7093
   20.220    7.5829
   20.250    7.5724
   20.280    7.6883
   20.310    7.6356
   20.340    7.6988
   20.370    7.4355
   20.400    7.9200
   20.430    7.5303
   20.460    7.7936
   20.490    7.9831
   20.520    7.8462
   20.550    7.7409
   20.580    7.7514
   20.610    7.3302
   20.640    7.5724
   20.670    7.2775
   20.700    8.0674
   20.730    7.5619
   20.760    7.6672
   20.790    7.9094
   20.820    7.7514
   20.850    8.1306
   20.880    7.5408
   20.910    7.7199
   20.940    8.1622
   20.970    8.2675
   21.000    7.8568
   21.030    8.4044
   21.060    7.8252
   21.090    8.0358
   21.120    8.0042
   21.150    7.7304
   21.180    7.6251
   21.210    7.8673
   21.240    8.2570
   21.270    7.9410
   21.300    8.2886
   21.330    7.7514
   21.360    7.6356
   21.390    7.6883
   21.420    7.7093
   21.450    7.8673
   21.480    7.8357
   21.510    7.8778
   21.540    8.2991
   21.570    7.9200
   21.600    7.5619
   21.630    7.7936
   21.660    7.5197
   21.690    8.1201
   21.720    8.0042
   21.750    7.5724
   21.780    7.6567
   21.810    7.8041
   21.840    7.9305
   21.870    7.3828
   21.900    7.8884
   21.930    8.0147
   21.960    7.4460
   21.990    7.6356
   22.020    7.8252
   22.050    7.4671
   22.080    7.6777
   22.110    7.8357
   22.140    7.3407
   22.170    7.4355
   22.200    7.8778
   22.230    7.5513
   22.260    7.9831
   22.290    7.7936
   22.320    7.1933
   22.350    7.1301
   22.380    7.6251
   22.410    7.6567
   22.440    7.1406
   22.470    7.3512
   22.500    8.1938
   22.530    7.3618
   22.560    7.7304
   22.590    7.6040
   22.620    7.5303
   22.650    7.4776
   22.680    7.4987
   22.710    7.3934
   22.740    7.3407
   22.770    7.4460
   22.800    7.2775
   22.830    7.1511
   22.860    7.5197
   22.890    7.5829
   22.920    7.2775
   22.950    7.6145
   22.980    7.5619
   23.010    7.9621
   23.040    7.4776
   23.070    7.5724
   23.100    7.7514
   23.130    7.5197
   23.160    7.3723
   23.190    7.3828
   23.220    7.2880
   23.250    7.8146
   23.280    7.1511
   23.310    7.4355
   23.340    7.7093
   23.370    7.2038
   23.400    7.4144
   23.430    7.6251
   23.460    7.3407
   23.490    7.2565
   23.520    7.7093
   23.550    7.6567
   23.580    7.2459
   23.610    7.2038
   23.640    7.5619
   23.670    7.5303
   23.700    7.4671
   23.730    7.6356
   23.760    7.2143
   23.790    7.2986
   23.820    7.4671
   23.850    7.5619
   23.880    7.0248
   23.910    6.7615
   23.940    7.1406
   23.970    7.4882
   24.000    6.9932
   24.030    7.1195
   24.060    6.9826
   24.090    7.4355
   24.120    6.9932
   24.150    7.6251
   24.180    7.1511
   24.210    7.1090
   24.240    6.9932
   24.270    6.9826
   24.300    7.0248
   24.330    7.3302
   24.360    7.1090
   24.390    7.3723
   24.420    7.6145
   24.450    7.0985
   24.480    7.9094
   24.510    7.4144
   24.540    7.1617
   24.570    7.5724
   24.600    7.3512
   24.630    7.4144
   24.660    7.4566
   24.690    7.1301
   24.720    7.6883
   24.750    6.8984
   24.780    7.0774
   24.810    7.3723
   24.840    7.0248
   24.870    6.9405
   24.900    6.8457
   24.930    7.2038
   24.960    7.4355
   24.990    7.4039
   25.020    6.9932
   25.050    6.4771
   25.080    7.3723
   25.110    7.0248
   25.140    6.9300
   25.170    7.2880
   25.200    7.2880
   25.230    6.9932
   25.260    6.9405
   25.290    7.1933
   25.320    7.4039
   25.350    6.8141
   25.380    7.4144
   25.410    7.0353
   25.440    7.3196
   25.470    7.3618
   25.500    7.2565
   25.530    7.0353
   25.560    7.1195
   25.590    6.7930
   25.620    7.0353
   25.650    6.7193
   25.680    6.8878
   25.710    6.7825
   25.740    6.8773
   25.770    7.0563
   25.800    7.0774
   25.830    6.6561
   25.860    7.0669
   25.890    6.8457
   25.920    6.8246
   25.950    6.8773
   25.980    6.6245
   26.010    7.1722
   26.040    6.8457
   26.070    6.8562
   26.100    7.0774
   26.130    6.8773
   26.160    6.7615
   26.190    6.8352
   26.220    6.3928
   26.250    6.7299
   26.280    6.6140
   26.310    6.6983
   26.340    6.5508
   26.370    6.7615
   26.400    6.9405
   26.430    6.3718
   26.460    6.8352
   26.490    6.8141
   26.520    6.9826
   26.550    6.9932
   26.580    6.7088
   26.610    6.9721
   26.640    6.7088
   26.670    6.9300
   26.700    6.6772
   26.730    6.9721
   26.760    6.5613
   26.790    6.6245
   26.820    6.8878
   26.850    6.8878
   26.880    6.6772
   26.910    7.0985
   26.940    6.6035
   26.970    6.5403
   27.000    6.4876
   27.030    6.6667
   27.060    6.8984
   27.090    6.8562
   27.120    6.4876
   27.150    6.5298
   27.180    6.8141
   27.210    6.8457
   27.240    6.3612
   27.270    6.7930
   27.300    7.0037
   27.330    6.7404
   27.360    6.7404
   27.390    6.5508
   27.420    6.5719
   27.450    6.2559
   27.480    6.7615
   27.510    6.6351
   27.540    6.5087
   27.570    6.7404
   27.600    6.8668
   27.630    6.2559
   27.660    6.2454
   27.690    6.7299
   27.720    6.1927
   27.750    6.6667
   27.780    6.3191
   27.810    6.4771
   27.840    6.4560
   27.870    6.4244
   27.900    6.6561
   27.930    6.4139
   27.960    6.6035
   27.990    6.6877
   28.020    6.7299
   28.050    6.5192
   28.080    6.3402
   28.110    6.9932
   28.140    6.7088
   28.170    6.9932
   28.200    6.8352
   28.230    6.8562
   28.260    6.6351
   28.290    6.6667
   28.320    6.6983
   28.350    6.6456
   28.380    6.8773
   28.410    6.9089
   28.440    6.6140
   28.470    6.5824
   28.500    6.4244
   28.530    6.7825
   28.560    6.5192
   28.590    6.6456
   28.620    6.2770
   28.650    6.4455
   28.680    6.2243
   28.710    6.7930
   28.740    6.3402
   28.770    5.9400
   28.800    6.4350
   28.830    6.1611
   28.860    6.3507
   28.890    6.6140
   28.920    6.3507
   28.950    5.6556
   28.980    6.5929
   29.010    6.5403
   29.040    6.1927
   29.070    6.3718
   29.100    6.1611
   29.130    6.2138
   29.160    6.0664
   29.190    5.9610
   29.220    6.3086
   29.250    6.6561
   29.280    6.1506
   29.310    6.5929
   29.340    6.2665
   29.370    6.5824
   29.400    6.6245
   29.430    6.4771
   29.460    6.2770
   29.490    6.4982
   29.520    6.3191
   29.550    6.5403
   29.580    6.1717
   29.610    6.4982
   29.640    6.5929
   29.670    6.0032
   29.700    5.8662
   29.730    6.4560
   29.760    6.2981
   29.790    6.4034
   29.820    6.2665
   29.850    6.4876
   29.880    6.2770
   29.910    5.9926
   29.940    5.9926
   29.970    6.2349
   30.000    6.5192
   30.030    6.2875
   30.060    6.1190
   30.090    6.5719
   30.120    6.1190
   30.150    6.1190
   30.180    6.3612
   30.210    5.9926
   30.240    5.9505
   30.270    6.1506
   30.300    6.4034
   30.330    6.3823
   30.360    6.3191
   30.390    6.4244
   30.420    6.2665
   30.450    6.4666
   30.480    6.4139
   30.510    6.2981
   30.540    6.0558
   30.570    5.9821
   30.600    6.2770
   30.630    6.2454
   30.660    5.9716
   30.690    6.2665
   30.720    6.2875
   30.750    6.4244
   30.780    6.1506
   30.810    6.0242
   30.840    5.9821
   30.870    6.5087
   30.900    6.2243
   30.930    6.2033
   30.960    6.0348
   30.990    5.6345
   31.020    6.1295
   31.050    6.1927
   31.080    6.2875
   31.110    5.8347
   31.140    5.8241
   31.170    6.1822
   31.200    6.1717
   31.230    5.8241
   31.260    6.4455
   31.290    6.0453
   31.320    6.1822
   31.350    6.1611
   31.380    5.8452
   31.410    5.8136
   31.440    6.1085
   31.470    6.3718
   31.500    6.0558
   31.530    6.0979
   31.560    6.2243
   31.590    6.2138
   31.620    6.0032
   31.650    6.4771
   31.680    6.3612
   31.710    6.4244
   31.740    6.5087
   31.770    6.1611
   31.800    6.5087
   31.830    6.4244
   31.860    6.1506
   31.890    6.3086
   31.920    6.1822
   31.950    6.1717
   31.980    6.0558
   32.010    6.3191
   32.040    6.1085
   32.070    5.7293
   32.100    6.0664
   32.130    5.9189
   32.160    5.8136
   32.190    5.7609
   32.220    5.9505
   32.250    5.7293
   32.280    6.0348
   32.310    6.0453
   32.340    5.9189
   32.370    6.0137
   32.400    5.6977
   32.430    5.9400
   32.460    5.6029
   32.490    5.9084
   32.520    5.6661
   32.550    5.6451
   32.580    5.6451
   32.610    5.6767
   32.640    5.8873
   32.670    5.8241
   32.700    6.3086
   32.730    5.4344
   32.760    5.8662
   32.790    5.9505
   32.820    5.5082
   32.850    6.1190
   32.880    5.9400
   32.910    6.0242
   32.940    5.4028
   32.970    5.0869
   33.000    5.9189
   33.030    6.0874
   33.060    5.5292
   33.090    6.0558
   33.120    5.8557
   33.150    5.6872
   33.180    5.6556
   33.210    5.4976
   33.240    5.8557
   33.270    5.6556
   33.300    5.6345
   33.330    5.9084
   33.360    5.8452
   33.390    5.9084
   33.420    5.7820
   33.450    5.9189
   33.480    6.1401
   33.510    5.2870
   33.540    6.0453
   33.570    5.6029
   33.600    5.7715
   33.630    6.2349
   33.660    5.8347
   33.690    5.4766
   33.720    5.6029
   33.750    5.6240
   33.780    5.8136
   33.810    5.4555
   33.840    5.4450
   33.870    5.9189
   33.900    5.3607
   33.930    5.8347
   33.960    5.7715
   33.990    5.7925
   34.020    5.4976
   34.050    6.0242
   34.080    5.6240
   34.110    5.5819
   34.140    5.4976
   34.170    5.6767
   34.200    5.5082
   34.230    5.7293
   34.260    5.3923
   34.290    5.7925
   34.320    6.1085
   34.350    5.7293
   34.380    5.9821
   34.410    5.6451
   34.440    5.7820
   34.470    5.8978
   34.500    5.1080
   34.530    5.6767
   34.560    5.8136
   34.590    5.8557
   34.620    5.1395
   34.650    5.6451
   34.680    5.6661
   34.710    5.5187
   34.740    5.7715
   34.770    5.7715
   34.800    5.5503
   34.830    5.6556
   34.860    5.4239
   34.890    5.5082
   34.920    5.8452
   34.950    5.6661
   34.980    5.1817
   35.010    5.6872
   35.040    5.5714
   35.070    5.2870
   35.100    5.4344
   35.130    5.5924
   35.160    5.5292
   35.190    5.3502
   35.220    5.6135
   35.250    5.3397
   35.280    5.6029
   35.310    5.4660
   35.340    5.3186
   35.370    5.4134
   35.400    5.7925
   35.430    5.5187
   35.460    6.0137
   35.490    5.6977
   35.520    5.3397
   35.550    5.4555
   35.580    5.6767
   35.610    5.0869
   35.640    5.7715
   35.670    5.3607
   35.700    5.4660
   35.730    5.3923
   35.760    5.4450
   35.790    5.5082
   35.820    5.2765
   35.850    5.3186
   35.880    5.5187
   35.910    5.2449
   35.940    5.7293
   35.970    5.4134
   36.000    5.7399
   36.030    5.2765
   36.060    5.5608
   36.090    5.5714
   36.120    5.2765
   36.150    5.4028
   36.180    5.5924
   36.210    5.3712
   36.240    5.6451
   36.270    5.5292
   36.300    5.3397
   36.330    5.2870
   36.360    5.3712
   36.390    5.6240
   36.420    5.2133
   36.450    5.0658
   36.480    4.9394
   36.510    5.4450
   36.540    5.3186
   36.570    5.5398
   36.600    5.2659
   36.630    5.4239
   36.660    5.3818
   36.690    5.5714
   36.720    5.2133
   36.750    5.2133
   36.780    5.4976
   36.810    5.3607
   36.840    5.4134
   36.870    5.4239
   36.900    5.0553
   36.930    5.9610
   36.960    5.6029
   36.990    5.2027
   37.020    5.4450
   37.050    5.2133
   37.080    4.9605
   37.110    5.3712
   37.140    5.5608
   37.170    5.4028
   37.200    5.5608
   37.230    5.3712
   37.260    5.4660
   37.290    5.2238
   37.320    5.4239
   37.350    5.1711
   37.380    5.3291
   37.410    5.0658
   37.440    5.1922
   37.470    5.0553
   37.500    5.3081
   37.530    5.2449
   37.560    5.4239
   37.590    5.6345
   37.620    4.9394
   37.650    5.7188
   37.680    5.1606
   37.710    5.3502
   37.740    5.3397
   37.770    5.4344
   37.800    5.1080
   37.830    5.1395
   37.860    5.2449
   37.890    5.1922
   37.920    5.1606
   37.950    5.6240
   37.980    5.4134
   38.010    5.3923
   38.040    5.4976
   38.070    5.2554
   38.100    5.4028
   38.130    5.1395
   38.160    5.3186
   38.190    5.3186
   38.220    5.4028
   38.250    5.3712
   38.280    5.4871
   38.310    5.3502
   38.340    5.1185
   38.370    5.3397
   38.400    5.2659
   38.430    5.2343
   38.460    5.2343
   38.490    4.9394
   38.520    5.6240
   38.550    5.1606
   38.580    5.2870
   38.610    5.3607
   38.640    5.3818
   38.670    5.2133
   38.700    5.1395
   38.730    5.5608
   38.760    5.3186
   38.790    5.1395
   38.820    5.3923
   38.850    5.4239
   38.880    4.9710
   38.910    4.9500
   38.940    5.4028
   38.970    5.4344
   39.000    5.2238
   39.030    5.2659
   39.060    5.0869
   39.090    5.1606
   39.120    5.3607
   39.150    5.3712
   39.180    5.3712
   39.210    5.4239
   39.240    5.4239
   39.270    5.4344
   39.300    5.0974
   39.330    5.3397
   39.360    5.3818
   39.390    4.7393
   39.420    5.5082
   39.450    5.1711
   39.480    4.8447
   39.510    5.3712
   39.540    5.0026
   39.570    5.4239
   39.600    5.3502
   39.630    5.3923
   39.660    5.4766
   39.690    5.2975
   39.720    5.4976
   39.750    4.9710
   39.780    5.2554
   39.810    5.2343
   39.840    5.0869
   39.870    5.4660
   39.900    5.0132
   39.930    5.2449
   39.960    4.7920
   39.990    5.0132