File: data/PXRD/PXRD_KE-217_Co-Ka1_film-3mm_5s-deg.xyd
    1.500    4.8154
    1.530    4.7298
    1.560    5.0187
    1.590    4.7833
    1.620    4.0556
    1.650    4.1306
    1.680    3.9058
    1.710    3.9272
    1.740    4.1520
    1.770    3.7025
    1.800    3.4350
    1.830    3.7667
    1.860    3.6597
    1.890    3.3708
    1.920    3.2852
    1.950    3.4243
    1.980    3.4350
    2.010    3.3173
    2.040    2.9428
    2.070    3.1140
    2.100    2.9320
    2.130    2.8036
    2.160    3.0284
    2.190    2.7715
    2.220    2.6752
    2.250    2.7715
    2.280    2.6538
    2.310    2.6217
    2.340    2.4826
    2.370    2.5682
    2.400    2.3114
    2.430    2.5575
    2.460    2.6431
    2.490    2.4398
    2.520    2.6538
    2.550    2.3328
    2.580    2.4398
    2.610    2.3007
    2.640    2.1616
    2.670    2.0225
    2.700    2.2793
    2.730    2.0439
    2.760    2.2472
    2.790    2.4398
    2.820    2.2472
    2.850    2.2258
    2.880    2.3649
    2.910    2.2151
    2.940    2.2472
    2.970    2.1616
    3.000    2.2900
    3.030    1.9155
    3.060    2.1509
    3.090    1.9904
    3.120    2.0225
    3.150    2.0974
    3.180    2.2365
    3.210    2.3435
    3.240    2.3007
    3.270    2.4291
    3.300    2.5575
    3.330    2.5147
    3.360    2.2472
    3.390    2.5468
    3.420    2.6110
    3.450    2.5682
    3.480    2.4719
    3.510    2.6431
    3.540    2.8357
    3.570    2.9856
    3.600    3.5206
    3.630    3.6062
    3.660    3.5955
    3.690    4.0128
    3.720    4.4623
    3.750    4.9973
    3.780    5.5752
    3.810    6.1958
    3.840    6.6881
    3.870    8.0578
    3.900    9.7913
    3.930   11.3216
    3.960   12.1669
    3.990   14.1573
    4.020   15.0027
    4.050   14.0075
    4.080   11.8673
    4.110    9.2563
    4.140    6.9663
    4.170    5.7464
    4.200    5.0508
    4.230    4.6442
    4.260    4.3125
    4.290    3.7988
    4.320    4.0342
    4.350    3.9272
    4.380    4.7833
    4.410    4.3767
    4.440    4.8582
    4.470    5.0722
    4.500    5.2327
    4.530    6.1209
    4.560    5.6929
    4.590    6.1102
    4.620    6.4098
    4.650    6.0674
    4.680    6.0460
    4.710    5.5752
    4.740    6.0995
    4.770    5.2648
    4.800    5.4682
    4.830    5.1792
    4.860    4.6228
    4.890    4.7940
    4.920    4.4837
    4.950    3.6490
    4.980    3.7881
    5.010    3.4457
    5.040    3.2959
    5.070    3.2852
    5.100    2.9749
    5.130    2.8571
    5.160    2.5254
    5.190    2.5789
    5.220    2.5040
    5.250    2.4826
    5.280    2.2686
    5.310    2.3649
    5.340    2.0225
    5.370    2.1295
    5.400    1.9262
    5.430    1.9369
    5.460    1.8085
    5.490    1.9262
    5.520    1.9369
    5.550    1.8513
    5.580    2.0546
    5.610    1.8727
    5.640    1.8299
    5.670    1.7657
    5.700    1.7014
    5.730    1.7657
    5.760    1.8513
    5.790    1.8299
    5.820    1.9904
    5.850    1.8834
    5.880    1.9476
    5.910    1.9155
    5.940    1.7978
    5.970    1.8513
    6.000    1.9155
    6.030    2.0011
    6.060    1.9476
    6.090    2.1830
    6.120    2.0653
    6.150    2.1616
    6.180    2.2365
    6.210    2.1295
    6.240    2.0332
    6.270    2.0974
    6.300    2.0653
    6.330    2.2151
    6.360    2.4184
    6.390    2.2686
    6.420    2.1937
    6.450    2.3007
    6.480    2.0974
    6.510    2.2151
    6.540    2.2044
    6.570    2.1937
    6.600    2.1509
    6.630    2.1723
    6.660    2.1402
    6.690    2.1081
    6.720    1.9583
    6.750    2.0225
    6.780    1.8727
    6.810    1.5944
    6.840    1.8085
    6.870    1.7335
    6.900    1.8406
    6.930    1.7764
    6.960    1.6051
    6.990    1.5195
    7.020    1.6586
    7.050    1.7764
    7.080    1.6907
    7.110    1.6265
    7.140    1.6158
    7.170    1.4553
    7.200    1.5516
    7.230    1.5195
    7.260    1.5730
    7.290    1.5944
    7.320    1.5409
    7.350    1.4553
    7.380    1.3697
    7.410    1.6693
    7.440    1.4232
    7.470    1.2948
    7.500    1.3804
    7.530    1.4767
    7.560    1.3804
    7.590    1.5837
    7.620    1.3804
    7.650    1.4232
    7.680    1.4018
    7.710    1.3483
    7.740    1.4874
    7.770    1.4232
    7.800    1.4767
    7.830    1.3697
    7.860    1.5837
    7.890    1.6051
    7.920    1.5837
    7.950    1.9583
    7.980    1.8834
    8.010    2.0332
    8.040    2.2793
    8.070    2.2365
    8.100    2.7073
    8.130    2.4291
    8.160    2.2044
    8.190    2.0546
    8.220    1.7978
    8.250    1.6372
    8.280    1.7764
    8.310    1.4874
    8.340    1.2841
    8.370    1.4339
    8.400    1.3911
    8.430    1.2841
    8.460    1.3162
    8.490    1.5195
    8.520    1.1450
    8.550    1.2520
    8.580    1.1450
    8.610    1.1771
    8.640    1.1771
    8.670    1.1343
    8.700    1.1236
    8.730    1.2627
    8.760    1.2306
    8.790    1.1985
    8.820    1.1236
    8.850    1.1236
    8.880    1.1236
    8.910    1.1664
    8.940    1.0915
    8.970    1.1450
    9.000    1.2306
    9.030    1.3911
    9.060    1.3804
    9.090    1.2199
    9.120    1.1129
    9.150    1.1771
    9.180    1.3804
    9.210    1.4232
    9.240    1.0915
    9.270    1.4125
    9.300    1.1771
    9.330    1.2627
    9.360    1.3804
    9.390    1.1771
    9.420    1.3162
    9.450    1.2841
    9.480    1.2199
    9.510    1.1771
    9.540    1.4232
    9.570    1.3162
    9.600    1.2092
    9.630    1.1343
    9.660    1.3697
    9.690    1.1985
    9.720    1.3697
    9.750    1.2092
    9.780    1.1236
    9.810    1.3055
    9.840    1.1343
    9.870    1.1129
    9.900    1.1664
    9.930    1.0594
    9.960    1.3804
    9.990    1.1557
   10.020    1.2306
   10.050    0.9096
   10.080    1.0059
   10.110    1.1129
   10.140    1.0273
   10.170    1.0380
   10.200    0.9310
   10.230    1.0166
   10.260    1.1450
   10.290    1.0808
   10.320    1.0380
   10.350    1.1450
   10.380    1.0915
   10.410    0.8775
   10.440    0.9631
   10.470    0.9738
   10.500    0.9310
   10.530    1.0915
   10.560    0.8775
   10.590    0.9738
   10.620    0.9631
   10.650    1.0059
   10.680    0.8989
   10.710    0.9096
   10.740    0.8989
   10.770    0.9096
   10.800    1.0915
   10.830    0.9310
   10.860    0.9096
   10.890    0.8454
   10.920    0.9203
   10.950    0.8240
   10.980    0.8989
   11.010    0.9203
   11.040    0.8026
   11.070    0.9631
   11.100    0.9631
   11.130    0.9952
   11.160    0.9310
   11.190    0.8989
   11.220    0.8240
   11.250    0.9310
   11.280    0.8026
   11.310    0.8454
   11.340    0.8989
   11.370    0.8775
   11.400    0.8454
   11.430    1.0701
   11.460    0.7384
   11.490    0.8133
   11.520    0.9203
   11.550    0.8775
   11.580    0.8989
   11.610    0.7812
   11.640    0.9096
   11.670    0.8026
   11.700    0.9952
   11.730    0.9310
   11.760    0.8561
   11.790    1.0059
   11.820    0.8561
   11.850    0.8989
   11.880    0.8026
   11.910    0.8454
   11.940    0.9738
   11.970    1.0487
   12.000    0.8133
   12.030    0.9738
   12.060    1.0166
   12.090    0.9203
   12.120    0.8775
   12.150    0.9096
   12.180    1.1557
   12.210    0.8989
   12.240    0.8561
   12.270    1.0380
   12.300    0.8561
   12.330    1.0166
   12.360    0.8882
   12.390    0.9524
   12.420    0.8026
   12.450    0.8882
   12.480    0.9417
   12.510    0.7705
   12.540    0.9845
   12.570    0.9845
   12.600    0.8561
   12.630    0.8882
   12.660    0.8775
   12.690    0.8882
   12.720    1.0059
   12.750    0.7812
   12.780    0.9738
   12.810    1.1771
   12.840    0.8133
   12.870    1.0059
   12.900    0.8775
   12.930    0.9524
   12.960    1.1664
   12.990    0.9203
   13.020    0.9310
   13.050    0.9524
   13.080    0.9096
   13.110    1.0701
   13.140    0.8775
   13.170    1.1664
   13.200    0.9096
   13.230    0.8561
   13.260    0.8133
   13.290    1.0059
   13.320    0.8989
   13.350    1.0701
   13.380    0.9738
   13.410    0.8026
   13.440    0.9417
   13.470    1.0273
   13.500    0.8347
   13.530    1.0808
   13.560    0.8240
   13.590    1.1129
   13.620    0.8989
   13.650    1.0059
   13.680    0.8240
   13.710    1.0273
   13.740    0.8882
   13.770    0.8775
   13.800    0.9631
   13.830    0.9845
   13.860    0.9524
   13.890    0.8668
   13.920    0.8561
   13.950    0.9096
   13.980    0.9631
   14.010    0.8882
   14.040    0.9631
   14.070    0.8882
   14.100    0.8989
   14.130    0.8347
   14.160    0.8882
   14.190    0.8882
   14.220    0.9203
   14.250    0.9738
   14.280    0.9096
   14.310    0.9738
   14.340    0.8882
   14.370    0.8882
   14.400    0.9310
   14.430    1.1022
   14.460    0.9845
   14.490    0.8561
   14.520    0.8347
   14.550    0.9845
   14.580    0.8775
   14.610    1.0166
   14.640    1.1022
   14.670    0.8561
   14.700    0.9203
   14.730    1.0594
   14.760    0.9738
   14.790    0.8240
   14.820    0.7384
   14.850    0.9738
   14.880    1.0166
   14.910    1.0059
   14.940    0.9738
   14.970    0.9096
   15.000    0.9631
   15.030    1.0273
   15.060    0.8561
   15.090    0.8561
   15.120    0.8668
   15.150    0.7919
   15.180    0.9631
   15.210    0.9310
   15.240    0.9096
   15.270    0.8882
   15.300    0.6956
   15.330    0.8347
   15.360    1.0594
   15.390    0.8561
   15.420    0.7919
   15.450    0.8347
   15.480    0.8882
   15.510    0.9096
   15.540    0.8668
   15.570    0.9096
   15.600    0.8989
   15.630    0.8347
   15.660    0.8240
   15.690    0.9524
   15.720    0.8882
   15.750    0.8882
   15.780    0.9738
   15.810    1.0273
   15.840    0.7919
   15.870    0.8882
   15.900    1.0915
   15.930    0.9096
   15.960    0.9096
   15.990    0.8882
   16.020    1.0059
   16.050    0.7598
   16.080    0.9310
   16.110    0.9631
   16.140    0.9631
   16.170    1.0166
   16.200    0.9952
   16.230    0.9203
   16.260    0.8882
   16.290    0.8882
   16.320    0.9738
   16.350    0.8561
   16.380    1.0701
   16.410    1.0594
   16.440    0.8668
   16.470    0.9310
   16.500    0.9952
   16.530    0.8561
   16.560    1.0059
   16.590    0.9203
   16.620    1.1771
   16.650    1.0380
   16.680    0.8775
   16.710    0.9310
   16.740    0.9631
   16.770    0.9524
   16.800    0.9524
   16.830    1.0380
   16.860    1.1022
   16.890    1.0166
   16.920    0.9738
   16.950    1.1236
   16.980    0.9524
   17.010    0.9524
   17.040    0.8989
   17.070    0.9524
   17.100    0.9310
   17.130    0.8454
   17.160    0.9952
   17.190    0.9524
   17.220    0.8989
   17.250    0.9096
   17.280    0.8882
   17.310    0.8454
   17.340    0.9631
   17.370    1.0166
   17.400    0.8133
   17.430    0.8026
   17.460    0.6635
   17.490    0.7919
   17.520    0.9524
   17.550    0.8561
   17.580    0.7063
   17.610    0.8347
   17.640    0.6849
   17.670    0.8454
   17.700    0.9738
   17.730    0.8454
   17.760    0.9524
   17.790    0.8133
   17.820    0.9096
   17.850    0.7812
   17.880    0.8026
   17.910    0.9310
   17.940    0.8775
   17.970    0.8240
   18.000    0.8240
   18.030    0.8561
   18.060    0.7919
   18.090    0.8989
   18.120    0.9096
   18.150    0.8561
   18.180    0.8668
   18.210    0.7812
   18.240    0.8347
   18.270    0.9096
   18.300    0.7812
   18.330    0.7705
   18.360    0.8347
   18.390    0.7812
   18.420    0.8133
   18.450    0.8240
   18.480    0.6421
   18.510    0.8775
   18.540    0.7812
   18.570    0.9310
   18.600    0.9524
   18.630    0.8561
   18.660    0.7812
   18.690    0.7277
   18.720    0.8347
   18.750    0.7812
   18.780    1.0380
   18.810    0.7277
   18.840    0.7063
   18.870    0.8989
   18.900    0.9096
   18.930    0.9310
   18.960    0.8561
   18.990    0.9524
   19.020    0.8561
   19.050    0.8561
   19.080    0.8775
   19.110    0.9096
   19.140    0.8133
   19.170    0.7384
   19.200    0.8561
   19.230    0.7812
   19.260    0.7063
   19.290    0.8989
   19.320    0.9417
   19.350    0.8240
   19.380    0.7812
   19.410    0.7705
   19.440    0.8882
   19.470    0.8347
   19.500    0.8026
   19.530    0.7705
   19.560    0.8240
   19.590    0.8989
   19.620    0.7598
   19.650    0.8989
   19.680    0.8240
   19.710    0.8454
   19.740    0.9738
   19.770    0.8347
   19.800    0.7277
   19.830    0.8561
   19.860    0.7705
   19.890    0.9203
   19.920    0.7384
   19.950    0.9417
   19.980    0.7170
   20.010    0.9952
   20.040    0.8240
   20.070    0.9096
   20.100    0.8882
   20.130    0.7919
   20.160    0.7598
   20.190    0.9310
   20.220    0.7812
   20.250    0.8561
   20.280    0.7277
   20.310    0.8026
   20.340    0.9310
   20.370    0.8454
   20.400    0.7277
   20.430    0.8775
   20.460    0.7063
   20.490    0.8026
   20.520    0.7063
   20.550    0.7491
   20.580    0.8347
   20.610    0.7919
   20.640    0.8668
   20.670    0.7812
   20.700    0.7812
   20.730    0.7277
   20.760    0.9096
   20.790    0.7598
   20.820    0.8668
   20.850    0.8454
   20.880    0.8347
   20.910    0.7705
   20.940    0.6849
   20.970    0.7063
   21.000    0.7919
   21.030    0.8668
   21.060    0.7812
   21.090    0.8026
   21.120    0.8454
   21.150    0.8561
   21.180    0.8026
   21.210    0.8989
   21.240    0.7705
   21.270    0.9203
   21.300    0.7170
   21.330    0.7063
   21.360    0.8775
   21.390    0.7170
   21.420    0.7384
   21.450    0.7705
   21.480    0.8133
   21.510    0.8026
   21.540    0.9203
   21.570    0.7170
   21.600    0.7919
   21.630    0.9524
   21.660    0.7063
   21.690    0.8668
   21.720    0.7812
   21.750    0.7919
   21.780    0.8882
   21.810    0.8561
   21.840    0.8240
   21.870    0.7063
   21.900    0.7170
   21.930    0.7063
   21.960    0.8347
   21.990    0.9310
   22.020    0.7277
   22.050    0.8347
   22.080    0.8240
   22.110    0.7170
   22.140    0.7812
   22.170    0.8668
   22.200    0.6849
   22.230    0.8668
   22.260    0.5778
   22.290    0.8240
   22.320    0.9310
   22.350    0.5993
   22.380    0.8026
   22.410    0.8347
   22.440    0.7919
   22.470    0.7598
   22.500    0.9203
   22.530    0.7598
   22.560    0.8347
   22.590    0.7598
   22.620    0.7919
   22.650    0.8133
   22.680    0.7491
   22.710    0.8775
   22.740    0.9203
   22.770    0.8668
   22.800    0.8454
   22.830    0.7384
   22.860    0.7384
   22.890    0.7491
   22.920    0.7919
   22.950    0.8026
   22.980    0.8240
   23.010    0.6956
   23.040    0.7812
   23.070    0.8668
   23.100    1.0273
   23.130    0.7705
   23.160    0.7384
   23.190    0.6956
   23.220    0.8347
   23.250    0.8882
   23.280    0.7170
   23.310    0.7919
   23.340    0.7705
   23.370    0.8775
   23.400    0.7705
   23.430    0.8133
   23.460    0.6849
   23.490    0.8133
   23.520    0.6635
   23.550    0.7919
   23.580    0.8668
   23.610    0.8454
   23.640    0.9738
   23.670    0.7277
   23.700    0.6528
   23.730    0.7598
   23.760    0.8775
   23.790    0.8240
   23.820    0.7812
   23.850    0.6635
   23.880    0.7170
   23.910    0.7919
   23.940    0.7063
   23.970    0.6100
   24.000    0.8561
   24.030    0.7598
   24.060    0.8561
   24.090    0.7491
   24.120    0.5350
   24.150    0.8454
   24.180    0.7384
   24.210    0.8454
   24.240    0.8347
   24.270    0.9845
   24.300    0.7063
   24.330    0.6956
   24.360    0.7384
   24.390    0.6742
   24.420    0.6956
   24.450    0.7705
   24.480    0.6956
   24.510    0.6849
   24.540    0.7277
   24.570    0.8775
   24.600    0.5457
   24.630    0.7491
   24.660    0.7384
   24.690    0.8240
   24.720    0.7919
   24.750    0.6956
   24.780    0.7277
   24.810    0.7384
   24.840    0.6421
   24.870    0.6528
   24.900    0.7812
   24.930    0.6742
   24.960    0.7277
   24.990    0.7384
   25.020    0.6100
   25.050    0.7491
   25.080    0.9203
   25.110    0.8133
   25.140    0.8775
   25.170    0.6100
   25.200    0.8026
   25.230    0.7812
   25.260    0.7705
   25.290    0.7384
   25.320    0.8240
   25.350    0.7491
   25.380    0.8133
   25.410    0.7384
   25.440    0.6528
   25.470    0.8454
   25.500    0.8240
   25.530    0.7277
   25.560    0.5886
   25.590    0.6635
   25.620    0.7598
   25.650    0.7277
   25.680    0.6635
   25.710    0.6742
   25.740    0.8347
   25.770    0.8240
   25.800    0.8454
   25.830    0.7705
   25.860    0.6207
   25.890    0.6849
   25.920    0.7812
   25.950    0.6528
   25.980    0.8668
   26.010    0.5886
   26.040    0.7598
   26.070    0.6635
   26.100    0.7812
   26.130    0.7277
   26.160    0.6742
   26.190    0.7170
   26.220    0.6314
   26.250    0.7170
   26.280    0.6314
   26.310    0.7491
   26.340    0.6207
   26.370    0.7705
   26.400    0.6314
   26.430    0.8133
   26.460    0.7277
   26.490    0.6956
   26.520    0.5993
   26.550    0.7491
   26.580    0.7598
   26.610    0.6528
   26.640    0.7491
   26.670    0.6528
   26.700    0.6528
   26.730    0.6528
   26.760    0.7170
   26.790    0.7598
   26.820    0.6528
   26.850    0.7384
   26.880    0.6421
   26.910    0.6314
   26.940    0.6207
   26.970    0.7598
   27.000    0.6314
   27.030    0.5564
   27.060    0.5886
   27.090    0.7170
   27.120    0.7491
   27.150    0.6742
   27.180    0.6528
   27.210    0.6207
   27.240    0.6742
   27.270    0.6100
   27.300    0.6207
   27.330    0.6207
   27.360    0.6207
   27.390    0.4708
   27.420    0.5564
   27.450    0.5778
   27.480    0.6100
   27.510    0.7170
   27.540    0.5564
   27.570    0.6635
   27.600    0.6849
   27.630    0.6742
   27.660    0.6742
   27.690    0.5671
   27.720    0.5778
   27.750    0.6421
   27.780    0.7705
   27.810    0.6956
   27.840    0.6849
   27.870    0.6207
   27.900    0.6635
   27.930    0.6100
   27.960    0.6100
   27.990    0.5457
   28.020    0.6528
   28.050    0.6207
   28.080    0.5778
   28.110    0.6528
   28.140    0.4922
   28.170    0.5243
   28.200    0.6207
   28.230    0.6421
   28.260    0.6207
   28.290    0.6742
   28.320    0.6314
   28.350    0.6742
   28.380    0.6849
   28.410    0.6100
   28.440    0.6314
   28.470    0.7491
   28.500    0.6100
   28.530    0.5564
   28.560    0.6421
   28.590    0.6635
   28.620    0.4815
   28.650    0.8026
   28.680    0.6100
   28.710    0.6849
   28.740    0.5886
   28.770    0.6207
   28.800    0.5886
   28.830    0.6528
   28.860    0.6207
   28.890    0.5029
   28.920    0.5457
   28.950    0.5993
   28.980    0.5564
   29.010    0.6742
   29.040    0.5993
   29.070    0.6100
   29.100    0.5778
   29.130    0.6528
   29.160    0.5671
   29.190    0.4922
   29.220    0.5671
   29.250    0.6314
   29.280    0.5671
   29.310    0.5350
   29.340    0.5457
   29.370    0.6314
   29.400    0.7491
   29.430    0.4922
   29.460    0.5457
   29.490    0.5671
   29.520    0.5671
   29.550    0.5350
   29.580    0.5457
   29.610    0.5993
   29.640    0.5993
   29.670    0.5457
   29.700    0.6528
   29.730    0.7812
   29.760    0.5993
   29.790    0.5457
   29.820    0.5778
   29.850    0.4922
   29.880    0.6314
   29.910    0.4708
   29.940    0.5029
   29.970    0.5136
   30.000    0.6100
   30.030    0.6528
   30.060    0.4601
   30.090    0.5886
   30.120    0.5350
   30.150    0.4494
   30.180    0.6314
   30.210    0.7491
   30.240    0.6100
   30.270    0.5671
   30.300    0.6207
   30.330    0.5886
   30.360    0.4601
   30.390    0.4708
   30.420    0.5564
   30.450    0.5564
   30.480    0.5778
   30.510    0.5993
   30.540    0.5457
   30.570    0.5564
   30.600    0.5778
   30.630    0.5886
   30.660    0.4708
   30.690    0.4708
   30.720    0.5564
   30.750    0.4066
   30.780    0.6207
   30.810    0.6100
   30.840    0.6635
   30.870    0.5886
   30.900    0.5457
   30.930    0.4708
   30.960    0.4601
   30.990    0.5457
   31.020    0.5243
   31.050    0.5136
   31.080    0.5886
   31.110    0.4387
   31.140    0.5029
   31.170    0.5350
   31.200    0.5136
   31.230    0.5136
   31.260    0.5243
   31.290    0.4922
   31.320    0.5136
   31.350    0.5886
   31.380    0.4922
   31.410    0.5136
   31.440    0.5029
   31.470    0.5029
   31.500    0.5029
   31.530    0.4494
   31.560    0.5243
   31.590    0.4922
   31.620    0.5350
   31.650    0.4815
   31.680    0.5029
   31.710    0.4815
   31.740    0.4708
   31.770    0.5886
   31.800    0.5136
   31.830    0.5243
   31.860    0.4280
   31.890    0.5564
   31.920    0.4280
   31.950    0.5350
   31.980    0.5029
   32.010    0.4173
   32.040    0.4280
   32.070    0.5243
   32.100    0.4815
   32.130    0.4066
   32.160    0.4708
   32.190    0.4601
   32.220    0.5564
   32.250    0.4922
   32.280    0.5564
   32.310    0.5243
   32.340    0.4494
   32.370    0.4815
   32.400    0.4708
   32.430    0.4494
   32.460    0.4601
   32.490    0.5886
   32.520    0.5671
   32.550    0.4601
   32.580    0.5029
   32.610    0.5029
   32.640    0.5029
   32.670    0.3531
   32.700    0.4708
   32.730    0.5457
   32.760    0.4708
   32.790    0.4494
   32.820    0.3531
   32.850    0.5457
   32.880    0.3852
   32.910    0.4922
   32.940    0.4280
   32.970    0.5350
   33.000    0.5136
   33.030    0.3317
   33.060    0.4601
   33.090    0.4922
   33.120    0.5350
   33.150    0.3745
   33.180    0.4173
   33.210    0.5029
   33.240    0.4708
   33.270    0.4173
   33.300    0.4066
   33.330    0.4922
   33.360    0.3531
   33.390    0.3638
   33.420    0.4387
   33.450    0.5457
   33.480    0.4601
   33.510    0.3638
   33.540    0.4280
   33.570    0.5671
   33.600    0.4280
   33.630    0.5350
   33.660    0.3959
   33.690    0.5029
   33.720    0.4815
   33.750    0.4280
   33.780    0.5350
   33.810    0.4708
   33.840    0.3638
   33.870    0.4601
   33.900    0.3852
   33.930    0.3852
   33.960    0.4815
   33.990    0.5136
   34.020    0.3852
   34.050    0.4815
   34.080    0.3424
   34.110    0.3852
   34.140    0.3531
   34.170    0.3745
   34.200    0.3959
   34.230    0.4173
   34.260    0.4387
   34.290    0.3852
   34.320    0.3638
   34.350    0.5029
   34.380    0.4173
   34.410    0.4815
   34.440    0.4173
   34.470    0.2675
   34.500    0.4066
   34.530    0.4066
   34.560    0.5029
   34.590    0.5136
   34.620    0.4173
   34.650    0.3745
   34.680    0.4173
   34.710    0.4173
   34.740    0.4387
   34.770    0.3317
   34.800    0.3424
   34.830    0.3745
   34.860    0.3959
   34.890    0.3424
   34.920    0.3424
   34.950    0.4173
   34.980    0.4173
   35.010    0.2996
   35.040    0.4173
   35.070    0.4173
   35.100    0.4387
   35.130    0.2889
   35.160    0.3745
   35.190    0.3959
   35.220    0.3531
   35.250    0.3424
   35.280    0.3745
   35.310    0.3531
   35.340    0.3638
   35.370    0.3317
   35.400    0.3638
   35.430    0.3959
   35.460    0.2996
   35.490    0.3959
   35.520    0.4173
   35.550    0.3317
   35.580    0.4494
   35.610    0.3638
   35.640    0.4173
   35.670    0.2782
   35.700    0.4173
   35.730    0.3103
   35.760    0.3852
   35.790    0.3745
   35.820    0.3317
   35.850    0.3317
   35.880    0.3531
   35.910    0.3424
   35.940    0.2568
   35.970    0.3638
   36.000    0.3531
   36.030    0.4066
   36.060    0.4066
   36.090    0.3852
   36.120    0.3424
   36.150    0.4280
   36.180    0.2675
   36.210    0.2354
   36.240    0.3531
   36.270    0.3103
   36.300    0.3210
   36.330    0.3745
   36.360    0.3317
   36.390    0.2889
   36.420    0.4280
   36.450    0.3103
   36.480    0.3317
   36.510    0.3317
   36.540    0.3317
   36.570    0.2354
   36.600    0.2889
   36.630    0.2996
   36.660    0.3852
   36.690    0.3317
   36.720    0.4280
   36.750    0.3317
   36.780    0.2996
   36.810    0.3959
   36.840    0.3210
   36.870    0.3317
   36.900    0.3852
   36.930    0.3424
   36.960    0.2996
   36.990    0.2675
   37.020    0.3745
   37.050    0.3531
   37.080    0.2996
   37.110    0.3210
   37.140    0.3210
   37.170    0.3745
   37.200    0.2996
   37.230    0.3210
   37.260    0.2889
   37.290    0.3745
   37.320    0.3317
   37.350    0.2889
   37.380    0.2568
   37.410    0.3424
   37.440    0.3210
   37.470    0.3852
   37.500    0.3852
   37.530    0.3424
   37.560    0.3103
   37.590    0.3103
   37.620    0.3531
   37.650    0.3210
   37.680    0.3745
   37.710    0.2675
   37.740    0.3210
   37.770    0.2889
   37.800    0.3103
   37.830    0.2889
   37.860    0.3531
   37.890    0.2889
   37.920    0.3210
   37.950    0.3531
   37.980    0.3852
   38.010    0.3210
   38.040    0.4173
   38.070    0.2675
   38.100    0.2889
   38.130    0.3103
   38.160    0.4173
   38.190    0.2354
   38.220    0.2461
   38.250    0.2675
   38.280    0.2675
   38.310    0.3317
   38.340    0.2889
   38.370    0.3424
   38.400    0.2996
   38.430    0.3317
   38.460    0.3103
   38.490    0.3424
   38.520    0.3210
   38.550    0.2889
   38.580    0.2675
   38.610    0.3210
   38.640    0.3317
   38.670    0.2140
   38.700    0.2996
   38.730    0.2568
   38.760    0.3424
   38.790    0.2568
   38.820    0.3638
   38.850    0.3745
   38.880    0.3638
   38.910    0.2889
   38.940    0.2568
   38.970    0.2782
   39.000    0.2675
   39.030    0.3638
   39.060    0.2782
   39.090    0.3210
   39.120    0.2782
   39.150    0.2675
   39.180    0.3317
   39.210    0.2675
   39.240    0.2461
   39.270    0.2033
   39.300    0.3317
   39.330    0.2568
   39.360    0.2568
   39.390    0.3852
   39.420    0.2461
   39.450    0.3103
   39.480    0.2033
   39.510    0.2247
   39.540    0.4280
   39.570    0.2996
   39.600    0.2996
   39.630    0.2889
   39.660    0.3317
   39.690    0.2568
   39.720    0.2782
   39.750    0.3103
   39.780    0.3638
   39.810    0.3638
   39.840    0.2996
   39.870    0.2675
   39.900    0.2782
   39.930    0.2247
   39.960    0.2461
   39.990    0.3317