File: data/PXRD/PXRD_KE-083_Cu-Ka1_capillary-1mm_5s-deg.xyd
    1.500   12.2696
    1.530   12.1116
    1.560   12.4487
    1.590   12.5645
    1.620   12.5329
    1.650   12.1327
    1.680   12.4592
    1.710   12.2696
    1.740   12.2591
    1.770   11.5640
    1.800   12.3960
    1.830   12.6698
    1.860   12.5750
    1.890   12.5540
    1.920   12.1959
    1.950   12.5329
    1.980   12.1432
    2.010   12.4908
    2.040   12.4381
    2.070   12.9226
    2.100   12.7751
    2.130   12.7225
    2.160   13.3965
    2.190   13.1543
    2.220   13.4597
    2.250   13.9337
    2.280   14.3865
    2.310   14.6603
    2.340   14.9342
    2.370   15.3765
    2.400   15.3660
    2.430   15.8610
    2.460   15.5766
    2.490   16.7983
    2.520   16.6087
    2.550   17.9989
    2.580   17.3670
    2.610   18.8099
    2.640   19.8842
    2.670   19.8104
    2.700   21.6324
    2.730   21.5166
    2.760   22.3802
    2.790   23.5492
    2.820   24.7077
    2.850   25.9505
    2.880   27.5724
    2.910   28.8468
    2.940   31.1006
    2.970   32.0590
    3.000   33.3439
    3.030   36.3454
    3.060   38.6098
    3.090   41.9168
    3.120   43.8547
    3.150   47.1827
    3.180   50.9110
    3.210   55.4081
    3.240   61.5587
    3.270   67.5303
    3.300   74.2601
    3.330   84.8236
    3.360   93.7967
    3.390  108.4781
    3.420  120.7899
    3.450  125.1817
    3.480  109.8894
    3.510   87.7093
    3.540   61.9273
    3.570   46.3297
    3.600   38.7467
    3.630   34.6393
    3.660   32.5329
    3.690   32.9121
    3.720   32.5645
    3.750   33.6809
    3.780   34.7867
    3.810   36.5245
    3.840   37.8515
    3.870   40.5793
    3.900   43.0332
    3.930   45.9610
    3.960   49.2680
    3.990   51.1427
    4.020   53.0174
    4.050   53.9547
    4.080   54.2496
    4.110   52.5013
    4.140   50.0895
    4.170   47.0879
    4.200   42.8752
    4.230   37.9779
    4.260   32.9542
    4.290   27.5303
    4.320   23.0121
    4.350   19.2733
    4.380   16.3349
    4.410   13.7125
    4.440   12.4592
    4.470   10.7320
    4.500    9.3523
    4.530    8.7730
    4.560    8.0674
    4.590    8.1201
    4.620    7.7093
    4.650    7.2038
    4.680    6.9194
    4.710    6.3296
    4.740    6.4771
    4.770    6.2559
    4.800    6.0769
    4.830    6.2559
    4.860    6.0453
    4.890    5.8031
    4.920    5.0869
    4.950    5.8452
    4.980    5.6556
    5.010    5.5714
    5.040    5.3081
    5.070    5.5714
    5.100    5.3397
    5.130    5.1290
    5.160    5.2870
    5.190    5.3712
    5.220    5.0658
    5.250    5.1501
    5.280    5.1395
    5.310    5.0658
    5.340    5.2870
    5.370    4.8868
    5.400    5.0448
    5.430    5.2554
    5.460    5.3186
    5.490    5.0237
    5.520    4.8341
    5.550    4.7604
    5.580    4.7604
    5.610    5.2554
    5.640    5.1185
    5.670    4.8763
    5.700    4.6867
    5.730    4.7920
    5.760    4.8552
    5.790    4.8763
    5.820    5.0026
    5.850    4.8552
    5.880    4.7499
    5.910    4.7393
    5.940    4.9816
    5.970    4.6235
    6.000    4.8868
    6.030    4.8025
    6.060    4.9605
    6.090    4.9816
    6.120    5.0553
    6.150    4.4655
    6.180    4.8657
    6.210    5.1922
    6.240    5.1290
    6.270    5.0658
    6.300    5.1501
    6.330    5.0869
    6.360    5.4766
    6.390    5.7188
    6.420    5.4555
    6.450    5.4976
    6.480    5.5292
    6.510    5.8347
    6.540    6.3086
    6.570    6.4560
    6.600    6.4034
    6.630    6.8457
    6.660    7.3723
    6.690    8.0569
    6.720    8.4887
    6.750    8.9521
    6.780    9.6472
    6.810   10.5424
    6.840   11.7852
    6.870   13.1964
    6.900   15.6609
    6.930   16.3770
    6.960   17.1459
    6.990   14.1759
    7.020   12.0063
    7.050    8.7520
    7.080    7.6145
    7.110    6.6561
    7.140    6.2243
    7.170    5.7504
    7.200    5.5819
    7.230    5.7504
    7.260    4.8763
    7.290    5.7715
    7.320    5.1501
    7.350    5.6345
    7.380    5.5082
    7.410    5.1922
    7.440    5.1711
    7.470    5.5082
    7.500    5.3186
    7.530    5.3291
    7.560    5.3607
    7.590    5.2027
    7.620    5.5292
    7.650    5.7083
    7.680    5.8662
    7.710    5.8768
    7.740    6.0242
    7.770    6.5192
    7.800    6.2454
    7.830    5.9926
    7.860    6.6035
    7.890    6.9089
    7.920    6.9405
    7.950    6.9721
    7.980    7.2775
    8.010    7.8884
    8.040    7.9410
    8.070    7.7304
    8.100    8.5519
    8.130    8.6467
    8.160    8.8152
    8.190    8.5097
    8.220    8.8257
    8.250    8.8994
    8.280    8.8362
    8.310    8.9837
    8.340    8.8152
    8.370    9.1417
    8.400    8.5729
    8.430    8.3307
    8.460    7.7093
    8.490    7.8884
    8.520    7.7936
    8.550    7.4566
    8.580    7.1195
    8.610    6.9616
    8.640    6.6456
    8.670    6.1822
    8.700    6.4982
    8.730    5.7925
    8.760    5.5187
    8.790    5.6029
    8.820    5.3397
    8.850    5.0342
    8.880    5.1395
    8.910    4.8973
    8.940    4.8868
    8.970    4.7499
    9.000    4.9078
    9.030    4.8236
    9.060    4.7288
    9.090    4.5919
    9.120    4.6445
    9.150    4.5498
    9.180    4.5814
    9.210    4.6024
    9.240    4.4760
    9.270    4.4971
    9.300    4.5392
    9.330    4.5182
    9.360    4.4023
    9.390    4.3181
    9.420    4.5076
    9.450    4.2759
    9.480    4.7920
    9.510    4.7604
    9.540    4.5076
    9.570    4.5182
    9.600    4.5814
    9.630    4.5498
    9.660    4.7183
    9.690    4.3918
    9.720    4.2970
    9.750    4.0758
    9.780    4.2865
    9.810    4.2127
    9.840    4.6551
    9.870    4.5919
    9.900    4.2970
    9.930    4.5392
    9.960    4.2338
    9.990    4.2127
   10.020    4.6551
   10.050    4.2759
   10.080    4.3075
   10.110    4.7709
   10.140    4.3602
   10.170    4.3286
   10.200    4.5498
   10.230    4.9078
   10.260    4.6235
   10.290    4.4444
   10.320    4.6445
   10.350    5.1711
   10.380    5.2133
   10.410    5.1185
   10.440    5.4660
   10.470    5.1080
   10.500    5.0342
   10.530    4.9605
   10.560    4.8552
   10.590    4.5287
   10.620    4.5287
   10.650    4.7077
   10.680    4.6445
   10.710    4.3813
   10.740    4.4971
   10.770    4.4550
   10.800    4.5498
   10.830    3.9916
   10.860    4.4234
   10.890    4.5814
   10.920    4.3918
   10.950    4.8552
   10.980    4.3497
   11.010    4.4971
   11.040    4.2654
   11.070    4.5708
   11.100    4.0758
   11.130    4.4234
   11.160    4.3286
   11.190    4.5392
   11.220    4.7077
   11.250    4.5076
   11.280    4.1917
   11.310    4.4128
   11.340    4.1180
   11.370    4.6972
   11.400    4.3918
   11.430    4.3707
   11.460    4.7499
   11.490    4.5814
   11.520    4.4128
   11.550    4.2654
   11.580    4.3286
   11.610    4.5814
   11.640    4.4444
   11.670    4.6024
   11.700    4.4550
   11.730    4.4760
   11.760    4.7604
   11.790    4.7183
   11.820    4.6024
   11.850    4.6761
   11.880    4.9078
   11.910    4.6024
   11.940    4.5708
   11.970    5.1501
   12.000    5.0553
   12.030    4.8025
   12.060    5.0342
   12.090    5.0237
   12.120    5.1185
   12.150    5.3186
   12.180    5.2659
   12.210    5.4450
   12.240    4.8025
   12.270    4.8868
   12.300    5.1817
   12.330    5.0237
   12.360    5.0974
   12.390    5.6556
   12.420    5.3397
   12.450    5.2870
   12.480    5.1185
   12.510    5.1080
   12.540    5.4134
   12.570    5.0026
   12.600    5.3818
   12.630    5.1817
   12.660    4.9921
   12.690    5.4871
   12.720    5.1185
   12.750    5.0658
   12.780    5.0553
   12.810    5.1080
   12.840    4.8763
   12.870    5.4028
   12.900    4.8131
   12.930    4.6867
   12.960    4.9184
   12.990    4.7288
   13.020    4.8763
   13.050    4.8025
   13.080    4.8131
   13.110    5.0553
   13.140    4.8447
   13.170    4.9289
   13.200    4.6656
   13.230    4.8657
   13.260    4.8763
   13.290    4.7920
   13.320    4.7815
   13.350    5.0764
   13.380    4.6867
   13.410    4.8236
   13.440    4.6445
   13.470    4.6867
   13.500    4.9816
   13.530    4.8341
   13.560    4.7920
   13.590    4.7815
   13.620    5.2238
   13.650    4.8341
   13.680    4.7393
   13.710    4.7920
   13.740    4.8973
   13.770    4.7393
   13.800    5.2027
   13.830    4.8763
   13.860    4.8025
   13.890    4.7709
   13.920    4.7499
   13.950    4.7288
   13.980    4.9710
   14.010    4.8025
   14.040    4.6445
   14.070    4.3391
   14.100    4.5076
   14.130    4.6551
   14.160    4.4971
   14.190    4.3918
   14.220    4.4866
   14.250    4.5287
   14.280    4.4866
   14.310    4.8341
   14.340    4.6761
   14.370    4.4866
   14.400    4.0969
   14.430    4.5182
   14.460    4.5182
   14.490    4.3497
   14.520    4.4234
   14.550    4.5287
   14.580    4.7183
   14.610    4.3497
   14.640    4.1496
   14.670    4.5919
   14.700    4.2865
   14.730    4.5603
   14.760    4.4760
   14.790    4.2338
   14.820    4.5603
   14.850    4.0864
   14.880    4.4655
   14.910    4.1390
   14.940    4.5076
   14.970    4.3707
   15.000    4.4655
   15.030    4.3813
   15.060    4.4655
   15.090    4.7393
   15.120    4.7920
   15.150    4.6445
   15.180    4.5076
   15.210    4.3707
   15.240    4.6445
   15.270    4.2970
   15.300    4.5498
   15.330    4.4971
   15.360    4.6656
   15.390    4.4866
   15.420    4.6551
   15.450    4.3813
   15.480    4.7077
   15.510    4.7393
   15.540    4.6761
   15.570    4.3918
   15.600    4.4023
   15.630    4.4655
   15.660    4.4866
   15.690    4.4444
   15.720    4.8552
   15.750    4.5392
   15.780    4.5392
   15.810    4.4444
   15.840    4.8552
   15.870    4.4444
   15.900    4.4655
   15.930    4.4234
   15.960    4.6761
   15.990    4.4760
   16.020    4.4234
   16.050    4.4550
   16.080    4.5498
   16.110    4.3813
   16.140    4.6235
   16.170    4.3391
   16.200    4.6972
   16.230    4.3602
   16.260    4.4866
   16.290    4.4655
   16.320    4.4971
   16.350    4.1390
   16.380    4.4339
   16.410    4.6024
   16.440    4.5392
   16.470    4.6235
   16.500    4.4444
   16.530    4.2127
   16.560    4.1074
   16.590    4.0653
   16.620    4.1390
   16.650    4.2127
   16.680    4.5392
   16.710    4.5603
   16.740    4.4339
   16.770    4.7077
   16.800    4.5708
   16.830    4.4760
   16.860    4.2022
   16.890    4.8763
   16.920    4.2127
   16.950    4.2338
   16.980    4.3181
   17.010    4.1285
   17.040    4.3602
   17.070    4.2233
   17.100    4.4550
   17.130    4.3497
   17.160    4.2654
   17.190    4.4339
   17.220    4.1180
   17.250    4.3075
   17.280    4.0548
   17.310    4.5603
   17.340    4.4971
   17.370    4.3286
   17.400    4.4760
   17.430    4.2970
   17.460    4.4550
   17.490    4.7499
   17.520    4.2443
   17.550    4.4234
   17.580    4.7077
   17.610    4.6551
   17.640    4.3707
   17.670    4.5182
   17.700    4.4971
   17.730    4.4866
   17.760    4.5287
   17.790    4.7499
   17.820    4.4655
   17.850    4.3497
   17.880    4.5708
   17.910    4.5287
   17.940    4.1917
   17.970    4.4023
   18.000    4.5182
   18.030    4.5392
   18.060    4.4760
   18.090    4.2970
   18.120    4.8025
   18.150    4.4866
   18.180    4.5287
   18.210    4.5603
   18.240    4.4655
   18.270    4.8763
   18.300    4.4760
   18.330    4.4128
   18.360    4.6235
   18.390    4.7183
   18.420    4.3497
   18.450    4.7077
   18.480    4.5182
   18.510    4.7499
   18.540    4.4760
   18.570    4.4023
   18.600    4.3286
   18.630    4.4128
   18.660    4.3181
   18.690    4.3286
   18.720    4.4128
   18.750    5.1185
   18.780    4.3075
   18.810    4.7393
   18.840    4.5392
   18.870    4.3286
   18.900    4.6867
   18.930    4.4128
   18.960    4.3707
   18.990    4.8025
   19.020    4.6551
   19.050    4.2338
   19.080    4.9500
   19.110    4.5603
   19.140    4.5708
   19.170    4.6656
   19.200    4.4444
   19.230    4.3918
   19.260    4.3075
   19.290    4.6972
   19.320    4.6024
   19.350    4.9289
   19.380    4.7499
   19.410    4.4444
   19.440    5.1606
   19.470    4.9921
   19.500    4.6340
   19.530    4.6445
   19.560    5.2449
   19.590    5.0132
   19.620    5.0448
   19.650    4.8868
   19.680    5.0553
   19.710    4.9921
   19.740    4.8657
   19.770    5.0974
   19.800    4.8657
   19.830    4.9500
   19.860    5.3923
   19.890    5.1290
   19.920    5.0237
   19.950    5.0237
   19.980    5.0448
   20.010    5.2870
   20.040    5.3502
   20.070    5.1817
   20.100    4.6867
   20.130    5.2554
   20.160    5.2765
   20.190    4.9394
   20.220    5.1711
   20.250    5.2975
   20.280    5.0342
   20.310    4.9078
   20.340    5.2554
   20.370    4.6130
   20.400    5.0342
   20.430    4.8657
   20.460    4.8973
   20.490    5.1395
   20.520    4.8447
   20.550    5.0869
   20.580    4.8973
   20.610    4.9605
   20.640    4.6867
   20.670    5.1817
   20.700    4.7077
   20.730    4.8236
   20.760    4.8236
   20.790    4.8552
   20.820    4.7815
   20.850    5.0132
   20.880    5.0869
   20.910    5.0026
   20.940    4.8236
   20.970    5.4028
   21.000    5.0132
   21.030    5.0658
   21.060    5.0026
   21.090    4.7077
   21.120    4.6235
   21.150    5.2027
   21.180    5.2975
   21.210    4.7709
   21.240    4.8131
   21.270    5.1290
   21.300    4.8973
   21.330    5.2975
   21.360    4.9816
   21.390    4.7815
   21.420    4.8131
   21.450    4.9184
   21.480    4.9078
   21.510    4.9184
   21.540    4.9289
   21.570    4.8657
   21.600    5.0448
   21.630    4.8868
   21.660    4.8868
   21.690    4.9710
   21.720    5.2765
   21.750    5.1290
   21.780    5.0026
   21.810    4.9500
   21.840    4.7183
   21.870    4.8236
   21.900    4.9394
   21.930    4.8868
   21.960    4.9184
   21.990    4.9816
   22.020    5.0974
   22.050    4.7709
   22.080    5.1606
   22.110    4.5919
   22.140    5.1185
   22.170    4.9394
   22.200    5.0869
   22.230    4.8973
   22.260    4.5392
   22.290    5.0342
   22.320    4.6024
   22.350    4.7077
   22.380    5.0237
   22.410    4.8341
   22.440    4.9921
   22.470    4.7604
   22.500    4.9710
   22.530    4.7499
   22.560    5.1185
   22.590    4.7183
   22.620    4.8657
   22.650    4.6972
   22.680    4.9710
   22.710    4.6551
   22.740    4.6761
   22.770    4.7077
   22.800    4.5814
   22.830    4.8763
   22.860    4.6130
   22.890    4.9500
   22.920    4.8552
   22.950    5.0342
   22.980    4.6867
   23.010    4.9710
   23.040    4.6024
   23.070    5.2659
   23.100    4.7709
   23.130    4.8236
   23.160    4.4128
   23.190    4.5498
   23.220    4.8341
   23.250    4.6445
   23.280    4.9184
   23.310    4.9289
   23.340    4.7920
   23.370    4.8447
   23.400    4.5287
   23.430    4.9605
   23.460    4.8657
   23.490    4.9816
   23.520    4.8868
   23.550    4.8763
   23.580    4.2654
   23.610    4.7077
   23.640    4.4339
   23.670    4.5182
   23.700    4.3497
   23.730    4.7183
   23.760    4.9078
   23.790    4.6024
   23.820    4.8868
   23.850    4.5603
   23.880    4.7077
   23.910    4.3602
   23.940    4.6972
   23.970    4.4023
   24.000    4.4971
   24.030    4.7077
   24.060    4.8341
   24.090    4.9184
   24.120    4.3497
   24.150    4.7183
   24.180    4.7815
   24.210    4.6445
   24.240    4.3497
   24.270    4.5708
   24.300    4.5287
   24.330    4.8868
   24.360    4.3075
   24.390    4.6551
   24.420    4.6551
   24.450    4.4655
   24.480    4.6761
   24.510    4.8341
   24.540    4.7499
   24.570    4.7499
   24.600    4.8131
   24.630    4.9816
   24.660    4.8341
   24.690    4.8552
   24.720    4.2338
   24.750    4.5919
   24.780    4.6761
   24.810    4.5392
   24.840    4.6445
   24.870    4.4128
   24.900    4.6445
   24.930    4.5708
   24.960    4.2654
   24.990    4.2443
   25.020    4.4550
   25.050    4.4655
   25.080    4.3813
   25.110    4.2022
   25.140    4.5708
   25.170    4.4760
   25.200    4.4339
   25.230    4.6867
   25.260    4.7183
   25.290    4.4234
   25.320    4.2127
   25.350    4.2654
   25.380    4.6130
   25.410    4.4128
   25.440    4.5182
   25.470    4.3813
   25.500    4.4023
   25.530    4.4550
   25.560    4.7183
   25.590    4.4023
   25.620    4.1706
   25.650    4.0442
   25.680    4.3602
   25.710    4.5182
   25.740    4.4655
   25.770    4.3918
   25.800    4.2970
   25.830    4.4023
   25.860    4.1917
   25.890    4.5814
   25.920    4.3918
   25.950    4.3181
   25.980    4.2759
   26.010    4.2022
   26.040    4.1496
   26.070    4.0758
   26.100    3.8757
   26.130    4.2443
   26.160    4.3181
   26.190    4.3391
   26.220    4.2443
   26.250    4.2338
   26.280    3.9810
   26.310    4.3497
   26.340    3.8441
   26.370    4.2127
   26.400    4.1601
   26.430    3.8547
   26.460    4.1074
   26.490    4.3497
   26.520    4.1811
   26.550    3.9600
   26.580    4.1390
   26.610    4.2022
   26.640    4.2022
   26.670    3.9705
   26.700    4.2759
   26.730    4.1285
   26.760    4.2233
   26.790    4.0969
   26.820    3.9810
   26.850    3.8547
   26.880    4.3497
   26.910    4.4550
   26.940    4.1601
   26.970    4.1811
   27.000    4.1706
   27.030    3.9494
   27.060    3.7283
   27.090    4.1917
   27.120    4.3602
   27.150    4.0442
   27.180    4.1180
   27.210    4.1496
   27.240    4.0442
   27.270    4.0653
   27.300    4.3602
   27.330    4.1706
   27.360    4.0548
   27.390    3.7493
   27.420    4.1601
   27.450    4.0021
   27.480    3.9179
   27.510    3.8652
   27.540    3.8863
   27.570    4.2654
   27.600    4.1180
   27.630    4.3181
   27.660    3.8336
   27.690    3.9600
   27.720    4.0232
   27.750    4.0548
   27.780    3.9284
   27.810    4.0969
   27.840    4.2443
   27.870    4.1074
   27.900    3.8020
   27.930    4.1180
   27.960    4.0653
   27.990    4.0758
   28.020    3.9810
   28.050    4.0021
   28.080    4.2654
   28.110    4.4023
   28.140    4.6551
   28.170    4.4550
   28.200    4.0758
   28.230    4.2127
   28.260    4.8552
   28.290    4.4444
   28.320    4.0864
   28.350    4.3075
   28.380    4.1601
   28.410    3.5914
   28.440    4.2443
   28.470    4.1074
   28.500    4.1706
   28.530    4.1706
   28.560    4.1285
   28.590    4.2338
   28.620    4.2233
   28.650    4.0442
   28.680    4.0758
   28.710    4.0864
   28.740    4.2233
   28.770    4.0969
   28.800    4.2549
   28.830    4.2443
   28.860    3.9284
   28.890    3.8020
   28.920    3.8757
   28.950    3.8968
   28.980    3.7072
   29.010    4.1601
   29.040    4.0969
   29.070    3.8020
   29.100    3.7915
   29.130    4.0232
   29.160    3.8863
   29.190    4.0442
   29.220    4.1180
   29.250    4.1917
   29.280    4.1390
   29.310    3.8441
   29.340    3.8863
   29.370    3.8863
   29.400    4.0021
   29.430    3.8968
   29.460    3.8968
   29.490    3.9705
   29.520    3.8863
   29.550    3.6756
   29.580    3.9705
   29.610    3.7493
   29.640    3.6756
   29.670    4.2127
   29.700    3.6335
   29.730    3.9179
   29.760    4.0653
   29.790    3.8020
   29.820    3.6756
   29.850    3.8547
   29.880    3.7704
   29.910    3.7177
   29.940    3.8125
   29.970    3.9284
   30.000    3.8336
   30.030    3.8441
   30.060    3.6862
   30.090    3.9916
   30.120    3.8547
   30.150    3.7915
   30.180    3.5387
   30.210    3.5914
   30.240    3.6967
   30.270    3.7809
   30.300    3.8757
   30.330    3.5071
   30.360    3.8020
   30.390    3.8863
   30.420    3.8547
   30.450    3.7809
   30.480    3.7283
   30.510    3.5808
   30.540    3.8863
   30.570    3.5703
   30.600    3.5176
   30.630    3.8231
   30.660    4.0758
   30.690    3.9179
   30.720    3.7599
   30.750    3.9494
   30.780    3.8231
   30.810    3.7704
   30.840    3.8020
   30.870    3.6019
   30.900    3.7493
   30.930    3.6862
   30.960    3.7388
   30.990    3.5387
   31.020    4.0337
   31.050    3.5703
   31.080    3.6230
   31.110    3.7704
   31.140    3.4018
   31.170    3.8863
   31.200    3.7493
   31.230    3.5808
   31.260    3.9494
   31.290    3.6335
   31.320    3.5914
   31.350    3.7599
   31.380    3.5176
   31.410    3.4755
   31.440    3.9810
   31.470    3.5282
   31.500    3.4334
   31.530    3.7388
   31.560    3.6335
   31.590    3.7599
   31.620    3.6124
   31.650    3.7388
   31.680    3.8863
   31.710    3.7072
   31.740    3.7915
   31.770    3.5703
   31.800    3.8757
   31.830    3.7704
   31.860    3.5808
   31.890    4.0126
   31.920    3.5492
   31.950    3.8757
   31.980    3.6019
   32.010    3.7283
   32.040    3.7388
   32.070    3.9705
   32.100    3.4018
   32.130    3.6967
   32.160    3.6862
   32.190    3.7915
   32.220    3.3913
   32.250    3.8968
   32.280    3.7388
   32.310    3.7388
   32.340    3.6335
   32.370    3.7177
   32.400    3.7915
   32.430    3.5387
   32.460    3.6651
   32.490    3.5176
   32.520    3.6756
   32.550    3.7388
   32.580    3.6230
   32.610    3.7599
   32.640    3.6967
   32.670    3.4966
   32.700    3.5387
   32.730    3.6335
   32.760    3.5598
   32.790    3.5492
   32.820    3.3597
   32.850    3.4966
   32.880    3.5492
   32.910    3.4123
   32.940    3.4966
   32.970    3.6124
   33.000    3.3807
   33.030    3.4650
   33.060    3.6862
   33.090    3.2122
   33.120    3.3281
   33.150    3.6546
   33.180    3.4123
   33.210    3.2543
   33.240    3.2543
   33.270    3.3070
   33.300    3.3913
   33.330    3.0121
   33.360    3.6756
   33.390    3.2543
   33.420    3.4966
   33.450    3.3597
   33.480    3.4544
   33.510    3.4650
   33.540    3.2965
   33.570    3.4123
   33.600    3.4018
   33.630    3.2122
   33.660    3.2649
   33.690    3.5176
   33.720    3.3070
   33.750    3.4123
   33.780    3.3913
   33.810    3.1069
   33.840    3.2859
   33.870    3.0016
   33.900    3.1701
   33.930    3.4123
   33.960    3.0121
   33.990    3.2965
   34.020    3.3597
   34.050    3.3070
   34.080    3.4544
   34.110    3.2543
   34.140    3.3281
   34.170    3.1912
   34.200    3.3281
   34.230    3.5387
   34.260    3.6651
   34.290    3.3597
   34.320    3.0542
   34.350    3.1490
   34.380    2.9384
   34.410    3.0753
   34.440    3.3807
   34.470    3.3702
   34.500    3.2543
   34.530    3.5071
   34.560    2.9384
   34.590    2.9805
   34.620    3.1806
   34.650    3.3281
   34.680    3.0648
   34.710    3.0858
   34.740    3.2227
   34.770    3.3386
   34.800    3.3386
   34.830    3.1490
   34.860    3.0121
   34.890    3.0332
   34.920    3.0753
   34.950    3.2965
   34.980    2.9805
   35.010    3.2965
   35.040    3.3597
   35.070    3.1280
   35.100    3.1912
   35.130    3.3281
   35.160    3.1701
   35.190    3.2543
   35.220    2.9489
   35.250    3.3386
   35.280    3.2227
   35.310    3.3807
   35.340    3.0542
   35.370    3.4650
   35.400    3.0858
   35.430    3.3702
   35.460    3.2017
   35.490    3.3281
   35.520    3.0542
   35.550    3.1596
   35.580    3.1069
   35.610    3.2333
   35.640    3.0858
   35.670    3.2227
   35.700    3.0858
   35.730    3.1701
   35.760    3.1174
   35.790    3.0753
   35.820    3.1174
   35.850    2.8225
   35.880    2.7804
   35.910    2.9700
   35.940    3.1912
   35.970    2.8963
   36.000    2.9384
   36.030    3.0226
   36.060    2.8857
   36.090    2.9700
   36.120    3.1280
   36.150    3.3386
   36.180    2.7804
   36.210    2.9805
   36.240    2.9595
   36.270    2.9805
   36.300    2.8015
   36.330    2.8963
   36.360    2.7804
   36.390    2.8963
   36.420    3.1596
   36.450    2.7699
   36.480    2.8436
   36.510    2.8541
   36.540    2.9805
   36.570    3.0437
   36.600    2.8647
   36.630    3.0226
   36.660    2.7804
   36.690    2.7804
   36.720    2.8331
   36.750    2.7699
   36.780    3.1069
   36.810    2.7804
   36.840    2.9805
   36.870    2.6224
   36.900    2.9068
   36.930    3.2017
   36.960    2.7172
   36.990    2.6646
   37.020    2.9700
   37.050    2.8752
   37.080    3.2017
   37.110    3.2122
   37.140    3.0121
   37.170    2.7804
   37.200    2.6540
   37.230    3.0016
   37.260    2.6435
   37.290    2.8225
   37.320    3.3386
   37.350    2.8752
   37.380    2.9489
   37.410    2.8015
   37.440    2.8647
   37.470    2.5066
   37.500    3.1280
   37.530    2.7067
   37.560    2.7804
   37.590    2.8647
   37.620    2.9700
   37.650    2.9173
   37.680    2.9805
   37.710    2.6540
   37.740    3.3175
   37.770    2.8436
   37.800    2.9595
   37.830    2.6856
   37.860    2.7699
   37.890    2.8541
   37.920    2.7488
   37.950    2.7383
   37.980    2.8963
   38.010    3.1069
   38.040    2.6540
   38.070    2.8541
   38.100    2.7804
   38.130    2.8752
   38.160    3.0332
   38.190    2.8015
   38.220    2.8331
   38.250    3.1490
   38.280    2.8015
   38.310    2.5698
   38.340    2.7909
   38.370    2.7593
   38.400    2.7804
   38.430    3.0648
   38.460    2.8120
   38.490    2.9700
   38.520    2.8436
   38.550    2.7278
   38.580    2.6435
   38.610    2.8857
   38.640    2.9910
   38.670    2.5171
   38.700    3.0121
   38.730    3.0858
   38.760    2.8752
   38.790    2.8225
   38.820    2.8331
   38.850    3.0226
   38.880    3.0226
   38.910    2.8541
   38.940    2.7172
   38.970    2.7172
   39.000    2.7699
   39.030    2.7593
   39.060    2.7593
   39.090    2.8541
   39.120    2.9279
   39.150    3.0016
   39.180    2.7278
   39.210    2.6856
   39.240    2.8752
   39.270    2.8331
   39.300    2.9805
   39.330    3.0226
   39.360    2.6014
   39.390    2.8120
   39.420    2.6856
   39.450    3.2438
   39.480    3.0016
   39.510    2.8647
   39.540    2.5908
   39.570    2.6856
   39.600    2.5803
   39.630    2.8331
   39.660    2.5908
   39.690    2.9068
   39.720    2.7909
   39.750    2.6119
   39.780    2.8120
   39.810    2.8963
   39.840    2.8015
   39.870    2.8963
   39.900    2.7488
   39.930    2.8120
   39.960    2.5908
   39.990    2.7383