File: data/PXRD/PXRD_KE-174c_Cu-Ka1_capillary-1mm_5s-deg.xyd
    1.500   26.8984
    1.515   26.3296
    1.530   27.4671
    1.545   26.5508
    1.560   27.0879
    1.575   26.7088
    1.590   26.0874
    1.605   25.1185
    1.620   25.7083
    1.635   24.8236
    1.650   24.9394
    1.665   24.5498
    1.680   24.4023
    1.695   24.6551
    1.710   24.4760
    1.725   23.6019
    1.740   23.5808
    1.755   23.9389
    1.770   23.9494
    1.785   24.2022
    1.800   22.5171
    1.815   22.6751
    1.830   22.8541
    1.845   22.3802
    1.860   22.5276
    1.875   22.5171
    1.890   22.8647
    1.905   22.6540
    1.920   22.4013
    1.935   21.9800
    1.950   21.3165
    1.965   22.1169
    1.980   21.7694
    1.995   21.5798
    2.010   21.4007
    2.025   21.2322
    2.040   21.3691
    2.055   21.3165
    2.070   21.5692
    2.085   21.5271
    2.100   21.8115
    2.115   21.7588
    2.130   21.3902
    2.145   21.7483
    2.160   21.4429
    2.175   21.3586
    2.190   22.0326
    2.205   21.5798
    2.220   21.4218
    2.235   21.3902
    2.250   22.1169
    2.265   21.3586
    2.280   21.9484
    2.295   21.9273
    2.310   21.7378
    2.325   21.8431
    2.340   22.3697
    2.355   22.4961
    2.370   22.6014
    2.385   22.4645
    2.400   23.0016
    2.415   22.9595
    2.430   23.4439
    2.445   23.7177
    2.460   24.0758
    2.475   23.6546
    2.490   23.9073
    2.505   25.0764
    2.520   25.7504
    2.535   25.5292
    2.550   25.0026
    2.565   25.7083
    2.580   25.1817
    2.595   25.8978
    2.610   27.0774
    2.625   26.8246
    2.640   27.3407
    2.655   27.7409
    2.670   28.4360
    2.685   28.5519
    2.700   29.0785
    2.715   29.7946
    2.730   30.4265
    2.745   31.1216
    2.760   30.9321
    2.775   31.4797
    2.790   31.9537
    2.805   32.8594
    2.820   34.0811
    2.835   34.5234
    2.850   35.4081
    2.865   35.1659
    2.880   36.2401
    2.895   37.5566
    2.910   38.0200
    2.925   39.6525
    2.940   40.6530
    2.955   40.8847
    2.970   41.9063
    2.985   43.2333
    3.000   44.3813
    3.015   44.6551
    3.030   46.4455
    3.045   47.3934
    3.060   49.5103
    3.075   51.1532
    3.090   53.1754
    3.105   54.5656
    3.120   57.2301
    3.135   58.5150
    3.150   58.9889
    3.165   61.9168
    3.180   64.7920
    3.195   67.7725
    3.210   71.3007
    3.225   73.0490
    3.240   75.7346
    3.255   79.0837
    3.270   81.4955
    3.285   85.2765
    3.300   90.5845
    3.315   94.3865
    3.330  100.8215
    3.345  107.1090
    3.360  113.5756
    3.375  118.6098
    3.390  126.4876
    3.405  131.3218
    3.420  136.4086
    3.435  144.7288
    3.450  148.8678
    3.465  149.0890
    3.480  146.3191
    3.495  140.1053
    3.510  131.6167
    3.525  120.6846
    3.540  105.4344
    3.555   92.2064
    3.570   82.9279
    3.585   74.4286
    3.600   68.2675
    3.615   62.2854
    3.630   59.5155
    3.645   57.7988
    3.660   55.3555
    3.675   54.3655
    3.690   52.6593
    3.705   52.8067
    3.720   53.2175
    3.735   52.9226
    3.750   53.7230
    3.765   53.9758
    3.780   53.9652
    3.795   55.8189
    3.810   56.3454
    3.825   56.4402
    3.840   57.1564
    3.855   59.2522
    3.870   59.9368
    3.885   60.0948
    3.900   60.0000
    3.915   59.1890
    3.930   59.5998
    3.945   60.0211
    3.960   60.6530
    3.975   59.3892
    3.990   59.6209
    4.005   58.2517
    4.020   57.8199
    4.035   56.6193
    4.050   54.1759
    4.065   52.1854
    4.080   52.4276
    4.095   50.6266
    4.110   50.0895
    4.125   48.3096
    4.140   44.6551
    4.155   42.4855
    4.170   41.1796
    4.185   39.0627
    4.200   37.7251
    4.215   35.7135
    4.230   34.0495
    4.245   31.5956
    4.260   29.8578
    4.275   29.2259
    4.290   26.6983
    4.305   25.4344
    4.320   23.4018
    4.335   22.0116
    4.350   20.9900
    4.365   20.6846
    4.380   19.4839
    4.395   18.2622
    4.410   17.9358
    4.425   17.2407
    4.440   16.5140
    4.455   16.4297
    4.470   15.1869
    4.485   14.3655
    4.500   14.3339
    4.515   13.2701
    4.530   13.3123
    4.545   13.0806
    4.560   12.4908
    4.575   12.0484
    4.590   12.0695
    4.605   11.8589
    4.620   11.2691
    4.635   11.3217
    4.650   11.1743
    4.665   10.6688
    4.680   10.6582
    4.695   10.2686
    4.710   10.1211
    4.725   10.1948
    4.740    9.9315
    4.755    9.8473
    4.770    9.8157
    4.785    9.8157
    4.800    9.3207
    4.815    9.1206
    4.830    8.8784
    4.845    9.0785
    4.860    8.9942
    4.875    8.9731
    4.890    9.3102
    4.905    8.9205
    4.920    8.8046
    4.935    8.7414
    4.950    8.6572
    4.965    9.0153
    4.980    8.8257
    4.995    8.8362
    5.010    8.9731
    5.025    8.5940
    5.040    8.4255
    5.055    8.5729
    5.070    8.1622
    5.085    7.8462
    5.100    7.8884
    5.115    8.1938
    5.130    8.3202
    5.145    7.8778
    5.160    7.5303
    5.175    7.8884
    5.190    7.6988
    5.205    7.7304
    5.220    7.8462
    5.235    7.6883
    5.250    7.8357
    5.265    7.8146
    5.280    7.6461
    5.295    7.7199
    5.310    8.0885
    5.325    7.6251
    5.340    7.5724
    5.355    7.2565
    5.370    7.1090
    5.385    7.8884
    5.400    7.4460
    5.415    7.3723
    5.430    7.5408
    5.445    7.3512
    5.460    6.8457
    5.475    6.9194
    5.490    6.9826
    5.505    6.9510
    5.520    7.0458
    5.535    7.0563
    5.550    6.9089
    5.565    7.2986
    5.580    7.2880
    5.595    6.7088
    5.610    7.1195
    5.625    7.3091
    5.640    6.9932
    5.655    7.1722
    5.670    7.1511
    5.685    6.9194
    5.700    6.9300
    5.715    6.9089
    5.730    7.1827
    5.745    7.0774
    5.760    6.8246
    5.775    7.2459
    5.790    6.8668
    5.805    6.7509
    5.820    6.8352
    5.835    6.6983
    5.850    6.6140
    5.865    6.4350
    5.880    6.6561
    5.895    6.7509
    5.910    6.3507
    5.925    7.0037
    5.940    6.8457
    5.955    6.8141
    5.970    7.1933
    5.985    7.2880
    6.000    6.6351
    6.015    6.9194
    6.030    7.1090
    6.045    7.0879
    6.060    7.2459
    6.075    6.6983
    6.090    6.7615
    6.105    6.8141
    6.120    6.8036
    6.135    6.8036
    6.150    7.1195
    6.165    6.9405
    6.180    7.0563
    6.195    7.4566
    6.210    7.4355
    6.225    7.0248
    6.240    6.5613
    6.255    7.0037
    6.270    6.8457
    6.285    6.6561
    6.300    7.0669
    6.315    7.4460
    6.330    7.3828
    6.345    7.2775
    6.360    7.2565
    6.375    7.2038
    6.390    7.8673
    6.405    7.9726
    6.420    7.6356
    6.435    7.4355
    6.450    7.3407
    6.465    7.5935
    6.480    7.8146
    6.495    7.9200
    6.510    8.1095
    6.525    8.0358
    6.540    8.1727
    6.555    8.8889
    6.570    9.2996
    6.585    8.9731
    6.600    8.5940
    6.615    8.7730
    6.630    9.1417
    6.645    9.8684
    6.660    9.8789
    6.675    9.4471
    6.690    9.7104
    6.705   10.3633
    6.720   10.5424
    6.735   10.4897
    6.750   11.1006
    6.765   11.5745
    6.780   11.8167
    6.795   11.9221
    6.810   12.8489
    6.825   13.5861
    6.840   13.4387
    6.855   14.4286
    6.870   15.3555
    6.885   16.1032
    6.900   16.8404
    6.915   17.5987
    6.930   17.7146
    6.945   18.7783
    6.960   19.0732
    6.975   19.3260
    6.990   18.8520
    7.005   17.7462
    7.020   17.0932
    7.035   16.0716
    7.050   14.6498
    7.065   13.1438
    7.080   12.1643
    7.095   11.3533
    7.110   10.6898
    7.125   10.1422
    7.140    9.1206
    7.155    8.7414
    7.170    8.7625
    7.185    9.2786
    7.200    8.3518
    7.215    8.4781
    7.230    8.0569
    7.245    8.1517
    7.260    8.3412
    7.275    8.4360
    7.290    8.2991
    7.305    8.0569
    7.320    8.0147
    7.335    8.1306
    7.350    8.2570
    7.365    8.0885
    7.380    7.8462
    7.395    7.6145
    7.410    7.9937
    7.425    8.3623
    7.440    8.0147
    7.455    7.8252
    7.470    8.5413
    7.485    8.5413
    7.500    8.1622
    7.515    8.3307
    7.530    8.5624
    7.545    8.1727
    7.560    8.0674
    7.575    8.6256
    7.590    8.5097
    7.605    8.7941
    7.620    8.7309
    7.635    8.6045
    7.650    9.1206
    7.665    9.0679
    7.680    8.9837
    7.695    8.6677
    7.710    9.0890
    7.725    9.1311
    7.740    9.1101
    7.755    9.2470
    7.770    9.3944
    7.785    9.8684
    7.800    9.7630
    7.815    9.6788
    7.830    9.5313
    7.845    9.8894
    7.860    9.7104
    7.875   10.2159
    7.890   10.5003
    7.905    9.9526
    7.920   10.0685
    7.935   10.4687
    7.950   10.1211
    7.965    9.9842
    7.980   10.3212
    7.995   10.4265
    8.010   10.1527
    8.025   10.4055
    8.040   10.5845
    8.055   10.3318
    8.070   10.4265
    8.085   11.1743
    8.100   10.9742
    8.115   10.5740
    8.130    9.9526
    8.145   10.2159
    8.160   10.7846
    8.175   10.5529
    8.190    9.9631
    8.205   10.3212
    8.220   10.3949
    8.235   10.1948
    8.250    9.9526
    8.265    9.4365
    8.280    9.3944
    8.295   10.1948
    8.310    9.5735
    8.325    9.6261
    8.340    9.5629
    8.355    9.2680
    8.370    9.7946
    8.385    9.1732
    8.400    8.9310
    8.415    9.0469
    8.430    9.2364
    8.445    8.9942
    8.460    8.7204
    8.475    8.5940
    8.490    8.7204
    8.505    8.4466
    8.520    8.1411
    8.535    8.8468
    8.550    9.1627
    8.565    8.4150
    8.580    8.1306
    8.595    8.0358
    8.610    7.8673
    8.625    7.7514
    8.640    7.6567
    8.655    7.6356
    8.670    7.6672
    8.685    7.7830
    8.700    7.6883
    8.715    7.3618
    8.730    7.3828
    8.745    7.1827
    8.760    7.0563
    8.775    7.4144
    8.790    7.1301
    8.805    7.2565
    8.820    7.4144
    8.835    7.2143
    8.850    7.1827
    8.865    7.1406
    8.880    6.9405
    8.895    6.5508
    8.910    6.8457
    8.925    6.5719
    8.940    7.2354
    8.955    6.9510
    8.970    6.7720
    8.985    6.7299
    9.000    6.8036
    9.015    6.3612
    9.030    6.3296
    9.045    6.7930
    9.060    6.8878
    9.075    6.7088
    9.090    6.5298
    9.105    6.8984
    9.120    6.9932
    9.135    6.6983
    9.150    6.7615
    9.165    6.3086
    9.180    6.1611
    9.195    6.3718
    9.210    6.7299
    9.225    6.9616
    9.240    6.7404
    9.255    6.6772
    9.270    6.4244
    9.285    6.5613
    9.300    6.5192
    9.315    6.6035
    9.330    6.2454
    9.345    6.2981
    9.360    6.3402
    9.375    6.7088
    9.390    6.7193
    9.405    6.4771
    9.420    6.2875
    9.435    6.5613
    9.450    6.6667
    9.465    6.2981
    9.480    6.3612
    9.495    6.4455
    9.510    6.1822
    9.525    6.3191
    9.540    6.0664
    9.555    6.3402
    9.570    6.4876
    9.585    6.0664
    9.600    6.1506
    9.615    6.4771
    9.630    6.7930
    9.645    6.6456
    9.660    6.2349
    9.675    6.2559
    9.690    6.3086
    9.705    6.3928
    9.720    6.4034
    9.735    6.3086
    9.750    6.2138
    9.765    6.0769
    9.780    5.8557
    9.795    6.1085
    9.810    6.3296
    9.825    5.9926
    9.840    6.4139
    9.855    6.5087
    9.870    6.1190
    9.885    5.8241
    9.900    6.0348
    9.915    6.4139
    9.930    6.3612
    9.945    6.1295
    9.960    6.3402
    9.975    6.2033
    9.990    5.8978
   10.005    5.8662
   10.020    6.4455
   10.035    6.2349
   10.050    5.9926
   10.065    6.7404
   10.080    6.4771
   10.095    6.4139
   10.110    6.2875
   10.125    6.3402
   10.140    6.3928
   10.155    6.1401
   10.170    6.1401
   10.185    6.5192
   10.200    6.2243
   10.215    6.3191
   10.230    6.4666
   10.245    7.1933
   10.260    6.8036
   10.275    6.4139
   10.290    6.6456
   10.305    6.7193
   10.320    6.8562
   10.335    6.7930
   10.350    6.4560
   10.365    6.6140
   10.380    7.0458
   10.395    6.7720
   10.410    6.8562
   10.425    6.9194
   10.440    6.9826
   10.455    6.9826
   10.470    6.9194
   10.485    7.0563
   10.500    6.7509
   10.515    6.8141
   10.530    6.6140
   10.545    6.5719
   10.560    6.6140
   10.575    6.6667
   10.590    6.4560
   10.605    6.5087
   10.620    6.3928
   10.635    6.2875
   10.650    6.4244
   10.665    6.2665
   10.680    6.6140
   10.695    6.6140
   10.710    6.4876
   10.725    6.4034
   10.740    6.4350
   10.755    6.1717
   10.770    6.1717
   10.785    6.0874
   10.800    6.4666
   10.815    6.2033
   10.830    6.3402
   10.845    6.0558
   10.860    5.8978
   10.875    6.2875
   10.890    6.2981
   10.905    6.0242
   10.920    6.0769
   10.935    6.2454
   10.950    6.3402
   10.965    6.5929
   10.980    6.2559
   10.995    6.4034
   11.010    6.4034
   11.025    6.3296
   11.040    6.0453
   11.055    6.2033
   11.070    6.9510
   11.085    6.5192
   11.100    6.2770
   11.115    6.4244
   11.130    6.3086
   11.145    6.0348
   11.160    6.6877
   11.175    6.2349
   11.190    6.4139
   11.205    6.3086
   11.220    5.8978
   11.235    6.0453
   11.250    6.2033
   11.265    6.2243
   11.280    6.1085
   11.295    5.9400
   11.310    6.0664
   11.325    6.2349
   11.340    6.3296
   11.355    6.5613
   11.370    6.4560
   11.385    6.3402
   11.400    6.3086
   11.415    6.3928
   11.430    6.1927
   11.445    6.6877
   11.460    6.6877
   11.475    6.0664
   11.490    6.0242
   11.505    6.3296
   11.520    6.4666
   11.535    6.0979
   11.550    6.3086
   11.565    6.3928
   11.580    6.5403
   11.595    6.3507
   11.610    6.7088
   11.625    6.4244
   11.640    6.4139
   11.655    6.2770
   11.670    6.3612
   11.685    6.0874
   11.700    6.6772
   11.715    6.6351
   11.730    6.4350
   11.745    6.6140
   11.760    6.6667
   11.775    6.6245
   11.790    6.7193
   11.805    6.8246
   11.820    6.2770
   11.835    6.4876
   11.850    6.9300
   11.865    6.8036
   11.880    6.4455
   11.895    6.8141
   11.910    6.5824
   11.925    6.5508
   11.940    6.7825
   11.955    6.7825
   11.970    6.7825
   11.985    6.8773
   12.000    6.9300
   12.015    7.0774
   12.030    6.7615
   12.045    6.4034
   12.060    6.2875
   12.075    6.7299
   12.090    6.9721
   12.105    6.5087
   12.120    6.7720
   12.135    6.9089
   12.150    6.9194
   12.165    6.7193
   12.180    6.9089
   12.195    6.4455
   12.210    6.4350
   12.225    6.5824
   12.240    6.8141
   12.255    7.1827
   12.270    6.9405
   12.285    6.8036
   12.300    6.7088
   12.315    6.7930
   12.330    6.9300
   12.345    7.1301
   12.360    6.9721
   12.375    6.7509
   12.390    6.7930
   12.405    6.7404
   12.420    6.8984
   12.435    6.6772
   12.450    6.9510
   12.465    6.8352
   12.480    6.5929
   12.495    7.2249
   12.510    6.6772
   12.525    6.6035
   12.540    7.0353
   12.555    6.9194
   12.570    6.4244
   12.585    6.5929
   12.600    6.3928
   12.615    6.7404
   12.630    6.6245
   12.645    7.1406
   12.660    6.9932
   12.675    6.5929
   12.690    6.5298
   12.705    6.4876
   12.720    6.6561
   12.735    6.6667
   12.750    7.2354
   12.765    6.8668
   12.780    6.2665
   12.795    6.2981
   12.810    6.4666
   12.825    6.7825
   12.840    6.6877
   12.855    6.6035
   12.870    6.6245
   12.885    6.5403
   12.900    6.5929
   12.915    6.4982
   12.930    6.6877
   12.945    6.8457
   12.960    6.5087
   12.975    6.7088
   12.990    6.3402
   13.005    6.1822
   13.020    6.2875
   13.035    6.9194
   13.050    6.5929
   13.065    6.6561
   13.080    6.3612
   13.095    6.2770
   13.110    6.4139
   13.125    6.7404
   13.140    6.4666
   13.155    6.4244
   13.170    6.5929
   13.185    6.0348
   13.200    6.4771
   13.215    6.8773
   13.230    6.6351
   13.245    6.4244
   13.260    6.7299
   13.275    6.7404
   13.290    6.4350
   13.305    6.6035
   13.320    6.4139
   13.335    6.8036
   13.350    6.4876
   13.365    6.6877
   13.380    6.3507
   13.395    6.5613
   13.410    6.7615
   13.425    6.7509
   13.440    6.6772
   13.455    6.4771
   13.470    6.8036
   13.485    6.6877
   13.500    6.3086
   13.515    6.4244
   13.530    6.6035
   13.545    6.3507
   13.560    6.6351
   13.575    5.9505
   13.590    6.2770
   13.605    6.3718
   13.620    6.6772
   13.635    6.0874
   13.650    6.5824
   13.665    6.3823
   13.680    6.5613
   13.695    6.4560
   13.710    6.5613
   13.725    6.4560
   13.740    6.3612
   13.755    6.4876
   13.770    6.4560
   13.785    6.2243
   13.800    6.5824
   13.815    6.2454
   13.830    6.1717
   13.845    6.1085
   13.860    6.5087
   13.875    6.5087
   13.890    6.4350
   13.905    6.5298
   13.920    6.5087
   13.935    6.2454
   13.950    6.2770
   13.965    6.5192
   13.980    6.3086
   13.995    6.1401
   14.010    5.9505
   14.025    6.0032
   14.040    6.0558
   14.055    5.9716
   14.070    6.1822
   14.085    6.2875
   14.100    6.4350
   14.115    6.0137
   14.130    6.0979
   14.145    6.2981
   14.160    6.5719
   14.175    6.3191
   14.190    5.8978
   14.205    5.7399
   14.220    6.2981
   14.235    6.2770
   14.250    6.4034
   14.265    6.1506
   14.280    6.5298
   14.295    6.6035
   14.310    6.2559
   14.325    6.3823
   14.340    5.9716
   14.355    6.2454
   14.370    6.3718
   14.385    6.3612
   14.400    6.0242
   14.415    6.0979
   14.430    5.9610
   14.445    6.1085
   14.460    6.1822
   14.475    6.2981
   14.490    6.2454
   14.505    6.1506
   14.520    5.9926
   14.535    6.1506
   14.550    6.1822
   14.565    6.2665
   14.580    6.2349
   14.595    6.4666
   14.610    6.1611
   14.625    6.2138
   14.640    5.9926
   14.655    5.9716
   14.670    6.2349
   14.685    6.1401
   14.700    6.0558
   14.715    5.9505
   14.730    6.3612
   14.745    6.1927
   14.760    6.0453
   14.775    6.3086
   14.790    6.3718
   14.805    6.1506
   14.820    5.9084
   14.835    6.3928
   14.850    6.0664
   14.865    6.3402
   14.880    6.0348
   14.895    6.0348
   14.910    6.4876
   14.925    6.0558
   14.940    6.1401
   14.955    6.0242
   14.970    6.2665
   14.985    6.1506