File: data/PXRD/PXRD_KE-132_Cu-Ka1_capillary-1mm_5s-deg.xyd
    1.500   30.8689
    1.530   30.7425
    1.560   30.1527
    1.590   28.6045
    1.620   29.2575
    1.650   27.7725
    1.680   28.6151
    1.710   26.7931
    1.740   27.2354
    1.770   25.9716
    1.800   26.4139
    1.830   26.1085
    1.860   25.4028
    1.890   25.7715
    1.920   25.1501
    1.950   24.4023
    1.980   25.3186
    2.010   25.1080
    2.040   24.4971
    2.070   24.4971
    2.100   24.8973
    2.130   24.7393
    2.160   25.5398
    2.190   25.2449
    2.220   25.6451
    2.250   26.8246
    2.280   27.3196
    2.310   26.9932
    2.340   27.1301
    2.370   27.7620
    2.400   28.1833
    2.430   28.3728
    2.460   29.5419
    2.490   30.5845
    2.520   31.1006
    2.550   32.8278
    2.580   32.5540
    2.610   33.1543
    2.640   36.0400
    2.670   36.0716
    2.700   37.4829
    2.730   38.8099
    2.760   41.5061
    2.790   43.7809
    2.820   44.4655
    2.850   47.2143
    2.880   48.3623
    2.910   51.3955
    2.940   55.8505
    2.970   57.9358
    3.000   61.4113
    3.030   63.7283
    3.060   68.6888
    3.090   73.8494
    3.120   78.5571
    3.150   83.8125
    3.180   90.5845
    3.210   96.8931
    3.240  104.3918
    3.270  114.5656
    3.300  126.7720
    3.330  138.5150
    3.360  155.9979
    3.390  177.1459
    3.420  193.0174
    3.450  196.0506
    3.480  185.5714
    3.510  157.8726
    3.540  120.9057
    3.570   94.1654
    3.600   76.7878
    3.630   67.9094
    3.660   64.7920
    3.690   62.8752
    3.720   61.3481
    3.750   61.6324
    3.780   64.6024
    3.810   65.9400
    3.840   69.7630
    3.870   71.8799
    3.900   75.8294
    3.930   76.1875
    3.960   78.0200
    3.990   82.5908
    4.020   80.8847
    4.050   80.0000
    4.080   79.3892
    4.110   76.4297
    4.140   71.9537
    4.170   67.1617
    4.200   62.4961
    4.230   55.9136
    4.260   48.9310
    4.290   43.2228
    4.320   37.8726
    4.350   33.1859
    4.380   27.5935
    4.410   25.6767
    4.440   22.4118
    4.470   19.9895
    4.500   17.8410
    4.530   16.1980
    4.560   15.6714
    4.590   13.6598
    4.620   13.2807
    4.650   12.7330
    4.680   12.5540
    4.710   11.8378
    4.740   11.3217
    4.770   10.8794
    4.800   10.5213
    4.830   10.3528
    4.860    9.9315
    4.890    9.3944
    4.920    9.4471
    4.950    9.2996
    4.980    9.0363
    5.010    8.9731
    5.040    8.7204
    5.070    9.1206
    5.100    8.4992
    5.130    8.5413
    5.160    8.5308
    5.190    8.6993
    5.220    8.6783
    5.250    8.7204
    5.280    7.9305
    5.310    7.8884
    5.340    8.1411
    5.370    8.4150
    5.400    8.0463
    5.430    8.2254
    5.460    7.8568
    5.490    7.5408
    5.520    7.4144
    5.550    7.6040
    5.580    7.6145
    5.610    7.2775
    5.640    7.4987
    5.670    7.6461
    5.700    7.2775
    5.730    7.2565
    5.760    6.9089
    5.790    7.0774
    5.820    7.0879
    5.850    6.7404
    5.880    7.1511
    5.910    7.1933
    5.940    7.0142
    5.970    7.3512
    6.000    7.0985
    6.030    7.3934
    6.060    7.0985
    6.090    7.5197
    6.120    7.1722
    6.150    7.0353
    6.180    7.4776
    6.210    7.2775
    6.240    7.2459
    6.270    7.7514
    6.300    7.4355
    6.330    7.3828
    6.360    8.2991
    6.390    7.9621
    6.420    8.2043
    6.450    8.6361
    6.480    8.4781
    6.510    9.3839
    6.540    9.4576
    6.570    9.9842
    6.600   10.4581
    6.630   11.1532
    6.660   11.1111
    6.690   12.1643
    6.720   12.7962
    6.750   14.0916
    6.780   15.5556
    6.810   17.4934
    6.840   18.1043
    6.870   21.2744
    6.900   22.9489
    6.930   24.7183
    6.960   24.4339
    6.990   23.2965
    7.020   19.1259
    7.050   16.0400
    7.080   13.5650
    7.110   10.8373
    7.140    9.8789
    7.170    9.4050
    7.200    9.4155
    7.230    8.9415
    7.260    8.2149
    7.290    8.5624
    7.320    7.7830
    7.350    8.0674
    7.380    8.1306
    7.410    7.9621
    7.440    8.7204
    7.470    8.2991
    7.500    7.9516
    7.530    8.3412
    7.560    8.5413
    7.590    8.5097
    7.620    8.7625
    7.650    9.1101
    7.680    9.3523
    7.710    9.0890
    7.740    9.6261
    7.770    9.6367
    7.800   10.0263
    7.830    9.9421
    7.860    9.9105
    7.890   10.9110
    7.920   10.9742
    7.950   11.3849
    7.980   11.7852
    8.010   11.5429
    8.040   11.7114
    8.070   12.3328
    8.100   12.6909
    8.130   12.1222
    8.160   12.4697
    8.190   13.0911
    8.220   12.7857
    8.250   12.8699
    8.280   12.6382
    8.310   12.5224
    8.340   12.6382
    8.370   12.7962
    8.400   11.9958
    8.430   12.3960
    8.460   12.3117
    8.490   11.6377
    8.520   11.2796
    8.550   10.7846
    8.580   10.3107
    8.610   10.7004
    8.640    9.9421
    8.670    9.2996
    8.700    9.2048
    8.730    8.6677
    8.760    8.7836
    8.790    8.3096
    8.820    7.8778
    8.850    7.8041
    8.880    8.1411
    8.910    7.4882
    8.940    7.6145
    8.970    7.2880
    9.000    7.4671
    9.030    6.8562
    9.060    7.0879
    9.090    7.0669
    9.120    7.0879
    9.150    6.6140
    9.180    6.3823
    9.210    6.8036
    9.240    7.0774
    9.270    6.4771
    9.300    6.8878
    9.330    6.4982
    9.360    6.6035
    9.390    6.2875
    9.420    6.2454
    9.450    6.4034
    9.480    6.6877
    9.510    6.3086
    9.540    6.3718
    9.570    6.2033
    9.600    6.4455
    9.630    6.1927
    9.660    6.3191
    9.690    6.2665
    9.720    6.7299
    9.750    6.4560
    9.780    6.1927
    9.810    6.2243
    9.840    6.0979
    9.870    6.2665
    9.900    6.3507
    9.930    6.4350
    9.960    6.6456
    9.990    6.2665
   10.020    6.2243
   10.050    6.1085
   10.080    6.1190
   10.110    6.2875
   10.140    6.4350
   10.170    6.6035
   10.200    6.0874
   10.230    6.8984
   10.260    6.3718
   10.290    6.6561
   10.320    6.9826
   10.350    6.8246
   10.380    7.4776
   10.410    7.3618
   10.440    7.6567
   10.470    7.2565
   10.500    7.2775
   10.530    7.2565
   10.560    6.7193
   10.590    6.8036
   10.620    6.3191
   10.650    6.5824
   10.680    6.4244
   10.710    6.1927
   10.740    6.5192
   10.770    6.3928
   10.800    6.2138
   10.830    6.1822
   10.860    6.3612
   10.890    6.4244
   10.920    6.2033
   10.950    6.4771
   10.980    6.2875
   11.010    5.9084
   11.040    6.1295
   11.070    6.5192
   11.100    6.2349
   11.130    6.1611
   11.160    6.2243
   11.190    6.3823
   11.220    6.0348
   11.250    6.2770
   11.280    6.4034
   11.310    6.4666
   11.340    6.3718
   11.370    6.6035
   11.400    6.6877
   11.430    6.2770
   11.460    6.3612
   11.490    6.7825
   11.520    6.3402
   11.550    6.3296
   11.580    6.3402
   11.610    6.6561
   11.640    6.6456
   11.670    6.7193
   11.700    6.5192
   11.730    6.7615
   11.760    6.9194
   11.790    7.1406
   11.820    6.9721
   11.850    6.6667
   11.880    6.8141
   11.910    6.3612
   11.940    7.1617
   11.970    7.1090
   12.000    6.9510
   12.030    6.9932
   12.060    6.6983
   12.090    7.0669
   12.120    6.5719
   12.150    6.9300
   12.180    7.0669
   12.210    7.0669
   12.240    7.5408
   12.270    7.3196
   12.300    7.3091
   12.330    7.2670
   12.360    7.4987
   12.390    7.2038
   12.420    6.9510
   12.450    7.6567
   12.480    7.1195
   12.510    7.6251
   12.540    7.4671
   12.570    7.4039
   12.600    7.4671
   12.630    7.3512
   12.660    7.1617
   12.690    7.2459
   12.720    7.4250
   12.750    7.3934
   12.780    6.9405
   12.810    7.4882
   12.840    7.7093
   12.870    7.0563
   12.900    7.2880
   12.930    7.1090
   12.960    7.0669
   12.990    6.9089
   13.020    6.9616
   13.050    7.2038
   13.080    7.1406
   13.110    6.6035
   13.140    6.8668
   13.170    6.8036
   13.200    6.8562
   13.230    7.3196
   13.260    6.9616
   13.290    7.0142
   13.320    7.1406
   13.350    6.5298
   13.380    6.9721
   13.410    6.5403
   13.440    6.7720
   13.470    6.9616
   13.500    7.1827
   13.530    6.8878
   13.560    6.5929
   13.590    6.9721
   13.620    6.7825
   13.650    6.7825
   13.680    6.9405
   13.710    6.8984
   13.740    6.9300
   13.770    6.5298
   13.800    6.6351
   13.830    6.8352
   13.860    6.8036
   13.890    6.7720
   13.920    6.8668
   13.950    6.2243
   13.980    6.5087
   14.010    6.8773
   14.040    6.4244
   14.070    6.2770
   14.100    6.4139
   14.130    6.5719
   14.160    7.1195
   14.190    6.4876
   14.220    6.7509
   14.250    6.1927
   14.280    6.2770
   14.310    6.5087
   14.340    6.2770
   14.370    6.4350
   14.400    6.2033
   14.430    6.2875
   14.460    6.2349
   14.490    6.3402
   14.520    6.4876
   14.550    6.6877
   14.580    6.1190
   14.610    6.3296
   14.640    6.5719
   14.670    5.9084
   14.700    6.0242
   14.730    6.2981
   14.760    6.2243
   14.790    5.8241
   14.820    6.2981
   14.850    6.1506
   14.880    6.0664
   14.910    5.9084
   14.940    6.1295
   14.970    5.9294
   15.000    6.1401
   15.030    6.0137
   15.060    6.0558
   15.090    5.6767
   15.120    5.9716
   15.150    6.1822
   15.180    6.3296
   15.210    6.5403
   15.240    6.1822
   15.270    6.8246
   15.300    6.3296
   15.330    6.2875
   15.360    6.4034
   15.390    6.1717
   15.420    6.5087
   15.450    6.6561
   15.480    6.3928
   15.510    6.4982
   15.540    6.1611
   15.570    6.0979
   15.600    6.4666
   15.630    6.4771
   15.660    6.6667
   15.690    6.3507
   15.720    6.6245
   15.750    6.6983
   15.780    6.3191
   15.810    6.6561
   15.840    6.3402
   15.870    6.4350
   15.900    6.2770
   15.930    6.5508
   15.960    6.4771
   15.990    6.3402
   16.020    6.4034
   16.050    6.5508
   16.080    6.1085
   16.110    6.7088
   16.140    6.4560
   16.170    6.8984
   16.200    6.7615
   16.230    6.4350
   16.260    6.4666
   16.290    6.5403
   16.320    6.3402
   16.350    6.1822
   16.380    6.6245
   16.410    6.3402
   16.440    6.4350
   16.470    6.1611
   16.500    6.0874
   16.530    6.3928
   16.560    6.3402
   16.590    6.4139
   16.620    6.0979
   16.650    6.1717
   16.680    6.0032
   16.710    5.9716
   16.740    6.2243
   16.770    6.0979
   16.800    6.3823
   16.830    6.7299
   16.860    6.2243
   16.890    6.3612
   16.920    5.9505
   16.950    6.0137
   16.980    6.3507
   17.010    6.3718
   17.040    6.2243
   17.070    6.1822
   17.100    5.7925
   17.130    5.9821
   17.160    6.1822
   17.190    6.2138
   17.220    5.9084
   17.250    5.5292
   17.280    6.3507
   17.310    6.1717
   17.340    6.0137
   17.370    6.5929
   17.400    6.1717
   17.430    6.1506
   17.460    6.6877
   17.490    6.4455
   17.520    6.3718
   17.550    6.5508
   17.580    6.1295
   17.610    6.3086
   17.640    6.2981
   17.670    6.4139
   17.700    6.3718
   17.730    6.1927
   17.760    6.2770
   17.790    6.4982
   17.820    6.2559
   17.850    6.8036
   17.880    6.4560
   17.910    6.3402
   17.940    6.2665
   17.970    5.9610
   18.000    6.0769
   18.030    6.1085
   18.060    6.1401
   18.090    6.2559
   18.120    6.0032
   18.150    6.2875
   18.180    6.4244
   18.210    6.0979
   18.240    6.0137
   18.270    6.3402
   18.300    6.1822
   18.330    6.0558
   18.360    6.1085
   18.390    6.0769
   18.420    6.1717
   18.450    6.2770
   18.480    6.4350
   18.510    6.2665
   18.540    6.1717
   18.570    6.0453
   18.600    6.3086
   18.630    6.5192
   18.660    6.3086
   18.690    6.5192
   18.720    6.0032
   18.750    6.0769
   18.780    6.0664
   18.810    5.9400
   18.840    6.6456
   18.870    6.3191
   18.900    6.2770
   18.930    6.4771
   18.960    6.2349
   18.990    6.4666
   19.020    6.3612
   19.050    6.2559
   19.080    6.8352
   19.110    6.4771
   19.140    6.6035
   19.170    6.5824
   19.200    6.5929
   19.230    6.3823
   19.260    7.0037
   19.290    6.2454
   19.320    6.7299
   19.350    6.2981
   19.380    6.8457
   19.410    6.7193
   19.440    6.9932
   19.470    6.9405
   19.500    6.7825
   19.530    7.5303
   19.560    7.0458
   19.590    6.6983
   19.620    7.1195
   19.650    6.5613
   19.680    7.3407
   19.710    7.2986
   19.740    6.9616
   19.770    7.0353
   19.800    7.4882
   19.830    6.9194
   19.860    6.7930
   19.890    7.3618
   19.920    7.4882
   19.950    7.4039
   19.980    7.3828
   20.010    7.1090
   20.040    7.6567
   20.070    7.2986
   20.100    7.0142
   20.130    7.2354
   20.160    7.2459
   20.190    7.5303
   20.220    6.9721
   20.250    7.0879
   20.280    7.2249
   20.310    7.2143
   20.340    7.2354
   20.370    6.9826
   20.400    6.7825
   20.430    7.2775
   20.460    6.8457
   20.490    7.3512
   20.520    6.8668
   20.550    7.1617
   20.580    7.2670
   20.610    7.0774
   20.640    7.6145
   20.670    7.1617
   20.700    7.4250
   20.730    6.9089
   20.760    7.4882
   20.790    7.3302
   20.820    6.6877
   20.850    7.5197
   20.880    6.9405
   20.910    7.0563
   20.940    7.1406
   20.970    7.8357
   21.000    7.5513
   21.030    7.7093
   21.060    7.4039
   21.090    7.5513
   21.120    7.6040
   21.150    7.1511
   21.180    6.8773
   21.210    7.5197
   21.240    6.9194
   21.270    7.1617
   21.300    6.8773
   21.330    6.6245
   21.360    7.1827
   21.390    6.8562
   21.420    6.9405
   21.450    7.5935
   21.480    7.3091
   21.510    7.1090
   21.540    7.0985
   21.570    6.7720
   21.600    6.9194
   21.630    7.0774
   21.660    7.0142
   21.690    7.0248
   21.720    7.0774
   21.750    7.3934
   21.780    7.1722
   21.810    7.1827
   21.840    6.9932
   21.870    6.7088
   21.900    7.4776
   21.930    6.6667
   21.960    7.3407
   21.990    7.0142
   22.020    7.4460
   22.050    6.9616
   22.080    7.1195
   22.110    7.1722
   22.140    6.8141
   22.170    7.1301
   22.200    7.0563
   22.230    7.4987
   22.260    7.1406
   22.290    6.9089
   22.320    7.1195
   22.350    6.8246
   22.380    6.9826
   22.410    7.1617
   22.440    7.4987
   22.470    7.1827
   22.500    6.9300
   22.530    7.3618
   22.560    7.3302
   22.590    6.9194
   22.620    6.8352
   22.650    6.6877
   22.680    7.0248
   22.710    6.7720
   22.740    6.8773
   22.770    6.7088
   22.800    6.8668
   22.830    6.8562
   22.860    6.8246
   22.890    6.9089
   22.920    7.0774
   22.950    7.3512
   22.980    6.7509
   23.010    6.5613
   23.040    7.2670
   23.070    6.9721
   23.100    6.9194
   23.130    7.2143
   23.160    6.9616
   23.190    7.0669
   23.220    6.7404
   23.250    6.7930
   23.280    6.8878
   23.310    6.7088
   23.340    6.7615
   23.370    7.2459
   23.400    7.0142
   23.430    6.8141
   23.460    6.6456
   23.490    7.0037
   23.520    6.3823
   23.550    6.7509
   23.580    6.6035
   23.610    6.4982
   23.640    6.6351
   23.670    6.6351
   23.700    6.2454
   23.730    7.0037
   23.760    6.7404
   23.790    6.6983
   23.820    6.7404
   23.850    6.6245
   23.880    6.8668
   23.910    6.3612
   23.940    6.4982
   23.970    6.7404
   24.000    6.8036
   24.030    6.5403
   24.060    6.4560
   24.090    6.6561
   24.120    6.3823
   24.150    6.2981
   24.180    6.6351
   24.210    6.4876
   24.240    7.1301
   24.270    6.6772
   24.300    6.5719
   24.330    6.3928
   24.360    6.2454
   24.390    6.8984
   24.420    6.8352
   24.450    6.8141
   24.480    6.2454
   24.510    6.5929
   24.540    6.6983
   24.570    6.6561
   24.600    6.9510
   24.630    6.8352
   24.660    6.7509
   24.690    6.8457
   24.720    6.4876
   24.750    6.4666
   24.780    6.5824
   24.810    6.5192
   24.840    6.5192
   24.870    6.1611
   24.900    6.6456
   24.930    6.0453
   24.960    6.3191
   24.990    6.3718
   25.020    6.4034
   25.050    6.5298
   25.080    6.2138
   25.110    6.2033
   25.140    6.3928
   25.170    6.6035
   25.200    6.2349
   25.230    6.7615
   25.260    6.6983
   25.290    6.1927
   25.320    6.2770
   25.350    6.1295
   25.380    6.0979
   25.410    6.5087
   25.440    6.2875
   25.470    5.9610
   25.500    6.1295
   25.530    6.5508
   25.560    6.0137
   25.590    6.3823
   25.620    5.8241
   25.650    6.4876
   25.680    5.9294
   25.710    6.2033
   25.740    5.9926
   25.770    5.7820
   25.800    6.1401
   25.830    5.8557
   25.860    6.3086
   25.890    6.1401
   25.920    6.2243
   25.950    6.0242
   25.980    5.8557
   26.010    5.9926
   26.040    6.0979
   26.070    5.8241
   26.100    6.1927
   26.130    6.0137
   26.160    6.3402
   26.190    5.8978
   26.220    6.2033
   26.250    6.0348
   26.280    6.1611
   26.310    6.0979
   26.340    6.3086
   26.370    5.9505
   26.400    5.9084
   26.430    5.9400
   26.460    6.2559
   26.490    5.8978
   26.520    6.2559
   26.550    5.8557
   26.580    6.2875
   26.610    5.8241
   26.640    6.3191
   26.670    5.7399
   26.700    5.8873
   26.730    5.9294
   26.760    5.8662
   26.790    5.7715
   26.820    5.7715
   26.850    5.4871
   26.880    6.0558
   26.910    5.5924
   26.940    5.7083
   26.970    5.8768
   27.000    5.7925
   27.030    5.7083
   27.060    6.2559
   27.090    5.5187
   27.120    6.1611
   27.150    6.1822
   27.180    6.2033
   27.210    6.2243
   27.240    5.9189
   27.270    5.8031
   27.300    5.5608
   27.330    6.1506
   27.360    5.6451
   27.390    5.8557
   27.420    5.9821
   27.450    5.7399
   27.480    5.6767
   27.510    5.7609
   27.540    6.1401
   27.570    6.0453
   27.600    5.9505
   27.630    5.8978
   27.660    5.9610
   27.690    5.5819
   27.720    5.5714
   27.750    5.5819
   27.780    6.0137
   27.810    6.1611
   27.840    5.8978
   27.870    6.0664
   27.900    5.5608
   27.930    5.7820
   27.960    5.7399
   27.990    5.6872
   28.020    5.4660
   28.050    5.7293
   28.080    5.6556
   28.110    6.0348
   28.140    6.5087
   28.170    6.0769
   28.200    6.3086
   28.230    6.4455
   28.260    6.6140
   28.290    5.9084
   28.320    6.3296
   28.350    5.9189
   28.380    5.8557
   28.410    5.9716
   28.440    6.1717
   28.470    6.2770
   28.500    6.2033
   28.530    5.6977
   28.560    5.4344
   28.590    5.5292
   28.620    5.9610
   28.650    5.2870
   28.680    5.3818
   28.710    5.8136
   28.740    5.5924
   28.770    5.6767
   28.800    5.3607
   28.830    5.7293
   28.860    5.4028
   28.890    5.9294
   28.920    5.6661
   28.950    5.9926
   28.980    5.4660
   29.010    5.8241
   29.040    5.8136
   29.070    5.9400
   29.100    5.6135
   29.130    5.9821
   29.160    6.3612
   29.190    5.4028
   29.220    5.4450
   29.250    5.4450
   29.280    5.8136
   29.310    5.7504
   29.340    5.8978
   29.370    5.6977
   29.400    5.7609
   29.430    5.8662
   29.460    5.6872
   29.490    5.5819
   29.520    5.5924
   29.550    5.9084
   29.580    5.7609
   29.610    5.4344
   29.640    5.3397
   29.670    5.5503
   29.700    5.6345
   29.730    5.3081
   29.760    5.8452
   29.790    5.4134
   29.820    5.6451
   29.850    5.5924
   29.880    5.4134
   29.910    5.4976
   29.940    5.4871
   29.970    5.6029
   30.000    5.4766
   30.030    5.6661
   30.060    5.4871
   30.090    5.3923
   30.120    5.4239
   30.150    5.4344
   30.180    5.2975
   30.210    5.8873
   30.240    5.5503
   30.270    5.4450
   30.300    5.6451
   30.330    5.2870
   30.360    5.5924
   30.390    5.5292
   30.420    5.7609
   30.450    5.3712
   30.480    5.2133
   30.510    5.4344
   30.540    5.2343
   30.570    5.0764
   30.600    5.4555
   30.630    5.5503
   30.660    5.5503
   30.690    5.4766
   30.720    5.0974
   30.750    5.5187
   30.780    5.1711
   30.810    5.5398
   30.840    5.4871
   30.870    5.4555
   30.900    5.5924
   30.930    5.2554
   30.960    5.0448
   30.990    5.2449
   31.020    5.3291
   31.050    5.4555
   31.080    5.3291
   31.110    5.6240
   31.140    5.0974
   31.170    5.3291
   31.200    5.4976
   31.230    5.3607
   31.260    5.6661
   31.290    5.1290
   31.320    5.2554
   31.350    5.2870
   31.380    5.5082
   31.410    5.3502
   31.440    5.5924
   31.470    5.4871
   31.500    5.5187
   31.530    5.1395
   31.560    5.5924
   31.590    5.4450
   31.620    5.4028
   31.650    5.5608
   31.680    5.5187
   31.710    5.4134
   31.740    5.6556
   31.770    5.5714
   31.800    5.9610
   31.830    5.6240
   31.860    5.4660
   31.890    4.9289
   31.920    5.5082
   31.950    5.4028
   31.980    5.7083
   32.010    5.6029
   32.040    5.8768
   32.070    5.5608
   32.100    5.7083
   32.130    5.1922
   32.160    5.6661
   32.190    5.3081
   32.220    5.2343
   32.250    5.4134
   32.280    5.7293
   32.310    5.5187
   32.340    4.9184
   32.370    5.5503
   32.400    5.1185
   32.430    5.3818
   32.460    5.1606
   32.490    5.4976
   32.520    5.4450
   32.550    5.1185
   32.580    5.2133
   32.610    5.0448
   32.640    5.4028
   32.670    5.1922
   32.700    4.9816
   32.730    5.0658
   32.760    5.3818
   32.790    5.2975
   32.820    5.4028
   32.850    5.2659
   32.880    5.5398
   32.910    5.2133
   32.940    5.2765
   32.970    5.2343
   33.000    4.7077
   33.030    5.1817
   33.060    5.1606
   33.090    5.1606
   33.120    5.0974
   33.150    5.0448
   33.180    5.4134
   33.210    5.3818
   33.240    4.9500
   33.270    5.3607
   33.300    4.8868
   33.330    5.1817
   33.360    4.7920
   33.390    5.0132
   33.420    4.9605
   33.450    5.2765
   33.480    5.0448
   33.510    5.2027
   33.540    4.8657
   33.570    5.4028
   33.600    5.2765
   33.630    4.9816
   33.660    4.9184
   33.690    4.6024
   33.720    4.7604
   33.750    5.0448
   33.780    4.9289
   33.810    5.0553
   33.840    5.3186
   33.870    4.8763
   33.900    5.0764
   33.930    5.0026
   33.960    5.2027
   33.990    4.9710
   34.020    4.4023
   34.050    5.3186
   34.080    5.6029
   34.110    4.9710
   34.140    5.1501
   34.170    4.8657
   34.200    4.6761
   34.230    4.9921
   34.260    4.5814
   34.290    5.1080
   34.320    5.1395
   34.350    4.8657
   34.380    5.0974
   34.410    5.1395
   34.440    5.0342
   34.470    4.8868
   34.500    5.0132
   34.530    4.9500
   34.560    5.1395
   34.590    4.8763
   34.620    4.9184
   34.650    4.6761
   34.680    5.1290
   34.710    4.5182
   34.740    4.7604
   34.770    4.6235
   34.800    5.0764
   34.830    4.7499
   34.860    4.6024
   34.890    5.0026
   34.920    4.7920
   34.950    4.8552
   34.980    4.8447
   35.010    4.7288
   35.040    4.5603
   35.070    4.7499
   35.100    5.1185
   35.130    5.1606
   35.160    4.8025
   35.190    4.9394
   35.220    4.5392
   35.250    5.1817
   35.280    5.3818
   35.310    4.8236
   35.340    4.8131
   35.370    4.8447
   35.400    4.9394
   35.430    4.8973
   35.460    4.7499
   35.490    4.7920
   35.520    4.7709
   35.550    4.7288
   35.580    4.7183
   35.610    4.6656
   35.640    4.7499
   35.670    4.8657
   35.700    4.9710
   35.730    4.9605
   35.760    4.9921
   35.790    4.8447
   35.820    4.8131
   35.850    4.5498
   35.880    4.6972
   35.910    4.6235
   35.940    4.6867
   35.970    4.6235
   36.000    4.6761
   36.030    4.6340
   36.060    4.7604
   36.090    5.0764
   36.120    5.1395
   36.150    4.8447
   36.180    4.9289
   36.210    4.9605
   36.240    4.6445
   36.270    4.6340
   36.300    4.8552
   36.330    4.3391
   36.360    4.6551
   36.390    4.5392
   36.420    4.7077
   36.450    4.4971
   36.480    4.7393
   36.510    4.5182
   36.540    4.8236
   36.570    4.4655
   36.600    4.6445
   36.630    4.4971
   36.660    4.6445
   36.690    4.6551
   36.720    4.5708
   36.750    4.6235
   36.780    5.1290
   36.810    4.8763
   36.840    4.7077
   36.870    4.7077
   36.900    4.5498
   36.930    4.6867
   36.960    4.6024
   36.990    4.6130
   37.020    4.7815
   37.050    4.5392
   37.080    4.8868
   37.110    4.7709
   37.140    4.8973
   37.170    4.3918
   37.200    4.5498
   37.230    4.5076
   37.260    4.7077
   37.290    4.5287
   37.320    4.2865
   37.350    4.6340
   37.380    4.7604
   37.410    4.5392
   37.440    4.5287
   37.470    4.4760
   37.500    4.4339
   37.530    4.5603
   37.560    4.6130
   37.590    4.6972
   37.620    4.3918
   37.650    4.2654
   37.680    4.8236
   37.710    4.7183
   37.740    4.5182
   37.770    4.4234
   37.800    4.6130
   37.830    4.6445
   37.860    4.5287
   37.890    4.5392
   37.920    4.7183
   37.950    4.3497
   37.980    4.6130
   38.010    4.5498
   38.040    4.2443
   38.070    4.6235
   38.100    4.4866
   38.130    4.3181
   38.160    4.8025
   38.190    4.4760
   38.220    4.6761
   38.250    4.2970
   38.280    4.8131
   38.310    4.5076
   38.340    4.0969
   38.370    4.9500
   38.400    4.4866
   38.430    4.2127
   38.460    4.3918
   38.490    4.5076
   38.520    4.4866
   38.550    4.3707
   38.580    4.7183
   38.610    4.3391
   38.640    4.6972
   38.670    4.6024
   38.700    4.3497
   38.730    4.5603
   38.760    4.5182
   38.790    4.7499
   38.820    4.6130
   38.850    4.4760
   38.880    4.6445
   38.910    4.5287
   38.940    4.4866
   38.970    4.2338
   39.000    4.4971
   39.030    4.4971
   39.060    4.3602
   39.090    4.4444
   39.120    4.3075
   39.150    4.6761
   39.180    4.6972
   39.210    4.2970
   39.240    4.7920
   39.270    4.5287
   39.300    4.5076
   39.330    4.6656
   39.360    4.6445
   39.390    4.5076
   39.420    4.5603
   39.450    4.6445
   39.480    4.9394
   39.510    4.6130
   39.540    4.5287
   39.570    4.1706
   39.600    4.4971
   39.630    4.6235
   39.660    4.3391
   39.690    4.4971
   39.720    4.6867
   39.750    4.5498
   39.780    4.6024
   39.810    4.6340
   39.840    4.3286
   39.870    4.2233
   39.900    4.6445
   39.930    4.8973
   39.960    4.4444
   39.990    4.1601