File: data/PXRD/PXRD_KE-016_Cu-Ka1_capillary-1mm_5s-deg.xyd
    1.500   33.0490
    1.530   33.1227
    1.560   31.8694
    1.590   31.0058
    1.620   30.1948
    1.650   29.5524
    1.680   27.7409
    1.710   28.1306
    1.740   27.1406
    1.770   26.4034
    1.800   26.2454
    1.830   24.9289
    1.860   24.1285
    1.890   23.8863
    1.920   23.1174
    1.950   22.3381
    1.980   22.4539
    2.010   21.8957
    2.040   20.8215
    2.070   21.6008
    2.100   20.3476
    2.130   19.5998
    2.160   19.7367
    2.190   19.4945
    2.220   19.7051
    2.250   18.6414
    2.280   18.5150
    2.310   18.2833
    2.340   17.5145
    2.370   17.5250
    2.400   17.0932
    2.430   17.3249
    2.460   17.1564
    2.490   16.9458
    2.520   16.5245
    2.550   16.3454
    2.580   16.0084
    2.610   15.4818
    2.640   15.9558
    2.670   15.4397
    2.700   14.9131
    2.730   14.8815
    2.760   15.1027
    2.790   14.5972
    2.820   14.4813
    2.850   14.1864
    2.880   14.5129
    2.910   14.0390
    2.940   14.2812
    2.970   14.2812
    3.000   14.0390
    3.030   13.8915
    3.060   13.8389
    3.090   13.6388
    3.120   12.8278
    3.150   13.1648
    3.180   13.1859
    3.210   13.2070
    3.240   13.7230
    3.270   12.7225
    3.300   13.0068
    3.330   13.1438
    3.360   12.8383
    3.390   12.3433
    3.420   12.8173
    3.450   12.1959
    3.480   12.6066
    3.510   12.7120
    3.540   12.6488
    3.570   12.3644
    3.600   12.2486
    3.630   12.2170
    3.660   12.0169
    3.690   11.8273
    3.720   11.7114
    3.750   12.4592
    3.780   11.3112
    3.810   11.8483
    3.840   11.5429
    3.870   11.7746
    3.900   11.7325
    3.930   11.3217
    3.960   11.4165
    3.990   11.3112
    4.020   11.3323
    4.050   10.7846
    4.080   11.5008
    4.110   11.0058
    4.140   11.2796
    4.170   10.7109
    4.200   11.2270
    4.230   10.8162
    4.260   11.4481
    4.290   10.7320
    4.320   10.6477
    4.350   10.0369
    4.380   10.8689
    4.410   10.4160
    4.440   10.5951
    4.470   10.6898
    4.500   10.4897
    4.530   10.4581
    4.560   10.3212
    4.590   10.4371
    4.620   10.1948
    4.650   10.6688
    4.680   10.1316
    4.710   10.0158
    4.740   10.5003
    4.770   10.6898
    4.800   10.5319
    4.830   10.1843
    4.860   10.1527
    4.890    9.6472
    4.920    9.9421
    4.950   10.2264
    4.980   10.1632
    5.010   10.4160
    5.040    9.5840
    5.070    9.9631
    5.100    9.9947
    5.130   10.0053
    5.160    9.9631
    5.190   10.3318
    5.220    9.9631
    5.250   10.4265
    5.280   10.5529
    5.310   11.0374
    5.340   10.9110
    5.370   10.7109
    5.400   11.4060
    5.430   11.1532
    5.460   11.0374
    5.490   11.7641
    5.520   11.3428
    5.550   11.6798
    5.580   12.1327
    5.610   11.9431
    5.640   11.8694
    5.670   12.0274
    5.700   11.9326
    5.730   11.8483
    5.760   12.4487
    5.790   12.4276
    5.820   12.9437
    5.850   14.0495
    5.880   14.8183
    5.910   16.8510
    5.940   17.8410
    5.970   17.1985
    6.000   16.0927
    6.030   12.8805
    6.060   10.5635
    6.090    9.4892
    6.120    9.7630
    6.150    9.6156
    6.180    9.5524
    6.210    9.1732
    6.240    9.3944
    6.270    9.4681
    6.300    9.2996
    6.330    9.1732
    6.360    9.0785
    6.390    9.6577
    6.420    9.3207
    6.450    9.6261
    6.480    9.2891
    6.510    9.4050
    6.540    9.4997
    6.570    9.4260
    6.600    9.5103
    6.630    9.0047
    6.660    9.2048
    6.690    9.1206
    6.720    8.9942
    6.750    9.4892
    6.780    9.1943
    6.810    9.4050
    6.840    9.0363
    6.870    9.5419
    6.900    9.2680
    6.930    8.8784
    6.960    9.6577
    6.990    9.3418
    7.020    9.2470
    7.050    9.5524
    7.080    9.6051
    7.110    9.5735
    7.140    9.6682
    7.170    9.5840
    7.200    9.9631
    7.230    9.4997
    7.260    9.4050
    7.290    9.2996
    7.320    9.3207
    7.350    9.5419
    7.380    9.2575
    7.410    9.7209
    7.440    8.9100
    7.470    9.2786
    7.500    9.1101
    7.530    9.2891
    7.560    8.9205
    7.590    9.7104
    7.620    9.6682
    7.650    9.0574
    7.680    9.5208
    7.710    9.3207
    7.740    9.1311
    7.770    9.1417
    7.800    9.4681
    7.830    9.2470
    7.860    9.4787
    7.890    9.4260
    7.920    9.4892
    7.950    9.8684
    7.980    9.5735
    8.010    8.9626
    8.040    9.5945
    8.070    9.0258
    8.100    8.8362
    8.130    9.0785
    8.160    9.4681
    8.190    8.9942
    8.220    9.5735
    8.250    9.3207
    8.280    9.6682
    8.310    9.2996
    8.340    9.7630
    8.370    9.5945
    8.400   10.0158
    8.430    9.7841
    8.460   10.2370
    8.490    9.9526
    8.520    9.6261
    8.550    9.4471
    8.580    9.7104
    8.610    9.5103
    8.640    9.4787
    8.670    9.0995
    8.700   10.1001
    8.730    9.0469
    8.760    9.3523
    8.790    9.6577
    8.820    9.7209
    8.850   10.0579
    8.880    9.9105
    8.910    9.5208
    8.940    9.5524
    8.970    9.3523
    9.000    9.5840
    9.030    9.3418
    9.060    9.5524
    9.090    9.9210
    9.120   10.1738
    9.150    9.7314
    9.180   10.4792
    9.210   10.3107
    9.240   10.6372
    9.270   10.6688
    9.300   10.8373
    9.330   11.7746
    9.360   12.5434
    9.390   12.9858
    9.420   14.4286
    9.450   15.1975
    9.480   16.5561
    9.510   16.3139
    9.540   14.6077
    9.570   12.2801
    9.600   11.1216
    9.630   10.9005
    9.660   10.6056
    9.690   10.1422
    9.720   10.3528
    9.750    9.8473
    9.780    9.5524
    9.810    9.3418
    9.840    9.4260
    9.870    9.3628
    9.900    9.5735
    9.930    9.6998
    9.960    9.5735
    9.990    9.5629
   10.020    9.3839
   10.050    9.5313
   10.080    9.5313
   10.110    9.5419
   10.140    9.4681
   10.170    9.8157
   10.200    9.2680
   10.230   10.1316
   10.260    9.4155
   10.290    9.7841
   10.320   10.1316
   10.350   10.2791
   10.380   10.6582
   10.410   10.7320
   10.440   10.9110
   10.470   11.3217
   10.500   11.3323
   10.530   10.9637
   10.560   11.2270
   10.590   11.6482
   10.620   12.2486
   10.650   13.8494
   10.680   15.1237
   10.710   16.8931
   10.740   17.1669
   10.770   15.9874
   10.800   13.5861
   10.830   12.4381
   10.860   11.4587
   10.890   12.0484
   10.920   12.5856
   10.950   12.0695
   10.980   12.4171
   11.010   11.9115
   11.040   11.4060
   11.070   11.5745
   11.100   11.8167
   11.130   11.0585
   11.160   10.0158
   11.190   10.4897
   11.220    9.9947
   11.250   10.0474
   11.280    9.8789
   11.310    9.6156
   11.340    9.2259
   11.370    9.3312
   11.400    9.8789
   11.430   10.1632
   11.460   10.4371
   11.490    9.7209
   11.520   10.1632
   11.550   10.3318
   11.580   10.8162
   11.610   11.3007
   11.640   12.5224
   11.670   12.6066
   11.700   12.6066
   11.730   12.0695
   11.760   11.2164
   11.790   10.7109
   11.820   10.5108
   11.850   10.8057
   11.880   11.3323
   11.910   10.8583
   11.940   11.4903
   11.970   11.8483
   12.000   11.0585
   12.030    9.2470
   12.060    9.2891
   12.090    9.0785
   12.120    9.2259
   12.150    8.5097
   12.180    8.3096
   12.210    9.1943
   12.240    8.8257
   12.270    8.5519
   12.300    9.1311
   12.330    8.4466
   12.360    9.1627
   12.390    9.0995
   12.420    8.8994
   12.450    9.2259
   12.480    8.9942
   12.510    8.6677
   12.540    9.1417
   12.570    9.0363
   12.600    8.6783
   12.630    8.9626
   12.660    9.0258
   12.690    9.0995
   12.720    8.8889
   12.750    9.1732
   12.780    9.3944
   12.810    9.2680
   12.840    9.5840
   12.870   10.1527
   12.900   10.8162
   12.930   10.0579
   12.960    9.9737
   12.990    9.5419
   13.020    9.9105
   13.050   10.1738
   13.080   10.2580
   13.110   10.5213
   13.140    9.6261
   13.170    9.1101
   13.200    8.7836
   13.230    8.4466
   13.260    8.7309
   13.290    8.5940
   13.320    8.3096
   13.350    8.3307
   13.380    8.3728
   13.410    8.2886
   13.440    8.5624
   13.470    8.9731
   13.500    9.1417
   13.530    8.5519
   13.560    8.6361
   13.590    8.5413
   13.620    8.7941
   13.650    8.5729
   13.680    8.7836
   13.710    9.1206
   13.740    9.1943
   13.770    8.9415
   13.800    9.2891
   13.830    8.7414
   13.860    9.3628
   13.890    9.1732
   13.920    8.9942
   13.950    9.1522
   13.980    8.6993
   14.010    8.4150
   14.040    8.9837
   14.070    8.8046
   14.100    8.8257
   14.130    8.4571
   14.160    8.4360
   14.190    8.8994
   14.220    8.5729
   14.250    8.4992
   14.280    8.6677
   14.310    8.5624
   14.340    8.6361
   14.370    9.1101
   14.400    8.4571
   14.430    9.0995
   14.460    8.5203
   14.490    9.2364
   14.520    8.6572
   14.550    9.4155
   14.580    9.0153
   14.610    9.6261
   14.640    8.6888
   14.670    8.9100
   14.700    9.3734
   14.730    9.0258
   14.760    8.9310
   14.790    9.0785
   14.820    8.9521
   14.850    9.0469
   14.880    8.8573
   14.910    8.8468
   14.940    8.5203
   14.970    8.6361
   15.000    8.8889
   15.030    9.1101
   15.060    8.9100
   15.090    8.8362
   15.120    8.7941
   15.150    8.5729
   15.180    8.9942
   15.210    8.6993
   15.240    8.2570
   15.270    8.6783
   15.300    8.5413
   15.330    8.4676
   15.360    8.5413
   15.390    8.5940
   15.420    8.8784
   15.450    8.3096
   15.480    9.0363
   15.510    8.9837
   15.540    8.8362
   15.570    9.0574
   15.600    8.7309
   15.630    9.1732
   15.660    9.1522
   15.690    8.7836
   15.720    8.9205
   15.750    9.4997
   15.780    8.9415
   15.810    9.0047
   15.840    9.6682
   15.870    9.9105
   15.900   10.1001
   15.930   10.5108
   15.960   10.9742
   15.990   10.5951
   16.020    9.7314
   16.050    9.7630
   16.080    9.0153
   16.110    8.6361
   16.140    8.6151
   16.170    8.9731
   16.200    8.5519
   16.230    8.7309
   16.260    8.5940
   16.290    8.5203
   16.320    8.7836
   16.350    8.7941
   16.380    8.2886
   16.410    8.7204
   16.440    8.2886
   16.470    8.4255
   16.500    8.5203
   16.530    8.6888
   16.560    8.4676
   16.590    8.7625
   16.620    8.8046
   16.650    8.4255
   16.680    8.8468
   16.710    8.8046
   16.740    8.8362
   16.770    9.4365
   16.800    8.9205
   16.830    9.3312
   16.860    9.6367
   16.890    9.9631
   16.920    9.8052
   16.950    9.3312
   16.980    9.3628
   17.010    9.1522
   17.040    8.7941
   17.070    9.0363
   17.100    9.1101
   17.130    8.9415
   17.160    8.4781
   17.190    8.9626
   17.220    8.6783
   17.250    8.8152
   17.280    8.7836
   17.310    9.3734
   17.340    8.4466
   17.370    9.1101
   17.400    8.3202
   17.430    8.7520
   17.460    8.2043
   17.490    8.8362
   17.520    8.9100
   17.550    8.5308
   17.580    9.0258
   17.610    9.0785
   17.640    9.1206
   17.670    8.8678
   17.700    8.9521
   17.730    9.1943
   17.760    9.1522
   17.790    8.9205
   17.820    8.8784
   17.850    9.1627
   17.880    8.5940
   17.910    8.8046
   17.940    9.2891
   17.970    8.7098
   18.000    8.5519
   18.030    8.6467
   18.060    9.2259
   18.090    8.8152
   18.120    9.1943
   18.150    8.6783
   18.180    8.5940
   18.210    8.3939
   18.240    8.3412
   18.270    8.7520
   18.300    8.6677
   18.330    8.9205
   18.360    8.7625
   18.390    9.1732
   18.420    8.8889
   18.450    8.4571
   18.480    8.8362
   18.510    9.2048
   18.540    9.1943
   18.570    8.8362
   18.600    9.1943
   18.630    8.6677
   18.660    9.2470
   18.690    9.2154
   18.720    9.1943
   18.750    9.2680
   18.780    9.4471
   18.810    9.3207
   18.840    9.3207
   18.870    8.9521
   18.900    8.8573
   18.930    9.3102
   18.960    9.2154
   18.990    9.1417
   19.020    9.0469
   19.050    9.4471
   19.080    9.3839
   19.110    9.0785
   19.140    8.8257
   19.170    9.2259
   19.200    9.2048
   19.230    9.4050
   19.260    8.9100
   19.290    9.3102
   19.320    8.9205
   19.350    9.3944
   19.380    8.9521
   19.410    8.8678
   19.440    9.4787
   19.470    9.1838
   19.500    9.5313
   19.530    8.6256
   19.560    9.1943
   19.590    8.5835
   19.620    9.2786
   19.650    8.8046
   19.680    8.9731
   19.710    8.8468
   19.740    9.3523
   19.770    9.2470
   19.800    8.8573
   19.830    8.9205
   19.860    9.0469
   19.890    9.1417
   19.920    9.1206
   19.950    9.0890
   19.980    8.6888
   20.010    8.9100
   20.040    8.7730
   20.070    9.0785
   20.100    8.8573
   20.130    8.9837
   20.160    9.4155
   20.190    9.3312
   20.220    8.6888
   20.250    8.7941
   20.280    9.2364
   20.310    9.4365
   20.340    8.7204
   20.370    9.4997
   20.400    8.9837
   20.430    8.9731
   20.460    9.1627
   20.490    9.7314
   20.520    9.4365
   20.550    9.2680
   20.580    9.6261
   20.610    8.8573
   20.640    9.0469
   20.670    8.8046
   20.700    9.2048
   20.730    9.4576
   20.760    9.2048
   20.790    9.0047
   20.820    8.5940
   20.850    8.8784
   20.880    8.9415
   20.910    9.1417
   20.940    9.2048
   20.970    9.0153
   21.000    9.4050
   21.030    9.1522
   21.060    8.9942
   21.090    9.1838
   21.120    9.3102
   21.150    9.3734
   21.180    9.7946
   21.210    9.7420
   21.240    9.0469
   21.270    9.5524
   21.300    9.1311
   21.330    9.4365
   21.360    9.3523
   21.390    9.1101
   21.420    9.0574
   21.450    9.3207
   21.480    9.7314
   21.510    9.4155
   21.540    9.1206
   21.570    9.1522
   21.600    8.4781
   21.630    9.0574
   21.660    9.4576
   21.690    9.0363
   21.720    9.1943
   21.750    9.0047
   21.780    9.3734
   21.810    9.0258
   21.840    9.3312
   21.870    9.1206
   21.900    9.0995
   21.930    9.0258
   21.960    8.9731
   21.990    9.2575
   22.020    9.3944
   22.050    9.3839
   22.080    9.2364
   22.110    9.4471
   22.140    9.2364
   22.170    9.4892
   22.200    9.1206
   22.230    9.8789
   22.260    9.4260
   22.290    9.7209
   22.320    9.2048
   22.350    9.3523
   22.380    9.5103
   22.410    9.4155
   22.440    9.6472
   22.470    9.2786
   22.500    9.3418
   22.530    9.7209
   22.560    9.8262
   22.590    9.4365
   22.620    9.3734
   22.650    9.2891
   22.680    9.0258
   22.710    9.4155
   22.740    9.6682
   22.770   10.1316
   22.800   10.1527
   22.830   10.4687
   22.860    9.8999
   22.890    9.2680
   22.920    9.7946
   22.950   10.3844
   22.980    9.8368
   23.010    9.3207
   23.040   10.1738
   23.070    9.5735
   23.100    9.5103
   23.130    9.6788
   23.160    9.4050
   23.190    9.6472
   23.220    9.0890
   23.250    9.2680
   23.280    9.3628
   23.310    9.2364
   23.340    9.1206
   23.370    9.8262
   23.400    9.5629
   23.430    9.8789
   23.460    9.6577
   23.490    9.7525
   23.520   10.2791
   23.550    9.5103
   23.580    9.8789
   23.610    9.3207
   23.640    9.3102
   23.670    8.8257
   23.700    9.0679
   23.730    9.3312
   23.760    9.0574
   23.790    9.3944
   23.820    8.8784
   23.850    9.1627
   23.880    8.8046
   23.910    9.4050
   23.940    9.3628
   23.970    9.1206
   24.000    9.0785
   24.030    9.0995
   24.060    9.0258
   24.090    9.2259
   24.120    9.4050
   24.150    9.5945
   24.180    9.1838
   24.210    9.2680
   24.240    9.3944
   24.270    8.6888
   24.300    9.4576
   24.330    9.0153
   24.360    9.2786
   24.390    9.5419
   24.420    9.3207
   24.450    8.8046
   24.480    9.0469
   24.510    9.6577
   24.540    9.4787
   24.570    9.5208
   24.600    8.8257
   24.630    9.3734
   24.660    8.8257
   24.690    9.1943
   24.720    8.7414
   24.750    9.3418
   24.780    8.8678
   24.810    8.9205
   24.840    8.9205
   24.870    9.2470
   24.900    8.9626
   24.930    9.3312
   24.960    9.0785
   24.990    9.2575
   25.020    8.6151
   25.050    9.3207
   25.080    9.5208
   25.110    8.9942
   25.140    8.6467
   25.170    9.3207
   25.200    8.6993
   25.230    9.2996
   25.260    9.0785
   25.290    8.8152
   25.320    9.2680
   25.350    9.1206
   25.380    8.9205
   25.410    9.0469
   25.440    9.0258
   25.470    8.9521
   25.500    9.1732
   25.530    8.8784
   25.560    9.0047
   25.590    8.9415
   25.620    8.9521
   25.650    9.2154
   25.680    8.9100
   25.710    8.9100
   25.740    8.9731
   25.770    9.1943
   25.800    8.7730
   25.830    8.5097
   25.860    8.7941
   25.890    8.9837
   25.920    9.2364
   25.950    8.8889
   25.980    8.7730
   26.010    9.0679
   26.040    8.7836
   26.070    9.1206
   26.100    8.9731
   26.130    9.5313
   26.160    9.2996
   26.190    9.4471
   26.220    9.3839
   26.250    9.4787
   26.280    9.6577
   26.310    9.1627
   26.340    9.7736
   26.370    9.3207
   26.400    9.7525
   26.430    8.9415
   26.460    9.0153
   26.490    8.8784
   26.520    8.5413
   26.550    8.5308
   26.580    9.1417
   26.610    8.9731
   26.640    8.9837
   26.670    8.6888
   26.700    8.8257
   26.730    8.5940
   26.760    8.6151
   26.790    8.9100
   26.820    8.8573
   26.850    8.9310
   26.880    9.1522
   26.910    8.5097
   26.940    8.8994
   26.970    8.8046
   27.000    8.7309
   27.030    8.2675
   27.060    8.8468
   27.090    8.8152
   27.120    8.3623
   27.150    9.1522
   27.180    9.3628
   27.210    8.8362
   27.240    8.6783
   27.270    9.0469
   27.300    9.0679
   27.330    9.1943
   27.360    9.0258
   27.390    8.9731
   27.420    8.1938
   27.450    9.3944
   27.480    9.0574
   27.510    9.1311
   27.540    9.1206
   27.570    9.2364
   27.600    9.2891
   27.630    9.2364
   27.660    9.1417
   27.690    9.4681
   27.720    8.8257
   27.750    8.8994
   27.780    8.9205
   27.810    8.4466
   27.840    8.6256
   27.870    8.6467
   27.900    8.5203
   27.930    8.6361
   27.960    8.6677
   27.990    8.6361
   28.020    8.3834
   28.050    8.3518
   28.080    8.5203
   28.110    8.6677
   28.140    8.4255
   28.170    8.2991
   28.200    8.3412
   28.230    8.3939
   28.260    8.1306
   28.290    8.6677
   28.320    8.1938
   28.350    8.6572
   28.380    8.3939
   28.410    8.6677
   28.440    8.1306
   28.470    8.3307
   28.500    8.5729
   28.530    7.9621
   28.560    8.5097
   28.590    8.7730
   28.620    8.5097
   28.650    8.3202
   28.680    8.2464
   28.710    8.5308
   28.740    8.1306
   28.770    8.1727
   28.800    8.2570
   28.830    8.1938
   28.860    8.1201
   28.890    8.4992
   28.920    8.3834
   28.950    8.1201
   28.980    8.4360
   29.010    8.4044
   29.040    8.1095
   29.070    8.4992
   29.100    8.2254
   29.130    7.8568
   29.160    7.8673
   29.190    8.8046
   29.220    8.1727
   29.250    8.1833
   29.280    8.1201
   29.310    7.9410
   29.340    8.2780
   29.370    8.0358
   29.400    7.9831
   29.430    7.9621
   29.460    8.2991
   29.490    7.9831
   29.520    8.3939
   29.550    8.1201
   29.580    7.9621
   29.610    7.8462
   29.640    8.5940
   29.670    7.6356
   29.700    7.5303
   29.730    8.2570
   29.760    7.7830
   29.790    7.7725
   29.820    7.8673
   29.850    8.4150
   29.880    8.2043
   29.910    7.8673
   29.940    7.8357
   29.970    8.1201
   30.000    8.1727
   30.030    8.0885
   30.060    8.0147
   30.090    8.3307
   30.120    8.5097
   30.150    8.1727
   30.180    8.2359
   30.210    8.3518
   30.240    8.2043
   30.270    8.2464
   30.300    8.0885
   30.330    7.9831
   30.360    7.7409
   30.390    8.0779
   30.420    8.2886
   30.450    8.0569
   30.480    8.2359
   30.510    8.3939
   30.540    7.9831
   30.570    7.8041
   30.600    7.9831
   30.630    7.6988
   30.660    8.2886
   30.690    8.3939
   30.720    7.7725
   30.750    7.9726
   30.780    7.8146
   30.810    7.8357
   30.840    8.1517
   30.870    7.8357
   30.900    7.8252
   30.930    7.9094
   30.960    7.5724
   30.990    7.7830
   31.020    7.4566
   31.050    8.0674
   31.080    8.2570
   31.110    8.0042
   31.140    7.7514
   31.170    7.4144
   31.200    7.6672
   31.230    7.9937
   31.260    7.8146
   31.290    7.8989
   31.320    7.8041
   31.350    7.7620
   31.380    7.7725
   31.410    7.7409
   31.440    7.5724
   31.470    7.4566
   31.500    8.0358
   31.530    7.8778
   31.560    7.4144
   31.590    7.7304
   31.620    7.9094
   31.650    7.8357
   31.680    7.6883
   31.710    7.8884
   31.740    7.6672
   31.770    7.9621
   31.800    7.6461
   31.830    7.4460
   31.860    7.4039
   31.890    7.6251
   31.920    7.7620
   31.950    7.4987
   31.980    7.4460
   32.010    7.7199
   32.040    7.9305
   32.070    7.6988
   32.100    7.4355
   32.130    7.2986
   32.160    7.5935
   32.190    7.2143
   32.220    7.5408
   32.250    7.8462
   32.280    7.8252
   32.310    7.4882
   32.340    8.1727
   32.370    7.5303
   32.400    7.5513
   32.430    7.8252
   32.460    7.3302
   32.490    7.6567
   32.520    7.7093
   32.550    8.0358
   32.580    7.5724
   32.610    7.7620
   32.640    7.5513
   32.670    7.4460
   32.700    7.3934
   32.730    7.6040
   32.760    7.3091
   32.790    7.6145
   32.820    7.4039
   32.850    7.7199
   32.880    7.5513
   32.910    7.2986
   32.940    7.1933
   32.970    7.7409
   33.000    7.2143
   33.030    7.4144
   33.060    7.0458
   33.090    7.5092
   33.120    7.2249
   33.150    7.1195
   33.180    7.3618
   33.210    7.1617
   33.240    7.3723
   33.270    7.6040
   33.300    7.0353
   33.330    7.6040
   33.360    7.5724
   33.390    7.4987
   33.420    7.5829
   33.450    7.3723
   33.480    7.4987
   33.510    7.6145
   33.540    7.8357
   33.570    7.2986
   33.600    7.5408
   33.630    7.5724
   33.660    8.0569
   33.690    7.5619
   33.720    7.3723
   33.750    7.2459
   33.780    7.4566
   33.810    7.5935
   33.840    7.2459
   33.870    7.7725
   33.900    7.8568
   33.930    7.7409
   33.960    7.1301
   33.990    7.6145
   34.020    7.3934
   34.050    7.1617
   34.080    7.4776
   34.110    7.4355
   34.140    7.3828
   34.170    7.6040
   34.200    7.8146
   34.230    7.1827
   34.260    7.4355
   34.290    7.3934
   34.320    7.2670
   34.350    7.3934
   34.380    7.6251
   34.410    7.2249
   34.440    7.1090
   34.470    7.0774
   34.500    7.2038
   34.530    7.4355
   34.560    7.0458
   34.590    6.8562
   34.620    7.4987
   34.650    7.1827
   34.680    7.2565
   34.710    7.4355
   34.740    6.7930
   34.770    7.0985
   34.800    7.4987
   34.830    7.0458
   34.860    7.6356
   34.890    7.2775
   34.920    7.5513
   34.950    7.4882
   34.980    7.3512
   35.010    7.2670
   35.040    7.1195
   35.070    7.3618
   35.100    7.1406
   35.130    7.2459
   35.160    6.7930
   35.190    6.8246
   35.220    7.2775
   35.250    6.8141
   35.280    7.3407
   35.310    7.2670
   35.340    7.5303
   35.370    7.1406
   35.400    7.0985
   35.430    7.2880
   35.460    7.2459
   35.490    7.3723
   35.520    7.0563
   35.550    7.5303
   35.580    7.5829
   35.610    7.0248
   35.640    7.4776
   35.670    7.2880
   35.700    7.4039
   35.730    7.2354
   35.760    7.1617
   35.790    7.6145
   35.820    7.2986
   35.850    7.4882
   35.880    7.4250
   35.910    7.2459
   35.940    6.9194
   35.970    7.1617
   36.000    7.2880
   36.030    7.1195
   36.060    7.1827
   36.090    7.2143
   36.120    7.1301
   36.150    6.9405
   36.180    6.7720
   36.210    6.8036
   36.240    7.0879
   36.270    7.0248
   36.300    7.1511
   36.330    7.1722
   36.360    7.3828
   36.390    7.1195
   36.420    7.0142
   36.450    7.2565
   36.480    7.3302
   36.510    7.2565
   36.540    7.4566
   36.570    7.0353
   36.600    6.4982
   36.630    7.0774
   36.660    6.8984
   36.690    6.9826
   36.720    6.8457
   36.750    7.0985
   36.780    6.8984
   36.810    6.6561
   36.840    6.8984
   36.870    7.3407
   36.900    6.7825
   36.930    7.0142
   36.960    7.0985
   36.990    7.3618
   37.020    7.4039
   37.050    6.8562
   37.080    6.6877
   37.110    7.1301
   37.140    7.1933
   37.170    6.9826
   37.200    7.1933
   37.230    7.4250
   37.260    6.8036
   37.290    7.2565
   37.320    7.3091
   37.350    6.9721
   37.380    7.1301
   37.410    7.0458
   37.440    6.8668
   37.470    7.3407
   37.500    6.9616
   37.530    7.2565
   37.560    6.7720
   37.590    7.0037
   37.620    6.8141
   37.650    6.6245
   37.680    6.7930
   37.710    7.1827
   37.740    7.1301
   37.770    6.8878
   37.800    7.1722
   37.830    7.4460
   37.860    7.5408
   37.890    6.9405
   37.920    7.0037
   37.950    6.8878
   37.980    6.8141
   38.010    6.8668
   38.040    6.9510
   38.070    6.8036
   38.100    6.6351
   38.130    6.8668
   38.160    6.8668
   38.190    7.1090
   38.220    7.0353
   38.250    7.1827
   38.280    6.7404
   38.310    6.5508
   38.340    6.7404
   38.370    6.6245
   38.400    7.6988
   38.430    6.8984
   38.460    7.3407
   38.490    7.0458
   38.520    6.7930
   38.550    6.9616
   38.580    6.5403
   38.610    6.8036
   38.640    7.0142
   38.670    7.0985
   38.700    6.9826
   38.730    6.9616
   38.760    6.7509
   38.790    7.0248
   38.820    6.7193
   38.850    6.7930
   38.880    7.3512
   38.910    7.1090
   38.940    6.7404
   38.970    6.7930
   39.000    6.5929
   39.030    6.6877
   39.060    7.0353
   39.090    6.7615
   39.120    6.9510
   39.150    7.1090
   39.180    6.6351
   39.210    6.6561
   39.240    6.9721
   39.270    6.6140
   39.300    6.8984
   39.330    7.1195
   39.360    7.0142
   39.390    6.7299
   39.420    6.9826
   39.450    7.4039
   39.480    6.5508
   39.510    6.7615
   39.540    7.1933
   39.570    6.9721
   39.600    6.9932
   39.630    7.0142
   39.660    6.4771
   39.690    7.0248
   39.720    7.0142
   39.750    7.0353
   39.780    7.2143
   39.810    7.1195
   39.840    6.7509
   39.870    6.8352
   39.900    6.7404
   39.930    6.8036
   39.960    7.0669
   39.990    7.0669