File: data/PXRD/PXRD_KE-301_Cu-Ka1_film-3mm_3s-deg.xyd
    1.500   16.2191
    1.530   16.0786
    1.560   15.7627
    1.590   15.3414
    1.620   15.3239
    1.650   14.9201
    1.680   14.7797
    1.710   14.5691
    1.740   14.2356
    1.770   13.8143
    1.800   13.3052
    1.830   13.3052
    1.860   13.1473
    1.890   12.7084
    1.920   12.3925
    1.950   12.4100
    1.980   11.9186
    2.010   12.4100
    2.040   11.6026
    2.070   11.2515
    2.100   11.6553
    2.130   11.6728
    2.160   11.2691
    2.190   11.6026
    2.220   10.8303
    2.250   10.3388
    2.280   11.1813
    2.310   10.1632
    2.340   10.4616
    2.370   10.1983
    2.400    9.6893
    2.430   10.5670
    2.460   10.1106
    2.490   10.4792
    2.520    9.9526
    2.550    9.8824
    2.580    9.8999
    2.610    9.7946
    2.640   10.1808
    2.670    9.5489
    2.700    9.4260
    2.730    9.5840
    2.760    9.6015
    2.790    8.9696
    2.820    8.6888
    2.850    9.7244
    2.880    9.4436
    2.910    9.2154
    2.940    8.6186
    2.970    9.2856
    3.000    9.1452
    3.030    9.1276
    3.060    9.8648
    3.090    9.3207
    3.120   10.2861
    3.150   10.9356
    3.180   10.6723
    3.210   10.7074
    3.240   10.9707
    3.270   11.2866
    3.300   11.9712
    3.330   13.5510
    3.360   13.0420
    3.390   15.5520
    3.420   15.9031
    3.450   17.8339
    3.480   18.9398
    3.510   21.0637
    3.540   24.3813
    3.570   26.0839
    3.600   29.0855
    3.630   32.3328
    3.660   37.3354
    3.690   42.5136
    3.720   51.6763
    3.750   63.2965
    3.780   78.0235
    3.810  103.6686
    3.840  135.2291
    3.870  125.1185
    3.900   78.7081
    3.930   32.6839
    3.960   14.3058
    3.990   10.9356
    4.020    9.8648
    4.050    9.3734
    4.080    8.6888
    4.110    8.7239
    4.140    8.6010
    4.170    8.6712
    4.200    8.0393
    4.230    8.4957
    4.260    8.2675
    4.290    7.4074
    4.320    7.6707
    4.350    7.9516
    4.380    8.3377
    4.410    8.2149
    4.440    7.7409
    4.470    8.0569
    4.500    7.9516
    4.530    7.7234
    4.560    8.3026
    4.590    8.3904
    4.620    8.6712
    4.650    7.8462
    4.680    7.7760
    4.710    7.5829
    4.740    7.9516
    4.770    8.6186
    4.800    7.6356
    4.830    8.1797
    4.860    7.9691
    4.890    8.1973
    4.920    8.7590
    4.950    8.0744
    4.980    9.1803
    5.010    8.1797
    5.040    8.8643
    5.070    8.5308
    5.100    9.5489
    5.130    9.4787
    5.160   10.0228
    5.190   10.3739
    5.220   11.1813
    5.250   11.2515
    5.280   11.9010
    5.310   13.4457
    5.340   14.6042
    5.370   16.4824
    5.400   18.7116
    5.430   23.3281
    5.460   29.7349
    5.490   27.6637
    5.520   21.4499
    5.550   14.0951
    5.580   12.0590
    5.610   10.1281
    5.640    9.9877
    5.670   10.0579
    5.700    9.4436
    5.730    9.3558
    5.760    9.6191
    5.790    9.3207
    5.820    8.8819
    5.850    8.1797
    5.880    8.2149
    5.910    8.3728
    5.940    8.2851
    5.970    8.0042
    6.000    8.3553
    6.030    8.1271
    6.060    8.0744
    6.090    7.9340
    6.120    7.7058
    6.150    7.3021
    6.180    7.8287
    6.210    7.7409
    6.240    7.4952
    6.270    6.7755
    6.300    7.8989
    6.330    7.4074
    6.360    7.1792
    6.390    7.1441
    6.420    7.2845
    6.450    7.1968
    6.480    7.5303
    6.510    6.7930
    6.540    7.5303
    6.570    7.1792
    6.600    8.0042
    6.630    8.0042
    6.660    8.6537
    6.690    9.9526
    6.720    9.8824
    6.750    9.1978
    6.780    8.7941
    6.810    7.2143
    6.840    6.5298
    6.870    6.6000
    6.900    7.0388
    6.930    6.3542
    6.960    6.2313
    6.990    6.5649
    7.020    6.4595
    7.050    6.4595
    7.080    5.9505
    7.110    5.9856
    7.140    6.2489
    7.170    6.6702
    7.200    6.3016
    7.230    5.6697
    7.260    5.9329
    7.290    5.8452
    7.320    6.3542
    7.350    5.8452
    7.380    5.8452
    7.410    5.8276
    7.440    6.2313
    7.470    6.0032
    7.500    6.0032
    7.530    6.8984
    7.560    6.3367
    7.590    6.3718
    7.620    6.8106
    7.650    7.1266
    7.680    7.6356
    7.710    8.8643
    7.740    9.8824
    7.770   11.6904
    7.800    9.7069
    7.830    7.7234
    7.860    6.2665
    7.890    5.1606
    7.920    5.2308
    7.950    5.5468
    7.980    5.3361
    8.010    5.3361
    8.040    5.1431
    8.070    5.2133
    8.100    5.3186
    8.130    5.3712
    8.160    5.2835
    8.190    5.1782
    8.220    4.9324
    8.250    5.4415
    8.280    5.1080
    8.310    5.5468
    8.340    5.3888
    8.370    5.8978
    8.400    5.2484
    8.430    5.0904
    8.460    5.1431
    8.490    5.3361
    8.520    5.0377
    8.550    4.8798
    8.580    5.3361
    8.610    6.1436
    8.640    4.9851
    8.670    5.6872
    8.700    5.6170
    8.730    5.8627
    8.760    4.6516
    8.790    5.0904
    8.820    5.2308
    8.850    5.0904
    8.880    4.7042
    8.910    5.0728
    8.940    5.0026
    8.970    5.0904
    9.000    4.8271
    9.030    4.7920
    9.060    4.7393
    9.090    4.6516
    9.120    5.0728
    9.150    4.6516
    9.180    5.3186
    9.210    4.8622
    9.240    5.0904
    9.270    5.2133
    9.300    5.0377
    9.330    5.1957
    9.360    5.8978
    9.390    6.0558
    9.420    7.2319
    9.450    8.0218
    9.480   10.2335
    9.510   14.1302
    9.540   15.5520
    9.570   12.7435
    9.600    8.8117
    9.630    5.4941
    9.660    5.1606
    9.690    5.5994
    9.720    4.8973
    9.750    5.0553
    9.780    4.9149
    9.810    4.8271
    9.840    4.4936
    9.870    4.8622
    9.900    4.3883
    9.930    5.2133
    9.960    4.8447
    9.990    4.7393
   10.020    4.7393
   10.050    5.0728
   10.080    5.1080
   10.110    5.2133
   10.140    5.4766
   10.170    5.4766
   10.200    5.6697
   10.230    5.8276
   10.260    7.1090
   10.290    8.1797
   10.320    7.5654
   10.350    6.8808
   10.380    5.7750
   10.410    4.8973
   10.440    4.8271
   10.470    4.8095
   10.500    5.1957
   10.530    4.8798
   10.560    5.2133
   10.590    5.1255
   10.620    5.0553
   10.650    5.0377
   10.680    5.3010
   10.710    4.9500
   10.740    4.7920
   10.770    5.4239
   10.800    4.9324
   10.830    4.8095
   10.860    5.1606
   10.890    5.4415
   10.920    5.8803
   10.950    5.8452
   10.980    6.6702
   11.010    8.0569
   11.040    7.8638
   11.070    6.8808
   11.100    5.9681
   11.130    5.6170
   11.160    5.6697
   11.190    5.4590
   11.220    5.2133
   11.250    5.6170
   11.280    5.0026
   11.310    5.3537
   11.340    4.7042
   11.370    5.6170
   11.400    4.9851
   11.430    5.1431
   11.460    4.6340
   11.490    5.1431
   11.520    5.0553
   11.550    5.1782
   11.580    5.8627
   11.610    6.0383
   11.640    6.4069
   11.670    7.7409
   11.700    7.9340
   11.730    7.8111
   11.760    6.4244
   11.790    5.3010
   11.820    4.8447
   11.850    4.7569
   11.880    4.8095
   11.910    4.7744
   11.940    4.9675
   11.970    5.2484
   12.000    5.0026
   12.030    5.1431
   12.060    4.8798
   12.090    5.1255
   12.120    4.9149
   12.150    4.8622
   12.180    4.8798
   12.210    4.7042
   12.240    5.1431
   12.270    5.1080
   12.300    5.3712
   12.330    6.2138
   12.360    4.9500
   12.390    5.2133
   12.420    4.9500
   12.450    4.8622
   12.480    4.7920
   12.510    4.8622
   12.540    4.5989
   12.570    4.5111
   12.600    4.6516
   12.630    4.0723
   12.660    4.2303
   12.690    4.8622
   12.720    4.2654
   12.750    4.6691
   12.780    4.7569
   12.810    4.9675
   12.840    4.8798
   12.870    5.2659
   12.900    6.5649
   12.930    7.1792
   12.960    7.2670
   12.990    6.1085
   13.020    5.1255
   13.050    4.9675
   13.080    4.3883
   13.110    4.7744
   13.140    4.7042
   13.170    4.8095
   13.200    4.5287
   13.230    4.7744
   13.260    4.6691
   13.290    4.7744
   13.320    4.6165
   13.350    4.7218
   13.380    4.9149
   13.410    4.8271
   13.440    4.8798
   13.470    5.2835
   13.500    6.1436
   13.530    6.2313
   13.560    6.6351
   13.590    5.1255
   13.620    4.5287
   13.650    4.7920
   13.680    4.4234
   13.710    4.4234
   13.740    4.3356
   13.770    4.7569
   13.800    4.5111
   13.830    4.8271
   13.860    4.8798
   13.890    4.9500
   13.920    4.7569
   13.950    5.0904
   13.980    5.1080
   14.010    5.6872
   14.040    5.8452
   14.070    6.8106
   14.100    7.3547
   14.130    5.9856
   14.160    5.0728
   14.190    5.0377
   14.220    4.7744
   14.250    5.1957
   14.280    4.6340
   14.310    5.0026
   14.340    4.9149
   14.370    5.5292
   14.400    5.0026
   14.430    5.2484
   14.460    5.0553
   14.490    4.7920
   14.520    5.1957
   14.550    4.8622
   14.580    4.6691
   14.610    5.1782
   14.640    5.1606
   14.670    5.2133
   14.700    5.1431
   14.730    4.7744
   14.760    4.4058
   14.790    4.8798
   14.820    5.2133
   14.850    4.9149
   14.880    4.6516
   14.910    4.6516
   14.940    4.5989
   14.970    4.7569
   15.000    5.4064
   15.030    4.5111
   15.060    4.9324
   15.090    5.1606
   15.120    5.1080
   15.150    5.0202
   15.180    5.1782
   15.210    4.4234
   15.240    4.9324
   15.270    4.6516
   15.300    3.9846
   15.330    4.4234
   15.360    4.1601
   15.390    4.8973
   15.420    4.6165
   15.450    4.5814
   15.480    4.1776
   15.510    4.6867
   15.540    4.3883
   15.570    4.4936
   15.600    4.4936
   15.630    4.4585
   15.660    5.0904
   15.690    4.6165
   15.720    4.2303
   15.750    4.9149
   15.780    4.5814
   15.810    5.0553
   15.840    4.2478
   15.870    4.4058
   15.900    4.3181
   15.930    4.9500
   15.960    5.3010
   15.990    4.7042
   16.020    4.9149
   16.050    4.7569
   16.080    4.9675
   16.110    4.9675
   16.140    5.3361
   16.170    5.0377
   16.200    4.5287
   16.230    5.1080
   16.260    4.7042
   16.290    4.2830
   16.320    4.5989
   16.350    4.7920
   16.380    4.7569
   16.410    4.6340
   16.440    4.4760
   16.470    4.6691
   16.500    4.5287
   16.530    4.7920
   16.560    4.5638
   16.590    5.5292
   16.620    5.1255
   16.650    4.6165
   16.680    4.7744
   16.710    4.1425
   16.740    4.5287
   16.770    4.5111
   16.800    5.0728
   16.830    5.0026
   16.860    4.3707
   16.890    4.2654
   16.920    4.7920
   16.950    4.6867
   16.980    5.2835
   17.010    5.2659
   17.040    6.2489
   17.070    6.1085
   17.100    6.1962
   17.130    4.8973
   17.160    4.3005
   17.190    4.4936
   17.220    5.0377
   17.250    4.3532
   17.280    4.2478
   17.310    5.1431
   17.340    4.0899
   17.370    4.4585
   17.400    4.7218
   17.430    4.4760
   17.460    4.5287
   17.490    4.8622
   17.520    5.0026
   17.550    4.7042
   17.580    4.4760
   17.610    4.8798
   17.640    4.5463
   17.670    4.4058
   17.700    4.4760
   17.730    4.5111
   17.760    4.3532
   17.790    4.4936
   17.820    4.1601
   17.850    4.3181
   17.880    4.6516
   17.910    4.7569
   17.940    4.7393
   17.970    5.1431
   18.000    4.5814
   18.030    4.4585
   18.060    4.0899
   18.090    4.5111
   18.120    4.6340
   18.150    4.5111
   18.180    4.4585
   18.210    4.9149
   18.240    4.2830
   18.270    4.2478
   18.300    4.8973
   18.330    4.9851
   18.360    4.6691
   18.390    5.2133
   18.420    4.5463
   18.450    4.5638
   18.480    4.4409
   18.510    4.1425
   18.540    4.7393
   18.570    4.4760
   18.600    4.5638
   18.630    4.8095
   18.660    4.3181
   18.690    4.5111
   18.720    4.0021
   18.750    4.1601
   18.780    4.5989
   18.810    4.4585
   18.840    4.1250
   18.870    4.5989
   18.900    4.3707
   18.930    4.2478
   18.960    4.5989
   18.990    4.7042
   19.020    4.4936
   19.050    4.3532
   19.080    4.4760
   19.110    4.2303
   19.140    4.0723
   19.170    4.3532
   19.200    4.7920
   19.230    4.1074
   19.260    4.2478
   19.290    4.0723
   19.320    4.0372
   19.350    4.5287
   19.380    4.3707
   19.410    3.8617
   19.440    4.0723
   19.470    4.0021
   19.500    4.2127
   19.530    4.3532
   19.560    4.7920
   19.590    5.3361
   19.620    5.1957
   19.650    4.3181
   19.680    3.9846
   19.710    4.5638
   19.740    4.2478
   19.770    4.2830
   19.800    4.1952
   19.830    4.4234
   19.860    4.2478
   19.890    4.1601
   19.920    4.7042
   19.950    4.1601
   19.980    4.5638
   20.010    4.2478
   20.040    4.1601
   20.070    4.0021
   20.100    3.8441
   20.130    4.3356
   20.160    4.4409
   20.190    4.3005
   20.220    4.1776
   20.250    4.3883
   20.280    4.2127
   20.310    4.3707
   20.340    5.4064
   20.370    6.0558
   20.400    6.1260
   20.430    5.0377
   20.460    4.3532
   20.490    4.1074
   20.520    3.7564
   20.550    4.1776
   20.580    4.1074
   20.610    3.7739
   20.640    4.2830
   20.670    3.8968
   20.700    3.9143
   20.730    4.0021
   20.760    4.2303
   20.790    3.7564
   20.820    4.5287
   20.850    4.2478
   20.880    3.8617
   20.910    3.9143
   20.940    4.0372
   20.970    3.9143
   21.000    3.7213
   21.030    4.3181
   21.060    4.1952
   21.090    3.7739
   21.120    3.8266
   21.150    3.8266
   21.180    3.8090
   21.210    3.9670
   21.240    4.1601
   21.270    4.1250
   21.300    4.4234
   21.330    4.4234
   21.360    4.2654
   21.390    4.2478
   21.420    4.0899
   21.450    4.2303
   21.480    4.2127
   21.510    4.1601
   21.540    4.0723
   21.570    3.5457
   21.600    3.6686
   21.630    3.7388
   21.660    3.9670
   21.690    4.1074
   21.720    3.8441
   21.750    4.1601
   21.780    4.0021
   21.810    4.3181
   21.840    4.7569
   21.870    4.5463
   21.900    4.4234
   21.930    4.2830
   21.960    4.2654
   21.990    4.0899
   22.020    3.8968
   22.050    4.1776
   22.080    4.0021
   22.110    4.1074
   22.140    3.4931
   22.170    4.3181
   22.200    4.3707
   22.230    4.5111
   22.260    4.3883
   22.290    3.8090
   22.320    4.0197
   22.350    3.8441
   22.380    3.9319
   22.410    3.6686
   22.440    3.8792
   22.470    4.1776
   22.500    4.4585
   22.530    5.3712
   22.560    5.7574
   22.590    5.4590
   22.620    4.7920
   22.650    4.1425
   22.680    4.0372
   22.710    4.2127
   22.740    3.8441
   22.770    4.5463
   22.800    3.9494
   22.830    3.9670
   22.860    4.5638
   22.890    5.5819
   22.920    5.5117
   22.950    5.0202
   22.980    4.7393
   23.010    3.7564
   23.040    4.1250
   23.070    3.9670
   23.100    4.0021
   23.130    3.7564
   23.160    3.8617
   23.190    3.8792
   23.220    4.1250
   23.250    4.2654
   23.280    3.9143
   23.310    3.6335
   23.340    3.4229
   23.370    3.8792
   23.400    3.6335
   23.430    3.3351
   23.460    3.7564
   23.490    4.0899
   23.520    3.8968
   23.550    4.0372
   23.580    4.0899
   23.610    3.8441
   23.640    3.7739
   23.670    3.3175
   23.700    3.7213
   23.730    3.1771
   23.760    3.4931
   23.790    3.6159
   23.820    3.5457
   23.850    3.4931
   23.880    3.7564
   23.910    3.9319
   23.940    4.3005
   23.970    4.3181
   24.000    3.4580
   24.030    3.5808
   24.060    3.3877
   24.090    3.7388
   24.120    3.5457
   24.150    3.6335
   24.180    3.7564
   24.210    3.7037
   24.240    3.3351
   24.270    3.6335
   24.300    3.1245
   24.330    3.1947
   24.360    3.7564
   24.390    3.7388
   24.420    3.8090
   24.450    3.2649
   24.480    3.0191
   24.510    3.5457
   24.540    3.5457
   24.570    3.7564
   24.600    3.9319
   24.630    3.1771
   24.660    3.7564
   24.690    3.0893
   24.720    3.5808
   24.750    3.6510
   24.780    3.6159
   24.810    3.3702
   24.840    3.9670
   24.870    3.6686
   24.900    3.6510
   24.930    3.5633
   24.960    3.5808
   24.990    3.2649
   25.020    3.2473
   25.050    3.4580
   25.080    3.2649
   25.110    2.9840
   25.140    3.8968
   25.170    3.8090
   25.200    3.4580
   25.230    3.5106
   25.260    3.7213
   25.290    3.9494
   25.320    3.3351
   25.350    3.5808
   25.380    3.5282
   25.410    3.4053
   25.440    3.6510
   25.470    4.2127
   25.500    3.7564
   25.530    4.0372
   25.560    3.3702
   25.590    3.5633
   25.620    3.6862
   25.650    3.6510
   25.680    3.3175
   25.710    3.6335
   25.740    3.5633
   25.770    4.1776
   25.800    4.5287
   25.830    4.8622
   25.860    4.3181
   25.890    3.9846
   25.920    3.4931
   25.950    3.7037
   25.980    3.5457
   26.010    3.5457
   26.040    3.3702
   26.070    3.5633
   26.100    3.4755
   26.130    3.5106
   26.160    3.6862
   26.190    3.5106
   26.220    3.1420
   26.250    3.3175
   26.280    3.3000
   26.310    3.5808
   26.340    3.5457
   26.370    3.4404
   26.400    4.0021
   26.430    3.4229
   26.460    3.6686
   26.490    3.4229
   26.520    3.3000
   26.550    3.4931
   26.580    3.4053
   26.610    3.5106
   26.640    3.0893
   26.670    3.2649
   26.700    3.1245
   26.730    3.3526
   26.760    3.3702
   26.790    3.3000
   26.820    3.5282
   26.850    3.0718
   26.880    3.1420
   26.910    3.4404
   26.940    3.5282
   26.970    3.2473
   27.000    3.8266
   27.030    4.0548
   27.060    3.7739
   27.090    3.2122
   27.120    3.0016
   27.150    3.1245
   27.180    3.1771
   27.210    3.1069
   27.240    3.0191
   27.270    3.3526
   27.300    2.8436
   27.330    3.2122
   27.360    3.0367
   27.390    2.9489
   27.420    3.0893
   27.450    3.2298
   27.480    3.3877
   27.510    2.8260
   27.540    3.2473
   27.570    3.8266
   27.600    3.6862
   27.630    3.5106
   27.660    3.0893
   27.690    3.1420
   27.720    3.1947
   27.750    3.0367
   27.780    3.2473
   27.810    2.8436
   27.840    3.2473
   27.870    3.5633
   27.900    3.3000
   27.930    3.2473
   27.960    3.0718
   27.990    3.0893
   28.020    3.0016
   28.050    2.5276
   28.080    2.9665
   28.110    3.2122
   28.140    3.3877
   28.170    3.5457
   28.200    3.8968
   28.230    3.3351
   28.260    2.9489
   28.290    2.7734
   28.320    2.9314
   28.350    2.8612
   28.380    3.2473
   28.410    2.8963
   28.440    3.1947
   28.470    3.5808
   28.500    3.3526
   28.530    3.1245
   28.560    2.6154
   28.590    2.8963
   28.620    3.2473
   28.650    3.4053
   28.680    3.0542
   28.710    3.0016
   28.740    3.0016
   28.770    3.1771
   28.800    3.3175
   28.830    3.0367
   28.860    2.9840
   28.890    2.7032
   28.920    3.2473
   28.950    3.0367
   28.980    3.1596
   29.010    3.2649
   29.040    3.6510
   29.070    3.1947
   29.100    3.3526
   29.130    3.0191
   29.160    3.3526
   29.190    3.4404
   29.220    3.2122
   29.250    3.1596
   29.280    3.4755
   29.310    3.3351
   29.340    3.1771
   29.370    2.6856
   29.400    2.8436
   29.430    2.9138
   29.460    2.9840
   29.490    2.8963
   29.520    2.5803
   29.550    2.6154
   29.580    2.5803
   29.610    2.6505
   29.640    2.5276
   29.670    2.8260
   29.700    2.9489
   29.730    2.7207
   29.760    2.8085
   29.790    2.9314
   29.820    2.9314
   29.850    3.3175
   29.880    2.7909
   29.910    2.9138
   29.940    2.7383
   29.970    2.9314
   30.000    2.8436
   30.030    2.9665
   30.060    2.8436
   30.090    2.8085
   30.120    2.5979
   30.150    2.9840
   30.180    2.7032
   30.210    2.9665
   30.240    2.6856
   30.270    2.6856
   30.300    2.8436
   30.330    2.2995
   30.360    3.1947
   30.390    2.7207
   30.420    2.7909
   30.450    2.7032
   30.480    2.7558
   30.510    3.0367
   30.540    2.7032
   30.570    2.5101
   30.600    2.7909
   30.630    2.7383
   30.660    2.5803
   30.690    2.6505
   30.720    2.5276
   30.750    2.8787
   30.780    2.3521
   30.810    2.8260
   30.840    2.6505
   30.870    2.7734
   30.900    2.5628
   30.930    2.4925
   30.960    2.6681
   30.990    2.3872
   31.020    2.4399
   31.050    2.4750
   31.080    2.7383
   31.110    2.5803
   31.140    2.9489
   31.170    2.6154
   31.200    2.5803
   31.230    2.2117
   31.260    2.7734
   31.290    2.4925
   31.320    2.7734
   31.350    2.7207
   31.380    2.6856
   31.410    2.9665
   31.440    3.1947
   31.470    2.6330
   31.500    2.8260
   31.530    2.4925
   31.560    2.7207
   31.590    2.4925
   31.620    2.5276
   31.650    2.6505
   31.680    2.7032
   31.710    2.9489
   31.740    3.0191
   31.770    3.3000
   31.800    3.0718
   31.830    3.3702
   31.860    2.8612
   31.890    2.6330
   31.920    2.6856
   31.950    2.2468
   31.980    2.5452
   32.010    2.7207
   32.040    2.5101
   32.070    2.4399
   32.100    2.5979
   32.130    2.7383
   32.160    2.6330
   32.190    2.6154
   32.220    2.3170
   32.250    2.5803
   32.280    2.0186
   32.310    2.5803
   32.340    2.6856
   32.370    2.2292
   32.400    2.6154
   32.430    2.5101
   32.460    2.6505
   32.490    2.3872
   32.520    2.3872
   32.550    2.6505
   32.580    2.5628
   32.610    2.2117
   32.640    2.6330
   32.670    2.2995
   32.700    2.6505
   32.730    2.8436
   32.760    2.2292
   32.790    2.5979
   32.820    2.6856
   32.850    2.5101
   32.880    2.4925
   32.910    2.8787
   32.940    2.5452
   32.970    2.2995
   33.000    2.7032
   33.030    2.4574
   33.060    2.4399
   33.090    2.3872
   33.120    2.4223
   33.150    2.2819
   33.180    2.3521
   33.210    2.4925
   33.240    2.5628
   33.270    2.3170
   33.300    2.1590
   33.330    2.2292
   33.360    2.1590
   33.390    2.3872
   33.420    2.2292
   33.450    2.4925
   33.480    2.3346
   33.510    2.4048
   33.540    2.3346
   33.570    2.4048
   33.600    2.5628
   33.630    2.4399
   33.660    2.5276
   33.690    2.4574
   33.720    2.3170
   33.750    2.4399
   33.780    2.2819
   33.810    2.4750
   33.840    3.1596
   33.870    2.7032
   33.900    2.7734
   33.930    2.6154
   33.960    2.6681
   33.990    2.5276
   34.020    2.5803
   34.050    2.5628
   34.080    2.3346
   34.110    2.4048
   34.140    2.4750
   34.170    2.2995
   34.200    2.4925
   34.230    2.2995
   34.260    2.2995
   34.290    2.4925
   34.320    2.3346
   34.350    2.3521
   34.380    2.5101
   34.410    2.0888
   34.440    2.2643
   34.470    2.4750
   34.500    1.9835
   34.530    2.4223
   34.560    2.3521
   34.590    2.4574
   34.620    2.4223
   34.650    2.4048
   34.680    2.2995
   34.710    2.0362
   34.740    2.0713
   34.770    2.3872
   34.800    2.5452
   34.830    2.3170
   34.860    2.2643
   34.890    2.3170
   34.920    2.0186
   34.950    2.4925
   34.980    1.8431
   35.010    2.1941
   35.040    2.1766
   35.070    2.5276
   35.100    1.9308
   35.130    2.2468
   35.160    1.9659
   35.190    2.5101
   35.220    2.7383
   35.250    2.4925
   35.280    2.1590
   35.310    2.1941
   35.340    2.3697
   35.370    2.3521
   35.400    2.3697
   35.430    2.1239
   35.460    2.3521
   35.490    2.0713
   35.520    2.0186
   35.550    2.1239
   35.580    2.2468
   35.610    2.0713
   35.640    2.1941
   35.670    2.1941
   35.700    2.3872
   35.730    2.2292
   35.760    2.6330
   35.790    2.1590
   35.820    1.8782
   35.850    2.0362
   35.880    2.0011
   35.910    2.4223
   35.940    2.2643
   35.970    2.1064
   36.000    2.1239
   36.030    2.1590
   36.060    2.2117
   36.090    2.3872
   36.120    2.4048
   36.150    2.4574
   36.180    2.4750
   36.210    2.4399
   36.240    2.3697
   36.270    2.2117
   36.300    2.1941
   36.330    2.2819
   36.360    2.2643
   36.390    2.0713
   36.420    2.4750
   36.450    2.3872
   36.480    2.2995
   36.510    2.2117
   36.540    2.2819
   36.570    2.3521
   36.600    2.1239
   36.630    2.1415
   36.660    2.4223
   36.690    2.3346
   36.720    2.2117
   36.750    2.2468
   36.780    1.9835
   36.810    2.4925
   36.840    2.1415
   36.870    2.3697
   36.900    1.9659
   36.930    2.1590
   36.960    2.0537
   36.990    2.4750
   37.020    2.4223
   37.050    2.2468
   37.080    2.5803
   37.110    2.4399
   37.140    2.3346
   37.170    2.1239
   37.200    2.0713
   37.230    1.9659
   37.260    2.1941
   37.290    2.1064
   37.320    2.3697
   37.350    2.2643
   37.380    2.2643
   37.410    2.2292
   37.440    2.0537
   37.470    2.0186
   37.500    2.2995
   37.530    2.2819
   37.560    2.6154
   37.590    2.0888
   37.620    2.2117
   37.650    2.3521
   37.680    2.0888
   37.710    2.5101
   37.740    2.3697
   37.770    2.7207
   37.800    2.1941
   37.830    2.2819
   37.860    2.0888
   37.890    2.3170
   37.920    2.0362
   37.950    2.5803
   37.980    2.4574
   38.010    2.4399
   38.040    2.3872
   38.070    2.3521
   38.100    2.1941
   38.130    2.0011
   38.160    2.0537
   38.190    2.4574
   38.220    2.2292
   38.250    2.3521
   38.280    2.3170
   38.310    2.1766
   38.340    2.0713
   38.370    2.2292
   38.400    2.3346
   38.430    1.8255
   38.460    2.0186
   38.490    2.0888
   38.520    2.0888
   38.550    2.0713
   38.580    2.1415
   38.610    2.1064
   38.640    2.2643
   38.670    2.2117
   38.700    1.9133
   38.730    2.1239
   38.760    2.0186
   38.790    2.0888
   38.820    2.4048
   38.850    2.1415
   38.880    2.0537
   38.910    1.9308
   38.940    2.0713
   38.970    2.0713
   39.000    1.8957
   39.030    2.1415
   39.060    2.0537
   39.090    2.1415
   39.120    2.1590
   39.150    2.2643
   39.180    2.1239
   39.210    2.2643
   39.240    2.1590
   39.270    2.0362
   39.300    2.0186
   39.330    2.3170
   39.360    2.1590
   39.390    2.0537
   39.420    2.2995
   39.450    2.1941
   39.480    2.1590
   39.510    2.2117
   39.540    2.1415
   39.570    1.8957
   39.600    2.1239
   39.630    2.0186
   39.660    2.2117
   39.690    2.1766
   39.720    2.0537
   39.750    2.1239
   39.780    2.0186
   39.810    1.9484
   39.840    2.1239
   39.870    2.1064
   39.900    2.0537
   39.930    1.7553
   39.960    2.1064
   39.990    1.9133