File: data/PXRD/PXRD_KE-266_Cu-Ka1_film-3mm_3s-deg.xyd
    1.500   11.9361
    1.530   12.2170
    1.560   12.4100
    1.590   11.3217
    1.620   11.2866
    1.650   11.7606
    1.680   10.9531
    1.710   11.0585
    1.740   11.2691
    1.770   11.0409
    1.800   10.7074
    1.830   10.6021
    1.860   10.0755
    1.890   10.8478
    1.920   10.1808
    1.950    9.5840
    1.980    9.8473
    2.010    9.5840
    2.040    9.8473
    2.070    9.0223
    2.100    9.4085
    2.130    9.4260
    2.160    9.3558
    2.190    9.3207
    2.220    9.0398
    2.250    9.2154
    2.280    8.9521
    2.310    8.9521
    2.340    8.7239
    2.370    8.8994
    2.400    9.0574
    2.430    8.6361
    2.460    8.3728
    2.490    8.6010
    2.520    8.1446
    2.550    7.8813
    2.580    8.4430
    2.610    8.1271
    2.640    8.6712
    2.670    8.0744
    2.700    7.6180
    2.730    8.5659
    2.760    8.0744
    2.790    8.3026
    2.820    8.6010
    2.850    8.1271
    2.880    7.8638
    2.910    8.0218
    2.940    8.1446
    2.970    7.5127
    3.000    7.9516
    3.030    7.8638
    3.060    8.0569
    3.090    8.1271
    3.120    8.1797
    3.150    7.7409
    3.180    8.0218
    3.210    8.5308
    3.240    7.7409
    3.270    7.5829
    3.300    7.7936
    3.330    7.8462
    3.360    8.3553
    3.390    8.3026
    3.420    8.4781
    3.450    8.3377
    3.480    8.4781
    3.510    8.8819
    3.540    8.5835
    3.570    8.6010
    3.600    8.1622
    3.630    8.8819
    3.660    8.9872
    3.690    8.6186
    3.720    8.3904
    3.750    9.3734
    3.780    9.9351
    3.810   10.4441
    3.840   11.1638
    3.870   11.1989
    3.900   10.1457
    3.930    8.7590
    3.960    8.4957
    3.990    7.9340
    4.020    8.4781
    4.050    7.8813
    4.080    8.3553
    4.110    8.2149
    4.140    7.8111
    4.170    7.8813
    4.200    8.3377
    4.230    7.8638
    4.260    8.1797
    4.290    7.8989
    4.320    7.7058
    4.350    8.1095
    4.380    8.2324
    4.410    7.7058
    4.440    7.8111
    4.470    7.9164
    4.500    7.8638
    4.530    7.9164
    4.560    7.9164
    4.590    8.1797
    4.620    8.1622
    4.650    8.0218
    4.680    8.4255
    4.710    8.7239
    4.740    8.1271
    4.770    7.9164
    4.800    8.6186
    4.830    8.0920
    4.860    8.5835
    4.890    8.8117
    4.920    8.1271
    4.950    8.7941
    4.980    8.9345
    5.010    8.7590
    5.040    8.9872
    5.070    8.8292
    5.100    8.9345
    5.130    9.2856
    5.160    9.1101
    5.190    9.3558
    5.220    9.6893
    5.250   10.2159
    5.280    9.6542
    5.310   10.7249
    5.340   11.0936
    5.370   10.9531
    5.400   10.7074
    5.430   10.8829
    5.460   12.1643
    5.490   11.7606
    5.520   11.4973
    5.550   10.9882
    5.580   10.6196
    5.610   11.2164
    5.640   10.4441
    5.670   10.6898
    5.700   10.5845
    5.730   10.1106
    5.760   10.4616
    5.790   10.0755
    5.820    9.8824
    5.850    9.2505
    5.880    9.2329
    5.910    8.5659
    5.940    9.5664
    5.970    9.0223
    6.000    9.3382
    6.030    8.3377
    6.060    8.5133
    6.090    8.2500
    6.120    8.4430
    6.150    7.9164
    6.180    8.1973
    6.210    8.4079
    6.240    7.8462
    6.270    7.6005
    6.300    7.5829
    6.330    7.9164
    6.360    7.8989
    6.390    7.9691
    6.420    8.0569
    6.450    7.8638
    6.480    7.5478
    6.510    7.6005
    6.540    7.8989
    6.570    7.8462
    6.600    7.6883
    6.630    7.4250
    6.660    8.0569
    6.690    7.6707
    6.720    7.2143
    6.750    7.9340
    6.780    7.5654
    6.810    7.1968
    6.840    7.2319
    6.870    7.1617
    6.900    6.7053
    6.930    7.0388
    6.960    6.7579
    6.990    7.2845
    7.020    6.4244
    7.050    6.6351
    7.080    6.7579
    7.110    6.5122
    7.140    6.4946
    7.170    6.5473
    7.200    6.5473
    7.230    6.5649
    7.260    6.2665
    7.290    6.2313
    7.320    5.7223
    7.350    6.4771
    7.380    6.7579
    7.410    6.5649
    7.440    6.3016
    7.470    6.0383
    7.500    6.0558
    7.530    6.2313
    7.560    6.0558
    7.590    5.9329
    7.620    6.0032
    7.650    6.1962
    7.680    6.0383
    7.710    6.4420
    7.740    6.5473
    7.770    6.6175
    7.800    6.4946
    7.830    5.8803
    7.860    5.7925
    7.890    6.0207
    7.920    5.4941
    7.950    5.8978
    7.980    5.7574
    8.010    5.8101
    8.040    5.8452
    8.070    5.3361
    8.100    5.3537
    8.130    5.4941
    8.160    5.5468
    8.190    5.8627
    8.220    5.3888
    8.250    5.4239
    8.280    5.5292
    8.310    5.7574
    8.340    5.0026
    8.370    5.1957
    8.400    5.5994
    8.430    5.2484
    8.460    5.3537
    8.490    5.5819
    8.520    5.3888
    8.550    5.5994
    8.580    5.3712
    8.610    5.3186
    8.640    5.3010
    8.670    5.6521
    8.700    5.1782
    8.730    4.6516
    8.760    4.9149
    8.790    5.6170
    8.820    5.4941
    8.850    4.9324
    8.880    5.5292
    8.910    5.3537
    8.940    5.0904
    8.970    5.0202
    9.000    4.9324
    9.030    5.4239
    9.060    5.2133
    9.090    5.0728
    9.120    5.1782
    9.150    5.3537
    9.180    5.4239
    9.210    5.5468
    9.240    5.4239
    9.270    5.0904
    9.300    5.0553
    9.330    4.7569
    9.360    5.0728
    9.390    5.3888
    9.420    5.0202
    9.450    5.4415
    9.480    5.0728
    9.510    5.9154
    9.540    6.1436
    9.570    5.7399
    9.600    5.5292
    9.630    5.0377
    9.660    5.4239
    9.690    5.1606
    9.720    5.0904
    9.750    5.7048
    9.780    4.8973
    9.810    5.0904
    9.840    5.0728
    9.870    5.7223
    9.900    5.2133
    9.930    4.7744
    9.960    5.2308
    9.990    5.3712
   10.020    5.0202
   10.050    4.9851
   10.080    4.9324
   10.110    5.3888
   10.140    5.4590
   10.170    5.6170
   10.200    5.2835
   10.230    5.6697
   10.260    5.8101
   10.290    6.4244
   10.320    6.1260
   10.350    5.9856
   10.380    5.4766
   10.410    5.3361
   10.440    5.6345
   10.470    5.3361
   10.500    4.8973
   10.530    5.6697
   10.560    5.4590
   10.590    5.3010
   10.620    5.6170
   10.650    5.2659
   10.680    5.4590
   10.710    5.5468
   10.740    5.4064
   10.770    5.2308
   10.800    5.3888
   10.830    5.5292
   10.860    5.7399
   10.890    5.5292
   10.920    5.5643
   10.950    5.5994
   10.980    6.1260
   11.010    5.3537
   11.040    6.3367
   11.070    6.4420
   11.100    5.8803
   11.130    5.5819
   11.160    5.4415
   11.190    5.1431
   11.220    5.3537
   11.250    5.3361
   11.280    5.4590
   11.310    5.4064
   11.340    5.4766
   11.370    5.5643
   11.400    5.5117
   11.430    5.2133
   11.460    5.4415
   11.490    5.2308
   11.520    5.7399
   11.550    5.0553
   11.580    5.3186
   11.610    5.2308
   11.640    5.1255
   11.670    5.5292
   11.700    6.2489
   11.730    6.1611
   11.760    5.3537
   11.790    5.4064
   11.820    5.1782
   11.850    5.2659
   11.880    5.1255
   11.910    5.5117
   11.940    5.6345
   11.970    5.1255
   12.000    5.3361
   12.030    4.7042
   12.060    5.8101
   12.090    5.3186
   12.120    5.4239
   12.150    5.0728
   12.180    5.5117
   12.210    5.0553
   12.240    4.8798
   12.270    5.6521
   12.300    5.1782
   12.330    5.2133
   12.360    5.0728
   12.390    4.9675
   12.420    4.9851
   12.450    5.4941
   12.480    4.4936
   12.510    4.8447
   12.540    5.0904
   12.570    4.7744
   12.600    4.8095
   12.630    5.0202
   12.660    4.9851
   12.690    5.5468
   12.720    5.0904
   12.750    5.3010
   12.780    5.0728
   12.810    5.0904
   12.840    4.8622
   12.870    5.4415
   12.900    5.3712
   12.930    5.3010
   12.960    5.3186
   12.990    5.5292
   13.020    4.8095
   13.050    5.1431
   13.080    4.4585
   13.110    5.1255
   13.140    4.6867
   13.170    5.1080
   13.200    4.8973
   13.230    4.5287
   13.260    5.4064
   13.290    5.0728
   13.320    4.8973
   13.350    5.4239
   13.380    4.8622
   13.410    5.0553
   13.440    5.1431
   13.470    5.3186
   13.500    4.9851
   13.530    5.0377
   13.560    4.8447
   13.590    5.4239
   13.620    4.6691
   13.650    5.2133
   13.680    4.8095
   13.710    5.0904
   13.740    5.0904
   13.770    5.0026
   13.800    4.9851
   13.830    5.2835
   13.860    5.1080
   13.890    4.9851
   13.920    4.9851
   13.950    5.3537
   13.980    5.1957
   14.010    5.1080
   14.040    5.4766
   14.070    5.4941
   14.100    5.6521
   14.130    5.6170
   14.160    5.2308
   14.190    5.3361
   14.220    4.7920
   14.250    5.1080
   14.280    5.0553
   14.310    5.1606
   14.340    5.1606
   14.370    5.4064
   14.400    5.7223
   14.430    5.2484
   14.460    5.1606
   14.490    5.0026
   14.520    5.3888
   14.550    5.4941
   14.580    5.3361
   14.610    5.2308
   14.640    5.4766
   14.670    5.4239
   14.700    4.8095
   14.730    5.3010
   14.760    5.1255
   14.790    5.1255
   14.820    4.8798
   14.850    5.1782
   14.880    4.6165
   14.910    5.3361
   14.940    5.1957
   14.970    5.3186
   15.000    5.3712
   15.030    5.1431
   15.060    5.2659
   15.090    5.1957
   15.120    4.8271
   15.150    4.9149
   15.180    4.8447
   15.210    5.1606
   15.240    5.0904
   15.270    4.8973
   15.300    4.5989
   15.330    4.7042
   15.360    5.1431
   15.390    5.5994
   15.420    5.1606
   15.450    4.9675
   15.480    4.8447
   15.510    4.8973
   15.540    5.1431
   15.570    5.0026
   15.600    5.2484
   15.630    5.1957
   15.660    5.2308
   15.690    4.8973
   15.720    4.4409
   15.750    5.0377
   15.780    4.8622
   15.810    5.3361
   15.840    5.3361
   15.870    5.0202
   15.900    4.9500
   15.930    5.0728
   15.960    4.7569
   15.990    4.9500
   16.020    5.0553
   16.050    5.0202
   16.080    4.8622
   16.110    5.3537
   16.140    4.9324
   16.170    5.2133
   16.200    5.1957
   16.230    4.8095
   16.260    5.0377
   16.290    5.1255
   16.320    4.5814
   16.350    4.7218
   16.380    4.8271
   16.410    4.9149
   16.440    5.1080
   16.470    4.7569
   16.500    5.1080
   16.530    4.7569
   16.560    5.2308
   16.590    5.3010
   16.620    5.1080
   16.650    4.9324
   16.680    4.8271
   16.710    5.0553
   16.740    4.7744
   16.770    4.6516
   16.800    4.9324
   16.830    5.3537
   16.860    4.5638
   16.890    5.0377
   16.920    4.9675
   16.950    5.3537
   16.980    5.1080
   17.010    5.0904
   17.040    4.9149
   17.070    5.5292
   17.100    5.0904
   17.130    5.1431
   17.160    4.9324
   17.190    5.0377
   17.220    4.5287
   17.250    5.0904
   17.280    4.9675
   17.310    4.9851
   17.340    4.6516
   17.370    4.8447
   17.400    4.9324
   17.430    4.9500
   17.460    4.8447
   17.490    5.1431
   17.520    5.4415
   17.550    4.9324
   17.580    4.8622
   17.610    4.8271
   17.640    4.8622
   17.670    4.8973
   17.700    4.6340
   17.730    4.9851
   17.760    4.7569
   17.790    4.8271
   17.820    4.6516
   17.850    4.8798
   17.880    4.7920
   17.910    4.8271
   17.940    4.9500
   17.970    4.9851
   18.000    4.9851
   18.030    5.1431
   18.060    4.8798
   18.090    4.6691
   18.120    4.7920
   18.150    4.7042
   18.180    5.1957
   18.210    4.8622
   18.240    4.6691
   18.270    5.0553
   18.300    5.0202
   18.330    5.0728
   18.360    4.3356
   18.390    5.1255
   18.420    5.3712
   18.450    4.6516
   18.480    4.8095
   18.510    4.9851
   18.540    4.5111
   18.570    4.6340
   18.600    5.4766
   18.630    4.6691
   18.660    4.6691
   18.690    4.8973
   18.720    4.9149
   18.750    4.5111
   18.780    5.2484
   18.810    4.6340
   18.840    4.8271
   18.870    4.9851
   18.900    4.6165
   18.930    4.8622
   18.960    4.4760
   18.990    4.8622
   19.020    5.2484
   19.050    4.3883
   19.080    4.7744
   19.110    4.5638
   19.140    4.8973
   19.170    4.9675
   19.200    4.4409
   19.230    5.1255
   19.260    4.6691
   19.290    4.9324
   19.320    4.9324
   19.350    4.6691
   19.380    4.5814
   19.410    4.3356
   19.440    5.1431
   19.470    4.6516
   19.500    4.9675
   19.530    4.5111
   19.560    4.6340
   19.590    4.8798
   19.620    5.1957
   19.650    4.5463
   19.680    4.4058
   19.710    4.6867
   19.740    4.6340
   19.770    4.8095
   19.800    4.6691
   19.830    5.1606
   19.860    4.5989
   19.890    4.7042
   19.920    4.6340
   19.950    4.5287
   19.980    4.8973
   20.010    4.5463
   20.040    4.9851
   20.070    4.8095
   20.100    4.3532
   20.130    4.6691
   20.160    4.2303
   20.190    4.1776
   20.220    4.1952
   20.250    5.0377
   20.280    4.1074
   20.310    4.5638
   20.340    4.6691
   20.370    5.0377
   20.400    4.7042
   20.430    4.8447
   20.460    4.4409
   20.490    4.1952
   20.520    4.3532
   20.550    4.4234
   20.580    3.9670
   20.610    4.1776
   20.640    4.6867
   20.670    4.6340
   20.700    4.4234
   20.730    4.2654
   20.760    4.2654
   20.790    4.6165
   20.820    4.4409
   20.850    4.5814
   20.880    4.6516
   20.910    4.3883
   20.940    4.4760
   20.970    4.3181
   21.000    4.7042
   21.030    4.1425
   21.060    4.3005
   21.090    4.4234
   21.120    4.0548
   21.150    4.4058
   21.180    4.2303
   21.210    4.4936
   21.240    4.2478
   21.270    4.4936
   21.300    4.2654
   21.330    4.3356
   21.360    4.5638
   21.390    4.5287
   21.420    3.9670
   21.450    4.2478
   21.480    4.3883
   21.510    4.6691
   21.540    4.1952
   21.570    4.2127
   21.600    4.3707
   21.630    4.4409
   21.660    4.3883
   21.690    4.7393
   21.720    4.2830
   21.750    4.4936
   21.780    4.0899
   21.810    4.2303
   21.840    4.4409
   21.870    4.7218
   21.900    4.2654
   21.930    4.7920
   21.960    4.4936
   21.990    4.5463
   22.020    3.6862
   22.050    4.2478
   22.080    4.4409
   22.110    4.2127
   22.140    4.3883
   22.170    3.8968
   22.200    4.3883
   22.230    4.2654
   22.260    4.1250
   22.290    4.5463
   22.320    3.9143
   22.350    4.2303
   22.380    4.0899
   22.410    4.3883
   22.440    3.9143
   22.470    4.4234
   22.500    4.1074
   22.530    4.6165
   22.560    4.5287
   22.590    4.7042
   22.620    4.0197
   22.650    4.0723
   22.680    3.9670
   22.710    3.9143
   22.740    4.0899
   22.770    3.6510
   22.800    4.7218
   22.830    3.8441
   22.860    4.1601
   22.890    4.3005
   22.920    4.5111
   22.950    4.6516
   22.980    4.3883
   23.010    4.0021
   23.040    4.3532
   23.070    4.1250
   23.100    4.2830
   23.130    4.2127
   23.160    4.0548
   23.190    4.0723
   23.220    4.4234
   23.250    4.1250
   23.280    4.3356
   23.310    3.9670
   23.340    4.0197
   23.370    4.0899
   23.400    3.7213
   23.430    3.9494
   23.460    3.8617
   23.490    3.7037
   23.520    4.1776
   23.550    3.7037
   23.580    3.6686
   23.610    4.2303
   23.640    3.7388
   23.670    3.7564
   23.700    3.9319
   23.730    4.0899
   23.760    3.9670
   23.790    3.5633
   23.820    3.9143
   23.850    3.9143
   23.880    4.1952
   23.910    3.9143
   23.940    4.4760
   23.970    3.9494
   24.000    4.2478
   24.030    3.8441
   24.060    3.6159
   24.090    3.7388
   24.120    3.6862
   24.150    3.9494
   24.180    3.6686
   24.210    4.0899
   24.240    3.6335
   24.270    4.0021
   24.300    3.8792
   24.330    3.9143
   24.360    3.8792
   24.390    3.5633
   24.420    3.5984
   24.450    3.7037
   24.480    3.6686
   24.510    3.4229
   24.540    4.0372
   24.570    3.9143
   24.600    3.7564
   24.630    4.2830
   24.660    4.0899
   24.690    3.8617
   24.720    3.5808
   24.750    3.5106
   24.780    4.0372
   24.810    3.6510
   24.840    4.0548
   24.870    3.8441
   24.900    3.4404
   24.930    3.9319
   24.960    3.8090
   24.990    3.5106
   25.020    3.8968
   25.050    3.9670
   25.080    3.7388
   25.110    3.5457
   25.140    3.9494
   25.170    3.7739
   25.200    3.6510
   25.230    3.9319
   25.260    3.4053
   25.290    3.4580
   25.320    3.6159
   25.350    4.0723
   25.380    4.0723
   25.410    3.9670
   25.440    3.8441
   25.470    3.5984
   25.500    3.3877
   25.530    3.6862
   25.560    3.6159
   25.590    3.4229
   25.620    3.4755
   25.650    3.4404
   25.680    3.7739
   25.710    3.8792
   25.740    3.6159
   25.770    3.8090
   25.800    3.8617
   25.830    3.8968
   25.860    3.5633
   25.890    4.1952
   25.920    3.5282
   25.950    3.3351
   25.980    3.3000
   26.010    3.8090
   26.040    4.1776
   26.070    3.3702
   26.100    3.7739
   26.130    3.5282
   26.160    3.9494
   26.190    3.5106
   26.220    3.5808
   26.250    3.4404
   26.280    3.6510
   26.310    3.7213
   26.340    3.3526
   26.370    3.5984
   26.400    3.7037
   26.430    3.3351
   26.460    3.6510
   26.490    3.5282
   26.520    3.6510
   26.550    3.3351
   26.580    3.3877
   26.610    3.5282
   26.640    3.3877
   26.670    3.2122
   26.700    3.2473
   26.730    3.0718
   26.760    3.4229
   26.790    3.6510
   26.820    3.6335
   26.850    3.3175
   26.880    3.4053
   26.910    3.3526
   26.940    3.3526
   26.970    3.3000
   27.000    3.5282
   27.030    3.4053
   27.060    3.4404
   27.090    3.8968
   27.120    3.4755
   27.150    3.5984
   27.180    3.7564
   27.210    3.4404
   27.240    3.3877
   27.270    3.3175
   27.300    3.3702
   27.330    3.6686
   27.360    2.9665
   27.390    3.1596
   27.420    3.4931
   27.450    2.8085
   27.480    3.3526
   27.510    3.3877
   27.540    3.5808
   27.570    3.2298
   27.600    3.6686
   27.630    2.9489
   27.660    3.3877
   27.690    3.2298
   27.720    3.4404
   27.750    3.2473
   27.780    3.2122
   27.810    3.5457
   27.840    3.0191
   27.870    3.4580
   27.900    2.9665
   27.930    3.4053
   27.960    2.9840
   27.990    3.0542
   28.020    3.2473
   28.050    2.9138
   28.080    2.8085
   28.110    3.2122
   28.140    3.1245
   28.170    3.5282
   28.200    3.2122
   28.230    3.1771
   28.260    3.1771
   28.290    2.8963
   28.320    2.9840
   28.350    3.2122
   28.380    3.1947
   28.410    3.1420
   28.440    3.0718
   28.470    2.9138
   28.500    3.0893
   28.530    3.3000
   28.560    3.2298
   28.590    3.0016
   28.620    3.2473
   28.650    3.2298
   28.680    3.1245
   28.710    2.9840
   28.740    3.0718
   28.770    3.2473
   28.800    3.1245
   28.830    3.3000
   28.860    3.2473
   28.890    3.2473
   28.920    3.0893
   28.950    3.5633
   28.980    3.4404
   29.010    3.2298
   29.040    3.1596
   29.070    3.4755
   29.100    3.4755
   29.130    3.0016
   29.160    3.0542
   29.190    3.4229
   29.220    3.3526
   29.250    2.9840
   29.280    3.0893
   29.310    3.0893
   29.340    3.0367
   29.370    2.5452
   29.400    3.3351
   29.430    2.9840
   29.460    2.8260
   29.490    2.9314
   29.520    2.7383
   29.550    2.7383
   29.580    2.7032
   29.610    3.0191
   29.640    2.9138
   29.670    3.0367
   29.700    2.6330
   29.730    2.9665
   29.760    2.7032
   29.790    3.0367
   29.820    2.9489
   29.850    3.0542
   29.880    2.8436
   29.910    2.7207
   29.940    2.8963
   29.970    2.8085
   30.000    2.3170
   30.030    2.7558
   30.060    3.2298
   30.090    2.6154
   30.120    2.7909
   30.150    2.9665
   30.180    2.6505
   30.210    2.5276
   30.240    2.7032
   30.270    2.7558
   30.300    2.6681
   30.330    2.8612
   30.360    2.8085
   30.390    2.5452
   30.420    2.6154
   30.450    2.8612
   30.480    2.5452
   30.510    2.6681
   30.540    2.8260
   30.570    2.9665
   30.600    2.7383
   30.630    2.8612
   30.660    2.7734
   30.690    2.4223
   30.720    2.7558
   30.750    2.9489
   30.780    2.4925
   30.810    2.8787
   30.840    2.7032
   30.870    2.5101
   30.900    2.5452
   30.930    2.6330
   30.960    2.6681
   30.990    2.7032
   31.020    2.7207
   31.050    2.3521
   31.080    2.6856
   31.110    2.2643
   31.140    2.7032
   31.170    2.6154
   31.200    2.2995
   31.230    2.5276
   31.260    2.4223
   31.290    2.8787
   31.320    2.6154
   31.350    2.5628
   31.380    2.6681
   31.410    2.5452
   31.440    2.3872
   31.470    2.7032
   31.500    2.5452
   31.530    2.5276
   31.560    2.7383
   31.590    2.1239
   31.620    2.4223
   31.650    2.3346
   31.680    2.3170
   31.710    2.3170
   31.740    2.3521
   31.770    2.3170
   31.800    2.4223
   31.830    2.2292
   31.860    2.5452
   31.890    2.4048
   31.920    2.3872
   31.950    2.5101
   31.980    2.3697
   32.010    2.5452
   32.040    2.2819
   32.070    2.5803
   32.100    2.5101
   32.130    2.8963
   32.160    2.4925
   32.190    2.5276
   32.220    2.3872
   32.250    2.3346
   32.280    2.2819
   32.310    2.1415
   32.340    2.4048
   32.370    2.3170
   32.400    2.0186
   32.430    2.3346
   32.460    2.3346
   32.490    2.0537
   32.520    2.3521
   32.550    2.5276
   32.580    2.2819
   32.610    2.5276
   32.640    2.5628
   32.670    2.2643
   32.700    2.4399
   32.730    2.2643
   32.760    2.4399
   32.790    2.5101
   32.820    2.1415
   32.850    2.3521
   32.880    2.3170
   32.910    2.2292
   32.940    2.2643
   32.970    2.0888
   33.000    2.3170
   33.030    2.5101
   33.060    2.3872
   33.090    2.3170
   33.120    2.1064
   33.150    2.1239
   33.180    2.4048
   33.210    2.0713
   33.240    2.3346
   33.270    2.3346
   33.300    2.1766
   33.330    2.5452
   33.360    2.3697
   33.390    2.1415
   33.420    2.1239
   33.450    2.5101
   33.480    2.0713
   33.510    2.6154
   33.540    2.2468
   33.570    2.5276
   33.600    2.4223
   33.630    1.9308
   33.660    2.1239
   33.690    2.2117
   33.720    2.5628
   33.750    2.3872
   33.780    2.2819
   33.810    2.3170
   33.840    2.2995
   33.870    1.9659
   33.900    2.4925
   33.930    2.2995
   33.960    2.3170
   33.990    2.3521
   34.020    2.3170
   34.050    2.2819
   34.080    2.2117
   34.110    2.2643
   34.140    2.0713
   34.170    2.2643
   34.200    2.3521
   34.230    2.1064
   34.260    2.6681
   34.290    2.2292
   34.320    2.3697
   34.350    2.3346
   34.380    2.0888
   34.410    2.1239
   34.440    2.1415
   34.470    2.1239
   34.500    2.0362
   34.530    2.2292
   34.560    2.3170
   34.590    2.2292
   34.620    2.3872
   34.650    2.0362
   34.680    2.2995
   34.710    2.2643
   34.740    2.1766
   34.770    2.0186
   34.800    1.9308
   34.830    2.3170
   34.860    2.0888
   34.890    2.2468
   34.920    1.9308
   34.950    2.0362
   34.980    2.4223
   35.010    2.0888
   35.040    2.1064
   35.070    2.1415
   35.100    2.1941
   35.130    2.0888
   35.160    1.8782
   35.190    1.8606
   35.220    2.2468
   35.250    2.1590
   35.280    2.0186
   35.310    2.1941
   35.340    2.0888
   35.370    2.0011
   35.400    1.9484
   35.430    2.0713
   35.460    2.1766
   35.490    2.2995
   35.520    2.1415
   35.550    2.4574
   35.580    2.1064
   35.610    2.1415
   35.640    2.0011
   35.670    2.3170
   35.700    2.0011
   35.730    2.2292
   35.760    2.1415
   35.790    1.9659
   35.820    2.1415
   35.850    1.9308
   35.880    2.0888
   35.910    1.8255
   35.940    2.0186
   35.970    2.1239
   36.000    1.8782
   36.030    2.1064
   36.060    2.0011
   36.090    2.1239
   36.120    2.1415
   36.150    1.7729
   36.180    1.9659
   36.210    2.1415
   36.240    2.2995
   36.270    1.8782
   36.300    2.3697
   36.330    2.3170
   36.360    1.9308
   36.390    2.2819
   36.420    2.3872
   36.450    2.1590
   36.480    2.3872
   36.510    2.1941
   36.540    2.2819
   36.570    2.0011
   36.600    2.5628
   36.630    2.0186
   36.660    2.0362
   36.690    1.9835
   36.720    2.1064
   36.750    2.2468
   36.780    1.7729
   36.810    2.5979
   36.840    2.1064
   36.870    2.0537
   36.900    2.1239
   36.930    1.9308
   36.960    2.0011
   36.990    1.9835
   37.020    2.1590
   37.050    1.8957
   37.080    2.0362
   37.110    2.0011
   37.140    2.1941
   37.170    2.4399
   37.200    1.9659
   37.230    1.9133
   37.260    2.3346
   37.290    2.0186
   37.320    1.7027
   37.350    2.0537
   37.380    2.0537
   37.410    2.0362
   37.440    1.9484
   37.470    2.1766
   37.500    2.1239
   37.530    1.9835
   37.560    2.2819
   37.590    1.9133
   37.620    2.1590
   37.650    1.8080
   37.680    2.0888
   37.710    1.8957
   37.740    2.1766
   37.770    2.0713
   37.800    2.2117
   37.830    2.1415
   37.860    1.9835
   37.890    1.7202
   37.920    1.9133
   37.950    2.1766
   37.980    1.9659
   38.010    2.0362
   38.040    1.9835
   38.070    2.0888
   38.100    1.8957
   38.130    2.0362
   38.160    1.8782
   38.190    2.0362
   38.220    2.0362
   38.250    1.8080
   38.280    2.1766
   38.310    1.9133
   38.340    1.9308
   38.370    2.1064
   38.400    2.0186
   38.430    2.0537
   38.460    1.8606
   38.490    2.0537
   38.520    1.9835
   38.550    1.5798
   38.580    1.7378
   38.610    2.1590
   38.640    1.7904
   38.670    1.9308
   38.700    1.9308
   38.730    1.9308
   38.760    2.0888
   38.790    2.0186
   38.820    1.6851
   38.850    2.0713
   38.880    2.0362
   38.910    2.0011
   38.940    2.1064
   38.970    2.0362
   39.000    1.7729
   39.030    2.1766
   39.060    1.8957
   39.090    1.7729
   39.120    1.9133
   39.150    2.1415
   39.180    1.8255
   39.210    1.9308
   39.240    1.9484
   39.270    2.1415
   39.300    1.7027
   39.330    2.0186
   39.360    1.8957
   39.390    2.2117
   39.420    1.7553
   39.450    2.0713
   39.480    1.9484
   39.510    2.0713
   39.540    2.0713
   39.570    2.0186
   39.600    1.8080
   39.630    1.8431
   39.660    1.9484
   39.690    2.0713
   39.720    1.9133
   39.750    1.8957
   39.780    1.8957
   39.810    2.0011
   39.840    1.9308
   39.870    1.7553
   39.900    1.8606
   39.930    1.9308
   39.960    2.1766
   39.990    1.8080