File: data/PXRD/PXRD_KE-261_Co-Ka1_film-3mm_3s-deg.xyd
    1.500    3.9058
    1.530    3.7810
    1.560    3.9237
    1.590    4.0842
    1.620    4.1377
    1.650    3.0676
    1.680    3.9058
    1.710    3.5848
    1.740    3.4421
    1.770    3.1389
    1.800    3.1389
    1.830    3.5135
    1.860    3.2638
    1.890    3.1746
    1.920    2.8714
    1.950    2.9606
    1.980    2.7822
    2.010    2.6396
    2.040    2.8714
    2.070    2.9071
    2.100    2.5504
    2.130    2.5682
    2.160    2.6752
    2.190    2.3185
    2.220    2.5504
    2.250    2.4077
    2.280    2.6752
    2.310    2.6217
    2.340    2.4077
    2.370    2.1937
    2.400    2.2294
    2.430    2.1045
    2.460    1.9975
    2.490    2.1045
    2.520    2.4077
    2.550    1.9083
    2.580    2.1580
    2.610    1.8013
    2.640    1.9262
    2.670    1.7300
    2.700    2.1223
    2.730    2.1045
    2.760    1.9797
    2.790    1.9618
    2.820    1.7300
    2.850    2.1045
    2.880    1.7657
    2.910    2.1402
    2.940    1.8370
    2.970    1.8370
    3.000    2.0153
    3.030    1.6051
    3.060    1.8013
    3.090    2.0688
    3.120    1.5873
    3.150    1.7835
    3.180    1.9262
    3.210    1.8370
    3.240    1.6230
    3.270    1.5873
    3.300    1.9975
    3.330    1.8548
    3.360    1.7657
    3.390    1.8370
    3.420    1.7300
    3.450    1.9262
    3.480    2.1045
    3.510    2.4255
    3.540    1.9083
    3.570    2.1402
    3.600    1.9797
    3.630    2.7644
    3.660    2.5504
    3.690    2.7466
    3.720    2.7644
    3.750    3.1568
    3.780    2.9249
    3.810    3.3351
    3.840    4.0842
    3.870    4.0128
    3.900    4.6014
    3.930    5.4931
    3.960    6.3670
    3.990    7.2588
    4.020    7.4728
    4.050    7.7403
    4.080    7.2231
    4.110    6.0638
    4.140    4.3695
    4.170    3.7988
    4.200    3.4778
    4.230    3.2281
    4.260    2.9428
    4.290    2.5861
    4.320    2.7466
    4.350    2.6931
    4.380    2.9249
    4.410    2.8892
    4.440    2.9784
    4.470    2.8001
    4.500    2.8179
    4.530    3.2459
    4.560    3.2281
    4.590    3.4956
    4.620    3.4778
    4.650    3.4065
    4.680    3.3173
    4.710    3.6918
    4.740    3.5313
    4.770    3.7988
    4.800    3.5313
    4.830    3.5670
    4.860    3.4065
    4.890    3.0319
    4.920    3.1389
    4.950    2.7644
    4.980    2.6931
    5.010    2.3720
    5.040    2.6752
    5.070    2.3364
    5.100    2.2650
    5.130    2.1580
    5.160    1.9797
    5.190    2.3899
    5.220    2.2829
    5.250    1.8370
    5.280    1.6943
    5.310    1.9083
    5.340    1.6408
    5.370    1.4446
    5.400    1.7478
    5.430    1.6586
    5.460    1.6230
    5.490    1.5160
    5.520    1.4625
    5.550    1.5516
    5.580    1.4981
    5.610    1.6765
    5.640    1.6230
    5.670    1.6230
    5.700    1.5160
    5.730    1.8013
    5.760    1.5695
    5.790    1.6586
    5.820    1.6051
    5.850    1.6765
    5.880    1.6230
    5.910    1.7835
    5.940    1.5516
    5.970    1.9440
    6.000    1.6586
    6.030    1.8727
    6.060    1.7657
    6.090    1.7657
    6.120    1.7657
    6.150    1.8192
    6.180    1.9083
    6.210    1.7657
    6.240    1.6230
    6.270    2.1937
    6.300    1.9440
    6.330    2.2294
    6.360    2.0510
    6.390    2.1759
    6.420    1.9440
    6.450    1.9797
    6.480    1.9083
    6.510    1.8013
    6.540    1.9440
    6.570    2.4434
    6.600    1.9440
    6.630    1.8370
    6.660    1.6765
    6.690    1.8548
    6.720    1.6230
    6.750    1.9440
    6.780    1.9083
    6.810    1.6586
    6.840    1.7121
    6.870    1.4446
    6.900    1.5695
    6.930    1.4268
    6.960    1.6230
    6.990    1.7478
    7.020    1.4268
    7.050    1.6408
    7.080    1.5160
    7.110    1.3911
    7.140    1.6408
    7.170    1.4625
    7.200    1.4625
    7.230    1.5695
    7.260    1.5873
    7.290    1.4090
    7.320    1.5516
    7.350    1.4268
    7.380    1.5516
    7.410    1.4803
    7.440    1.5516
    7.470    1.3911
    7.500    1.5160
    7.530    1.1771
    7.560    1.4268
    7.590    1.3376
    7.620    1.5160
    7.650    1.2306
    7.680    1.2484
    7.710    1.2306
    7.740    1.2484
    7.770    1.2306
    7.800    0.9988
    7.830    1.4446
    7.860    1.1236
    7.890    1.1414
    7.920    1.0879
    7.950    1.3733
    7.980    1.3911
    8.010    1.5873
    8.040    1.6230
    8.070    1.6943
    8.100    1.5695
    8.130    2.2115
    8.160    1.6765
    8.190    1.3911
    8.220    1.2306
    8.250    1.3554
    8.280    1.1414
    8.310    1.1593
    8.340    1.3198
    8.370    1.5516
    8.400    1.0701
    8.430    1.3019
    8.460    1.5516
    8.490    1.0879
    8.520    1.1593
    8.550    1.2663
    8.580    1.0523
    8.610    1.1058
    8.640    1.1058
    8.670    1.2663
    8.700    0.9988
    8.730    0.8382
    8.760    0.9096
    8.790    1.2306
    8.820    1.0879
    8.850    1.0523
    8.880    1.0344
    8.910    0.9631
    8.940    1.0344
    8.970    0.8917
    9.000    1.0701
    9.030    1.0166
    9.060    1.1414
    9.090    0.9096
    9.120    1.1949
    9.150    0.9988
    9.180    1.0523
    9.210    0.9096
    9.240    1.3019
    9.270    0.9631
    9.300    1.1414
    9.330    1.0879
    9.360    1.1771
    9.390    0.9631
    9.420    1.1236
    9.450    1.0166
    9.480    1.0701
    9.510    0.9809
    9.540    1.0166
    9.570    1.1949
    9.600    1.1414
    9.630    1.0879
    9.660    1.1771
    9.690    0.8382
    9.720    1.1236
    9.750    0.9809
    9.780    0.8026
    9.810    0.9452
    9.840    1.1414
    9.870    0.8382
    9.900    0.9452
    9.930    0.8917
    9.960    0.9809
    9.990    1.1949
   10.020    1.0344
   10.050    0.9631
   10.080    0.9631
   10.110    1.1058
   10.140    0.9631
   10.170    0.9274
   10.200    0.9274
   10.230    0.8204
   10.260    1.0523
   10.290    0.9809
   10.320    0.8739
   10.350    0.8561
   10.380    0.7134
   10.410    0.8739
   10.440    0.8917
   10.470    0.9274
   10.500    0.8739
   10.530    0.9988
   10.560    0.9096
   10.590    0.8026
   10.620    0.8204
   10.650    0.8739
   10.680    0.9631
   10.710    1.0523
   10.740    0.8917
   10.770    0.7669
   10.800    0.6421
   10.830    1.1236
   10.860    0.8204
   10.890    0.9274
   10.920    0.7847
   10.950    0.8204
   10.980    0.9096
   11.010    0.7312
   11.040    0.8561
   11.070    0.8561
   11.100    0.9631
   11.130    0.7312
   11.160    0.9988
   11.190    0.9096
   11.220    0.8204
   11.250    0.7312
   11.280    0.7312
   11.310    0.9274
   11.340    0.8382
   11.370    0.8382
   11.400    0.8204
   11.430    0.7491
   11.460    0.8382
   11.490    0.7847
   11.520    0.7134
   11.550    0.9631
   11.580    0.7669
   11.610    0.7669
   11.640    0.6956
   11.670    0.9096
   11.700    0.7669
   11.730    0.6956
   11.760    0.9452
   11.790    0.8204
   11.820    0.7312
   11.850    0.8739
   11.880    0.8382
   11.910    0.7491
   11.940    0.8917
   11.970    0.8382
   12.000    0.7847
   12.030    0.8026
   12.060    0.6777
   12.090    1.0166
   12.120    0.6599
   12.150    0.7312
   12.180    0.9096
   12.210    0.8561
   12.240    0.9809
   12.270    0.8739
   12.300    0.9988
   12.330    0.9452
   12.360    0.7847
   12.390    0.8382
   12.420    0.9809
   12.450    0.7669
   12.480    0.7847
   12.510    0.8204
   12.540    0.8739
   12.570    0.8382
   12.600    0.8917
   12.630    0.9631
   12.660    0.7669
   12.690    0.9096
   12.720    0.8917
   12.750    0.8561
   12.780    0.8204
   12.810    0.9452
   12.840    0.9631
   12.870    0.9274
   12.900    0.7491
   12.930    0.8739
   12.960    1.0701
   12.990    0.8739
   13.020    0.8739
   13.050    0.8917
   13.080    0.9631
   13.110    0.9631
   13.140    0.9274
   13.170    0.8026
   13.200    0.7847
   13.230    0.9452
   13.260    0.8739
   13.290    0.9452
   13.320    0.8917
   13.350    0.8204
   13.380    0.8561
   13.410    0.7669
   13.440    0.9096
   13.470    0.9274
   13.500    0.9809
   13.530    0.9274
   13.560    0.8382
   13.590    0.6956
   13.620    0.6777
   13.650    0.9988
   13.680    0.9274
   13.710    0.7669
   13.740    0.9631
   13.770    0.9274
   13.800    0.8917
   13.830    0.8204
   13.860    0.7669
   13.890    0.9274
   13.920    0.7491
   13.950    0.9096
   13.980    0.8204
   14.010    0.8382
   14.040    0.7669
   14.070    0.7847
   14.100    0.9988
   14.130    0.8204
   14.160    0.8382
   14.190    0.8739
   14.220    0.8026
   14.250    0.8382
   14.280    1.1414
   14.310    0.9274
   14.340    0.8382
   14.370    0.8917
   14.400    0.7491
   14.430    0.6777
   14.460    0.8026
   14.490    1.0344
   14.520    0.8026
   14.550    0.7669
   14.580    0.9274
   14.610    0.8561
   14.640    0.8739
   14.670    0.7669
   14.700    1.0523
   14.730    0.9096
   14.760    0.9274
   14.790    1.0166
   14.820    0.9988
   14.850    0.8561
   14.880    0.7312
   14.910    0.9096
   14.940    0.6421
   14.970    0.6956
   15.000    0.7669
   15.030    0.7847
   15.060    0.8026
   15.090    0.8917
   15.120    0.8382
   15.150    1.0523
   15.180    0.8382
   15.210    0.8204
   15.240    0.7669
   15.270    1.1058
   15.300    0.7134
   15.330    0.7847
   15.360    0.9452
   15.390    0.6956
   15.420    0.7847
   15.450    0.6777
   15.480    1.0879
   15.510    0.6956
   15.540    0.8561
   15.570    1.0879
   15.600    0.8561
   15.630    0.8739
   15.660    0.8561
   15.690    1.0344
   15.720    0.7847
   15.750    0.8204
   15.780    0.6956
   15.810    0.9452
   15.840    0.8561
   15.870    0.7847
   15.900    0.8739
   15.930    0.7312
   15.960    0.9809
   15.990    1.0344
   16.020    0.7134
   16.050    0.8917
   16.080    0.8382
   16.110    0.7312
   16.140    0.7669
   16.170    0.7491
   16.200    0.9631
   16.230    0.8561
   16.260    0.8739
   16.290    0.7847
   16.320    0.8561
   16.350    0.8917
   16.380    0.9096
   16.410    0.8382
   16.440    0.7669
   16.470    1.0523
   16.500    0.6421
   16.530    0.9988
   16.560    0.8026
   16.590    0.9452
   16.620    0.9274
   16.650    0.9096
   16.680    0.9096
   16.710    0.9988
   16.740    0.8382
   16.770    0.7847
   16.800    0.8561
   16.830    0.9452
   16.860    0.9096
   16.890    0.7847
   16.920    0.9096
   16.950    0.9809
   16.980    0.8382
   17.010    0.9274
   17.040    0.9631
   17.070    0.6956
   17.100    0.9452
   17.130    0.7312
   17.160    1.0166
   17.190    0.7847
   17.220    0.8917
   17.250    0.8917
   17.280    1.1236
   17.310    0.9809
   17.340    0.6777
   17.370    0.8561
   17.400    0.7847
   17.430    0.8917
   17.460    0.8026
   17.490    1.1593
   17.520    1.0166
   17.550    0.7847
   17.580    0.7491
   17.610    0.7847
   17.640    0.8917
   17.670    0.8026
   17.700    0.8026
   17.730    0.9274
   17.760    0.6956
   17.790    0.6956
   17.820    0.6242
   17.850    0.9274
   17.880    0.7134
   17.910    0.7847
   17.940    0.8026
   17.970    0.8204
   18.000    0.8382
   18.030    0.8739
   18.060    0.7669
   18.090    0.6777
   18.120    0.7847
   18.150    0.8382
   18.180    0.7491
   18.210    0.6599
   18.240    0.8917
   18.270    0.9809
   18.300    0.7312
   18.330    0.5886
   18.360    0.8739
   18.390    0.7669
   18.420    0.9096
   18.450    0.8026
   18.480    0.8026
   18.510    0.6956
   18.540    0.7847
   18.570    0.9452
   18.600    0.8204
   18.630    0.8561
   18.660    0.7847
   18.690    0.8739
   18.720    0.7134
   18.750    0.7847
   18.780    0.7134
   18.810    0.6421
   18.840    0.7847
   18.870    0.8204
   18.900    0.7134
   18.930    0.6956
   18.960    0.8739
   18.990    0.7491
   19.020    0.6956
   19.050    0.8026
   19.080    0.7134
   19.110    0.8382
   19.140    0.7491
   19.170    0.9631
   19.200    0.8026
   19.230    0.8026
   19.260    0.8561
   19.290    0.7669
   19.320    0.7847
   19.350    0.7669
   19.380    0.8739
   19.410    0.7669
   19.440    0.7669
   19.470    0.8739
   19.500    0.7312
   19.530    0.7134
   19.560    0.7847
   19.590    0.8382
   19.620    0.7847
   19.650    0.6777
   19.680    0.7669
   19.710    0.6777
   19.740    0.8204
   19.770    0.5886
   19.800    0.7491
   19.830    0.7847
   19.860    0.7669
   19.890    0.8204
   19.920    0.8026
   19.950    0.8561
   19.980    0.7669
   20.010    0.7669
   20.040    0.8026
   20.070    0.8204
   20.100    0.6242
   20.130    0.8739
   20.160    0.8561
   20.190    0.7491
   20.220    0.9096
   20.250    0.7312
   20.280    0.9274
   20.310    0.6956
   20.340    0.6421
   20.370    0.7312
   20.400    0.7312
   20.430    0.6777
   20.460    0.6956
   20.490    0.8026
   20.520    0.8561
   20.550    0.9274
   20.580    0.7134
   20.610    0.8561
   20.640    0.6421
   20.670    0.8026
   20.700    0.5707
   20.730    0.8026
   20.760    0.7134
   20.790    0.7491
   20.820    0.9096
   20.850    0.8382
   20.880    0.7669
   20.910    0.8739
   20.940    0.8739
   20.970    0.7669
   21.000    0.7312
   21.030    0.6777
   21.060    0.8917
   21.090    0.8026
   21.120    0.7312
   21.150    0.6956
   21.180    0.7847
   21.210    0.6777
   21.240    0.7134
   21.270    0.8917
   21.300    0.8917
   21.330    0.8026
   21.360    0.6064
   21.390    0.7491
   21.420    0.6064
   21.450    0.6777
   21.480    0.7312
   21.510    0.6242
   21.540    0.7491
   21.570    0.7312
   21.600    0.8204
   21.630    0.8917
   21.660    0.7491
   21.690    0.7491
   21.720    0.7134
   21.750    0.6777
   21.780    0.7491
   21.810    0.5886
   21.840    0.7669
   21.870    0.8739
   21.900    0.7134
   21.930    0.6777
   21.960    0.6956
   21.990    0.7312
   22.020    0.7669
   22.050    0.7491
   22.080    0.8739
   22.110    0.6956
   22.140    0.7134
   22.170    0.6599
   22.200    0.7847
   22.230    0.7134
   22.260    0.7847
   22.290    0.8204
   22.320    0.6599
   22.350    0.6599
   22.380    0.8561
   22.410    0.7669
   22.440    0.6242
   22.470    0.5350
   22.500    0.7847
   22.530    0.8204
   22.560    0.6064
   22.590    0.8026
   22.620    0.7491
   22.650    0.5529
   22.680    0.7134
   22.710    0.7491
   22.740    0.5886
   22.770    0.8204
   22.800    0.6777
   22.830    0.7847
   22.860    0.7312
   22.890    0.7134
   22.920    0.7312
   22.950    0.8561
   22.980    0.8026
   23.010    0.7491
   23.040    0.6777
   23.070    0.7669
   23.100    0.8026
   23.130    0.9452
   23.160    0.7134
   23.190    0.6599
   23.220    0.6777
   23.250    0.6421
   23.280    0.5886
   23.310    0.7134
   23.340    0.7312
   23.370    0.6421
   23.400    0.7312
   23.430    0.7312
   23.460    0.8382
   23.490    0.6956
   23.520    0.6599
   23.550    0.6956
   23.580    0.6421
   23.610    0.6956
   23.640    0.5350
   23.670    0.6777
   23.700    0.5529
   23.730    0.6599
   23.760    0.7669
   23.790    0.7134
   23.820    0.6956
   23.850    0.8917
   23.880    0.6956
   23.910    0.7312
   23.940    0.6599
   23.970    0.6599
   24.000    0.4637
   24.030    0.7134
   24.060    0.7134
   24.090    0.6599
   24.120    0.8739
   24.150    0.5886
   24.180    0.7491
   24.210    0.5886
   24.240    0.7312
   24.270    0.6956
   24.300    0.5350
   24.330    0.5707
   24.360    0.6064
   24.390    0.6421
   24.420    0.8026
   24.450    0.8026
   24.480    0.7847
   24.510    0.6956
   24.540    0.6777
   24.570    0.6421
   24.600    0.7312
   24.630    0.7491
   24.660    0.7134
   24.690    0.7134
   24.720    0.7312
   24.750    0.6956
   24.780    0.7134
   24.810    0.5529
   24.840    0.7312
   24.870    0.4994
   24.900    0.5886
   24.930    0.6242
   24.960    0.8026
   24.990    0.7134
   25.020    0.5707
   25.050    0.6599
   25.080    0.6242
   25.110    0.7312
   25.140    0.5529
   25.170    0.6599
   25.200    0.6064
   25.230    0.6421
   25.260    0.6956
   25.290    0.8917
   25.320    0.6777
   25.350    0.6599
   25.380    0.6777
   25.410    0.4994
   25.440    0.6777
   25.470    0.5886
   25.500    0.6599
   25.530    0.5529
   25.560    0.7491
   25.590    0.5707
   25.620    0.6599
   25.650    0.6064
   25.680    0.5886
   25.710    0.6242
   25.740    0.5172
   25.770    0.6242
   25.800    0.7669
   25.830    0.4994
   25.860    0.5707
   25.890    0.6242
   25.920    0.6599
   25.950    0.6421
   25.980    0.6242
   26.010    0.6242
   26.040    0.6599
   26.070    0.6956
   26.100    0.5350
   26.130    0.7491
   26.160    0.6421
   26.190    0.5529
   26.220    0.5707
   26.250    0.6421
   26.280    0.5886
   26.310    0.4637
   26.340    0.6777
   26.370    0.6064
   26.400    0.7491
   26.430    0.6599
   26.460    0.5886
   26.490    0.6599
   26.520    0.6956
   26.550    0.5886
   26.580    0.5350
   26.610    0.6064
   26.640    0.5172
   26.670    0.7669
   26.700    0.5886
   26.730    0.5529
   26.760    0.5886
   26.790    0.5886
   26.820    0.6599
   26.850    0.7134
   26.880    0.7491
   26.910    0.5886
   26.940    0.8026
   26.970    0.6421
   27.000    0.5172
   27.030    0.7312
   27.060    0.5886
   27.090    0.4815
   27.120    0.5707
   27.150    0.4815
   27.180    0.5886
   27.210    0.6242
   27.240    0.6599
   27.270    0.3924
   27.300    0.5707
   27.330    0.6421
   27.360    0.5350
   27.390    0.5707
   27.420    0.5886
   27.450    0.6956
   27.480    0.5172
   27.510    0.7491
   27.540    0.6242
   27.570    0.6064
   27.600    0.5886
   27.630    0.6421
   27.660    0.5529
   27.690    0.5886
   27.720    0.5886
   27.750    0.4994
   27.780    0.5529
   27.810    0.6242
   27.840    0.5529
   27.870    0.5529
   27.900    0.4815
   27.930    0.6242
   27.960    0.5707
   27.990    0.5707
   28.020    0.7669
   28.050    0.6421
   28.080    0.5529
   28.110    0.5529
   28.140    0.5529
   28.170    0.5886
   28.200    0.4994
   28.230    0.6421
   28.260    0.5172
   28.290    0.5529
   28.320    0.6421
   28.350    0.6599
   28.380    0.5707
   28.410    0.6599
   28.440    0.4994
   28.470    0.7491
   28.500    0.4459
   28.530    0.5350
   28.560    0.5172
   28.590    0.5886
   28.620    0.5350
   28.650    0.4280
   28.680    0.3924
   28.710    0.5707
   28.740    0.5172
   28.770    0.5529
   28.800    0.6421
   28.830    0.6956
   28.860    0.5529
   28.890    0.4994
   28.920    0.5529
   28.950    0.5529
   28.980    0.4102
   29.010    0.5172
   29.040    0.4637
   29.070    0.4459
   29.100    0.5886
   29.130    0.5886
   29.160    0.6777
   29.190    0.5350
   29.220    0.4815
   29.250    0.4994
   29.280    0.5886
   29.310    0.4637
   29.340    0.4459
   29.370    0.4815
   29.400    0.4280
   29.430    0.4280
   29.460    0.5350
   29.490    0.5707
   29.520    0.5529
   29.550    0.5172
   29.580    0.5350
   29.610    0.4102
   29.640    0.5529
   29.670    0.3924
   29.700    0.5886
   29.730    0.4637
   29.760    0.5529
   29.790    0.4637
   29.820    0.4459
   29.850    0.3745
   29.880    0.5886
   29.910    0.4815
   29.940    0.4459
   29.970    0.4459
   30.000    0.5350
   30.030    0.5886
   30.060    0.5350
   30.090    0.3567
   30.120    0.6777
   30.150    0.5172
   30.180    0.5529
   30.210    0.6064
   30.240    0.5172
   30.270    0.4280
   30.300    0.4102
   30.330    0.6242
   30.360    0.5172
   30.390    0.6242
   30.420    0.3567
   30.450    0.5172
   30.480    0.5172
   30.510    0.3745
   30.540    0.5172
   30.570    0.5529
   30.600    0.5707
   30.630    0.4459
   30.660    0.5350
   30.690    0.4280
   30.720    0.4459
   30.750    0.5172
   30.780    0.6064
   30.810    0.6242
   30.840    0.5172
   30.870    0.5172
   30.900    0.4637
   30.930    0.4815
   30.960    0.6064
   30.990    0.4102
   31.020    0.5886
   31.050    0.3745
   31.080    0.4994
   31.110    0.4637
   31.140    0.3924
   31.170    0.4102
   31.200    0.3567
   31.230    0.4994
   31.260    0.3210
   31.290    0.3924
   31.320    0.4280
   31.350    0.4280
   31.380    0.4637
   31.410    0.5350
   31.440    0.5350
   31.470    0.3210
   31.500    0.5529
   31.530    0.5707
   31.560    0.5529
   31.590    0.5172
   31.620    0.4637
   31.650    0.5529
   31.680    0.4459
   31.710    0.4994
   31.740    0.4280
   31.770    0.4994
   31.800    0.4459
   31.830    0.4637
   31.860    0.3745
   31.890    0.5529
   31.920    0.4994
   31.950    0.4280
   31.980    0.4815
   32.010    0.4459
   32.040    0.4280
   32.070    0.5886
   32.100    0.4637
   32.130    0.4637
   32.160    0.5529
   32.190    0.4459
   32.220    0.4994
   32.250    0.3745
   32.280    0.3567
   32.310    0.4280
   32.340    0.5172
   32.370    0.4459
   32.400    0.6064
   32.430    0.3745
   32.460    0.4280
   32.490    0.5172
   32.520    0.4102
   32.550    0.3924
   32.580    0.3567
   32.610    0.4994
   32.640    0.4637
   32.670    0.4637
   32.700    0.5886
   32.730    0.4280
   32.760    0.4280
   32.790    0.4459
   32.820    0.3389
   32.850    0.4280
   32.880    0.4637
   32.910    0.4459
   32.940    0.6777
   32.970    0.2854
   33.000    0.3924
   33.030    0.4994
   33.060    0.3745
   33.090    0.4459
   33.120    0.4280
   33.150    0.5350
   33.180    0.3745
   33.210    0.3210
   33.240    0.4459
   33.270    0.3032
   33.300    0.4280
   33.330    0.4102
   33.360    0.4459
   33.390    0.5350
   33.420    0.3745
   33.450    0.3210
   33.480    0.3032
   33.510    0.4815
   33.540    0.3745
   33.570    0.4637
   33.600    0.3567
   33.630    0.4459
   33.660    0.3924
   33.690    0.5350
   33.720    0.5350
   33.750    0.3924
   33.780    0.4994
   33.810    0.4459
   33.840    0.2854
   33.870    0.3745
   33.900    0.4280
   33.930    0.3924
   33.960    0.3745
   33.990    0.4637
   34.020    0.3924
   34.050    0.4637
   34.080    0.3389
   34.110    0.5172
   34.140    0.3210
   34.170    0.3924
   34.200    0.5350
   34.230    0.3924
   34.260    0.3389
   34.290    0.4280
   34.320    0.4280
   34.350    0.3745
   34.380    0.3924
   34.410    0.2675
   34.440    0.3389
   34.470    0.3924
   34.500    0.3924
   34.530    0.3745
   34.560    0.3389
   34.590    0.3567
   34.620    0.3210
   34.650    0.3924
   34.680    0.4102
   34.710    0.2675
   34.740    0.3567
   34.770    0.3745
   34.800    0.2854
   34.830    0.2497
   34.860    0.4280
   34.890    0.2140
   34.920    0.3210
   34.950    0.2675
   34.980    0.3032
   35.010    0.3032
   35.040    0.2319
   35.070    0.3567
   35.100    0.3032
   35.130    0.2497
   35.160    0.2854
   35.190    0.2854
   35.220    0.2854
   35.250    0.3924
   35.280    0.3924
   35.310    0.2497
   35.340    0.3567
   35.370    0.3210
   35.400    0.4102
   35.430    0.2854
   35.460    0.3210
   35.490    0.2854
   35.520    0.3210
   35.550    0.4637
   35.580    0.3745
   35.610    0.4459
   35.640    0.3210
   35.670    0.4994
   35.700    0.3567
   35.730    0.2675
   35.760    0.3924
   35.790    0.4459
   35.820    0.3389
   35.850    0.3924
   35.880    0.3745
   35.910    0.3567
   35.940    0.2319
   35.970    0.3389
   36.000    0.3389
   36.030    0.4280
   36.060    0.2497
   36.090    0.3745
   36.120    0.2140
   36.150    0.4459
   36.180    0.2854
   36.210    0.4102
   36.240    0.2854
   36.270    0.2854
   36.300    0.2854
   36.330    0.3389
   36.360    0.4637
   36.390    0.4102
   36.420    0.1605
   36.450    0.3567
   36.480    0.2319
   36.510    0.2675
   36.540    0.2675
   36.570    0.1962
   36.600    0.2675
   36.630    0.2140
   36.660    0.3924
   36.690    0.3032
   36.720    0.2854
   36.750    0.3032
   36.780    0.2675
   36.810    0.2319
   36.840    0.3032
   36.870    0.3210
   36.900    0.2854
   36.930    0.2854
   36.960    0.2497
   36.990    0.3389
   37.020    0.2140
   37.050    0.2319
   37.080    0.3924
   37.110    0.3032
   37.140    0.2854
   37.170    0.2497
   37.200    0.3032
   37.230    0.3032
   37.260    0.2497
   37.290    0.3924
   37.320    0.3745
   37.350    0.2854
   37.380    0.1605
   37.410    0.2140
   37.440    0.3567
   37.470    0.2675
   37.500    0.2319
   37.530    0.3032
   37.560    0.3389
   37.590    0.3567
   37.620    0.2497
   37.650    0.3924
   37.680    0.3032
   37.710    0.2854
   37.740    0.1070
   37.770    0.1962
   37.800    0.2319
   37.830    0.3567
   37.860    0.2319
   37.890    0.2854
   37.920    0.2854
   37.950    0.3210
   37.980    0.2675
   38.010    0.2497
   38.040    0.3032
   38.070    0.3210
   38.100    0.3389
   38.130    0.2675
   38.160    0.2497
   38.190    0.1962
   38.220    0.3389
   38.250    0.2319
   38.280    0.3389
   38.310    0.2497
   38.340    0.2497
   38.370    0.3032
   38.400    0.3032
   38.430    0.3389
   38.460    0.3745
   38.490    0.3210
   38.520    0.2675
   38.550    0.2675
   38.580    0.2319
   38.610    0.2854
   38.640    0.3745
   38.670    0.1962
   38.700    0.2319
   38.730    0.3924
   38.760    0.1605
   38.790    0.3567
   38.820    0.2319
   38.850    0.2854
   38.880    0.2854
   38.910    0.2854
   38.940    0.2140
   38.970    0.2497
   39.000    0.2854
   39.030    0.2319
   39.060    0.2497
   39.090    0.3210
   39.120    0.2140
   39.150    0.2854
   39.180    0.3389
   39.210    0.3210
   39.240    0.2854
   39.270    0.2497
   39.300    0.2319
   39.330    0.2854
   39.360    0.3210
   39.390    0.2319
   39.420    0.3389
   39.450    0.2854
   39.480    0.1962
   39.510    0.2319
   39.540    0.1248
   39.570    0.2497
   39.600    0.1783
   39.630    0.4280
   39.660    0.2319
   39.690    0.3389
   39.720    0.2319
   39.750    0.2497
   39.780    0.2497
   39.810    0.3032
   39.840    0.2140
   39.870    0.2140
   39.900    0.2675
   39.930    0.3032
   39.960    0.2140
   39.990    0.3389