File: data/PXRD/PXRD_KE-121_Cu-Ka1_capillary-1mm_5s-deg.xyd
    1.500   13.4176
    1.530   12.9963
    1.560   12.6698
    1.590   13.0174
    1.620   12.4487
    1.650   11.5324
    1.680   12.2486
    1.710   12.0695
    1.740   12.2170
    1.770   11.7746
    1.800   11.5745
    1.830   11.0058
    1.860   11.0795
    1.890   10.5319
    1.920   10.1632
    1.950   10.5108
    1.980   10.0790
    2.010   10.3423
    2.040   10.1316
    2.070    9.6367
    2.100    9.8999
    2.130   10.2054
    2.160    9.4892
    2.190    9.7841
    2.220    9.4260
    2.250    9.4997
    2.280    9.8052
    2.310    9.1838
    2.340    9.7209
    2.370    9.3207
    2.400    9.6367
    2.430    9.3207
    2.460    9.3418
    2.490    9.3734
    2.520    8.9626
    2.550    9.8578
    2.580    9.1311
    2.610    9.3207
    2.640    9.4155
    2.670    9.7841
    2.700    9.5524
    2.730    9.7736
    2.760    9.5524
    2.790    9.8052
    2.820    8.5835
    2.850    9.7630
    2.880    9.0785
    2.910    9.3312
    2.940   10.4265
    2.970   10.2159
    3.000    9.5945
    3.030    9.7525
    3.060    9.9105
    3.090   10.0158
    3.120   10.3002
    3.150   10.7425
    3.180   10.9637
    3.210   10.4055
    3.240   10.4792
    3.270   10.9321
    3.300   11.2059
    3.330   11.2480
    3.360   11.3955
    3.390   12.0379
    3.420   12.4171
    3.450   12.9226
    3.480   13.5756
    3.510   12.9121
    3.540   13.6493
    3.570   14.7657
    3.600   15.3555
    3.630   15.6503
    3.660   16.6719
    3.690   17.5250
    3.720   19.8526
    3.750   20.2528
    3.780   21.8325
    3.810   25.5714
    3.840   28.0463
    3.870   32.1643
    3.900   29.7630
    3.930   22.9805
    3.960   15.1659
    3.990   10.8689
    4.020   10.4055
    4.050    9.3207
    4.080    9.1838
    4.110    8.7414
    4.140    8.6256
    4.170    8.5413
    4.200    8.6572
    4.230    8.2359
    4.260    7.9621
    4.290    8.3728
    4.320    8.2149
    4.350    8.0674
    4.380    7.9410
    4.410    8.2254
    4.440    8.3202
    4.470    8.2149
    4.500    7.9621
    4.530    8.2886
    4.560    8.4887
    4.590    8.1622
    4.620    7.8884
    4.650    8.2780
    4.680    7.5513
    4.710    7.9410
    4.740    8.0358
    4.770    8.2254
    4.800    8.2780
    4.830    8.2886
    4.860    8.3939
    4.890    8.3518
    4.920    8.5097
    4.950    7.9305
    4.980    8.1201
    5.010    8.1938
    5.040    8.5835
    5.070    8.3096
    5.100    8.6361
    5.130    8.6783
    5.160    8.5729
    5.190    8.9415
    5.220    8.7309
    5.250    8.4571
    5.280    9.6156
    5.310    9.4576
    5.340    9.4365
    5.370    9.9947
    5.400   10.3002
    5.430   10.7846
    5.460   11.0900
    5.490   11.6588
    5.520   11.9326
    5.550   10.6793
    5.580    9.5629
    5.610    8.5729
    5.640    8.6151
    5.670    7.6883
    5.700    8.0253
    5.730    7.7514
    5.760    7.8357
    5.790    8.0147
    5.820    8.0147
    5.850    7.5408
    5.880    7.9726
    5.910    7.7409
    5.940    8.0463
    5.970    7.8252
    6.000    8.0779
    6.030    7.8041
    6.060    7.8462
    6.090    7.5724
    6.120    7.3618
    6.150    7.8884
    6.180    7.6461
    6.210    7.9621
    6.240    7.7514
    6.270    7.8252
    6.300    7.6356
    6.330    7.8568
    6.360    7.5724
    6.390    7.6672
    6.420    8.2149
    6.450    8.2359
    6.480    8.0569
    6.510    8.3728
    6.540    7.9726
    6.570    8.0990
    6.600    8.0147
    6.630    8.1095
    6.660    7.7093
    6.690    8.2675
    6.720    8.1411
    6.750    8.4676
    6.780    8.2149
    6.810    8.3518
    6.840    7.9305
    6.870    7.7304
    6.900    7.8462
    6.930    7.7409
    6.960    8.4992
    6.990    8.1727
    7.020    8.0253
    7.050    8.0463
    7.080    7.9726
    7.110    7.7514
    7.140    7.9410
    7.170    7.7093
    7.200    7.4987
    7.230    8.1727
    7.260    7.7409
    7.290    7.7830
    7.320    8.0358
    7.350    7.3512
    7.380    8.1833
    7.410    8.1938
    7.440    8.5940
    7.470    8.2570
    7.500    7.9621
    7.530    8.0147
    7.560    8.2043
    7.590    8.2359
    7.620    8.4781
    7.650    8.4255
    7.680    8.8152
    7.710    8.8362
    7.740    8.6677
    7.770    9.0363
    7.800    8.5940
    7.830    9.0047
    7.860    8.7836
    7.890    8.9942
    7.920    8.0990
    7.950    8.0569
    7.980    8.3412
    8.010    7.9516
    8.040    8.0042
    8.070    7.8568
    8.100    8.2043
    8.130    8.0253
    8.160    8.3518
    8.190    8.5519
    8.220    8.2675
    8.250    8.6256
    8.280    8.1095
    8.310    8.1306
    8.340    8.5413
    8.370    8.4781
    8.400    8.5519
    8.430    8.3939
    8.460    8.8889
    8.490    8.1727
    8.520    8.3728
    8.550    8.5624
    8.580    8.7414
    8.610    8.3096
    8.640    8.3412
    8.670    8.5519
    8.700    8.8362
    8.730    8.8468
    8.760    8.8573
    8.790    8.4150
    8.820    8.5413
    8.850    8.7414
    8.880    8.9521
    8.910    8.6993
    8.940    8.5203
    8.970    8.4150
    9.000    8.9942
    9.030    8.6151
    9.060    8.6361
    9.090    8.6045
    9.120    8.6256
    9.150    8.7520
    9.180    8.7941
    9.210    9.0785
    9.240    8.8468
    9.270    9.2048
    9.300    8.5097
    9.330    9.4787
    9.360    9.2364
    9.390    9.1838
    9.420    9.0574
    9.450    9.4892
    9.480    9.6472
    9.510    9.8052
    9.540   10.5108
    9.570   10.8057
    9.600   10.8162
    9.630    9.7736
    9.660    9.0995
    9.690    9.1206
    9.720    8.7625
    9.750    8.8257
    9.780    8.7730
    9.810    8.9942
    9.840    8.6045
    9.870    8.6467
    9.900    8.8678
    9.930    8.9415
    9.960    8.5308
    9.990    8.9731
   10.020    9.2996
   10.050    8.7414
   10.080    8.8573
   10.110    8.3096
   10.140    8.8678
   10.170    9.5419
   10.200    9.2786
   10.230    9.1311
   10.260    9.4997
   10.290    9.1943
   10.320    9.2891
   10.350    9.0679
   10.380    9.1838
   10.410    8.8152
   10.440    9.2364
   10.470    8.6467
   10.500    8.8784
   10.530    8.1938
   10.560    8.6677
   10.590    8.9731
   10.620    8.0779
   10.650    9.0785
   10.680    9.0153
   10.710    8.4255
   10.740    8.5308
   10.770    8.6783
   10.800    8.6993
   10.830    8.7098
   10.860    8.6572
   10.890    9.0469
   10.920    8.7625
   10.950    9.0153
   10.980    9.1522
   11.010    8.9100
   11.040    8.6467
   11.070    8.9942
   11.100    8.9942
   11.130    8.6256
   11.160    8.2149
   11.190    8.4044
   11.220    8.2886
   11.250    7.9516
   11.280    8.2991
   11.310    8.0674
   11.340    8.4992
   11.370    8.1411
   11.400    7.8357
   11.430    8.4466
   11.460    8.1938
   11.490    7.9516
   11.520    7.9937
   11.550    8.6256
   11.580    8.2464
   11.610    8.5624
   11.640    8.5203
   11.670    8.2043
   11.700    8.2464
   11.730    8.7414
   11.760    8.8468
   11.790    8.5519
   11.820    8.2254
   11.850    7.8357
   11.880    8.0463
   11.910    7.9831
   11.940    7.7936
   11.970    7.9831
   12.000    8.2464
   12.030    8.1095
   12.060    7.9410
   12.090    8.1833
   12.120    7.6356
   12.150    7.8357
   12.180    7.5724
   12.210    8.1833
   12.240    8.1622
   12.270    7.6672
   12.300    7.7725
   12.330    8.0779
   12.360    7.4460
   12.390    7.4671
   12.420    7.7620
   12.450    8.0885
   12.480    7.4882
   12.510    7.7093
   12.540    7.7304
   12.570    7.4671
   12.600    7.6883
   12.630    7.6988
   12.660    7.4671
   12.690    7.3196
   12.720    7.9200
   12.750    7.4882
   12.780    7.7199
   12.810    8.1306
   12.840    7.4460
   12.870    7.8778
   12.900    7.7620
   12.930    7.8146
   12.960    8.1095
   12.990    8.5519
   13.020    7.6883
   13.050    7.6356
   13.080    8.0990
   13.110    7.4671
   13.140    7.5303
   13.170    7.4460
   13.200    7.2670
   13.230    7.5408
   13.260    7.4250
   13.290    7.4987
   13.320    7.6777
   13.350    7.5935
   13.380    7.4144
   13.410    7.0353
   13.440    7.4355
   13.470    7.7409
   13.500    7.4355
   13.530    7.8989
   13.560    7.9516
   13.590    7.6040
   13.620    7.8989
   13.650    7.4987
   13.680    7.9726
   13.710    7.6251
   13.740    7.1406
   13.770    7.7830
   13.800    7.2354
   13.830    7.1090
   13.860    7.6040
   13.890    7.6883
   13.920    7.8041
   13.950    7.0774
   13.980    7.5724
   14.010    7.9937
   14.040    7.5724
   14.070    7.6145
   14.100    7.9516
   14.130    8.0042
   14.160    7.1406
   14.190    7.5092
   14.220    7.4250
   14.250    7.4987
   14.280    7.3828
   14.310    7.5197
   14.340    7.7725
   14.370    7.7304
   14.400    7.5935
   14.430    7.5619
   14.460    7.6145
   14.490    7.4039
   14.520    7.6567
   14.550    7.3828
   14.580    7.3934
   14.610    7.2249
   14.640    7.8252
   14.670    7.5513
   14.700    7.2249
   14.730    7.4671
   14.760    7.5935
   14.790    7.4460
   14.820    7.6251
   14.850    7.3934
   14.880    7.5092
   14.910    7.4987
   14.940    7.4671
   14.970    7.2775
   15.000    7.5724
   15.030    7.6040
   15.060    7.4355
   15.090    7.4987
   15.120    7.7514
   15.150    7.6461
   15.180    7.8673
   15.210    7.6356
   15.240    7.7936
   15.270    7.7936
   15.300    7.6251
   15.330    7.2459
   15.360    7.4144
   15.390    7.6883
   15.420    7.4355
   15.450    7.7093
   15.480    7.2354
   15.510    7.5092
   15.540    7.5724
   15.570    8.0990
   15.600    7.5197
   15.630    7.5513
   15.660    7.6672
   15.690    7.4882
   15.720    7.0774
   15.750    7.7620
   15.780    7.9200
   15.810    7.5197
   15.840    7.6672
   15.870    7.7093
   15.900    7.4671
   15.930    7.6145
   15.960    7.5935
   15.990    7.4776
   16.020    7.5197
   16.050    7.6777
   16.080    7.9410
   16.110    7.5724
   16.140    7.8673
   16.170    7.7725
   16.200    8.1411
   16.230    7.9410
   16.260    8.0042
   16.290    7.8146
   16.320    7.7830
   16.350    7.8357
   16.380    7.6251
   16.410    7.4566
   16.440    7.6883
   16.470    7.9305
   16.500    7.5303
   16.530    7.8252
   16.560    7.8146
   16.590    8.1938
   16.620    8.1306
   16.650    8.0779
   16.680    7.7936
   16.710    7.3828
   16.740    7.4987
   16.770    7.4039
   16.800    7.9410
   16.830    7.8989
   16.860    7.8357
   16.890    7.5724
   16.920    7.7409
   16.950    7.7093
   16.980    7.6672
   17.010    7.3828
   17.040    7.7304
   17.070    7.8041
   17.100    8.0569
   17.130    7.8778
   17.160    8.2464
   17.190    8.0253
   17.220    7.8462
   17.250    7.6145
   17.280    7.8357
   17.310    7.6883
   17.340    7.8252
   17.370    7.7620
   17.400    8.0885
   17.430    7.8778
   17.460    7.7409
   17.490    7.9621
   17.520    8.1095
   17.550    7.6567
   17.580    7.8146
   17.610    7.6145
   17.640    7.7093
   17.670    7.6567
   17.700    7.6145
   17.730    7.4144
   17.760    7.7936
   17.790    7.5829
   17.820    7.6567
   17.850    7.3196
   17.880    7.5513
   17.910    7.2880
   17.940    7.4776
   17.970    7.8146
   18.000    7.3091
   18.030    7.6567
   18.060    7.3407
   18.090    7.5197
   18.120    7.6145
   18.150    7.7725
   18.180    7.8989
   18.210    7.9305
   18.240    7.3196
   18.270    7.5303
   18.300    7.5092
   18.330    7.9726
   18.360    7.8778
   18.390    7.6883
   18.420    8.1201
   18.450    7.8884
   18.480    7.5303
   18.510    7.7514
   18.540    8.1517
   18.570    7.9305
   18.600    7.4355
   18.630    7.7725
   18.660    7.4566
   18.690    7.8146
   18.720    7.4776
   18.750    7.8252
   18.780    7.6567
   18.810    7.9094
   18.840    7.9305
   18.870    7.7725
   18.900    8.1833
   18.930    8.3412
   18.960    8.1938
   18.990    8.7414
   19.020    8.5308
   19.050    8.2991
   19.080    7.8146
   19.110    7.8884
   19.140    8.0885
   19.170    7.8568
   19.200    7.3723
   19.230    7.6461
   19.260    7.7620
   19.290    7.7199
   19.320    7.9200
   19.350    7.8568
   19.380    7.4566
   19.410    7.9410
   19.440    7.8146
   19.470    7.4460
   19.500    8.0042
   19.530    7.7199
   19.560    8.0885
   19.590    8.2780
   19.620    8.1411
   19.650    8.2464
   19.680    7.5303
   19.710    7.8252
   19.740    8.0253
   19.770    8.1622
   19.800    7.8673
   19.830    8.2254
   19.860    7.6672
   19.890    8.0042
   19.920    7.5092
   19.950    7.7725
   19.980    8.2570
   20.010    7.7199
   20.040    8.0463
   20.070    7.9410
   20.100    7.7093
   20.130    7.6988
   20.160    7.6567
   20.190    8.0253
   20.220    8.0674
   20.250    7.7304
   20.280    7.9726
   20.310    8.1411
   20.340    8.0779
   20.370    7.8041
   20.400    8.3623
   20.430    7.8568
   20.460    8.1517
   20.490    7.8989
   20.520    8.1517
   20.550    8.1727
   20.580    7.9831
   20.610    8.2359
   20.640    7.7409
   20.670    7.8041
   20.700    7.8357
   20.730    8.0042
   20.760    8.3939
   20.790    8.1622
   20.820    8.2149
   20.850    7.8146
   20.880    7.9305
   20.910    7.8568
   20.940    7.6672
   20.970    8.0885
   21.000    8.0147
   21.030    7.7725
   21.060    8.0042
   21.090    8.1201
   21.120    7.9305
   21.150    8.0358
   21.180    8.0990
   21.210    7.8357
   21.240    8.2570
   21.270    8.1833
   21.300    8.4360
   21.330    8.1201
   21.360    7.9200
   21.390    7.6145
   21.420    7.9094
   21.450    8.0990
   21.480    7.7725
   21.510    7.6988
   21.540    8.2359
   21.570    8.5413
   21.600    7.8146
   21.630    7.6777
   21.660    7.9410
   21.690    8.1306
   21.720    7.7620
   21.750    7.9200
   21.780    8.1517
   21.810    8.1411
   21.840    7.9937
   21.870    8.2043
   21.900    7.9831
   21.930    8.5940
   21.960    7.7725
   21.990    8.3518
   22.020    8.6783
   22.050    8.0674
   22.080    8.1411
   22.110    7.7199
   22.140    7.9200
   22.170    7.8778
   22.200    8.1201
   22.230    8.1201
   22.260    7.9200
   22.290    8.0463
   22.320    7.9305
   22.350    8.1938
   22.380    8.0990
   22.410    8.2149
   22.440    8.4150
   22.470    8.2570
   22.500    8.5097
   22.530    7.6777
   22.560    8.2359
   22.590    8.1938
   22.620    8.3834
   22.650    8.8784
   22.680    8.8257
   22.710    8.3412
   22.740    8.2359
   22.770    7.8778
   22.800    8.1833
   22.830    8.3202
   22.860    8.1938
   22.890    8.1727
   22.920    8.3623
   22.950    8.5940
   22.980    8.4255
   23.010    8.7836
   23.040    8.2675
   23.070    8.3623
   23.100    8.5097
   23.130    8.4360
   23.160    8.2359
   23.190    7.9094
   23.220    8.5097
   23.250    8.2254
   23.280    8.1306
   23.310    8.0885
   23.340    7.8568
   23.370    8.4360
   23.400    8.4992
   23.430    8.1517
   23.460    7.8884
   23.490    8.5203
   23.520    8.3096
   23.550    8.0042
   23.580    8.0569
   23.610    7.7936
   23.640    7.5303
   23.670    7.7199
   23.700    8.3412
   23.730    7.7620
   23.760    8.2149
   23.790    8.1517
   23.820    7.5408
   23.850    8.0253
   23.880    8.0358
   23.910    8.0463
   23.940    8.3307
   23.970    7.6672
   24.000    7.9094
   24.030    7.8357
   24.060    7.6777
   24.090    7.5092
   24.120    7.9094
   24.150    7.8884
   24.180    7.8778
   24.210    7.8146
   24.240    7.8989
   24.270    7.6777
   24.300    7.4671
   24.330    7.5935
   24.360    7.8146
   24.390    7.6251
   24.420    8.2149
   24.450    8.0463
   24.480    7.8462
   24.510    7.6251
   24.540    7.7304
   24.570    7.8568
   24.600    7.7936
   24.630    7.6988
   24.660    7.9410
   24.690    7.8462
   24.720    7.3828
   24.750    7.4566
   24.780    7.3934
   24.810    7.9726
   24.840    7.7620
   24.870    7.2775
   24.900    7.8041
   24.930    7.4987
   24.960    7.3618
   24.990    7.7304
   25.020    7.9410
   25.050    7.9094
   25.080    7.8357
   25.110    7.5935
   25.140    7.8041
   25.170    7.4566
   25.200    7.5197
   25.230    7.8884
   25.260    7.6356
   25.290    7.5829
   25.320    7.4566
   25.350    7.3302
   25.380    7.6672
   25.410    8.0779
   25.440    7.6883
   25.470    7.3723
   25.500    7.8041
   25.530    7.9726
   25.560    7.8462
   25.590    7.4776
   25.620    7.4882
   25.650    7.4566
   25.680    7.4039
   25.710    7.3618
   25.740    7.3618
   25.770    7.7093
   25.800    7.2986
   25.830    7.6145
   25.860    7.2986
   25.890    8.1938
   25.920    7.5513
   25.950    8.2359
   25.980    7.9621
   26.010    7.4355
   26.040    7.7620
   26.070    7.5092
   26.100    7.4566
   26.130    7.6145
   26.160    7.3512
   26.190    7.6988
   26.220    7.1617
   26.250    7.0774
   26.280    7.3618
   26.310    7.8357
   26.340    7.7830
   26.370    7.2459
   26.400    7.4144
   26.430    7.2459
   26.460    7.2880
   26.490    7.3934
   26.520    7.2986
   26.550    7.4776
   26.580    7.5197
   26.610    7.3196
   26.640    7.4250
   26.670    7.6356
   26.700    7.2459
   26.730    7.4460
   26.760    7.6567
   26.790    7.3723
   26.820    7.6040
   26.850    7.1722
   26.880    7.4671
   26.910    6.9932
   26.940    7.0669
   26.970    7.2143
   27.000    7.6883
   27.030    6.9510
   27.060    6.4455
   27.090    7.4144
   27.120    7.4250
   27.150    7.4776
   27.180    7.3407
   27.210    7.3618
   27.240    6.9089
   27.270    7.0563
   27.300    7.2880
   27.330    7.4039
   27.360    6.7930
   27.390    7.2775
   27.420    6.8457
   27.450    7.4776
   27.480    7.2986
   27.510    7.6988
   27.540    7.3618
   27.570    7.5197
   27.600    6.9194
   27.630    7.6040
   27.660    7.1301
   27.690    7.2775
   27.720    7.5724
   27.750    7.1722
   27.780    7.9305
   27.810    7.2565
   27.840    7.2670
   27.870    7.5197
   27.900    7.2670
   27.930    7.3512
   27.960    7.5935
   27.990    7.3091
   28.020    7.4039
   28.050    8.0253
   28.080    7.4671
   28.110    7.4987
   28.140    7.6988
   28.170    7.4144
   28.200    7.0879
   28.230    7.4460
   28.260    7.4144
   28.290    7.2354
   28.320    7.4671
   28.350    7.1617
   28.380    7.0879
   28.410    7.7514
   28.440    7.0669
   28.470    7.0774
   28.500    7.4987
   28.530    7.6145
   28.560    7.1933
   28.590    7.0774
   28.620    7.3512
   28.650    7.2670
   28.680    6.8352
   28.710    6.8562
   28.740    7.1195
   28.770    7.2565
   28.800    6.7088
   28.830    7.1406
   28.860    7.0669
   28.890    7.0985
   28.920    7.5935
   28.950    7.6672
   28.980    7.6251
   29.010    7.2354
   29.040    7.6145
   29.070    6.7825
   29.100    6.5929
   29.130    6.9510
   29.160    6.7299
   29.190    6.6140
   29.220    7.0669
   29.250    6.7088
   29.280    7.2143
   29.310    6.7193
   29.340    6.9721
   29.370    7.0037
   29.400    6.7615
   29.430    6.9405
   29.460    6.4244
   29.490    7.1722
   29.520    7.0353
   29.550    7.0669
   29.580    6.9826
   29.610    6.9089
   29.640    7.0248
   29.670    6.8984
   29.700    7.1827
   29.730    6.8562
   29.760    6.7193
   29.790    6.8352
   29.820    6.9826
   29.850    6.9616
   29.880    6.6667
   29.910    6.4560
   29.940    7.0879
   29.970    6.6877
   30.000    6.9826
   30.030    6.4982
   30.060    6.5824
   30.090    6.8668
   30.120    6.9932
   30.150    6.6140
   30.180    7.1195
   30.210    6.7404
   30.240    6.5192
   30.270    6.4876
   30.300    7.0353
   30.330    6.7615
   30.360    6.6140
   30.390    6.8668
   30.420    6.6456
   30.450    6.8562
   30.480    6.6983
   30.510    6.3191
   30.540    6.8562
   30.570    6.6877
   30.600    6.3823
   30.630    6.8668
   30.660    6.7720
   30.690    6.8141
   30.720    6.4560
   30.750    6.8984
   30.780    6.9510
   30.810    6.5824
   30.840    6.5824
   30.870    6.5087
   30.900    6.5298
   30.930    6.8352
   30.960    6.7509
   30.990    6.9510
   31.020    7.2354
   31.050    6.3402
   31.080    6.7404
   31.110    6.6983
   31.140    6.7299
   31.170    6.7930
   31.200    6.5298
   31.230    6.7509
   31.260    6.4771
   31.290    6.6140
   31.320    6.8668
   31.350    6.4034
   31.380    6.7299
   31.410    6.8457
   31.440    6.4034
   31.470    6.4982
   31.500    6.3823
   31.530    6.7720
   31.560    6.5929
   31.590    6.6245
   31.620    6.5403
   31.650    6.1822
   31.680    6.4139
   31.710    6.7404
   31.740    6.3507
   31.770    6.4876
   31.800    7.0353
   31.830    6.6245
   31.860    6.2454
   31.890    6.8878
   31.920    6.8773
   31.950    6.4666
   31.980    7.3512
   32.010    6.8878
   32.040    7.8041
   32.070    7.8041
   32.100    7.8673
   32.130    7.4882
   32.160    7.6883
   32.190    6.7404
   32.220    6.9616
   32.250    6.0979
   32.280    5.8978
   32.310    6.7404
   32.340    6.3296
   32.370    6.4771
   32.400    6.5613
   32.430    6.7193
   32.460    6.4666
   32.490    7.1301
   32.520    6.0242
   32.550    6.4244
   32.580    5.8978
   32.610    6.5824
   32.640    6.4982
   32.670    6.2665
   32.700    5.9821
   32.730    6.3402
   32.760    6.4876
   32.790    6.2981
   32.820    6.2138
   32.850    6.3086
   32.880    6.1717
   32.910    6.8773
   32.940    6.2875
   32.970    6.4771
   33.000    6.3718
   33.030    6.4034
   33.060    6.2875
   33.090    6.4560
   33.120    5.9610
   33.150    6.8141
   33.180    6.4455
   33.210    6.1717
   33.240    6.4771
   33.270    6.4666
   33.300    6.0874
   33.330    6.1401
   33.360    6.1717
   33.390    6.3402
   33.420    5.9821
   33.450    6.0137
   33.480    6.5192
   33.510    6.2770
   33.540    6.4244
   33.570    6.3718
   33.600    5.9926
   33.630    6.4139
   33.660    5.9821
   33.690    6.3191
   33.720    6.1506
   33.750    6.7088
   33.780    6.7088
   33.810    6.5298
   33.840    6.7615
   33.870    6.7825
   33.900    6.3612
   33.930    6.4455
   33.960    6.5298
   33.990    6.1295
   34.020    6.4982
   34.050    6.4455
   34.080    6.6351
   34.110    6.5824
   34.140    6.4139
   34.170    6.0664
   34.200    6.4560
   34.230    6.0769
   34.260    6.0453
   34.290    5.7715
   34.320    6.0664
   34.350    5.8978
   34.380    6.0664
   34.410    6.4139
   34.440    6.1822
   34.470    6.0874
   34.500    6.6983
   34.530    6.0664
   34.560    5.9400
   34.590    6.1295
   34.620    6.1401
   34.650    6.3928
   34.680    5.8768
   34.710    6.3402
   34.740    6.2665
   34.770    5.7399
   34.800    6.2454
   34.830    6.4982
   34.860    6.5613
   34.890    6.0137
   34.920    6.0664
   34.950    6.1085
   34.980    5.6240
   35.010    5.9400
   35.040    5.9189
   35.070    6.2138
   35.100    5.9610
   35.130    5.9926
   35.160    5.8452
   35.190    5.9400
   35.220    6.0348
   35.250    5.7925
   35.280    5.7399
   35.310    6.2243
   35.340    5.7925
   35.370    6.3296
   35.400    5.8347
   35.430    6.0664
   35.460    6.3086
   35.490    6.0242
   35.520    5.8241
   35.550    5.9294
   35.580    6.1927
   35.610    6.0242
   35.640    5.8347
   35.670    6.0137
   35.700    5.9821
   35.730    5.7188
   35.760    6.0979
   35.790    5.7820
   35.820    5.7715
   35.850    6.3191
   35.880    6.2454
   35.910    6.1401
   35.940    6.4666
   35.970    6.3191
   36.000    5.8557
   36.030    6.0242
   36.060    5.7188
   36.090    5.8347
   36.120    5.9926
   36.150    6.0664
   36.180    6.2349
   36.210    5.7820
   36.240    5.6767
   36.270    5.9294
   36.300    5.8347
   36.330    5.9821
   36.360    5.8347
   36.390    6.0979
   36.420    6.0979
   36.450    5.8873
   36.480    5.6767
   36.510    6.0453
   36.540    5.3818
   36.570    5.6767
   36.600    5.6240
   36.630    5.8873
   36.660    6.0348
   36.690    5.8136
   36.720    5.9716
   36.750    5.6977
   36.780    5.6135
   36.810    6.0453
   36.840    6.0242
   36.870    6.0874
   36.900    6.0558
   36.930    5.6451
   36.960    5.9821
   36.990    5.8031
   37.020    5.5082
   37.050    6.0979
   37.080    5.7293
   37.110    5.8978
   37.140    5.9400
   37.170    5.9189
   37.200    5.8136
   37.230    5.9189
   37.260    5.6135
   37.290    5.7609
   37.320    5.8873
   37.350    5.6029
   37.380    5.3397
   37.410    6.0874
   37.440    5.4344
   37.470    5.6240
   37.500    5.9716
   37.530    5.8347
   37.560    5.8241
   37.590    5.9610
   37.620    5.9084
   37.650    5.6451
   37.680    6.2454
   37.710    6.0242
   37.740    5.9505
   37.770    5.8873
   37.800    6.1085
   37.830    6.0348
   37.860    5.8557
   37.890    5.9189
   37.920    6.0348
   37.950    5.8768
   37.980    5.8662
   38.010    5.6135
   38.040    6.0979
   38.070    6.2665
   38.100    5.5292
   38.130    5.6767
   38.160    5.9189
   38.190    5.7083
   38.220    5.5398
   38.250    5.7083
   38.280    5.8136
   38.310    5.8136
   38.340    6.0348
   38.370    5.7293
   38.400    6.1822
   38.430    5.9189
   38.460    5.6661
   38.490    5.7925
   38.520    5.6451
   38.550    5.9926
   38.580    6.2033
   38.610    6.0242
   38.640    6.4350
   38.670    5.8136
   38.700    5.8768
   38.730    6.2349
   38.760    5.9505
   38.790    5.5819
   38.820    5.9505
   38.850    5.5714
   38.880    6.0137
   38.910    6.0769
   38.940    6.0348
   38.970    5.7609
   39.000    5.8662
   39.030    5.8873
   39.060    5.6451
   39.090    6.0348
   39.120    5.7188
   39.150    5.6345
   39.180    5.6661
   39.210    5.8768
   39.240    5.5819
   39.270    6.0348
   39.300    5.9821
   39.330    5.8452
   39.360    5.9400
   39.390    5.8136
   39.420    5.7083
   39.450    6.0769
   39.480    5.8031
   39.510    6.1295
   39.540    5.9400
   39.570    5.8452
   39.600    5.9716
   39.630    5.4450
   39.660    5.6767
   39.690    5.5398
   39.720    5.8452
   39.750    6.0453
   39.780    5.8978
   39.810    5.7399
   39.840    5.7504
   39.870    5.5819
   39.900    5.8662
   39.930    5.7715
   39.960    5.7293
   39.990    5.5082