File: data/PXRD/PXRD_KE-302Ink_Cu-Ka1_film-3mm_3s-deg.xyd
    1.500   16.6930
    1.530   16.9212
    1.560   15.7978
    1.590   14.9201
    1.620   14.7446
    1.650   13.5685
    1.680   13.5334
    1.710   13.9196
    1.740   12.8664
    1.770   13.5510
    1.800   12.3925
    1.830   13.1473
    1.860   11.3744
    1.890   12.2696
    1.920   12.0765
    1.950   11.7255
    1.980   11.0760
    2.010   10.7776
    2.040   10.9531
    2.070   10.6547
    2.100   10.7600
    2.130   10.2159
    2.160   10.2861
    2.190   10.0228
    2.220    9.2154
    2.250   10.3914
    2.280    9.4436
    2.310    9.3558
    2.340    9.0750
    2.370    8.8819
    2.400    9.2856
    2.430    9.4260
    2.460    8.8819
    2.490    8.8292
    2.520    8.5835
    2.550    9.3382
    2.580    8.7239
    2.610    9.4436
    2.640    8.6361
    2.670    8.5484
    2.700    8.1622
    2.730    8.5133
    2.760    7.8111
    2.790    8.1797
    2.820    8.6537
    2.850    7.6707
    2.880    8.3026
    2.910    7.9164
    2.940    7.9516
    2.970    8.5484
    3.000    8.1797
    3.030    8.0744
    3.060    7.9516
    3.090    7.6180
    3.120    7.6356
    3.150    7.8462
    3.180    7.5303
    3.210    8.1973
    3.240    7.9691
    3.270    7.5829
    3.300    8.0569
    3.330    7.7058
    3.360    8.4430
    3.390    8.2149
    3.420    8.5835
    3.450    8.4957
    3.480    8.2675
    3.510    8.5659
    3.540    9.1978
    3.570    9.3207
    3.600    8.4255
    3.630    9.7420
    3.660   10.4616
    3.690   11.5324
    3.720   11.4095
    3.750   12.2345
    3.780   13.9372
    3.810   16.4297
    3.840   16.7632
    3.870   16.8334
    3.900   13.7616
    3.930   11.2691
    3.960    9.3734
    3.990    8.1797
    4.020    7.7936
    4.050    7.8287
    4.080    7.7760
    4.110    7.5829
    4.140    7.2494
    4.170    7.4425
    4.200    7.6532
    4.230    7.3899
    4.260    7.3723
    4.290    7.1968
    4.320    7.4250
    4.350    6.8633
    4.380    7.9340
    4.410    7.2670
    4.440    7.2670
    4.470    7.5127
    4.500    7.2494
    4.530    7.2494
    4.560    6.8106
    4.590    6.9510
    4.620    6.7930
    4.650    7.1617
    4.680    7.1617
    4.710    7.5478
    4.740    7.1266
    4.770    7.4776
    4.800    7.3899
    4.830    7.7409
    4.860    7.4601
    4.890    8.1797
    4.920    8.1095
    4.950    7.2845
    4.980    7.3196
    5.010    7.8111
    5.040    7.7234
    5.070    7.5478
    5.100    8.4255
    5.130    7.8462
    5.160    8.3728
    5.190    8.3377
    5.220    8.7941
    5.250    8.6537
    5.280    9.1452
    5.310    9.6015
    5.340    9.4085
    5.370    9.3031
    5.400   10.1983
    5.430   10.0228
    5.460    9.9526
    5.490   10.6021
    5.520   10.3212
    5.550    9.6893
    5.580    9.1101
    5.610    9.3207
    5.640    8.9696
    5.670    8.9170
    5.700    8.4079
    5.730    8.5659
    5.760    8.3377
    5.790    8.8643
    5.820    8.5133
    5.850    7.8813
    5.880    8.2675
    5.910    7.6180
    5.940    7.9516
    5.970    7.6180
    6.000    7.3723
    6.030    7.4425
    6.060    6.9861
    6.090    7.8989
    6.120    7.0037
    6.150    6.4771
    6.180    6.7930
    6.210    7.3021
    6.240    7.3021
    6.270    7.1090
    6.300    7.1266
    6.330    6.9861
    6.360    6.4946
    6.390    7.1090
    6.420    7.4952
    6.450    7.3021
    6.480    6.8282
    6.510    7.0915
    6.540    6.5122
    6.570    6.8984
    6.600    6.7053
    6.630    6.9510
    6.660    6.8457
    6.690    6.7755
    6.720    7.5654
    6.750    6.8282
    6.780    6.7755
    6.810    6.8282
    6.840    6.4946
    6.870    6.2313
    6.900    6.7228
    6.930    6.1611
    6.960    6.7579
    6.990    6.1962
    7.020    6.1085
    7.050    6.2313
    7.080    6.0558
    7.110    6.7579
    7.140    5.9505
    7.170    5.8803
    7.200    5.6170
    7.230    6.2840
    7.260    6.0032
    7.290    5.9154
    7.320    5.7925
    7.350    6.1611
    7.380    5.4239
    7.410    5.9154
    7.440    5.7750
    7.470    5.8978
    7.500    5.6345
    7.530    5.9154
    7.560    5.7223
    7.590    5.7574
    7.620    5.8276
    7.650    5.9154
    7.680    6.1436
    7.710    5.8627
    7.740    5.9856
    7.770    5.6345
    7.800    6.2138
    7.830    5.7574
    7.860    5.8452
    7.890    5.1255
    7.920    5.1957
    7.950    5.5292
    7.980    5.3010
    8.010    5.1957
    8.040    5.3186
    8.070    5.3888
    8.100    5.9505
    8.130    5.4590
    8.160    5.7223
    8.190    5.7048
    8.220    5.3888
    8.250    5.1080
    8.280    5.1782
    8.310    5.3537
    8.340    4.7744
    8.370    5.1255
    8.400    4.9324
    8.430    5.2133
    8.460    5.1782
    8.490    5.2308
    8.520    5.2308
    8.550    5.1431
    8.580    5.4239
    8.610    5.0553
    8.640    4.8973
    8.670    5.3010
    8.700    5.1782
    8.730    5.5643
    8.760    4.7393
    8.790    4.8973
    8.820    4.9324
    8.850    4.9675
    8.880    5.0026
    8.910    5.0026
    8.940    5.2133
    8.970    4.8447
    9.000    5.1431
    9.030    5.4415
    9.060    4.8798
    9.090    5.3888
    9.120    5.2133
    9.150    4.8095
    9.180    5.3010
    9.210    5.3361
    9.240    4.9324
    9.270    5.1255
    9.300    5.7399
    9.330    5.3712
    9.360    5.4064
    9.390    4.9500
    9.420    5.6697
    9.450    5.8627
    9.480    5.5819
    9.510    5.7925
    9.540    5.9505
    9.570    5.8276
    9.600    5.5292
    9.630    5.0904
    9.660    5.4766
    9.690    5.0026
    9.720    5.0377
    9.750    4.8447
    9.780    4.9324
    9.810    5.2484
    9.840    5.0377
    9.870    5.4064
    9.900    5.3537
    9.930    5.6345
    9.960    5.0904
    9.990    5.6872
   10.020    5.1957
   10.050    5.0377
   10.080    4.9675
   10.110    5.7750
   10.140    5.5994
   10.170    5.1957
   10.200    5.7574
   10.230    5.3712
   10.260    6.0734
   10.290    5.9856
   10.320    6.0909
   10.350    6.1611
   10.380    5.5819
   10.410    5.4239
   10.440    5.2835
   10.470    5.0377
   10.500    5.8803
   10.530    5.1255
   10.560    5.2835
   10.590    5.3888
   10.620    5.7574
   10.650    4.8095
   10.680    5.2308
   10.710    5.4239
   10.740    5.2308
   10.770    5.2835
   10.800    5.0904
   10.830    5.4064
   10.860    5.6521
   10.890    5.2835
   10.920    5.3712
   10.950    5.6345
   10.980    5.7574
   11.010    5.7223
   11.040    5.9856
   11.070    5.4766
   11.100    5.3186
   11.130    5.4415
   11.160    5.0553
   11.190    5.4766
   11.220    5.5292
   11.250    5.3361
   11.280    5.2659
   11.310    5.4766
   11.340    5.5468
   11.370    5.4239
   11.400    5.5643
   11.430    5.3712
   11.460    5.3186
   11.490    5.3186
   11.520    5.0377
   11.550    5.3010
   11.580    5.1431
   11.610    5.7925
   11.640    5.8803
   11.670    5.5292
   11.700    5.6345
   11.730    5.7750
   11.760    5.4415
   11.790    5.6170
   11.820    5.1080
   11.850    4.7393
   11.880    5.1782
   11.910    5.2659
   11.940    4.5814
   11.970    4.8798
   12.000    5.0728
   12.030    4.4936
   12.060    4.9149
   12.090    5.0202
   12.120    4.7920
   12.150    4.3356
   12.180    5.0202
   12.210    4.9149
   12.240    5.0904
   12.270    4.8622
   12.300    5.0026
   12.330    4.7042
   12.360    5.2835
   12.390    4.9324
   12.420    4.7744
   12.450    5.1606
   12.480    4.8798
   12.510    4.6691
   12.540    5.0377
   12.570    4.6340
   12.600    5.2133
   12.630    4.8798
   12.660    4.7218
   12.690    4.6165
   12.720    5.0026
   12.750    4.6867
   12.780    4.8271
   12.810    5.0202
   12.840    4.6165
   12.870    4.8447
   12.900    4.9500
   12.930    4.9324
   12.960    5.3186
   12.990    5.1080
   13.020    5.1431
   13.050    4.7569
   13.080    4.7218
   13.110    4.8271
   13.140    4.9324
   13.170    5.0377
   13.200    5.0377
   13.230    4.6516
   13.260    5.1255
   13.290    4.3356
   13.320    4.2830
   13.350    4.8271
   13.380    4.3707
   13.410    5.0728
   13.440    4.8798
   13.470    4.8447
   13.500    4.8973
   13.530    5.3888
   13.560    5.0377
   13.590    4.4936
   13.620    4.9324
   13.650    4.8798
   13.680    4.3005
   13.710    4.7744
   13.740    5.0728
   13.770    4.8095
   13.800    4.9149
   13.830    4.6516
   13.860    4.7744
   13.890    5.0553
   13.920    5.0026
   13.950    4.7920
   13.980    4.9500
   14.010    4.8798
   14.040    5.4941
   14.070    4.7393
   14.100    5.0377
   14.130    5.0026
   14.160    5.1255
   14.190    5.3010
   14.220    5.2133
   14.250    5.1255
   14.280    5.1606
   14.310    4.8095
   14.340    5.4766
   14.370    5.4239
   14.400    5.3712
   14.430    4.9851
   14.460    5.4415
   14.490    5.3361
   14.520    5.5819
   14.550    5.0202
   14.580    5.0026
   14.610    5.0377
   14.640    4.9324
   14.670    5.1255
   14.700    5.4415
   14.730    5.2133
   14.760    4.6867
   14.790    4.6165
   14.820    5.1080
   14.850    4.9500
   14.880    4.7920
   14.910    5.0377
   14.940    4.9851
   14.970    4.7218
   15.000    4.8973
   15.030    4.4760
   15.060    5.0202
   15.090    4.7744
   15.120    4.7042
   15.150    5.0202
   15.180    4.9500
   15.210    4.8973
   15.240    4.7393
   15.270    4.9149
   15.300    4.6165
   15.330    4.3532
   15.360    4.6867
   15.390    4.5814
   15.420    4.6691
   15.450    4.5638
   15.480    4.4760
   15.510    5.0377
   15.540    4.8622
   15.570    4.6340
   15.600    4.4936
   15.630    4.4058
   15.660    5.0026
   15.690    4.6165
   15.720    4.5989
   15.750    4.9500
   15.780    4.7042
   15.810    4.4760
   15.840    4.8798
   15.870    4.7744
   15.900    4.5463
   15.930    4.8447
   15.960    5.0026
   15.990    5.0553
   16.020    4.5989
   16.050    4.5638
   16.080    5.4415
   16.110    4.5111
   16.140    4.8095
   16.170    4.9149
   16.200    5.0904
   16.230    4.7920
   16.260    4.9851
   16.290    5.0728
   16.320    4.6340
   16.350    5.0904
   16.380    4.5814
   16.410    4.5111
   16.440    4.6867
   16.470    4.3005
   16.500    4.9324
   16.530    4.6867
   16.560    4.7218
   16.590    4.6516
   16.620    4.9500
   16.650    5.3537
   16.680    5.0026
   16.710    4.3883
   16.740    5.0202
   16.770    5.0904
   16.800    4.9149
   16.830    4.8973
   16.860    4.3181
   16.890    4.7218
   16.920    4.7218
   16.950    5.1957
   16.980    4.5989
   17.010    5.1606
   17.040    4.9500
   17.070    5.1957
   17.100    4.8095
   17.130    5.0728
   17.160    4.9324
   17.190    4.5638
   17.220    4.8622
   17.250    4.6691
   17.280    4.8271
   17.310    4.4585
   17.340    5.2484
   17.370    4.8095
   17.400    4.2303
   17.430    4.4585
   17.460    4.6516
   17.490    4.9851
   17.520    4.6165
   17.550    4.6340
   17.580    4.7569
   17.610    5.1957
   17.640    4.5814
   17.670    4.4585
   17.700    4.4936
   17.730    4.5989
   17.760    4.5463
   17.790    4.4409
   17.820    4.5814
   17.850    5.2133
   17.880    5.0377
   17.910    4.2478
   17.940    4.5814
   17.970    4.6340
   18.000    4.4585
   18.030    4.5287
   18.060    5.2308
   18.090    4.6340
   18.120    4.5814
   18.150    4.7569
   18.180    4.2830
   18.210    4.5463
   18.240    4.2478
   18.270    4.8271
   18.300    4.1952
   18.330    4.3356
   18.360    4.7569
   18.390    4.6516
   18.420    4.6340
   18.450    4.5111
   18.480    4.4409
   18.510    4.2654
   18.540    4.6165
   18.570    4.4936
   18.600    4.5814
   18.630    4.6165
   18.660    4.6340
   18.690    4.3883
   18.720    4.4585
   18.750    4.7393
   18.780    4.7393
   18.810    4.5989
   18.840    4.8798
   18.870    4.8095
   18.900    4.7042
   18.930    4.4936
   18.960    4.5287
   18.990    4.2830
   19.020    4.0548
   19.050    4.9149
   19.080    4.1250
   19.110    4.3181
   19.140    4.5111
   19.170    4.0899
   19.200    4.7393
   19.230    4.8447
   19.260    4.5814
   19.290    4.2830
   19.320    4.6867
   19.350    4.3707
   19.380    4.5111
   19.410    4.7042
   19.440    4.0899
   19.470    4.4585
   19.500    4.3707
   19.530    4.7744
   19.560    4.5463
   19.590    4.5287
   19.620    4.5989
   19.650    4.3532
   19.680    4.4234
   19.710    4.1952
   19.740    3.8968
   19.770    4.4234
   19.800    4.1776
   19.830    4.5463
   19.860    3.9143
   19.890    4.7042
   19.920    4.4058
   19.950    4.1250
   19.980    4.3883
   20.010    4.3005
   20.040    4.1776
   20.070    4.4409
   20.100    4.0548
   20.130    4.8095
   20.160    4.3707
   20.190    4.8271
   20.220    4.1952
   20.250    4.2303
   20.280    4.2654
   20.310    4.2478
   20.340    4.8271
   20.370    4.5111
   20.400    4.3181
   20.430    4.0899
   20.460    4.4234
   20.490    4.5287
   20.520    4.0021
   20.550    4.5989
   20.580    4.4760
   20.610    4.6340
   20.640    4.2478
   20.670    4.9149
   20.700    4.2303
   20.730    4.2478
   20.760    4.1074
   20.790    4.4409
   20.820    4.3707
   20.850    3.8617
   20.880    4.5463
   20.910    4.5111
   20.940    4.0548
   20.970    3.9846
   21.000    4.1952
   21.030    4.5287
   21.060    4.2303
   21.090    4.1601
   21.120    4.3356
   21.150    3.9494
   21.180    4.1776
   21.210    4.4058
   21.240    3.8266
   21.270    4.2654
   21.300    4.3005
   21.330    4.2303
   21.360    4.1074
   21.390    3.8090
   21.420    4.6165
   21.450    3.9846
   21.480    4.4234
   21.510    4.1250
   21.540    4.5989
   21.570    4.4760
   21.600    4.7393
   21.630    4.4058
   21.660    4.2303
   21.690    4.1776
   21.720    4.0899
   21.750    4.4058
   21.780    4.2654
   21.810    4.1425
   21.840    4.0548
   21.870    4.1776
   21.900    4.1952
   21.930    4.5638
   21.960    4.0723
   21.990    4.1074
   22.020    3.8968
   22.050    4.0899
   22.080    4.1952
   22.110    4.1250
   22.140    4.2654
   22.170    4.0372
   22.200    4.3005
   22.230    4.0723
   22.260    3.7213
   22.290    4.3532
   22.320    4.1250
   22.350    4.1250
   22.380    4.4585
   22.410    4.1250
   22.440    4.0372
   22.470    4.0197
   22.500    4.3005
   22.530    4.0899
   22.560    4.3356
   22.590    4.4936
   22.620    4.3005
   22.650    4.2478
   22.680    3.9319
   22.710    3.6510
   22.740    4.0723
   22.770    3.7388
   22.800    4.0021
   22.830    4.0548
   22.860    4.3707
   22.890    3.8792
   22.920    4.3707
   22.950    4.0372
   22.980    4.1425
   23.010    4.1952
   23.040    4.0723
   23.070    3.6335
   23.100    4.0372
   23.130    4.1074
   23.160    4.2127
   23.190    3.7037
   23.220    4.2830
   23.250    3.6159
   23.280    3.9670
   23.310    4.0197
   23.340    3.6159
   23.370    3.8266
   23.400    3.5984
   23.430    4.0197
   23.460    3.8441
   23.490    3.7564
   23.520    3.9319
   23.550    3.8090
   23.580    3.8792
   23.610    3.9319
   23.640    3.5633
   23.670    3.8441
   23.700    3.8090
   23.730    3.9670
   23.760    3.7739
   23.790    3.4755
   23.820    3.5984
   23.850    3.8441
   23.880    3.9494
   23.910    3.8968
   23.940    4.1425
   23.970    4.0197
   24.000    3.8090
   24.030    4.1601
   24.060    3.5282
   24.090    3.8441
   24.120    3.6510
   24.150    4.0197
   24.180    3.6335
   24.210    3.4755
   24.240    4.1074
   24.270    3.9846
   24.300    3.6862
   24.330    3.9670
   24.360    3.6335
   24.390    3.9846
   24.420    3.7388
   24.450    3.5106
   24.480    3.7564
   24.510    4.0021
   24.540    3.7037
   24.570    3.5808
   24.600    3.6862
   24.630    3.5633
   24.660    3.5457
   24.690    3.9494
   24.720    3.4404
   24.750    3.9670
   24.780    3.9846
   24.810    3.8090
   24.840    3.2824
   24.870    3.4580
   24.900    3.4404
   24.930    3.6510
   24.960    3.5808
   24.990    3.5106
   25.020    3.4580
   25.050    3.6510
   25.080    3.5984
   25.110    3.6335
   25.140    3.4053
   25.170    3.6510
   25.200    3.7915
   25.230    3.7739
   25.260    3.8441
   25.290    3.8090
   25.320    3.7915
   25.350    3.7915
   25.380    3.9143
   25.410    3.4931
   25.440    3.6686
   25.470    3.6510
   25.500    4.0021
   25.530    3.4053
   25.560    3.3351
   25.590    3.4580
   25.620    3.4229
   25.650    3.5808
   25.680    3.3526
   25.710    3.7739
   25.740    3.1245
   25.770    3.6335
   25.800    3.3175
   25.830    3.6862
   25.860    4.1074
   25.890    3.5457
   25.920    3.9143
   25.950    3.1245
   25.980    3.6159
   26.010    3.4931
   26.040    3.2122
   26.070    3.6686
   26.100    3.6686
   26.130    3.4404
   26.160    3.5984
   26.190    3.6335
   26.220    3.4580
   26.250    3.8441
   26.280    3.4580
   26.310    3.4053
   26.340    3.5457
   26.370    3.1771
   26.400    3.6862
   26.430    3.7213
   26.460    3.8441
   26.490    3.8617
   26.520    3.4404
   26.550    3.5106
   26.580    3.1947
   26.610    3.2649
   26.640    3.4580
   26.670    3.4404
   26.700    3.4053
   26.730    3.7564
   26.760    3.4229
   26.790    3.2473
   26.820    3.5984
   26.850    3.3526
   26.880    3.4404
   26.910    3.1069
   26.940    3.5984
   26.970    3.2824
   27.000    3.4229
   27.030    3.6159
   27.060    3.8266
   27.090    3.4931
   27.120    3.7915
   27.150    3.3351
   27.180    3.3702
   27.210    3.3000
   27.240    3.0542
   27.270    3.5106
   27.300    3.0718
   27.330    3.2122
   27.360    3.2649
   27.390    3.3000
   27.420    3.1771
   27.450    3.1420
   27.480    2.9314
   27.510    3.1596
   27.540    3.3000
   27.570    3.4053
   27.600    3.6510
   27.630    3.5808
   27.660    3.4404
   27.690    3.1245
   27.720    3.1596
   27.750    3.3175
   27.780    3.3351
   27.810    3.0542
   27.840    3.0893
   27.870    3.2298
   27.900    3.4931
   27.930    3.4755
   27.960    2.9665
   27.990    3.0542
   28.020    3.4580
   28.050    3.3877
   28.080    3.1771
   28.110    3.2122
   28.140    3.2649
   28.170    3.7388
   28.200    3.1069
   28.230    3.0191
   28.260    3.3175
   28.290    3.4931
   28.320    3.1420
   28.350    2.8963
   28.380    3.0191
   28.410    3.2122
   28.440    3.3877
   28.470    2.9665
   28.500    3.4053
   28.530    3.0016
   28.560    3.2298
   28.590    3.3877
   28.620    3.0893
   28.650    2.9314
   28.680    3.1069
   28.710    3.1420
   28.740    3.1069
   28.770    3.3877
   28.800    3.1245
   28.830    3.3877
   28.860    3.0542
   28.890    3.3000
   28.920    3.2824
   28.950    3.1596
   28.980    3.1245
   29.010    3.2824
   29.040    3.3351
   29.070    3.3702
   29.100    3.0542
   29.130    2.9665
   29.160    3.3000
   29.190    3.1069
   29.220    3.2473
   29.250    3.5106
   29.280    3.2824
   29.310    3.5282
   29.340    2.7734
   29.370    3.2298
   29.400    3.3526
   29.430    3.1069
   29.460    3.0893
   29.490    3.4053
   29.520    2.8963
   29.550    2.8963
   29.580    2.7207
   29.610    3.1069
   29.640    3.0191
   29.670    2.8085
   29.700    2.7734
   29.730    2.8436
   29.760    3.0367
   29.790    2.5628
   29.820    3.0191
   29.850    2.8612
   29.880    3.1947
   29.910    3.0367
   29.940    3.0718
   29.970    2.6681
   30.000    3.1771
   30.030    2.6154
   30.060    2.6505
   30.090    2.9489
   30.120    3.2298
   30.150    3.1245
   30.180    3.0016
   30.210    2.6856
   30.240    3.0893
   30.270    3.1245
   30.300    3.1947
   30.330    2.9840
   30.360    3.1245
   30.390    3.0893
   30.420    3.3351
   30.450    2.7734
   30.480    3.0016
   30.510    3.1420
   30.540    3.0542
   30.570    2.9665
   30.600    2.7558
   30.630    3.1069
   30.660    2.7558
   30.690    2.9840
   30.720    3.1771
   30.750    2.5979
   30.780    3.2473
   30.810    2.6154
   30.840    2.8787
   30.870    2.6681
   30.900    2.8436
   30.930    2.6856
   30.960    2.6330
   30.990    2.8612
   31.020    2.8260
   31.050    2.7032
   31.080    2.9314
   31.110    2.8436
   31.140    2.7909
   31.170    2.7383
   31.200    2.9665
   31.230    2.8612
   31.260    2.7734
   31.290    2.6505
   31.320    2.9138
   31.350    2.8436
   31.380    3.3000
   31.410    2.9840
   31.440    3.0893
   31.470    2.9840
   31.500    2.8787
   31.530    2.7383
   31.560    2.8260
   31.590    2.5101
   31.620    2.6154
   31.650    2.8612
   31.680    2.6154
   31.710    2.9665
   31.740    2.8085
   31.770    3.0016
   31.800    2.9840
   31.830    3.1245
   31.860    2.5979
   31.890    3.0718
   31.920    2.7383
   31.950    2.5803
   31.980    2.3872
   32.010    2.8612
   32.040    2.6681
   32.070    2.9138
   32.100    2.7558
   32.130    2.8436
   32.160    2.6681
   32.190    2.5628
   32.220    2.8085
   32.250    2.8085
   32.280    2.7207
   32.310    2.5276
   32.340    2.7558
   32.370    2.3521
   32.400    3.0718
   32.430    2.5276
   32.460    2.5628
   32.490    2.8963
   32.520    2.7734
   32.550    2.7909
   32.580    2.6681
   32.610    2.4574
   32.640    3.0542
   32.670    2.3697
   32.700    2.3346
   32.730    2.3521
   32.760    2.0888
   32.790    2.5276
   32.820    2.5101
   32.850    2.5452
   32.880    2.5803
   32.910    2.3697
   32.940    2.4574
   32.970    2.5628
   33.000    2.5803
   33.030    2.3170
   33.060    2.4223
   33.090    2.4750
   33.120    2.3170
   33.150    2.2995
   33.180    2.4399
   33.210    2.6856
   33.240    2.4048
   33.270    2.8436
   33.300    2.5276
   33.330    2.4750
   33.360    2.5101
   33.390    2.4925
   33.420    2.5276
   33.450    2.7032
   33.480    2.6330
   33.510    2.3346
   33.540    2.6330
   33.570    2.4925
   33.600    2.4925
   33.630    2.4223
   33.660    2.4223
   33.690    2.3872
   33.720    2.2995
   33.750    2.6681
   33.780    2.6505
   33.810    2.8085
   33.840    2.2468
   33.870    2.6330
   33.900    2.5101
   33.930    2.2292
   33.960    2.4925
   33.990    2.6856
   34.020    2.4574
   34.050    2.2292
   34.080    2.1415
   34.110    2.6681
   34.140    1.9659
   34.170    2.5276
   34.200    2.3872
   34.230    2.7558
   34.260    2.4750
   34.290    2.5452
   34.320    2.3521
   34.350    2.2995
   34.380    2.3521
   34.410    2.5452
   34.440    2.3346
   34.470    2.1590
   34.500    2.3346
   34.530    2.4048
   34.560    2.2643
   34.590    2.3872
   34.620    2.3872
   34.650    2.6681
   34.680    2.5979
   34.710    2.2468
   34.740    2.5101
   34.770    2.4223
   34.800    2.2468
   34.830    2.3872
   34.860    2.5803
   34.890    2.6681
   34.920    2.5979
   34.950    2.3521
   34.980    2.6330
   35.010    2.4925
   35.040    2.5452
   35.070    2.4399
   35.100    2.6154
   35.130    2.3170
   35.160    2.2468
   35.190    2.4574
   35.220    2.3346
   35.250    2.3170
   35.280    2.4399
   35.310    2.4925
   35.340    2.2117
   35.370    2.3346
   35.400    2.2468
   35.430    2.2117
   35.460    2.4399
   35.490    2.3872
   35.520    2.3521
   35.550    2.3872
   35.580    2.2468
   35.610    2.3697
   35.640    2.1064
   35.670    2.5628
   35.700    2.3346
   35.730    2.5979
   35.760    2.6330
   35.790    2.4048
   35.820    2.4574
   35.850    2.5628
   35.880    2.6154
   35.910    2.5276
   35.940    2.5628
   35.970    2.2468
   36.000    2.1941
   36.030    2.5452
   36.060    2.4574
   36.090    2.3521
   36.120    2.4925
   36.150    2.4574
   36.180    2.1941
   36.210    2.5101
   36.240    2.3521
   36.270    2.5452
   36.300    2.4750
   36.330    2.4925
   36.360    2.3346
   36.390    2.2468
   36.420    2.1941
   36.450    2.5452
   36.480    2.5101
   36.510    2.3521
   36.540    2.4925
   36.570    2.2468
   36.600    2.1590
   36.630    2.3346
   36.660    2.6681
   36.690    2.4750
   36.720    2.6330
   36.750    2.2995
   36.780    2.3872
   36.810    2.2643
   36.840    2.1766
   36.870    2.2643
   36.900    2.1590
   36.930    2.2468
   36.960    2.4574
   36.990    2.7032
   37.020    2.5452
   37.050    2.3346
   37.080    2.5101
   37.110    2.1941
   37.140    2.4399
   37.170    2.2292
   37.200    2.2995
   37.230    2.5628
   37.260    2.2292
   37.290    2.3872
   37.320    2.2292
   37.350    2.5452
   37.380    2.5276
   37.410    2.3346
   37.440    2.5101
   37.470    2.5101
   37.500    2.5803
   37.530    2.5979
   37.560    2.2995
   37.590    2.5276
   37.620    2.4574
   37.650    2.5276
   37.680    2.1415
   37.710    2.2995
   37.740    2.4048
   37.770    2.4399
   37.800    2.2995
   37.830    2.4223
   37.860    2.2819
   37.890    2.2117
   37.920    2.1941
   37.950    2.1239
   37.980    2.4223
   38.010    2.3521
   38.040    2.4925
   38.070    2.3170
   38.100    2.0362
   38.130    2.2643
   38.160    2.2643
   38.190    2.7383
   38.220    2.3697
   38.250    2.4048
   38.280    2.4048
   38.310    2.0713
   38.340    2.1590
   38.370    2.1590
   38.400    2.2468
   38.430    2.1941
   38.460    2.3170
   38.490    2.2643
   38.520    2.2468
   38.550    2.2995
   38.580    2.0713
   38.610    2.0888
   38.640    2.4750
   38.670    2.3697
   38.700    2.2995
   38.730    2.2995
   38.760    2.3346
   38.790    2.3521
   38.820    2.2292
   38.850    2.4048
   38.880    1.9308
   38.910    2.3872
   38.940    2.3170
   38.970    2.2117
   39.000    2.3697
   39.030    2.1590
   39.060    2.4223
   39.090    2.2643
   39.120    2.2995
   39.150    2.3872
   39.180    2.2292
   39.210    2.3170
   39.240    2.3521
   39.270    2.5101
   39.300    2.4574
   39.330    2.1941
   39.360    2.0713
   39.390    2.2819
   39.420    2.0713
   39.450    2.4399
   39.480    2.0537
   39.510    2.4223
   39.540    2.2468
   39.570    2.2995
   39.600    2.1590
   39.630    2.2643
   39.660    2.2117
   39.690    2.1941
   39.720    2.1590
   39.750    2.1415
   39.780    2.3346
   39.810    2.1415
   39.840    2.3346
   39.870    2.0537
   39.900    2.1941
   39.930    2.1415
   39.960    2.1766
   39.990    2.1766