File: data/PXRD/PXRD_KE-181-2_Co-Ka1_film-3mm_5s-deg.xyd
    1.500    5.4575
    1.530    5.2006
    1.560    4.9438
    1.590    4.8368
    1.620    4.9973
    1.650    4.5479
    1.680    4.2697
    1.710    4.1520
    1.740    4.1413
    1.770    4.0342
    1.800    4.3232
    1.830    4.2055
    1.860    3.6169
    1.890    3.7560
    1.920    3.6276
    1.950    3.3173
    1.980    3.4136
    2.010    3.4671
    2.040    3.2852
    2.070    3.2531
    2.100    3.1675
    2.130    3.0070
    2.160    3.1461
    2.190    2.8678
    2.220    2.8999
    2.250    3.0498
    2.280    3.0819
    2.310    2.9106
    2.340    2.5040
    2.370    2.7287
    2.400    2.5468
    2.430    2.5040
    2.460    2.6003
    2.490    2.5040
    2.520    2.2258
    2.550    2.6217
    2.580    2.0332
    2.610    2.4077
    2.640    2.3542
    2.670    1.9904
    2.700    2.2472
    2.730    2.3221
    2.760    2.0439
    2.790    2.1509
    2.820    2.2365
    2.850    2.2044
    2.880    2.0760
    2.910    2.0225
    2.940    1.9904
    2.970    2.0760
    3.000    2.2686
    3.030    1.8192
    3.060    2.1081
    3.090    2.0546
    3.120    1.9262
    3.150    2.0225
    3.180    2.1081
    3.210    1.8513
    3.240    1.9476
    3.270    1.7228
    3.300    1.8299
    3.330    2.0546
    3.360    1.7442
    3.390    1.7335
    3.420    1.6586
    3.450    1.7657
    3.480    1.9369
    3.510    1.9369
    3.540    1.8513
    3.570    1.8406
    3.600    1.8192
    3.630    1.8941
    3.660    1.7228
    3.690    1.9797
    3.720    1.6051
    3.750    1.8513
    3.780    1.7014
    3.810    2.0011
    3.840    1.8406
    3.870    1.9476
    3.900    1.8727
    3.930    1.7335
    3.960    1.9797
    3.990    2.2044
    4.020    2.2258
    4.050    2.4291
    4.080    2.5896
    4.110    2.7715
    4.140    2.9213
    4.170    3.7560
    4.200    3.8844
    4.230    4.4944
    4.260    5.2648
    4.290    6.0246
    4.320    7.0840
    4.350    8.1755
    4.380    9.7592
    4.410   12.6271
    4.440   15.7196
    4.470   20.0107
    4.500   28.0471
    4.530   41.8513
    4.560   27.0733
    4.590    5.2648
    4.620    2.8250
    4.650    2.2472
    4.680    1.9904
    4.710    1.8620
    4.740    1.6693
    4.770    1.8620
    4.800    1.7228
    4.830    1.5837
    4.860    1.7228
    4.890    1.5623
    4.920    1.5195
    4.950    1.5623
    4.980    1.5730
    5.010    1.7014
    5.040    1.7014
    5.070    1.7014
    5.100    1.6586
    5.130    1.7228
    5.160    1.4339
    5.190    1.6800
    5.220    1.5623
    5.250    1.6907
    5.280    1.4446
    5.310    1.4018
    5.340    1.6265
    5.370    1.7442
    5.400    1.5837
    5.430    1.5409
    5.460    1.3804
    5.490    1.5837
    5.520    1.5730
    5.550    1.6051
    5.580    1.4767
    5.610    1.5944
    5.640    1.6265
    5.670    1.5944
    5.700    1.4660
    5.730    1.5516
    5.760    1.4553
    5.790    1.6586
    5.820    1.5730
    5.850    1.5944
    5.880    1.6586
    5.910    1.7978
    5.940    1.5944
    5.970    1.9583
    6.000    1.9797
    6.030    1.7014
    6.060    1.7014
    6.090    1.7871
    6.120    1.9369
    6.150    2.1081
    6.180    2.3328
    6.210    2.3221
    6.240    2.8357
    6.270    2.7822
    6.300    3.7774
    6.330    4.0128
    6.360    4.6977
    6.390    5.8427
    6.420    8.0792
    6.450    4.8475
    6.480    2.6966
    6.510    2.2686
    6.540    2.1295
    6.570    1.8192
    6.600    1.9797
    6.630    1.8513
    6.660    2.0332
    6.690    1.7978
    6.720    1.8085
    6.750    1.8085
    6.780    1.6051
    6.810    1.8513
    6.840    1.7978
    6.870    1.7335
    6.900    1.6372
    6.930    1.5837
    6.960    1.7657
    6.990    1.5195
    7.020    1.5730
    7.050    1.6479
    7.080    1.4874
    7.110    1.4339
    7.140    1.5409
    7.170    1.3911
    7.200    1.5730
    7.230    1.3055
    7.260    1.5944
    7.290    1.4446
    7.320    1.5088
    7.350    1.2520
    7.380    1.2734
    7.410    1.5088
    7.440    1.3590
    7.470    1.4339
    7.500    1.3804
    7.530    1.4018
    7.560    1.3697
    7.590    1.3483
    7.620    1.3697
    7.650    1.2520
    7.680    1.5088
    7.710    1.4981
    7.740    1.4660
    7.770    1.4018
    7.800    1.6372
    7.830    1.4446
    7.860    1.9797
    7.890    1.9262
    7.920    1.4232
    7.950    1.4125
    7.980    1.2413
    8.010    1.5730
    8.040    1.1450
    8.070    1.2306
    8.100    1.1343
    8.130    1.2413
    8.160    1.1129
    8.190    1.2520
    8.220    1.2841
    8.250    1.1022
    8.280    1.2734
    8.310    1.3162
    8.340    1.3055
    8.370    1.3911
    8.400    1.2306
    8.430    1.0273
    8.460    1.1450
    8.490    1.1022
    8.520    1.3697
    8.550    1.1771
    8.580    1.0487
    8.610    1.0701
    8.640    1.1985
    8.670    1.0380
    8.700    1.1129
    8.730    1.0273
    8.760    0.9631
    8.790    0.9952
    8.820    1.0701
    8.850    1.1557
    8.880    1.0487
    8.910    1.0594
    8.940    1.0915
    8.970    1.3590
    9.000    1.4232
    9.030    1.7442
    9.060    2.1081
    9.090    2.9320
    9.120    2.0974
    9.150    1.2520
    9.180    1.2413
    9.210    1.0059
    9.240    0.9524
    9.270    0.9417
    9.300    0.9524
    9.330    0.9738
    9.360    0.9845
    9.390    0.9952
    9.420    0.9203
    9.450    0.9952
    9.480    1.0059
    9.510    0.9738
    9.540    1.0273
    9.570    0.9524
    9.600    0.9738
    9.630    0.8668
    9.660    0.9096
    9.690    1.0166
    9.720    1.0380
    9.750    0.9203
    9.780    0.9738
    9.810    0.8026
    9.840    0.9096
    9.870    0.8775
    9.900    0.8989
    9.930    0.9631
    9.960    0.8347
    9.990    0.9524
   10.020    1.0915
   10.050    1.0380
   10.080    0.9952
   10.110    0.7812
   10.140    1.2413
   10.170    1.3697
   10.200    1.0166
   10.230    0.9524
   10.260    1.0701
   10.290    1.0273
   10.320    0.9524
   10.350    0.8240
   10.380    0.7705
   10.410    0.9952
   10.440    0.8347
   10.470    0.8989
   10.500    0.8775
   10.530    0.8026
   10.560    0.8775
   10.590    0.9203
   10.620    0.9631
   10.650    0.9524
   10.680    0.8775
   10.710    0.8026
   10.740    0.9096
   10.770    0.9952
   10.800    0.8240
   10.830    0.9524
   10.860    0.9952
   10.890    0.9203
   10.920    0.9738
   10.950    0.9096
   10.980    0.8668
   11.010    1.2092
   11.040    1.4232
   11.070    1.4660
   11.100    2.1509
   11.130    2.6752
   11.160    3.3494
   11.190    1.4767
   11.220    0.9845
   11.250    0.9631
   11.280    1.1129
   11.310    0.9096
   11.340    0.8989
   11.370    0.7063
   11.400    1.0273
   11.430    0.7491
   11.460    0.8561
   11.490    0.8989
   11.520    0.9524
   11.550    0.7491
   11.580    0.7705
   11.610    0.8989
   11.640    0.8882
   11.670    0.8133
   11.700    0.8026
   11.730    0.8989
   11.760    0.7705
   11.790    0.9310
   11.820    0.8775
   11.850    0.8882
   11.880    1.0380
   11.910    0.8240
   11.940    0.8775
   11.970    1.0808
   12.000    1.3162
   12.030    1.6907
   12.060    1.6158
   12.090    1.1343
   12.120    0.9417
   12.150    0.9524
   12.180    0.9524
   12.210    0.9845
   12.240    0.8775
   12.270    0.7384
   12.300    0.8668
   12.330    0.8882
   12.360    0.8989
   12.390    0.9845
   12.420    1.0273
   12.450    0.9310
   12.480    0.8989
   12.510    0.8454
   12.540    0.9845
   12.570    1.0166
   12.600    0.8347
   12.630    0.8454
   12.660    0.9524
   12.690    0.9524
   12.720    1.0808
   12.750    1.0594
   12.780    1.0915
   12.810    1.1985
   12.840    1.4339
   12.870    1.8941
   12.900    1.8085
   12.930    1.3269
   12.960    1.0487
   12.990    0.9952
   13.020    0.9524
   13.050    0.9417
   13.080    0.9310
   13.110    0.9845
   13.140    0.9310
   13.170    0.6849
   13.200    1.0487
   13.230    0.8347
   13.260    1.0380
   13.290    0.9952
   13.320    0.8026
   13.350    0.8775
   13.380    0.8561
   13.410    0.7812
   13.440    0.8240
   13.470    0.8775
   13.500    0.9524
   13.530    0.7705
   13.560    0.8989
   13.590    1.0380
   13.620    1.3590
   13.650    2.0439
   13.680    1.8834
   13.710    1.3269
   13.740    0.9203
   13.770    1.0059
   13.800    0.9738
   13.830    0.8668
   13.860    0.9203
   13.890    0.9096
   13.920    0.8989
   13.950    0.7812
   13.980    0.8240
   14.010    0.8775
   14.040    0.8668
   14.070    0.7598
   14.100    0.9096
   14.130    0.7705
   14.160    0.8026
   14.190    0.8882
   14.220    0.8454
   14.250    0.8668
   14.280    0.9845
   14.310    0.7598
   14.340    0.8989
   14.370    0.9631
   14.400    1.0380
   14.430    1.0487
   14.460    0.8989
   14.490    0.8775
   14.520    0.8561
   14.550    0.7384
   14.580    0.7919
   14.610    0.8882
   14.640    0.9096
   14.670    0.8882
   14.700    0.9631
   14.730    0.6742
   14.760    0.8561
   14.790    0.8775
   14.820    0.8989
   14.850    0.7277
   14.880    0.8882
   14.910    0.9203
   14.940    0.8240
   14.970    0.8454
   15.000    0.8240
   15.030    1.0380
   15.060    1.1343
   15.090    1.1236
   15.120    1.4553
   15.150    1.1022
   15.180    0.8561
   15.210    0.9952
   15.240    0.7063
   15.270    0.7812
   15.300    0.8347
   15.330    0.8026
   15.360    0.7919
   15.390    0.8775
   15.420    0.9524
   15.450    0.7491
   15.480    0.7384
   15.510    0.6742
   15.540    0.9203
   15.570    0.7705
   15.600    0.8026
   15.630    0.8989
   15.660    0.8882
   15.690    0.8561
   15.720    1.0166
   15.750    1.0594
   15.780    1.0808
   15.810    1.1985
   15.840    0.8882
   15.870    0.7812
   15.900    0.7919
   15.930    0.7919
   15.960    0.7063
   15.990    0.8561
   16.020    0.8026
   16.050    0.8347
   16.080    0.7384
   16.110    0.7919
   16.140    1.0487
   16.170    0.8989
   16.200    0.8240
   16.230    0.9310
   16.260    0.7705
   16.290    0.8454
   16.320    0.8133
   16.350    0.8347
   16.380    1.0915
   16.410    1.1878
   16.440    1.2306
   16.470    1.3055
   16.500    1.0701
   16.530    0.9417
   16.560    0.8775
   16.590    0.8775
   16.620    0.9524
   16.650    0.9952
   16.680    1.0273
   16.710    0.8668
   16.740    1.0701
   16.770    0.9096
   16.800    0.8882
   16.830    0.8882
   16.860    0.9738
   16.890    0.8668
   16.920    1.0059
   16.950    0.8347
   16.980    1.0915
   17.010    0.8775
   17.040    0.9738
   17.070    0.9417
   17.100    0.9738
   17.130    0.8026
   17.160    0.7919
   17.190    0.8240
   17.220    0.9417
   17.250    0.8561
   17.280    0.9524
   17.310    0.8882
   17.340    0.8240
   17.370    0.7598
   17.400    0.9310
   17.430    0.8668
   17.460    0.8454
   17.490    0.7384
   17.520    0.8561
   17.550    0.8454
   17.580    0.9524
   17.610    0.8775
   17.640    0.9096
   17.670    0.9096
   17.700    1.0166
   17.730    0.8454
   17.760    0.9203
   17.790    0.7705
   17.820    0.7277
   17.850    0.7598
   17.880    0.7170
   17.910    0.7598
   17.940    0.7812
   17.970    0.8668
   18.000    0.7812
   18.030    0.8989
   18.060    0.8668
   18.090    0.8133
   18.120    0.7277
   18.150    0.9631
   18.180    0.7170
   18.210    0.8026
   18.240    0.8775
   18.270    0.7812
   18.300    0.7919
   18.330    0.7063
   18.360    0.8454
   18.390    0.7063
   18.420    0.6849
   18.450    0.7919
   18.480    0.8775
   18.510    0.8882
   18.540    0.8026
   18.570    0.6849
   18.600    0.7598
   18.630    0.9203
   18.660    0.8668
   18.690    0.9203
   18.720    0.7277
   18.750    0.8133
   18.780    0.8775
   18.810    0.9203
   18.840    0.8561
   18.870    0.9417
   18.900    0.7812
   18.930    0.8561
   18.960    0.7919
   18.990    0.7705
   19.020    0.6849
   19.050    0.7170
   19.080    0.8454
   19.110    0.6742
   19.140    0.7598
   19.170    0.8240
   19.200    0.7170
   19.230    0.8882
   19.260    0.8668
   19.290    0.7919
   19.320    0.9096
   19.350    0.9417
   19.380    0.9310
   19.410    1.1236
   19.440    0.7063
   19.470    0.8133
   19.500    0.6956
   19.530    0.6956
   19.560    0.6849
   19.590    0.6956
   19.620    0.6956
   19.650    0.8026
   19.680    0.7491
   19.710    0.7812
   19.740    0.7063
   19.770    0.7812
   19.800    0.8454
   19.830    0.7705
   19.860    1.0059
   19.890    1.0594
   19.920    1.2520
   19.950    1.0701
   19.980    0.7812
   20.010    0.7919
   20.040    0.8668
   20.070    0.7384
   20.100    0.7919
   20.130    0.8347
   20.160    0.7705
   20.190    0.6207
   20.220    0.7384
   20.250    0.6742
   20.280    0.7277
   20.310    0.7063
   20.340    0.8561
   20.370    0.7063
   20.400    0.8026
   20.430    0.8454
   20.460    0.9631
   20.490    0.8775
   20.520    0.7705
   20.550    0.8454
   20.580    0.6742
   20.610    0.8454
   20.640    0.8240
   20.670    0.8775
   20.700    0.7063
   20.730    0.7491
   20.760    0.7063
   20.790    0.6314
   20.820    0.6849
   20.850    0.8347
   20.880    0.6956
   20.910    0.6849
   20.940    0.8454
   20.970    0.9524
   21.000    0.8026
   21.030    0.8668
   21.060    0.8026
   21.090    0.7598
   21.120    0.6635
   21.150    0.8347
   21.180    0.7063
   21.210    0.7812
   21.240    0.6635
   21.270    0.7063
   21.300    0.8133
   21.330    0.7598
   21.360    0.7598
   21.390    0.7919
   21.420    0.7384
   21.450    0.9631
   21.480    0.9631
   21.510    0.7919
   21.540    0.7812
   21.570    0.6742
   21.600    0.7277
   21.630    0.8240
   21.660    0.7598
   21.690    0.7919
   21.720    0.7491
   21.750    0.7277
   21.780    0.7384
   21.810    0.7277
   21.840    0.7705
   21.870    0.7705
   21.900    0.8454
   21.930    0.7598
   21.960    0.8454
   21.990    0.6742
   22.020    0.7598
   22.050    0.7705
   22.080    0.7170
   22.110    0.6849
   22.140    0.8133
   22.170    0.8561
   22.200    0.8347
   22.230    0.8133
   22.260    0.7705
   22.290    0.7705
   22.320    0.7919
   22.350    0.7812
   22.380    0.7491
   22.410    0.8240
   22.440    0.6421
   22.470    0.7812
   22.500    0.8775
   22.530    0.6849
   22.560    0.6742
   22.590    0.6421
   22.620    0.6742
   22.650    0.7170
   22.680    0.6849
   22.710    0.5671
   22.740    0.8775
   22.770    0.7705
   22.800    0.7277
   22.830    0.8989
   22.860    0.9203
   22.890    0.8454
   22.920    0.8882
   22.950    0.7170
   22.980    0.7384
   23.010    0.8026
   23.040    0.8240
   23.070    0.7812
   23.100    0.7063
   23.130    0.7491
   23.160    0.5886
   23.190    0.6207
   23.220    0.7170
   23.250    0.7277
   23.280    0.7277
   23.310    0.8561
   23.340    0.6849
   23.370    0.8240
   23.400    0.8454
   23.430    0.7919
   23.460    0.6742
   23.490    0.7705
   23.520    0.6314
   23.550    0.6421
   23.580    0.7491
   23.610    0.7598
   23.640    0.8347
   23.670    0.6956
   23.700    0.8133
   23.730    0.7491
   23.760    0.7812
   23.790    1.1557
   23.820    1.1129
   23.850    0.9524
   23.880    0.8561
   23.910    0.6314
   23.940    0.7063
   23.970    0.7491
   24.000    0.6956
   24.030    0.7170
   24.060    0.7919
   24.090    0.6100
   24.120    0.6956
   24.150    0.7919
   24.180    0.6635
   24.210    0.6849
   24.240    0.6635
   24.270    0.8026
   24.300    0.6100
   24.330    0.7384
   24.360    0.5243
   24.390    0.5993
   24.420    0.6207
   24.450    0.6742
   24.480    0.7170
   24.510    0.6314
   24.540    0.5886
   24.570    0.5457
   24.600    0.6635
   24.630    0.6314
   24.660    0.7384
   24.690    0.6635
   24.720    0.6635
   24.750    0.5029
   24.780    0.7919
   24.810    0.6956
   24.840    0.8347
   24.870    0.8240
   24.900    0.6314
   24.930    0.7277
   24.960    0.6956
   24.990    0.7598
   25.020    0.6635
   25.050    0.6742
   25.080    0.7491
   25.110    0.6314
   25.140    0.5243
   25.170    0.7277
   25.200    0.7063
   25.230    0.6528
   25.260    0.6314
   25.290    0.7919
   25.320    0.7170
   25.350    0.6314
   25.380    0.7812
   25.410    0.6849
   25.440    0.6314
   25.470    0.6207
   25.500    0.8133
   25.530    0.9096
   25.560    0.6956
   25.590    0.6635
   25.620    0.5886
   25.650    0.7170
   25.680    0.5564
   25.710    0.5564
   25.740    0.5886
   25.770    0.6207
   25.800    0.6528
   25.830    0.6207
   25.860    0.5778
   25.890    0.6635
   25.920    0.6742
   25.950    0.8882
   25.980    0.8775
   26.010    0.5993
   26.040    0.6849
   26.070    0.6421
   26.100    0.7063
   26.130    0.7277
   26.160    0.5778
   26.190    0.6421
   26.220    0.6421
   26.250    0.6635
   26.280    0.6314
   26.310    0.8133
   26.340    0.9524
   26.370    0.9203
   26.400    0.8240
   26.430    0.6849
   26.460    0.6742
   26.490    0.6742
   26.520    0.5993
   26.550    0.5671
   26.580    0.6421
   26.610    0.7491
   26.640    0.5243
   26.670    0.6528
   26.700    0.7384
   26.730    0.9203
   26.760    1.0594
   26.790    0.8882
   26.820    0.7598
   26.850    0.6956
   26.880    0.6314
   26.910    0.5993
   26.940    0.5993
   26.970    0.6849
   27.000    0.6849
   27.030    0.6528
   27.060    0.5457
   27.090    0.6742
   27.120    0.7063
   27.150    0.6956
   27.180    0.7063
   27.210    0.6635
   27.240    0.7705
   27.270    0.6528
   27.300    0.5136
   27.330    0.6528
   27.360    0.5778
   27.390    0.5886
   27.420    0.5993
   27.450    0.6742
   27.480    0.5029
   27.510    0.5564
   27.540    0.6100
   27.570    0.5457
   27.600    0.5564
   27.630    0.4708
   27.660    0.5778
   27.690    0.5886
   27.720    0.5564
   27.750    0.5671
   27.780    0.6207
   27.810    0.4922
   27.840    0.5993
   27.870    0.5350
   27.900    0.5350
   27.930    0.6528
   27.960    0.9310
   27.990    0.6849
   28.020    0.6314
   28.050    0.5350
   28.080    0.6956
   28.110    0.5136
   28.140    0.5886
   28.170    0.4815
   28.200    0.5993
   28.230    0.5564
   28.260    0.4387
   28.290    0.4815
   28.320    0.5564
   28.350    0.4922
   28.380    0.5350
   28.410    0.5243
   28.440    0.4173
   28.470    0.6100
   28.500    0.4815
   28.530    0.5886
   28.560    0.5243
   28.590    0.5136
   28.620    0.5886
   28.650    0.5993
   28.680    0.5029
   28.710    0.5778
   28.740    0.6207
   28.770    0.5671
   28.800    0.4815
   28.830    0.4815
   28.860    0.4387
   28.890    0.5136
   28.920    0.4708
   28.950    0.5993
   28.980    0.5350
   29.010    0.5671
   29.040    0.4280
   29.070    0.5243
   29.100    0.5029
   29.130    0.4708
   29.160    0.6956
   29.190    0.6635
   29.220    0.5564
   29.250    0.5886
   29.280    0.5243
   29.310    0.5564
   29.340    0.5136
   29.370    0.5243
   29.400    0.5778
   29.430    0.5886
   29.460    0.6207
   29.490    0.5778
   29.520    0.5136
   29.550    0.6742
   29.580    0.5778
   29.610    0.5564
   29.640    0.5350
   29.670    0.5993
   29.700    0.5993
   29.730    0.4387
   29.760    0.5671
   29.790    0.5564
   29.820    0.4387
   29.850    0.6742
   29.880    0.5778
   29.910    0.4387
   29.940    0.6635
   29.970    0.6314
   30.000    0.5457
   30.030    0.5350
   30.060    0.4387
   30.090    0.5671
   30.120    0.5993
   30.150    0.7170
   30.180    0.8668
   30.210    0.7598
   30.240    0.5671
   30.270    0.6849
   30.300    0.5671
   30.330    0.5993
   30.360    0.5778
   30.390    0.4387
   30.420    0.4922
   30.450    0.4922
   30.480    0.5564
   30.510    0.6956
   30.540    0.5350
   30.570    0.4280
   30.600    0.5136
   30.630    0.5350
   30.660    0.5350
   30.690    0.5243
   30.720    0.5136
   30.750    0.4708
   30.780    0.4601
   30.810    0.4387
   30.840    0.5029
   30.870    0.6635
   30.900    0.5564
   30.930    0.5564
   30.960    0.5029
   30.990    0.5243
   31.020    0.5029
   31.050    0.4387
   31.080    0.5457
   31.110    0.4922
   31.140    0.3959
   31.170    0.5671
   31.200    0.4708
   31.230    0.5029
   31.260    0.4922
   31.290    0.5993
   31.320    0.4815
   31.350    0.5243
   31.380    0.3745
   31.410    0.4601
   31.440    0.4708
   31.470    0.4601
   31.500    0.4601
   31.530    0.4922
   31.560    0.4494
   31.590    0.5671
   31.620    0.5564
   31.650    0.6100
   31.680    0.5029
   31.710    0.4387
   31.740    0.3852
   31.770    0.4922
   31.800    0.4815
   31.830    0.5136
   31.860    0.4280
   31.890    0.4387
   31.920    0.4815
   31.950    0.4280
   31.980    0.4601
   32.010    0.4494
   32.040    0.4387
   32.070    0.5243
   32.100    0.5350
   32.130    0.3959
   32.160    0.4387
   32.190    0.5029
   32.220    0.5778
   32.250    0.5778
   32.280    0.4922
   32.310    0.5350
   32.340    0.4494
   32.370    0.4494
   32.400    0.4066
   32.430    0.4708
   32.460    0.4173
   32.490    0.4708
   32.520    0.4601
   32.550    0.3852
   32.580    0.5457
   32.610    0.4494
   32.640    0.5350
   32.670    0.3852
   32.700    0.4815
   32.730    0.3959
   32.760    0.3317
   32.790    0.4494
   32.820    0.3959
   32.850    0.4494
   32.880    0.4494
   32.910    0.4387
   32.940    0.5886
   32.970    0.5993
   33.000    0.5778
   33.030    0.3852
   33.060    0.4922
   33.090    0.3638
   33.120    0.3959
   33.150    0.3959
   33.180    0.4708
   33.210    0.4494
   33.240    0.5457
   33.270    0.4387
   33.300    0.4708
   33.330    0.4922
   33.360    0.2996
   33.390    0.5886
   33.420    0.4601
   33.450    0.5029
   33.480    0.3852
   33.510    0.4280
   33.540    0.4066
   33.570    0.4494
   33.600    0.4601
   33.630    0.4922
   33.660    0.4387
   33.690    0.4173
   33.720    0.4922
   33.750    0.5029
   33.780    0.4280
   33.810    0.4066
   33.840    0.4815
   33.870    0.4173
   33.900    0.4815
   33.930    0.5136
   33.960    0.4708
   33.990    0.5029
   34.020    0.4173
   34.050    0.4280
   34.080    0.4922
   34.110    0.4387
   34.140    0.4815
   34.170    0.3638
   34.200    0.4601
   34.230    0.5029
   34.260    0.6100
   34.290    0.4494
   34.320    0.4708
   34.350    0.2996
   34.380    0.4601
   34.410    0.3852
   34.440    0.3959
   34.470    0.2996
   34.500    0.3959
   34.530    0.3317
   34.560    0.3959
   34.590    0.3638
   34.620    0.2140
   34.650    0.4280
   34.680    0.3638
   34.710    0.3959
   34.740    0.4066
   34.770    0.3638
   34.800    0.3745
   34.830    0.4066
   34.860    0.3745
   34.890    0.3852
   34.920    0.4173
   34.950    0.4387
   34.980    0.4066
   35.010    0.3638
   35.040    0.4066
   35.070    0.3424
   35.100    0.3424
   35.130    0.3745
   35.160    0.4066
   35.190    0.3852
   35.220    0.3852
   35.250    0.4280
   35.280    0.4708
   35.310    0.2889
   35.340    0.2889
   35.370    0.3424
   35.400    0.3210
   35.430    0.3424
   35.460    0.3745
   35.490    0.4280
   35.520    0.3852
   35.550    0.3852
   35.580    0.2996
   35.610    0.3959
   35.640    0.3531
   35.670    0.4173
   35.700    0.3638
   35.730    0.2675
   35.760    0.3103
   35.790    0.3638
   35.820    0.3959
   35.850    0.3852
   35.880    0.2996
   35.910    0.3317
   35.940    0.3531
   35.970    0.3745
   36.000    0.3745
   36.030    0.2033
   36.060    0.3317
   36.090    0.3317
   36.120    0.4173
   36.150    0.3638
   36.180    0.3745
   36.210    0.3531
   36.240    0.2782
   36.270    0.2889
   36.300    0.2996
   36.330    0.4387
   36.360    0.3317
   36.390    0.2782
   36.420    0.2996
   36.450    0.3531
   36.480    0.3959
   36.510    0.3103
   36.540    0.3531
   36.570    0.2996
   36.600    0.2782
   36.630    0.2568
   36.660    0.4280
   36.690    0.3317
   36.720    0.3745
   36.750    0.3317
   36.780    0.3638
   36.810    0.4494
   36.840    0.2354
   36.870    0.3103
   36.900    0.2782
   36.930    0.3959
   36.960    0.3852
   36.990    0.3103
   37.020    0.2782
   37.050    0.3103
   37.080    0.2354
   37.110    0.4387
   37.140    0.2247
   37.170    0.4066
   37.200    0.3103
   37.230    0.2996
   37.260    0.3745
   37.290    0.3424
   37.320    0.3317
   37.350    0.3424
   37.380    0.2675
   37.410    0.3317
   37.440    0.2889
   37.470    0.3745
   37.500    0.3638
   37.530    0.2354
   37.560    0.2782
   37.590    0.3317
   37.620    0.2889
   37.650    0.3210
   37.680    0.3959
   37.710    0.2996
   37.740    0.3424
   37.770    0.2568
   37.800    0.3424
   37.830    0.3103
   37.860    0.2889
   37.890    0.2675
   37.920    0.3852
   37.950    0.2568
   37.980    0.3317
   38.010    0.3852
   38.040    0.2996
   38.070    0.3424
   38.100    0.2354
   38.130    0.2996
   38.160    0.3638
   38.190    0.3531
   38.220    0.2782
   38.250    0.3424
   38.280    0.2140
   38.310    0.3317
   38.340    0.3317
   38.370    0.3103
   38.400    0.3103
   38.430    0.2782
   38.460    0.2782
   38.490    0.3103
   38.520    0.3531
   38.550    0.3210
   38.580    0.3317
   38.610    0.2675
   38.640    0.3210
   38.670    0.3317
   38.700    0.3210
   38.730    0.2996
   38.760    0.3531
   38.790    0.2568
   38.820    0.2568
   38.850    0.2782
   38.880    0.2889
   38.910    0.3210
   38.940    0.3317
   38.970    0.2675
   39.000    0.2461
   39.030    0.2996
   39.060    0.2996
   39.090    0.2675
   39.120    0.3103
   39.150    0.2996
   39.180    0.3852
   39.210    0.2354
   39.240    0.2461
   39.270    0.2675
   39.300    0.3210
   39.330    0.2568
   39.360    0.2568
   39.390    0.2675
   39.420    0.2461
   39.450    0.2996
   39.480    0.2140
   39.510    0.2568
   39.540    0.3103
   39.570    0.2889
   39.600    0.2782
   39.630    0.3103
   39.660    0.2782
   39.690    0.3424
   39.720    0.3103
   39.750    0.2675
   39.780    0.2140
   39.810    0.2461
   39.840    0.3103
   39.870    0.3103
   39.900    0.2996
   39.930    0.3210
   39.960    0.2568
   39.990    0.2782