File: data/PXRD/PXRD_KE-341_Cu-Ka1_film-3mm_3s-deg_1.5-80deg_CuOAc2-DABA-TPA-ScOTf3.xyd
    1.500    7.7760
    1.560    7.0739
    1.620    6.8984
    1.680    6.4946
    1.740    5.7399
    1.800    4.7569
    1.860    4.5111
    1.920    4.7042
    1.980    4.3356
    2.040    4.2303
    2.100    3.8090
    2.160    3.9670
    2.220    3.7739
    2.280    3.3526
    2.340    3.1069
    2.400    3.1069
    2.460    3.1420
    2.520    2.6330
    2.580    2.7207
    2.640    2.6681
    2.700    2.7558
    2.760    2.6505
    2.820    2.7383
    2.880    2.7734
    2.940    2.2292
    3.000    2.7383
    3.060    2.4399
    3.120    2.2117
    3.180    2.3872
    3.240    2.5276
    3.300    2.5979
    3.360    2.4399
    3.420    2.1590
    3.480    2.0713
    3.540    2.2819
    3.600    2.2819
    3.660    2.3170
    3.720    2.3346
    3.780    2.1415
    3.840    2.4048
    3.900    2.1766
    3.960    2.3697
    4.020    2.5101
    4.080    2.2995
    4.140    2.5452
    4.200    2.5628
    4.260    2.4048
    4.320    2.2117
    4.380    2.3697
    4.440    2.3697
    4.500    2.2468
    4.560    2.3872
    4.620    2.5979
    4.680    2.5803
    4.740    2.4750
    4.800    2.5101
    4.860    2.6505
    4.920    2.5628
    4.980    2.9840
    5.040    3.0191
    5.100    3.5282
    5.160    3.4931
    5.220    3.8090
    5.280    3.6159
    5.340    3.4580
    5.400    3.5984
    5.460    3.2473
    5.520    3.8617
    5.580    3.6510
    5.640    3.3000
    5.700    3.1245
    5.760    2.8612
    5.820    3.0016
    5.880    2.9138
    5.940    2.4048
    6.000    2.8436
    6.060    2.7383
    6.120    2.6154
    6.180    2.2117
    6.240    2.3346
    6.300    2.0888
    6.360    2.3170
    6.420    2.0362
    6.480    2.2995
    6.540    2.2292
    6.600    2.1064
    6.660    1.9484
    6.720    2.2643
    6.780    2.0537
    6.840    2.0186
    6.900    1.6851
    6.960    1.8957
    7.020    2.0011
    7.080    2.0888
    7.140    1.8782
    7.200    1.7378
    7.260    1.8255
    7.320    1.6675
    7.380    1.7027
    7.440    2.0713
    7.500    1.6675
    7.560    1.7553
    7.620    1.8080
    7.680    1.6500
    7.740    1.6324
    7.800    1.5447
    7.860    1.8080
    7.920    1.6324
    7.980    1.6149
    8.040    1.5973
    8.100    1.5447
    8.160    1.5622
    8.220    1.4745
    8.280    1.4569
    8.340    1.6675
    8.400    1.4218
    8.460    1.4394
    8.520    1.5271
    8.580    1.5973
    8.640    1.5271
    8.700    1.4218
    8.760    1.7729
    8.820    1.5973
    8.880    1.4920
    8.940    1.3691
    9.000    1.4569
    9.060    1.5622
    9.120    1.5447
    9.180    1.6500
    9.240    1.5447
    9.300    1.3340
    9.360    1.4394
    9.420    1.4745
    9.480    1.2814
    9.540    1.4218
    9.600    1.5447
    9.660    1.4920
    9.720    1.3516
    9.780    1.5271
    9.840    1.4218
    9.900    1.4394
    9.960    1.1058
   10.020    1.4218
   10.080    1.3165
   10.140    1.3867
   10.200    1.2989
   10.260    1.5096
   10.320    1.2287
   10.380    1.4745
   10.440    1.4745
   10.500    1.4920
   10.560    1.4569
   10.620    1.3691
   10.680    1.4394
   10.740    1.2814
   10.800    1.1585
   10.860    1.4394
   10.920    1.3691
   10.980    1.5447
   11.040    1.4218
   11.100    1.6324
   11.160    1.3691
   11.220    1.3867
   11.280    1.4745
   11.340    1.5447
   11.400    1.5096
   11.460    1.3340
   11.520    1.4394
   11.580    1.5096
   11.640    1.3867
   11.700    1.1058
   11.760    1.3867
   11.820    0.9654
   11.880    1.3516
   11.940    1.1410
   12.000    1.2989
   12.060    1.3165
   12.120    1.4218
   12.180    1.5271
   12.240    1.5447
   12.300    1.3867
   12.360    1.3516
   12.420    1.2638
   12.480    1.1761
   12.540    1.3867
   12.600    1.2989
   12.660    1.0005
   12.720    1.1058
   12.780    1.3165
   12.840    1.0181
   12.900    1.4745
   12.960    1.2112
   13.020    1.1234
   13.080    1.2989
   13.140    1.3165
   13.200    1.2814
   13.260    1.2814
   13.320    1.2463
   13.380    1.2287
   13.440    0.9830
   13.500    1.2287
   13.560    1.4218
   13.620    1.3691
   13.680    1.1761
   13.740    1.3165
   13.800    1.4569
   13.860    1.6500
   13.920    1.5798
   13.980    1.4745
   14.040    1.5447
   14.100    1.2638
   14.160    1.3516
   14.220    1.5271
   14.280    1.3691
   14.340    1.4042
   14.400    1.4569
   14.460    1.4394
   14.520    1.3691
   14.580    1.5096
   14.640    1.1234
   14.700    1.6851
   14.760    1.2463
   14.820    1.3516
   14.880    1.1410
   14.940    1.4920
   15.000    1.2463
   15.060    1.5447
   15.120    1.2638
   15.180    1.1585
   15.240    1.4920
   15.300    1.3867
   15.360    1.2287
   15.420    1.5973
   15.480    1.1234
   15.540    1.2287
   15.600    1.5798
   15.660    1.5271
   15.720    1.4218
   15.780    1.4218
   15.840    1.5622
   15.900    1.5096
   15.960    1.5622
   16.020    1.5271
   16.080    1.4745
   16.140    1.4920
   16.200    1.3867
   16.260    1.5973
   16.320    1.5096
   16.380    1.5271
   16.440    1.4920
   16.500    1.4042
   16.560    1.4394
   16.620    1.4394
   16.680    1.4394
   16.740    1.3867
   16.800    1.3516
   16.860    1.4394
   16.920    1.6675
   16.980    1.3516
   17.040    1.3867
   17.100    1.2112
   17.160    1.4218
   17.220    1.3691
   17.280    1.7027
   17.340    1.4745
   17.400    1.6149
   17.460    1.5973
   17.520    1.5973
   17.580    1.5447
   17.640    1.8957
   17.700    1.5798
   17.760    1.4920
   17.820    1.7553
   17.880    1.9133
   17.940    1.5798
   18.000    1.8255
   18.060    1.6149
   18.120    1.4218
   18.180    1.5447
   18.240    1.7553
   18.300    1.5271
   18.360    1.5622
   18.420    1.3691
   18.480    1.7027
   18.540    1.4920
   18.600    1.5798
   18.660    1.4920
   18.720    1.3867
   18.780    1.7904
   18.840    1.8606
   18.900    1.5447
   18.960    1.4920
   19.020    1.7904
   19.080    1.5096
   19.140    1.3516
   19.200    1.6500
   19.260    1.4394
   19.320    1.2989
   19.380    1.5096
   19.440    1.2463
   19.500    1.5271
   19.560    1.4042
   19.620    1.2463
   19.680    1.3867
   19.740    1.4745
   19.800    1.4218
   19.860    1.3691
   19.920    1.2287
   19.980    1.2814
   20.040    1.3691
   20.100    1.3516
   20.160    1.4042
   20.220    1.2112
   20.280    1.3516
   20.340    1.3867
   20.400    1.2638
   20.460    1.2638
   20.520    1.3867
   20.580    1.0707
   20.640    1.6324
   20.700    1.3691
   20.760    1.3340
   20.820    1.4218
   20.880    1.4745
   20.940    1.4218
   21.000    1.5973
   21.060    1.4042
   21.120    1.3516
   21.180    1.1058
   21.240    1.4218
   21.300    1.2112
   21.360    1.2638
   21.420    1.5271
   21.480    1.4042
   21.540    1.2463
   21.600    1.3691
   21.660    1.2463
   21.720    1.3867
   21.780    1.3165
   21.840    1.4394
   21.900    1.4042
   21.960    1.1936
   22.020    1.1936
   22.080    1.3340
   22.140    1.4745
   22.200    1.2112
   22.260    1.2814
   22.320    1.1585
   22.380    1.3691
   22.440    1.1410
   22.500    1.4745
   22.560    1.4745
   22.620    1.1585
   22.680    1.2638
   22.740    1.2989
   22.800    1.3691
   22.860    1.1410
   22.920    1.2287
   22.980    1.3165
   23.040    1.1761
   23.100    1.1936
   23.160    1.1585
   23.220    1.2112
   23.280    1.0356
   23.340    0.9830
   23.400    1.2463
   23.460    1.0883
   23.520    1.2112
   23.580    1.0883
   23.640    1.1936
   23.700    1.0005
   23.760    1.2814
   23.820    1.2814
   23.880    1.2287
   23.940    1.1410
   24.000    1.1058
   24.060    1.1410
   24.120    1.1936
   24.180    1.0181
   24.240    1.0356
   24.300    1.3165
   24.360    1.1058
   24.420    1.0883
   24.480    1.2112
   24.540    0.9654
   24.600    1.1058
   24.660    1.1234
   24.720    1.0707
   24.780    0.8425
   24.840    0.9830
   24.900    0.9479
   24.960    0.9654
   25.020    1.0707
   25.080    0.9479
   25.140    0.9654
   25.200    1.0005
   25.260    1.0181
   25.320    1.1585
   25.380    1.1058
   25.440    1.1058
   25.500    1.2112
   25.560    1.1936
   25.620    1.0883
   25.680    1.1058
   25.740    1.1058
   25.800    1.1761
   25.860    1.0883
   25.920    1.0356
   25.980    1.1058
   26.040    1.1410
   26.100    1.0532
   26.160    1.0181
   26.220    1.0707
   26.280    1.2814
   26.340    1.1761
   26.400    1.0181
   26.460    0.9128
   26.520    1.0707
   26.580    0.8777
   26.640    1.0005
   26.700    0.8601
   26.760    0.9303
   26.820    1.0356
   26.880    0.9479
   26.940    1.0005
   27.000    1.0532
   27.060    0.8601
   27.120    0.9128
   27.180    0.9128
   27.240    0.9654
   27.300    0.8074
   27.360    0.9654
   27.420    0.7548
   27.480    0.9654
   27.540    1.0181
   27.600    0.9479
   27.660    0.8425
   27.720    0.7899
   27.780    1.1058
   27.840    0.8952
   27.900    0.7723
   27.960    0.8777
   28.020    0.8425
   28.080    0.9128
   28.140    0.8952
   28.200    0.9830
   28.260    0.7723
   28.320    0.9303
   28.380    0.8601
   28.440    1.0181
   28.500    0.7372
   28.560    0.7021
   28.620    0.8425
   28.680    0.8601
   28.740    0.8601
   28.800    0.7197
   28.860    0.8777
   28.920    0.8425
   28.980    0.9128
   29.040    0.7372
   29.100    0.7197
   29.160    0.7723
   29.220    0.7197
   29.280    0.7021
   29.340    0.7021
   29.400    0.6846
   29.460    0.8074
   29.520    0.6670
   29.580    0.7899
   29.640    0.6846
   29.700    0.8250
   29.760    0.4915
   29.820    0.6846
   29.880    0.6319
   29.940    0.6319
   30.000    0.7899
   30.060    0.7372
   30.120    0.6144
   30.180    0.5793
   30.240    0.7548
   30.300    0.6319
   30.360    0.7899
   30.420    0.4739
   30.480    0.6495
   30.540    0.7021
   30.600    0.6670
   30.660    0.5793
   30.720    0.5968
   30.780    0.5793
   30.840    0.6495
   30.900    0.5090
   30.960    0.6495
   31.020    0.5090
   31.080    0.7197
   31.140    0.7372
   31.200    0.7021
   31.260    0.7899
   31.320    0.5090
   31.380    0.5968
   31.440    0.5617
   31.500    0.5441
   31.560    0.5266
   31.620    0.7548
   31.680    0.5968
   31.740    0.5968
   31.800    0.6495
   31.860    0.5968
   31.920    0.4388
   31.980    0.6846
   32.040    0.5441
   32.100    0.5968
   32.160    0.4213
   32.220    0.5968
   32.280    0.6495
   32.340    0.5441
   32.400    0.5617
   32.460    0.4915
   32.520    0.5793
   32.580    0.5968
   32.640    0.5441
   32.700    0.6670
   32.760    0.5968
   32.820    0.7197
   32.880    0.4915
   32.940    0.5266
   33.000    0.4739
   33.060    0.4915
   33.120    0.3862
   33.180    0.5090
   33.240    0.5968
   33.300    0.6495
   33.360    0.5793
   33.420    0.5266
   33.480    0.6319
   33.540    0.4388
   33.600    0.5266
   33.660    0.3511
   33.720    0.4564
   33.780    0.5266
   33.840    0.4915
   33.900    0.4564
   33.960    0.6144
   34.020    0.5968
   34.080    0.5266
   34.140    0.5266
   34.200    0.4739
   34.260    0.5441
   34.320    0.5441
   34.380    0.5617
   34.440    0.4388
   34.500    0.3862
   34.560    0.4213
   34.620    0.5441
   34.680    0.5617
   34.740    0.3511
   34.800    0.4564
   34.860    0.5617
   34.920    0.4739
   34.980    0.3335
   35.040    0.4915
   35.100    0.4564
   35.160    0.6319
   35.220    0.4388
   35.280    0.4739
   35.340    0.5793
   35.400    0.5266
   35.460    0.5617
   35.520    0.6144
   35.580    0.3862
   35.640    0.5090
   35.700    0.5793
   35.760    0.4915
   35.820    0.5266
   35.880    0.5090
   35.940    0.6144
   36.000    0.4564
   36.060    0.4739
   36.120    0.4388
   36.180    0.5617
   36.240    0.3335
   36.300    0.5090
   36.360    0.5793
   36.420    0.5617
   36.480    0.4915
   36.540    0.5090
   36.600    0.3862
   36.660    0.4564
   36.720    0.3862
   36.780    0.5090
   36.840    0.5617
   36.900    0.5793
   36.960    0.4739
   37.020    0.5617
   37.080    0.4037
   37.140    0.4739
   37.200    0.5793
   37.260    0.4388
   37.320    0.5793
   37.380    0.3160
   37.440    0.3862
   37.500    0.4915
   37.560    0.4915
   37.620    0.5090
   37.680    0.4915
   37.740    0.5090
   37.800    0.4388
   37.860    0.6495
   37.920    0.4915
   37.980    0.4388
   38.040    0.5266
   38.100    0.4213
   38.160    0.5266
   38.220    0.6670
   38.280    0.5090
   38.340    0.4915
   38.400    0.4213
   38.460    0.4037
   38.520    0.5090
   38.580    0.5968
   38.640    0.4739
   38.700    0.3862
   38.760    0.4739
   38.820    0.4388
   38.880    0.5090
   38.940    0.4388
   39.000    0.3335
   39.060    0.6319
   39.120    0.3160
   39.180    0.4388
   39.240    0.4388
   39.300    0.4915
   39.360    0.4564
   39.420    0.4915
   39.480    0.3335
   39.540    0.5441
   39.600    0.5090
   39.660    0.4388
   39.720    0.4213
   39.780    0.6495
   39.840    0.4388
   39.900    0.4388
   39.960    0.4739
   40.020    0.4739
   40.080    0.4915
   40.140    0.3335
   40.200    0.4037
   40.260    0.5266
   40.320    0.4564
   40.380    0.5090
   40.440    0.4739
   40.500    0.4564
   40.560    0.5793
   40.620    0.3686
   40.680    0.4213
   40.740    0.5793
   40.800    0.5441
   40.860    0.4739
   40.920    0.5968
   40.980    0.4915
   41.040    0.4037
   41.100    0.4388
   41.160    0.3686
   41.220    0.5793
   41.280    0.3862
   41.340    0.2984
   41.400    0.4564
   41.460    0.4388
   41.520    0.5617
   41.580    0.4564
   41.640    0.4213
   41.700    0.5090
   41.760    0.3862
   41.820    0.6144
   41.880    0.3686
   41.940    0.5968
   42.000    0.4739
   42.060    0.4037
   42.120    0.4388
   42.180    0.5266
   42.240    0.4915
   42.300    0.6144
   42.360    0.3686
   42.420    0.4388
   42.480    0.4037
   42.540    0.4388
   42.600    0.4915
   42.660    0.5793
   42.720    0.4213
   42.780    0.4739
   42.840    0.3335
   42.900    0.4037
   42.960    0.4037
   43.020    0.5968
   43.080    0.3862
   43.140    0.4037
   43.200    0.4388
   43.260    0.5617
   43.320    0.5090
   43.380    0.3862
   43.440    0.4037
   43.500    0.4388
   43.560    0.5266
   43.620    0.4915
   43.680    0.4739
   43.740    0.4564
   43.800    0.5793
   43.860    0.6495
   43.920    0.4564
   43.980    0.4915
   44.040    0.4388
   44.100    0.4564
   44.160    0.4388
   44.220    0.4388
   44.280    0.5441
   44.340    0.4915
   44.400    0.5090
   44.460    0.5617
   44.520    0.4739
   44.580    0.5266
   44.640    0.4739
   44.700    0.3862
   44.760    0.4915
   44.820    0.4213
   44.880    0.5266
   44.940    0.3511
   45.000    0.4037
   45.060    0.5441
   45.120    0.4037
   45.180    0.3686
   45.240    0.5090
   45.300    0.4915
   45.360    0.3862
   45.420    0.3686
   45.480    0.5441
   45.540    0.3335
   45.600    0.3862
   45.660    0.2633
   45.720    0.3862
   45.780    0.4037
   45.840    0.4213
   45.900    0.4564
   45.960    0.4739
   46.020    0.4037
   46.080    0.4388
   46.140    0.3862
   46.200    0.4388
   46.260    0.5266
   46.320    0.5266
   46.380    0.4915
   46.440    0.5090
   46.500    0.3862
   46.560    0.5617
   46.620    0.5968
   46.680    0.4564
   46.740    0.4915
   46.800    0.3686
   46.860    0.3862
   46.920    0.3686
   46.980    0.5441
   47.040    0.3160
   47.100    0.3862
   47.160    0.4037
   47.220    0.4739
   47.280    0.3160
   47.340    0.2457
   47.400    0.4037
   47.460    0.4037
   47.520    0.4915
   47.580    0.4388
   47.640    0.4037
   47.700    0.3862
   47.760    0.3511
   47.820    0.4915
   47.880    0.4915
   47.940    0.3335
   48.000    0.4213
   48.060    0.3862
   48.120    0.3511
   48.180    0.3511
   48.240    0.4739
   48.300    0.4213
   48.360    0.2808
   48.420    0.3686
   48.480    0.4037
   48.540    0.3160
   48.600    0.3160
   48.660    0.2808
   48.720    0.2808
   48.780    0.3686
   48.840    0.3160
   48.900    0.4037
   48.960    0.3511
   49.020    0.1931
   49.080    0.3862
   49.140    0.3160
   49.200    0.4564
   49.260    0.2984
   49.320    0.3511
   49.380    0.2808
   49.440    0.3160
   49.500    0.4739
   49.560    0.2457
   49.620    0.5090
   49.680    0.4037
   49.740    0.3862
   49.800    0.2808
   49.860    0.2633
   49.920    0.4213
   49.980    0.2984
   50.040    0.3160
   50.100    0.4388
   50.160    0.4037
   50.220    0.2633
   50.280    0.2984
   50.340    0.3335
   50.400    0.3862
   50.460    0.3686
   50.520    0.3862
   50.580    0.4037
   50.640    0.3160
   50.700    0.3160
   50.760    0.4213
   50.820    0.4037
   50.880    0.3511
   50.940    0.3160
   51.000    0.3862
   51.060    0.3511
   51.120    0.4388
   51.180    0.4915
   51.240    0.4037
   51.300    0.2633
   51.360    0.3335
   51.420    0.4388
   51.480    0.2984
   51.540    0.3862
   51.600    0.2633
   51.660    0.3335
   51.720    0.2808
   51.780    0.3862
   51.840    0.3335
   51.900    0.3511
   51.960    0.3511
   52.020    0.3160
   52.080    0.3335
   52.140    0.2808
   52.200    0.4213
   52.260    0.2457
   52.320    0.2984
   52.380    0.3335
   52.440    0.4213
   52.500    0.4388
   52.560    0.2808
   52.620    0.3511
   52.680    0.2984
   52.740    0.3862
   52.800    0.2282
   52.860    0.3160
   52.920    0.3686
   52.980    0.3335
   53.040    0.2808
   53.100    0.2633
   53.160    0.2282
   53.220    0.2984
   53.280    0.2457
   53.340    0.3862
   53.400    0.4037
   53.460    0.3686
   53.520    0.3335
   53.580    0.3160
   53.640    0.3511
   53.700    0.4037
   53.760    0.2808
   53.820    0.3686
   53.880    0.3335
   53.940    0.2457
   54.000    0.3511
   54.060    0.3686
   54.120    0.2808
   54.180    0.4564
   54.240    0.2984
   54.300    0.2808
   54.360    0.3335
   54.420    0.3511
   54.480    0.4213
   54.540    0.2808
   54.600    0.2984
   54.660    0.3862
   54.720    0.3335
   54.780    0.2457
   54.840    0.3160
   54.900    0.2984
   54.960    0.2633
   55.020    0.2984
   55.080    0.2808
   55.140    0.3160
   55.200    0.3686
   55.260    0.3335
   55.320    0.4037
   55.380    0.3335
   55.440    0.4037
   55.500    0.2457
   55.560    0.2282
   55.620    0.3160
   55.680    0.4564
   55.740    0.3686
   55.800    0.3160
   55.860    0.3862
   55.920    0.3335
   55.980    0.2106
   56.040    0.3335
   56.100    0.2808
   56.160    0.3511
   56.220    0.2984
   56.280    0.2984
   56.340    0.2984
   56.400    0.2282
   56.460    0.3335
   56.520    0.3160
   56.580    0.3160
   56.640    0.2984
   56.700    0.2984
   56.760    0.3335
   56.820    0.2282
   56.880    0.2984
   56.940    0.3686
   57.000    0.2282
   57.060    0.2282
   57.120    0.3160
   57.180    0.3160
   57.240    0.2984
   57.300    0.2984
   57.360    0.2984
   57.420    0.2457
   57.480    0.2282
   57.540    0.2984
   57.600    0.2984
   57.660    0.1755
   57.720    0.2984
   57.780    0.2808
   57.840    0.2633
   57.900    0.2633
   57.960    0.2808
   58.020    0.2633
   58.080    0.2808
   58.140    0.3160
   58.200    0.2106
   58.260    0.1931
   58.320    0.3160
   58.380    0.2633
   58.440    0.2282
   58.500    0.3335
   58.560    0.3511
   58.620    0.2457
   58.680    0.2633
   58.740    0.3686
   58.800    0.2808
   58.860    0.2106
   58.920    0.3160
   58.980    0.3335
   59.040    0.2633
   59.100    0.3160
   59.160    0.4213
   59.220    0.1931
   59.280    0.2457
   59.340    0.1931
   59.400    0.3160
   59.460    0.3160
   59.520    0.2106
   59.580    0.2457
   59.640    0.2808
   59.700    0.2808
   59.760    0.2633
   59.820    0.3160
   59.880    0.3335
   59.940    0.2457
   60.000    0.3862
   60.060    0.4213
   60.120    0.2808
   60.180    0.2457
   60.240    0.2457
   60.300    0.3335
   60.360    0.3511
   60.420    0.3335
   60.480    0.2633
   60.540    0.2106
   60.600    0.2633
   60.660    0.2106
   60.720    0.3160
   60.780    0.3511
   60.840    0.2808
   60.900    0.2808
   60.960    0.4213
   61.020    0.2282
   61.080    0.2984
   61.140    0.2457
   61.200    0.2984
   61.260    0.2633
   61.320    0.2633
   61.380    0.2633
   61.440    0.2457
   61.500    0.2633
   61.560    0.2106
   61.620    0.2633
   61.680    0.2282
   61.740    0.2457
   61.800    0.3862
   61.860    0.3862
   61.920    0.2808
   61.980    0.2282
   62.040    0.2106
   62.100    0.2808
   62.160    0.3511
   62.220    0.2106
   62.280    0.2106
   62.340    0.3511
   62.400    0.3335
   62.460    0.2282
   62.520    0.2633
   62.580    0.3160
   62.640    0.4037
   62.700    0.2457
   62.760    0.3511
   62.820    0.2106
   62.880    0.2984
   62.940    0.2106
   63.000    0.3511
   63.060    0.2106
   63.120    0.1755
   63.180    0.2106
   63.240    0.2457
   63.300    0.2106
   63.360    0.2282
   63.420    0.1931
   63.480    0.2457
   63.540    0.2984
   63.600    0.2984
   63.660    0.2457
   63.720    0.1931
   63.780    0.2633
   63.840    0.1404
   63.900    0.2808
   63.960    0.5090
   64.020    0.2633
   64.080    0.1404
   64.140    0.2633
   64.200    0.2457
   64.260    0.1931
   64.320    0.2984
   64.380    0.2808
   64.440    0.2633
   64.500    0.2633
   64.560    0.2633
   64.620    0.3335
   64.680    0.2808
   64.740    0.2808
   64.800    0.2106
   64.860    0.2633
   64.920    0.2633
   64.980    0.2984
   65.040    0.2984
   65.100    0.3160
   65.160    0.1580
   65.220    0.3511
   65.280    0.2106
   65.340    0.3160
   65.400    0.2282
   65.460    0.3160
   65.520    0.2457
   65.580    0.2282
   65.640    0.3160
   65.700    0.2808
   65.760    0.2984
   65.820    0.2106
   65.880    0.2457
   65.940    0.2808
   66.000    0.2633
   66.060    0.3160
   66.120    0.1404
   66.180    0.2984
   66.240    0.2282
   66.300    0.2633
   66.360    0.2808
   66.420    0.1404
   66.480    0.1931
   66.540    0.3511
   66.600    0.2984
   66.660    0.2457
   66.720    0.2282
   66.780    0.2808
   66.840    0.2282
   66.900    0.2106
   66.960    0.2633
   67.020    0.3335
   67.080    0.2282
   67.140    0.1931
   67.200    0.1755
   67.260    0.3511
   67.320    0.2106
   67.380    0.2106
   67.440    0.3511
   67.500    0.3335
   67.560    0.1931
   67.620    0.2106
   67.680    0.3335
   67.740    0.2808
   67.800    0.2808
   67.860    0.2106
   67.920    0.2106
   67.980    0.2457
   68.040    0.3862
   68.100    0.2106
   68.160    0.2457
   68.220    0.1580
   68.280    0.3160
   68.340    0.1931
   68.400    0.2633
   68.460    0.3160
   68.520    0.2106
   68.580    0.3160
   68.640    0.2808
   68.700    0.2633
   68.760    0.3335
   68.820    0.2457
   68.880    0.1931
   68.940    0.2457
   69.000    0.2282
   69.060    0.3686
   69.120    0.2282
   69.180    0.2633
   69.240    0.2282
   69.300    0.2984
   69.360    0.2633
   69.420    0.2106
   69.480    0.3335
   69.540    0.1404
   69.600    0.3160
   69.660    0.2808
   69.720    0.2457
   69.780    0.2106
   69.840    0.2106
   69.900    0.2282
   69.960    0.2457
   70.020    0.2282
   70.080    0.3335
   70.140    0.2984
   70.200    0.1931
   70.260    0.2282
   70.320    0.2106
   70.380    0.1931
   70.440    0.2457
   70.500    0.1404
   70.560    0.2984
   70.620    0.2282
   70.680    0.1931
   70.740    0.2984
   70.800    0.2633
   70.860    0.2106
   70.920    0.1931
   70.980    0.2984
   71.040    0.2633
   71.100    0.3160
   71.160    0.3160
   71.220    0.1931
   71.280    0.2106
   71.340    0.3335
   71.400    0.2984
   71.460    0.2282
   71.520    0.3335
   71.580    0.1580
   71.640    0.1931
   71.700    0.1931
   71.760    0.2282
   71.820    0.1755
   71.880    0.2106
   71.940    0.1931
   72.000    0.1580
   72.060    0.2633
   72.120    0.2106
   72.180    0.2457
   72.240    0.2282
   72.300    0.1931
   72.360    0.3335
   72.420    0.1755
   72.480    0.2282
   72.540    0.2984
   72.600    0.2457
   72.660    0.2457
   72.720    0.2282
   72.780    0.1404
   72.840    0.2282
   72.900    0.2282
   72.960    0.2808
   73.020    0.1755
   73.080    0.1931
   73.140    0.3511
   73.200    0.2457
   73.260    0.2984
   73.320    0.3335
   73.380    0.2457
   73.440    0.3686
   73.500    0.2282
   73.560    0.1931
   73.620    0.2457
   73.680    0.2984
   73.740    0.1931
   73.800    0.2633
   73.860    0.1755
   73.920    0.2106
   73.980    0.1755
   74.040    0.1931
   74.100    0.3862
   74.160    0.2633
   74.220    0.2282
   74.280    0.1931
   74.340    0.2106
   74.400    0.2808
   74.460    0.2282
   74.520    0.1931
   74.580    0.2282
   74.640    0.2984
   74.700    0.2808
   74.760    0.2984
   74.820    0.2282
   74.880    0.1404
   74.940    0.3686
   75.000    0.1755
   75.060    0.3160
   75.120    0.2633
   75.180    0.1755
   75.240    0.2106
   75.300    0.3862
   75.360    0.1931
   75.420    0.2106
   75.480    0.3335
   75.540    0.2282
   75.600    0.1404
   75.660    0.2282
   75.720    0.2457
   75.780    0.2808
   75.840    0.1931
   75.900    0.2106
   75.960    0.1755
   76.020    0.2282
   76.080    0.2457
   76.140    0.1404
   76.200    0.2457
   76.260    0.1755
   76.320    0.1931
   76.380    0.2457
   76.440    0.3160
   76.500    0.2282
   76.560    0.1931
   76.620    0.3511
   76.680    0.3335
   76.740    0.1755
   76.800    0.2106
   76.860    0.2984
   76.920    0.2106
   76.980    0.3511
   77.040    0.1931
   77.100    0.2808
   77.160    0.1931
   77.220    0.2984
   77.280    0.2282
   77.340    0.2106
   77.400    0.1931
   77.460    0.1931
   77.520    0.2106
   77.580    0.1755
   77.640    0.1229
   77.700    0.2633
   77.760    0.2457
   77.820    0.2808
   77.880    0.3160
   77.940    0.2457
   78.000    0.1755
   78.060    0.2633
   78.120    0.2106
   78.180    0.2808
   78.240    0.1931
   78.300    0.2106
   78.360    0.2282
   78.420    0.2457
   78.480    0.3335
   78.540    0.2282
   78.600    0.2633
   78.660    0.2984
   78.720    0.1755
   78.780    0.2282
   78.840    0.1931
   78.900    0.2633
   78.960    0.2457
   79.020    0.2106
   79.080    0.2457
   79.140    0.2633
   79.200    0.3335
   79.260    0.2984
   79.320    0.1580
   79.380    0.2282
   79.440    0.2457
   79.500    0.2282
   79.560    0.2282
   79.620    0.3686
   79.680    0.1580
   79.740    0.2808
   79.800    0.2457
   79.860    0.3160
   79.920    0.2282
   79.980    0.2106