File: data/PXRD/PXRD_KE-283_Cu-Ka1_film-3mm_3s-deg.xyd
    1.500   36.8088
    1.530   36.6333
    1.560   36.0014
    1.590   33.5615
    1.620   31.7184
    1.650   31.2796
    1.680   30.4020
    1.710   29.5243
    1.740   27.1020
    1.770   26.7509
    1.800   25.8733
    1.830   24.4690
    1.860   23.5563
    1.890   22.4153
    1.920   21.5728
    1.950   21.6781
    1.980   20.9760
    2.010   19.6595
    2.040   18.9749
    2.070   18.5010
    2.100   17.7286
    2.130   18.1675
    2.160   16.6052
    2.190   16.2717
    2.220   15.4116
    2.250   15.9031
    2.280   14.4813
    2.310   15.3239
    2.340   13.8494
    2.370   13.5510
    2.400   13.1999
    2.430   13.6212
    2.460   12.7787
    2.490   11.9888
    2.520   12.2170
    2.550   12.7084
    2.580   11.7606
    2.610   11.0409
    2.640   11.5675
    2.670   11.6904
    2.700   10.6021
    2.730   10.8654
    2.760   10.2861
    2.790   10.6547
    2.820   10.5319
    2.850   10.4090
    2.880   10.2861
    2.910    9.9702
    2.940   10.5494
    2.970   10.3914
    3.000    9.9877
    3.030    9.8297
    3.060    9.2154
    3.090    9.6191
    3.120    9.3909
    3.150    9.2680
    3.180    9.4962
    3.210    9.1627
    3.240    8.9521
    3.270    8.9872
    3.300    8.6010
    3.330    8.7941
    3.360    8.5659
    3.390    8.6010
    3.420    8.7590
    3.450    8.3553
    3.480    8.6888
    3.510    8.3026
    3.540    8.8292
    3.570    8.7414
    3.600    7.8462
    3.630    8.4957
    3.660    8.1271
    3.690    7.8287
    3.720    8.4781
    3.750    7.9164
    3.780    8.4255
    3.810    8.1797
    3.840    8.1973
    3.870    8.0744
    3.900    8.4430
    3.930    8.3377
    3.960    8.8819
    3.990    8.4957
    4.020    8.5133
    4.050    9.0398
    4.080    8.1622
    4.110    8.4079
    4.140    8.3904
    4.170    7.7760
    4.200    8.3904
    4.230    8.3377
    4.260    7.6356
    4.290    8.6537
    4.320    8.7414
    4.350    7.9340
    4.380    7.9516
    4.410    8.1446
    4.440    8.1622
    4.470    8.3026
    4.500    8.2675
    4.530    8.3553
    4.560    8.6712
    4.590    8.6888
    4.620    8.0920
    4.650    8.5659
    4.680    7.8462
    4.710    8.1446
    4.740    7.7585
    4.770    8.6010
    4.800    8.0920
    4.830    8.3904
    4.860    8.0569
    4.890    8.4430
    4.920    8.6537
    4.950    8.5308
    4.980    8.4781
    5.010    8.9696
    5.040    8.8468
    5.070    9.4260
    5.100    9.3207
    5.130    9.7244
    5.160    9.4962
    5.190    9.8824
    5.220    9.1803
    5.250    9.3558
    5.280    9.8473
    5.310   10.5845
    5.340   10.2335
    5.370   10.3914
    5.400    9.7420
    5.430   10.0930
    5.460   10.6021
    5.490   10.3914
    5.520   10.5670
    5.550   10.5319
    5.580   11.2515
    5.610   10.7074
    5.640   10.2686
    5.670    9.8473
    5.700   10.0930
    5.730   10.4616
    5.760    9.4436
    5.790    9.5138
    5.820    9.3031
    5.850    9.0574
    5.880    9.0750
    5.910    8.7239
    5.940    8.7590
    5.970    8.4957
    6.000    8.6537
    6.030    8.3377
    6.060    8.3728
    6.090    8.7414
    6.120    7.6005
    6.150    7.6005
    6.180    7.8462
    6.210    7.4776
    6.240    7.7585
    6.270    7.8287
    6.300    8.2675
    6.330    7.2845
    6.360    7.7234
    6.390    7.9691
    6.420    7.3372
    6.450    7.8287
    6.480    7.3723
    6.510    7.2845
    6.540    7.2143
    6.570    7.4952
    6.600    7.3899
    6.630    7.4776
    6.660    7.2670
    6.690    6.8106
    6.720    7.1266
    6.750    7.7585
    6.780    7.4776
    6.810    7.1792
    6.840    6.6526
    6.870    6.9335
    6.900    6.9510
    6.930    6.9686
    6.960    7.0388
    6.990    7.0563
    7.020    6.5824
    7.050    6.7228
    7.080    7.2319
    7.110    7.4425
    7.140    6.7404
    7.170    6.7930
    7.200    6.5649
    7.230    6.8282
    7.260    6.7755
    7.290    6.4420
    7.320    6.4946
    7.350    6.5649
    7.380    6.4595
    7.410    6.8808
    7.440    6.4069
    7.470    6.5473
    7.500    6.3542
    7.530    6.2840
    7.560    6.3542
    7.590    6.3542
    7.620    6.1962
    7.650    6.2665
    7.680    6.0383
    7.710    6.2665
    7.740    6.3016
    7.770    5.9154
    7.800    5.8627
    7.830    6.2840
    7.860    5.8276
    7.890    6.1260
    7.920    6.2489
    7.950    6.3542
    7.980    5.9505
    8.010    6.2138
    8.040    6.5824
    8.070    6.0734
    8.100    5.7048
    8.130    6.0734
    8.160    6.3367
    8.190    5.9681
    8.220    6.4244
    8.250    6.1085
    8.280    6.4069
    8.310    5.9154
    8.340    6.1787
    8.370    6.1787
    8.400    5.8627
    8.430    5.5819
    8.460    5.6872
    8.490    5.8276
    8.520    5.5292
    8.550    5.6697
    8.580    5.4590
    8.610    5.7750
    8.640    6.0909
    8.670    5.5819
    8.700    5.6697
    8.730    5.8276
    8.760    5.9154
    8.790    5.4941
    8.820    5.3361
    8.850    5.4239
    8.880    5.7048
    8.910    5.2835
    8.940    5.4941
    8.970    5.3712
    9.000    5.7574
    9.030    5.6697
    9.060    5.8276
    9.090    5.2835
    9.120    5.2659
    9.150    5.5994
    9.180    5.8276
    9.210    5.3712
    9.240    6.2489
    9.270    5.3010
    9.300    4.9851
    9.330    5.5994
    9.360    5.2133
    9.390    5.5994
    9.420    5.4590
    9.450    5.4590
    9.480    5.5819
    9.510    5.2133
    9.540    5.6521
    9.570    4.9675
    9.600    4.9149
    9.630    5.4766
    9.660    5.6521
    9.690    5.2835
    9.720    5.3712
    9.750    5.2308
    9.780    5.4941
    9.810    5.5643
    9.840    5.1431
    9.870    4.9500
    9.900    5.3010
    9.930    5.3186
    9.960    5.3010
    9.990    4.9324
   10.020    5.5468
   10.050    5.6697
   10.080    5.0728
   10.110    5.1080
   10.140    5.5994
   10.170    5.2484
   10.200    5.5643
   10.230    5.0728
   10.260    5.4415
   10.290    5.3010
   10.320    5.7925
   10.350    5.3186
   10.380    5.3186
   10.410    5.3186
   10.440    5.6521
   10.470    5.5643
   10.500    5.6345
   10.530    6.1436
   10.560    4.9500
   10.590    5.5994
   10.620    5.6697
   10.650    5.9856
   10.680    5.3888
   10.710    5.5643
   10.740    6.1260
   10.770    5.7750
   10.800    5.3888
   10.830    5.4415
   10.860    5.2484
   10.890    5.7750
   10.920    5.7223
   10.950    5.5819
   10.980    5.0377
   11.010    5.7574
   11.040    5.7574
   11.070    6.0909
   11.100    5.5468
   11.130    5.4766
   11.160    5.4766
   11.190    5.4766
   11.220    5.7223
   11.250    5.6170
   11.280    5.3361
   11.310    5.3712
   11.340    5.7223
   11.370    5.0553
   11.400    5.4064
   11.430    5.7223
   11.460    5.1957
   11.490    5.4766
   11.520    5.5994
   11.550    5.1957
   11.580    5.3361
   11.610    5.5643
   11.640    5.4590
   11.670    5.7399
   11.700    4.9675
   11.730    5.1431
   11.760    5.3712
   11.790    5.3186
   11.820    5.0904
   11.850    5.1606
   11.880    5.1782
   11.910    4.8447
   11.940    5.5468
   11.970    5.4766
   12.000    5.4064
   12.030    5.5994
   12.060    5.2835
   12.090    5.4415
   12.120    5.4590
   12.150    5.3537
   12.180    5.2835
   12.210    5.2308
   12.240    5.1606
   12.270    5.4064
   12.300    5.0728
   12.330    5.2835
   12.360    4.9851
   12.390    5.0728
   12.420    5.6521
   12.450    5.0202
   12.480    5.3186
   12.510    4.8973
   12.540    5.1782
   12.570    5.0026
   12.600    5.0202
   12.630    5.4941
   12.660    4.8447
   12.690    5.0026
   12.720    4.7042
   12.750    5.0202
   12.780    5.2308
   12.810    4.9851
   12.840    5.1080
   12.870    5.0728
   12.900    4.6867
   12.930    5.0904
   12.960    4.9500
   12.990    5.1606
   13.020    5.1080
   13.050    5.1080
   13.080    4.9149
   13.110    5.0553
   13.140    4.8271
   13.170    4.8798
   13.200    5.4941
   13.230    5.0202
   13.260    4.9500
   13.290    5.0728
   13.320    5.0202
   13.350    5.4415
   13.380    4.7042
   13.410    4.9675
   13.440    5.1431
   13.470    5.2659
   13.500    5.0553
   13.530    5.4064
   13.560    5.3888
   13.590    5.3888
   13.620    5.3361
   13.650    5.2659
   13.680    5.1782
   13.710    5.0377
   13.740    5.2133
   13.770    5.2659
   13.800    5.1782
   13.830    5.2835
   13.860    5.3010
   13.890    5.1255
   13.920    5.2835
   13.950    5.2484
   13.980    5.7574
   14.010    5.6872
   14.040    5.1957
   14.070    5.1431
   14.100    5.3010
   14.130    5.2659
   14.160    5.5292
   14.190    5.2308
   14.220    6.0734
   14.250    5.3010
   14.280    5.2659
   14.310    5.4415
   14.340    5.8803
   14.370    5.3537
   14.400    6.0032
   14.430    5.7574
   14.460    5.4239
   14.490    5.3712
   14.520    5.5819
   14.550    5.9856
   14.580    5.0904
   14.610    5.5117
   14.640    5.5117
   14.670    5.5994
   14.700    5.7048
   14.730    5.4415
   14.760    5.8101
   14.790    4.9149
   14.820    5.8803
   14.850    5.4590
   14.880    5.5468
   14.910    5.2308
   14.940    5.4415
   14.970    5.1606
   15.000    5.1957
   15.030    5.0728
   15.060    4.9500
   15.090    5.0026
   15.120    4.9675
   15.150    5.1957
   15.180    5.3537
   15.210    5.1255
   15.240    5.0377
   15.270    5.4941
   15.300    4.9500
   15.330    5.2133
   15.360    5.3186
   15.390    5.1606
   15.420    5.7750
   15.450    4.5638
   15.480    5.2835
   15.510    5.0026
   15.540    5.3888
   15.570    5.3010
   15.600    5.0904
   15.630    4.9324
   15.660    5.9505
   15.690    4.8271
   15.720    5.1080
   15.750    4.6691
   15.780    5.2308
   15.810    5.1255
   15.840    4.7393
   15.870    5.1606
   15.900    5.2835
   15.930    4.6165
   15.960    5.3361
   15.990    4.7569
   16.020    5.4941
   16.050    5.3537
   16.080    5.4239
   16.110    5.6170
   16.140    5.5117
   16.170    5.4590
   16.200    4.8973
   16.230    5.2308
   16.260    5.4766
   16.290    5.3537
   16.320    5.6345
   16.350    5.5468
   16.380    4.8973
   16.410    4.6165
   16.440    5.6872
   16.470    5.1431
   16.500    5.1431
   16.530    5.1957
   16.560    5.2835
   16.590    5.4941
   16.620    5.6521
   16.650    4.7920
   16.680    5.7223
   16.710    5.0377
   16.740    5.6345
   16.770    4.5463
   16.800    5.3010
   16.830    4.6867
   16.860    5.5117
   16.890    5.2484
   16.920    5.0904
   16.950    5.3186
   16.980    5.1782
   17.010    5.1606
   17.040    4.9675
   17.070    5.0026
   17.100    5.5468
   17.130    5.7574
   17.160    5.0728
   17.190    5.2835
   17.220    4.9851
   17.250    5.1606
   17.280    4.5463
   17.310    5.3361
   17.340    5.3888
   17.370    4.8973
   17.400    4.8973
   17.430    4.7744
   17.460    5.3186
   17.490    5.3361
   17.520    4.9149
   17.550    5.1080
   17.580    4.7042
   17.610    5.2308
   17.640    5.2484
   17.670    5.2133
   17.700    5.2484
   17.730    5.2484
   17.760    5.3537
   17.790    5.5468
   17.820    5.1606
   17.850    5.5292
   17.880    4.8973
   17.910    5.4766
   17.940    5.1255
   17.970    5.8101
   18.000    5.0202
   18.030    4.8973
   18.060    5.0026
   18.090    5.1782
   18.120    4.8798
   18.150    4.9675
   18.180    5.5819
   18.210    5.1957
   18.240    5.0377
   18.270    5.2133
   18.300    5.4941
   18.330    4.8973
   18.360    5.5643
   18.390    5.2308
   18.420    4.9675
   18.450    4.8798
   18.480    4.9324
   18.510    5.0728
   18.540    5.2835
   18.570    5.1255
   18.600    4.8271
   18.630    5.7925
   18.660    4.8271
   18.690    5.3537
   18.720    5.4239
   18.750    4.9851
   18.780    4.8095
   18.810    5.0026
   18.840    5.6170
   18.870    5.0026
   18.900    5.1957
   18.930    5.4590
   18.960    6.3718
   18.990    5.9505
   19.020    5.6345
   19.050    4.8095
   19.080    5.3361
   19.110    4.9500
   19.140    5.2659
   19.170    5.1782
   19.200    5.0026
   19.230    5.4766
   19.260    4.9149
   19.290    4.9851
   19.320    5.1080
   19.350    5.2835
   19.380    5.1782
   19.410    4.9851
   19.440    5.1080
   19.470    5.4064
   19.500    4.8798
   19.530    4.6165
   19.560    5.1957
   19.590    4.7920
   19.620    5.1606
   19.650    4.9851
   19.680    5.0904
   19.710    4.7218
   19.740    5.4415
   19.770    4.8798
   19.800    5.0728
   19.830    5.0202
   19.860    5.2308
   19.890    4.9675
   19.920    4.7042
   19.950    4.4409
   19.980    4.9149
   20.010    5.1080
   20.040    5.5468
   20.070    4.6516
   20.100    5.2308
   20.130    5.2133
   20.160    5.1782
   20.190    5.5468
   20.220    4.9500
   20.250    5.2484
   20.280    4.9500
   20.310    5.7223
   20.340    4.5814
   20.370    4.8095
   20.400    5.3361
   20.430    4.9675
   20.460    4.4585
   20.490    5.1606
   20.520    4.8271
   20.550    5.4239
   20.580    5.0026
   20.610    4.7393
   20.640    4.6165
   20.670    5.3010
   20.700    4.7744
   20.730    5.1431
   20.760    5.0553
   20.790    5.0904
   20.820    4.6867
   20.850    4.3005
   20.880    4.6516
   20.910    4.9675
   20.940    4.8622
   20.970    4.6165
   21.000    4.5463
   21.030    5.1431
   21.060    4.7393
   21.090    4.4409
   21.120    4.6516
   21.150    4.7920
   21.180    4.6340
   21.210    4.4936
   21.240    4.3532
   21.270    4.6340
   21.300    4.9675
   21.330    4.9149
   21.360    4.9324
   21.390    4.9324
   21.420    4.4760
   21.450    4.6691
   21.480    4.9149
   21.510    4.6516
   21.540    4.9851
   21.570    5.0026
   21.600    4.9324
   21.630    4.7569
   21.660    4.8447
   21.690    4.5814
   21.720    4.8973
   21.750    4.4234
   21.780    4.7393
   21.810    4.5638
   21.840    4.5989
   21.870    4.4760
   21.900    4.5463
   21.930    4.8798
   21.960    4.8798
   21.990    4.5814
   22.020    4.5814
   22.050    4.4409
   22.080    4.6867
   22.110    4.5638
   22.140    4.6165
   22.170    4.3707
   22.200    4.7393
   22.230    4.2478
   22.260    4.5989
   22.290    4.5814
   22.320    4.3181
   22.350    4.3005
   22.380    4.0197
   22.410    4.7218
   22.440    4.8622
   22.470    4.5111
   22.500    4.3707
   22.530    4.1601
   22.560    4.6867
   22.590    4.6340
   22.620    4.1074
   22.650    4.5989
   22.680    4.5989
   22.710    4.2830
   22.740    4.5287
   22.770    4.4058
   22.800    4.8622
   22.830    4.1952
   22.860    4.2654
   22.890    4.6867
   22.920    4.2478
   22.950    4.6165
   22.980    4.4936
   23.010    3.9670
   23.040    4.5814
   23.070    4.4760
   23.100    4.6340
   23.130    4.3356
   23.160    4.4760
   23.190    4.1601
   23.220    4.1952
   23.250    4.6867
   23.280    4.1952
   23.310    4.1425
   23.340    4.2127
   23.370    4.5287
   23.400    4.3181
   23.430    4.6867
   23.460    4.2303
   23.490    4.2830
   23.520    4.6867
   23.550    4.1425
   23.580    4.1776
   23.610    4.3883
   23.640    4.1952
   23.670    4.3181
   23.700    3.8968
   23.730    4.2127
   23.760    4.2303
   23.790    4.2478
   23.820    4.1776
   23.850    4.1601
   23.880    4.2830
   23.910    4.1425
   23.940    4.6516
   23.970    4.1776
   24.000    4.2830
   24.030    3.9670
   24.060    4.2303
   24.090    3.8266
   24.120    4.2127
   24.150    4.1776
   24.180    3.8968
   24.210    4.0548
   24.240    3.9494
   24.270    3.8266
   24.300    4.3883
   24.330    4.1250
   24.360    4.0197
   24.390    4.0021
   24.420    3.9494
   24.450    3.7564
   24.480    3.8266
   24.510    4.1776
   24.540    3.5106
   24.570    3.6862
   24.600    3.9846
   24.630    4.0899
   24.660    4.1425
   24.690    4.1776
   24.720    3.8441
   24.750    3.7213
   24.780    3.7037
   24.810    3.6510
   24.840    3.8266
   24.870    3.6862
   24.900    3.9846
   24.930    3.8441
   24.960    3.7915
   24.990    3.4404
   25.020    3.9670
   25.050    3.8617
   25.080    4.0197
   25.110    3.9670
   25.140    3.9494
   25.170    3.5633
   25.200    3.7564
   25.230    3.8266
   25.260    3.4580
   25.290    3.8792
   25.320    3.5808
   25.350    3.8617
   25.380    3.6510
   25.410    3.7213
   25.440    4.0021
   25.470    3.7564
   25.500    3.8617
   25.530    3.5633
   25.560    3.3000
   25.590    3.5106
   25.620    3.7388
   25.650    3.6686
   25.680    3.7213
   25.710    3.6862
   25.740    3.6862
   25.770    3.5808
   25.800    3.7915
   25.830    3.6335
   25.860    3.7037
   25.890    3.3526
   25.920    3.9143
   25.950    3.5808
   25.980    3.7388
   26.010    3.7915
   26.040    4.2127
   26.070    3.4580
   26.100    3.6335
   26.130    3.1420
   26.160    3.1596
   26.190    3.3351
   26.220    3.8968
   26.250    3.8968
   26.280    3.7213
   26.310    3.4755
   26.340    3.3000
   26.370    3.0542
   26.400    3.4931
   26.430    3.4755
   26.460    3.0893
   26.490    3.7037
   26.520    3.9494
   26.550    3.5984
   26.580    3.4053
   26.610    3.5984
   26.640    3.3175
   26.670    3.3526
   26.700    3.6510
   26.730    3.3526
   26.760    3.3526
   26.790    3.4053
   26.820    3.3351
   26.850    3.5808
   26.880    3.4580
   26.910    3.1771
   26.940    3.2473
   26.970    3.3702
   27.000    3.2298
   27.030    3.2122
   27.060    3.4229
   27.090    3.0542
   27.120    3.3702
   27.150    3.4580
   27.180    3.1069
   27.210    3.4580
   27.240    2.9138
   27.270    3.2473
   27.300    3.2824
   27.330    2.8963
   27.360    3.0542
   27.390    3.3175
   27.420    3.0367
   27.450    3.1596
   27.480    2.8436
   27.510    3.6159
   27.540    3.3351
   27.570    3.4404
   27.600    3.1245
   27.630    3.3175
   27.660    3.3702
   27.690    3.4229
   27.720    3.0542
   27.750    3.2649
   27.780    3.2473
   27.810    2.8612
   27.840    3.1245
   27.870    2.8612
   27.900    3.0718
   27.930    3.6159
   27.960    3.8266
   27.990    4.0372
   28.020    3.7739
   28.050    3.1771
   28.080    3.0016
   28.110    3.1245
   28.140    2.9138
   28.170    3.2122
   28.200    2.9840
   28.230    3.0718
   28.260    3.0542
   28.290    2.9489
   28.320    3.0542
   28.350    3.0893
   28.380    3.0016
   28.410    3.0016
   28.440    2.8787
   28.470    3.2649
   28.500    3.1420
   28.530    3.1771
   28.560    3.3351
   28.590    2.9314
   28.620    2.5628
   28.650    2.6330
   28.680    2.8787
   28.710    3.0191
   28.740    3.0367
   28.770    2.9489
   28.800    2.8260
   28.830    2.9665
   28.860    2.8963
   28.890    3.5457
   28.920    4.0021
   28.950    4.3532
   28.980    3.7739
   29.010    3.0367
   29.040    3.0542
   29.070    2.6681
   29.100    2.6154
   29.130    3.1069
   29.160    2.6681
   29.190    3.1069
   29.220    3.0542
   29.250    3.0542
   29.280    3.2298
   29.310    2.7207
   29.340    2.6505
   29.370    3.0718
   29.400    2.8436
   29.430    2.8085
   29.460    2.9314
   29.490    2.8963
   29.520    3.0191
   29.550    2.4925
   29.580    2.5101
   29.610    2.5803
   29.640    2.6330
   29.670    2.3521
   29.700    2.8963
   29.730    2.3521
   29.760    2.7734
   29.790    2.8085
   29.820    2.5452
   29.850    2.3521
   29.880    2.6330
   29.910    2.5452
   29.940    2.7383
   29.970    2.2292
   30.000    2.7558
   30.030    2.5276
   30.060    2.5803
   30.090    2.3697
   30.120    2.6856
   30.150    2.4574
   30.180    2.4048
   30.210    2.3697
   30.240    2.7032
   30.270    2.4048
   30.300    2.5276
   30.330    2.5452
   30.360    2.5276
   30.390    2.3346
   30.420    2.6330
   30.450    2.5452
   30.480    2.1590
   30.510    2.8085
   30.540    2.3872
   30.570    2.3521
   30.600    2.4574
   30.630    2.6154
   30.660    2.5276
   30.690    2.2819
   30.720    2.3170
   30.750    2.4399
   30.780    2.4223
   30.810    2.1239
   30.840    2.0888
   30.870    2.0186
   30.900    2.4048
   30.930    2.3697
   30.960    2.5979
   30.990    2.0186
   31.020    2.2643
   31.050    2.1239
   31.080    2.2643
   31.110    2.1590
   31.140    2.2643
   31.170    2.3170
   31.200    2.2292
   31.230    1.9133
   31.260    2.2819
   31.290    2.1766
   31.320    2.1239
   31.350    2.4048
   31.380    2.3521
   31.410    2.1941
   31.440    2.1766
   31.470    2.5101
   31.500    2.2468
   31.530    2.1239
   31.560    2.1941
   31.590    2.3170
   31.620    2.0713
   31.650    1.8782
   31.680    2.1415
   31.710    2.5628
   31.740    2.8612
   31.770    3.1947
   31.800    2.7207
   31.830    2.2117
   31.860    2.2995
   31.890    2.2643
   31.920    2.2819
   31.950    2.1941
   31.980    1.8431
   32.010    2.7207
   32.040    3.7915
   32.070    4.5989
   32.100    3.8792
   32.130    3.1069
   32.160    2.0362
   32.190    2.3346
   32.220    2.0186
   32.250    2.0537
   32.280    1.9659
   32.310    1.8782
   32.340    1.9308
   32.370    1.8080
   32.400    2.3170
   32.430    2.0713
   32.460    1.8782
   32.490    1.8080
   32.520    2.1064
   32.550    2.0362
   32.580    1.9835
   32.610    2.0362
   32.640    1.8255
   32.670    2.2643
   32.700    1.9133
   32.730    2.2468
   32.760    1.6851
   32.790    1.9133
   32.820    1.9133
   32.850    1.9659
   32.880    2.1766
   32.910    2.3170
   32.940    1.9659
   32.970    1.8431
   33.000    1.9133
   33.030    2.0186
   33.060    1.8606
   33.090    2.0888
   33.120    1.9484
   33.150    1.9659
   33.180    2.0713
   33.210    1.9484
   33.240    2.1239
   33.270    2.0362
   33.300    1.8080
   33.330    1.8255
   33.360    1.9659
   33.390    1.8080
   33.420    1.6149
   33.450    1.8957
   33.480    1.9659
   33.510    1.8782
   33.540    2.1590
   33.570    1.8255
   33.600    1.7729
   33.630    2.0011
   33.660    1.9835
   33.690    2.0713
   33.720    1.8606
   33.750    2.6330
   33.780    2.7909
   33.810    2.4223
   33.840    1.9835
   33.870    1.9308
   33.900    1.8080
   33.930    2.4223
   33.960    2.2995
   33.990    2.1941
   34.020    2.0186
   34.050    1.8080
   34.080    1.9133
   34.110    2.0186
   34.140    2.0888
   34.170    1.9484
   34.200    1.6851
   34.230    1.7027
   34.260    2.1239
   34.290    1.7378
   34.320    1.6851
   34.350    1.8255
   34.380    1.9308
   34.410    2.0011
   34.440    1.8606
   34.470    2.2117
   34.500    1.7729
   34.530    1.6675
   34.560    2.0537
   34.590    2.0362
   34.620    1.7553
   34.650    1.6851
   34.680    1.8606
   34.710    1.8080
   34.740    1.7729
   34.770    1.5447
   34.800    1.8782
   34.830    1.6675
   34.860    1.8080
   34.890    1.8957
   34.920    1.7729
   34.950    1.7904
   34.980    1.8606
   35.010    1.9659
   35.040    1.7378
   35.070    2.1590
   35.100    1.6324
   35.130    1.8606
   35.160    1.8080
   35.190    1.8782
   35.220    1.8957
   35.250    1.7027
   35.280    1.5447
   35.310    2.0888
   35.340    1.4218
   35.370    1.7553
   35.400    1.5973
   35.430    1.8606
   35.460    1.8080
   35.490    1.7553
   35.520    1.6149
   35.550    1.6675
   35.580    1.6851
   35.610    1.9308
   35.640    1.7553
   35.670    1.7904
   35.700    1.8606
   35.730    1.9308
   35.760    1.7729
   35.790    1.8431
   35.820    1.7553
   35.850    1.6851
   35.880    1.9835
   35.910    1.8255
   35.940    1.6500
   35.970    1.6851
   36.000    1.8431
   36.030    1.7027
   36.060    1.8080
   36.090    2.0713
   36.120    1.7553
   36.150    1.6851
   36.180    1.7553
   36.210    1.7378
   36.240    1.6675
   36.270    1.7553
   36.300    1.7027
   36.330    2.0713
   36.360    1.6675
   36.390    1.8606
   36.420    2.0888
   36.450    1.5798
   36.480    1.5096
   36.510    1.8431
   36.540    1.7553
   36.570    1.5447
   36.600    1.5622
   36.630    1.7202
   36.660    1.9308
   36.690    1.6851
   36.720    1.7378
   36.750    1.7027
   36.780    1.5271
   36.810    1.6149
   36.840    1.9484
   36.870    1.5447
   36.900    1.8431
   36.930    1.5973
   36.960    1.8606
   36.990    1.6324
   37.020    1.6851
   37.050    1.7553
   37.080    1.7378
   37.110    1.7202
   37.140    1.7729
   37.170    1.9484
   37.200    1.5271
   37.230    1.9484
   37.260    1.5798
   37.290    1.7378
   37.320    1.6675
   37.350    1.8957
   37.380    1.5973
   37.410    1.7553
   37.440    1.7553
   37.470    1.6675
   37.500    1.4042
   37.530    1.7553
   37.560    1.6324
   37.590    1.7027
   37.620    1.8080
   37.650    1.4920
   37.680    1.6500
   37.710    1.6500
   37.740    1.5973
   37.770    1.5447
   37.800    1.5798
   37.830    1.6149
   37.860    1.8957
   37.890    1.5973
   37.920    1.7027
   37.950    1.5622
   37.980    1.7202
   38.010    1.6675
   38.040    2.0362
   38.070    1.7378
   38.100    1.6324
   38.130    1.8255
   38.160    1.6500
   38.190    1.8431
   38.220    1.4920
   38.250    1.7202
   38.280    1.6149
   38.310    2.0011
   38.340    1.8782
   38.370    1.7553
   38.400    1.8606
   38.430    1.6149
   38.460    1.6851
   38.490    1.7378
   38.520    2.0362
   38.550    1.8431
   38.580    2.0713
   38.610    2.0537
   38.640    1.6149
   38.670    1.5973
   38.700    1.5447
   38.730    1.6851
   38.760    1.8255
   38.790    1.7553
   38.820    1.7553
   38.850    1.6324
   38.880    1.8782
   38.910    1.7027
   38.940    1.8255
   38.970    1.8606
   39.000    1.6851
   39.030    1.7202
   39.060    1.6675
   39.090    1.7202
   39.120    1.8255
   39.150    1.5447
   39.180    1.7553
   39.210    1.8782
   39.240    1.9484
   39.270    1.4569
   39.300    1.5447
   39.330    1.7027
   39.360    1.5622
   39.390    1.7202
   39.420    1.6675
   39.450    1.5622
   39.480    1.5798
   39.510    1.5096
   39.540    1.6500
   39.570    1.5622
   39.600    1.5973
   39.630    1.8606
   39.660    1.4042
   39.690    1.5622
   39.720    1.6149
   39.750    1.6851
   39.780    1.6851
   39.810    1.5973
   39.840    1.6324
   39.870    1.4745
   39.900    1.6500
   39.930    1.3867
   39.960    1.7027
   39.990    1.5271