File: data/PXRD/PXRD_KE-005_Cu-Ka1_capillary-1mm_5s-deg.xyd
    1.500   27.9410
    1.530   27.3934
    1.560   26.5508
    1.590   25.1395
    1.620   23.4860
    1.650   23.1385
    1.680   21.2849
    1.710   20.6319
    1.740   19.8526
    1.770   19.3154
    1.800   17.7251
    1.830   16.8931
    1.860   17.1564
    1.890   16.2717
    1.920   15.5872
    1.950   15.7346
    1.980   14.7867
    2.010   14.6814
    2.040   14.6393
    2.070   13.4702
    2.100   13.0595
    2.130   12.9647
    2.160   13.0595
    2.190   12.6909
    2.220   12.2591
    2.250   12.3328
    2.280   11.6166
    2.310   11.8378
    2.340   11.5324
    2.370   11.5956
    2.400   11.3849
    2.430   10.7846
    2.460   11.5324
    2.490   11.0795
    2.520   11.5113
    2.550   11.3007
    2.580   10.0474
    2.610   10.8583
    2.640   11.2375
    2.670   10.4265
    2.700   11.1006
    2.730   10.2370
    2.760   10.6793
    2.790   10.3528
    2.820   10.5845
    2.850   11.2375
    2.880   10.8373
    2.910   11.2375
    2.940   11.1638
    2.970   11.4587
    3.000   11.7641
    3.030   11.6588
    3.060   11.9221
    3.090   12.0800
    3.120   12.8067
    3.150   12.8489
    3.180   13.1438
    3.210   13.5966
    3.240   14.1759
    3.270   14.2285
    3.300   15.4924
    3.330   15.3976
    3.360   16.8931
    3.390   16.8404
    3.420   17.4934
    3.450   18.2622
    3.480   19.8736
    3.510   19.8631
    3.540   19.5682
    3.570   20.6214
    3.600   20.4213
    3.630   19.3470
    3.660   19.7578
    3.690   19.2944
    3.720   18.1359
    3.750   17.3460
    3.780   16.0716
    3.810   15.9136
    3.840   15.3660
    3.870   14.3865
    3.900   13.8494
    3.930   13.5124
    3.960   12.2591
    3.990   12.4171
    4.020   11.8062
    4.050   10.9847
    4.080   11.1954
    4.110   10.3844
    4.140   10.3739
    4.170    9.6788
    4.200   10.3212
    4.230    9.4787
    4.260    9.0469
    4.290    9.2048
    4.320    9.2048
    4.350    8.8784
    4.380    9.0469
    4.410    9.1101
    4.440    8.7941
    4.470    8.2675
    4.500    8.3307
    4.530    8.4150
    4.560    8.3939
    4.590    7.9200
    4.620    8.1201
    4.650    7.9937
    4.680    8.0885
    4.710    8.0147
    4.740    7.6567
    4.770    8.0358
    4.800    7.9094
    4.830    7.8357
    4.860    7.9621
    4.890    8.0147
    4.920    7.5619
    4.950    7.5619
    4.980    7.4566
    5.010    8.0253
    5.040    7.3091
    5.070    7.2986
    5.100    7.7409
    5.130    7.1090
    5.160    7.3934
    5.190    7.5829
    5.220    7.3196
    5.250    7.4039
    5.280    7.2565
    5.310    7.0142
    5.340    7.0037
    5.370    7.3618
    5.400    7.2459
    5.430    6.8773
    5.460    7.2459
    5.490    7.0037
    5.520    7.2565
    5.550    6.8562
    5.580    7.0563
    5.610    6.8773
    5.640    6.6245
    5.670    6.2559
    5.700    7.1090
    5.730    6.3507
    5.760    6.6561
    5.790    6.5087
    5.820    6.4139
    5.850    6.6667
    5.880    6.7088
    5.910    6.4455
    5.940    6.3612
    5.970    6.2981
    6.000    6.2033
    6.030    6.6983
    6.060    6.1401
    6.090    5.9926
    6.120    6.2981
    6.150    6.1822
    6.180    6.2875
    6.210    5.9084
    6.240    6.1927
    6.270    5.9400
    6.300    6.1611
    6.330    5.9505
    6.360    5.9294
    6.390    6.6877
    6.420    5.9610
    6.450    5.8662
    6.480    6.0558
    6.510    5.6872
    6.540    6.1611
    6.570    6.0137
    6.600    6.1717
    6.630    5.6451
    6.660    6.0558
    6.690    6.1927
    6.720    6.4350
    6.750    6.4350
    6.780    6.4771
    6.810    6.4350
    6.840    6.3191
    6.870    6.6140
    6.900    6.6140
    6.930    6.5192
    6.960    6.6877
    6.990    6.8773
    7.020    7.2880
    7.050    7.4776
    7.080    7.3723
    7.110    6.9510
    7.140    7.0879
    7.170    7.4039
    7.200    7.1827
    7.230    7.1827
    7.260    7.0879
    7.290    6.6983
    7.320    7.2880
    7.350    6.7720
    7.380    6.7825
    7.410    6.8878
    7.440    6.4244
    7.470    6.6561
    7.500    6.2243
    7.530    6.5508
    7.560    6.2770
    7.590    5.5608
    7.620    5.9400
    7.650    5.7609
    7.680    5.4134
    7.710    5.4660
    7.740    5.1395
    7.770    5.3291
    7.800    5.2870
    7.830    5.7715
    7.860    5.1606
    7.890    5.2975
    7.920    5.2133
    7.950    4.9078
    7.980    5.0658
    8.010    5.7083
    8.040    4.7604
    8.070    4.9078
    8.100    4.9921
    8.130    5.0342
    8.160    4.8552
    8.190    4.7183
    8.220    4.9078
    8.250    4.6972
    8.280    4.8341
    8.310    4.3602
    8.340    4.8868
    8.370    4.6761
    8.400    4.7077
    8.430    4.3707
    8.460    4.6761
    8.490    4.2865
    8.520    4.3286
    8.550    4.1917
    8.580    4.3286
    8.610    4.2233
    8.640    4.2233
    8.670    4.7077
    8.700    4.2338
    8.730    4.4023
    8.760    4.5182
    8.790    4.1706
    8.820    4.2865
    8.850    4.5603
    8.880    4.4655
    8.910    4.1811
    8.940    4.7499
    8.970    4.3075
    9.000    4.1917
    9.030    4.2022
    9.060    4.1917
    9.090    4.2970
    9.120    4.2549
    9.150    3.8231
    9.180    4.2443
    9.210    4.3602
    9.240    4.3286
    9.270    4.1180
    9.300    3.9494
    9.330    4.0548
    9.360    4.1074
    9.390    4.2970
    9.420    4.4339
    9.450    4.3918
    9.480    3.9389
    9.510    3.9284
    9.540    3.9705
    9.570    4.1706
    9.600    4.1706
    9.630    4.4760
    9.660    4.2654
    9.690    4.2759
    9.720    4.4128
    9.750    3.9179
    9.780    4.0126
    9.810    3.9600
    9.840    4.2654
    9.870    4.3181
    9.900    3.7809
    9.930    4.0758
    9.960    4.2338
    9.990    4.0758
   10.020    4.1390
   10.050    4.3391
   10.080    4.0758
   10.110    3.9389
   10.140    4.1706
   10.170    4.3602
   10.200    4.1601
   10.230    3.8020
   10.260    4.1496
   10.290    3.8968
   10.320    3.9179
   10.350    3.9916
   10.380    3.8125
   10.410    4.0337
   10.440    4.2443
   10.470    4.2865
   10.500    4.4760
   10.530    3.8757
   10.560    4.1390
   10.590    4.1180
   10.620    4.2549
   10.650    4.0232
   10.680    4.1917
   10.710    4.1706
   10.740    4.2127
   10.770    4.2549
   10.800    4.4128
   10.830    4.5708
   10.860    4.1180
   10.890    4.1496
   10.920    4.2549
   10.950    4.5708
   10.980    4.3707
   11.010    4.3181
   11.040    4.2127
   11.070    3.9810
   11.100    4.0758
   11.130    4.1706
   11.160    4.7077
   11.190    4.6130
   11.220    3.9916
   11.250    4.5603
   11.280    4.1285
   11.310    4.4866
   11.340    4.3286
   11.370    4.4339
   11.400    4.7815
   11.430    4.4339
   11.460    4.2127
   11.490    4.4023
   11.520    4.4023
   11.550    4.3286
   11.580    4.3707
   11.610    4.0864
   11.640    3.9284
   11.670    4.2759
   11.700    4.1390
   11.730    4.1074
   11.760    4.2654
   11.790    4.2865
   11.820    4.2654
   11.850    4.1285
   11.880    4.2338
   11.910    4.2022
   11.940    4.4339
   11.970    4.2338
   12.000    4.2443
   12.030    3.9494
   12.060    4.0653
   12.090    4.2022
   12.120    4.0337
   12.150    4.5076
   12.180    4.2338
   12.210    3.8652
   12.240    4.2022
   12.270    4.0758
   12.300    4.3286
   12.330    3.9494
   12.360    4.3391
   12.390    4.1706
   12.420    4.2970
   12.450    4.1180
   12.480    4.3707
   12.510    4.4234
   12.540    4.2759
   12.570    4.2443
   12.600    4.5498
   12.630    4.1180
   12.660    4.2233
   12.690    4.3181
   12.720    4.2970
   12.750    3.9073
   12.780    4.0021
   12.810    3.9073
   12.840    4.3813
   12.870    3.6967
   12.900    4.1074
   12.930    4.2338
   12.960    4.0021
   12.990    4.0548
   13.020    3.8547
   13.050    3.8652
   13.080    3.8652
   13.110    3.8125
   13.140    3.7283
   13.170    4.1706
   13.200    3.9389
   13.230    3.9073
   13.260    4.2970
   13.290    3.9284
   13.320    3.7072
   13.350    4.2022
   13.380    4.0232
   13.410    4.0337
   13.440    4.0232
   13.470    3.6967
   13.500    4.1285
   13.530    3.6967
   13.560    3.8652
   13.590    3.9073
   13.620    3.7704
   13.650    3.9600
   13.680    4.1180
   13.710    3.6546
   13.740    4.0969
   13.770    3.7599
   13.800    3.9600
   13.830    4.1496
   13.860    3.5808
   13.890    3.9705
   13.920    4.0442
   13.950    3.8968
   13.980    4.0126
   14.010    4.0021
   14.040    3.9494
   14.070    4.1811
   14.100    4.0653
   14.130    4.0969
   14.160    4.1390
   14.190    3.8547
   14.220    3.8652
   14.250    3.8336
   14.280    4.2759
   14.310    4.3497
   14.340    4.1811
   14.370    4.2443
   14.400    3.9179
   14.430    4.1285
   14.460    4.5182
   14.490    4.0442
   14.520    4.2759
   14.550    4.1496
   14.580    3.8441
   14.610    4.1285
   14.640    3.6546
   14.670    4.0126
   14.700    3.6967
   14.730    4.1811
   14.760    4.2549
   14.790    3.8652
   14.820    4.3075
   14.850    4.2865
   14.880    4.1706
   14.910    4.0864
   14.940    4.1496
   14.970    3.9389
   15.000    4.1601
   15.030    4.2022
   15.060    4.2127
   15.090    4.2654
   15.120    3.9073
   15.150    4.0126
   15.180    4.3075
   15.210    3.8757
   15.240    4.0337
   15.270    3.9389
   15.300    4.0337
   15.330    4.3075
   15.360    4.1074
   15.390    4.0337
   15.420    3.7809
   15.450    4.4655
   15.480    4.2233
   15.510    4.0337
   15.540    4.1917
   15.570    3.8020
   15.600    4.1601
   15.630    3.9810
   15.660    3.7809
   15.690    3.9705
   15.720    4.0969
   15.750    4.0653
   15.780    3.8863
   15.810    4.2022
   15.840    4.4971
   15.870    4.1917
   15.900    3.9810
   15.930    4.4971
   15.960    4.2233
   15.990    4.4760
   16.020    4.3918
   16.050    3.9600
   16.080    4.2338
   16.110    4.2970
   16.140    4.3602
   16.170    4.4234
   16.200    4.5076
   16.230    4.2127
   16.260    4.1496
   16.290    4.1496
   16.320    4.5919
   16.350    4.5498
   16.380    4.2549
   16.410    4.1917
   16.440    4.1706
   16.470    4.3286
   16.500    4.1074
   16.530    4.1285
   16.560    4.3602
   16.590    4.2759
   16.620    4.1180
   16.650    4.2654
   16.680    4.2022
   16.710    4.3286
   16.740    4.4971
   16.770    4.0864
   16.800    4.1601
   16.830    4.2233
   16.860    3.9810
   16.890    4.2233
   16.920    4.1390
   16.950    4.0548
   16.980    4.3391
   17.010    4.0442
   17.040    4.1496
   17.070    4.3286
   17.100    3.9494
   17.130    4.1601
   17.160    4.3602
   17.190    4.2549
   17.220    4.1074
   17.250    4.1074
   17.280    4.2549
   17.310    4.4128
   17.340    4.5919
   17.370    4.2443
   17.400    4.4444
   17.430    4.2970
   17.460    4.3707
   17.490    4.4444
   17.520    4.0864
   17.550    4.4023
   17.580    4.4339
   17.610    4.8341
   17.640    4.5287
   17.670    4.5603
   17.700    4.5182
   17.730    4.2022
   17.760    4.4444
   17.790    4.5287
   17.820    4.5392
   17.850    4.5392
   17.880    4.5287
   17.910    4.9184
   17.940    4.6761
   17.970    4.8657
   18.000    4.7709
   18.030    4.9500
   18.060    5.2870
   18.090    4.9710
   18.120    5.3081
   18.150    4.9500
   18.180    5.0132
   18.210    4.9605
   18.240    4.7815
   18.270    4.9710
   18.300    4.6445
   18.330    5.1185
   18.360    4.8341
   18.390    4.8552
   18.420    4.7288
   18.450    4.8447
   18.480    4.8447
   18.510    5.0658
   18.540    4.7920
   18.570    4.9605
   18.600    4.7604
   18.630    4.9289
   18.660    5.0974
   18.690    4.9184
   18.720    4.7815
   18.750    5.1711
   18.780    4.8025
   18.810    4.6761
   18.840    4.5708
   18.870    4.9710
   18.900    5.0237
   18.930    5.0237
   18.960    4.7288
   18.990    5.4344
   19.020    4.7393
   19.050    4.8447
   19.080    5.1817
   19.110    4.8447
   19.140    4.5814
   19.170    4.8657
   19.200    4.9921
   19.230    4.8868
   19.260    4.1811
   19.290    4.5287
   19.320    4.6867
   19.350    4.8236
   19.380    4.5919
   19.410    4.8236
   19.440    4.8447
   19.470    4.7920
   19.500    4.4866
   19.530    4.5919
   19.560    4.6761
   19.590    4.3286
   19.620    4.6761
   19.650    4.7499
   19.680    4.5603
   19.710    4.4655
   19.740    4.5392
   19.770    4.7077
   19.800    4.8447
   19.830    4.2127
   19.860    4.7709
   19.890    4.4023
   19.920    4.6445
   19.950    4.4971
   19.980    4.6024
   20.010    4.7288
   20.040    4.7288
   20.070    4.9394
   20.100    4.8341
   20.130    4.4234
   20.160    4.4128
   20.190    4.6551
   20.220    4.7920
   20.250    4.4339
   20.280    4.5814
   20.310    4.1496
   20.340    4.4971
   20.370    4.6656
   20.400    4.3602
   20.430    4.5708
   20.460    4.1706
   20.490    4.7604
   20.520    4.5076
   20.550    4.4339
   20.580    4.6024
   20.610    4.2338
   20.640    4.3707
   20.670    4.5498
   20.700    4.9184
   20.730    4.4760
   20.760    4.2865
   20.790    4.7499
   20.820    4.8025
   20.850    4.4023
   20.880    4.5392
   20.910    4.6551
   20.940    4.9184
   20.970    4.6024
   21.000    4.8341
   21.030    4.3391
   21.060    4.2654
   21.090    4.5603
   21.120    4.6551
   21.150    4.6656
   21.180    4.6130
   21.210    4.5814
   21.240    4.3602
   21.270    4.2338
   21.300    4.2233
   21.330    4.6656
   21.360    4.4655
   21.390    4.8868
   21.420    4.7920
   21.450    4.3391
   21.480    4.8236
   21.510    4.8236
   21.540    4.7183
   21.570    4.4760
   21.600    4.5076
   21.630    4.6551
   21.660    4.5708
   21.690    4.5498
   21.720    4.8552
   21.750    4.7288
   21.780    4.7077
   21.810    4.7393
   21.840    4.4550
   21.870    4.9500
   21.900    5.0132
   21.930    4.5708
   21.960    4.9921
   21.990    4.4866
   22.020    4.9710
   22.050    4.7393
   22.080    4.8657
   22.110    4.5814
   22.140    4.5708
   22.170    4.6867
   22.200    4.9394
   22.230    4.3075
   22.260    4.5919
   22.290    4.6867
   22.320    4.4655
   22.350    4.5603
   22.380    4.6656
   22.410    4.7709
   22.440    4.5708
   22.470    4.6972
   22.500    4.6445
   22.530    4.5919
   22.560    4.4760
   22.590    4.4655
   22.620    4.5708
   22.650    4.6445
   22.680    4.4444
   22.710    4.6130
   22.740    4.7393
   22.770    4.4760
   22.800    4.4655
   22.830    4.5708
   22.860    4.5603
   22.890    4.7077
   22.920    4.5708
   22.950    4.5708
   22.980    4.4128
   23.010    4.5603
   23.040    4.3707
   23.070    4.4234
   23.100    4.4444
   23.130    4.7920
   23.160    4.4550
   23.190    4.6551
   23.220    4.4971
   23.250    4.3602
   23.280    4.2865
   23.310    4.5708
   23.340    4.5392
   23.370    4.2443
   23.400    4.4866
   23.430    4.3075
   23.460    4.5498
   23.490    4.4023
   23.520    4.4234
   23.550    4.4128
   23.580    4.8447
   23.610    4.3497
   23.640    4.4760
   23.670    4.3181
   23.700    4.3497
   23.730    4.4866
   23.760    4.7499
   23.790    4.3813
   23.820    4.3286
   23.850    4.5392
   23.880    4.4760
   23.910    4.2759
   23.940    4.5182
   23.970    4.5708
   24.000    4.3918
   24.030    4.2549
   24.060    4.6867
   24.090    4.4760
   24.120    4.1601
   24.150    4.2970
   24.180    4.3707
   24.210    4.8025
   24.240    4.3181
   24.270    4.2970
   24.300    4.6445
   24.330    4.4866
   24.360    4.4023
   24.390    4.4866
   24.420    4.6130
   24.450    4.2127
   24.480    4.0864
   24.510    4.5392
   24.540    4.4339
   24.570    4.2654
   24.600    4.4339
   24.630    4.4760
   24.660    4.0758
   24.690    4.4023
   24.720    4.3391
   24.750    4.2654
   24.780    4.1285
   24.810    4.3286
   24.840    4.2865
   24.870    4.0653
   24.900    4.2127
   24.930    4.5919
   24.960    4.4866
   24.990    4.2338
   25.020    3.9600
   25.050    3.9810
   25.080    3.9600
   25.110    4.0442
   25.140    4.0126
   25.170    4.1496
   25.200    4.3602
   25.230    3.9916
   25.260    4.3918
   25.290    4.2443
   25.320    4.0442
   25.350    4.2549
   25.380    4.3075
   25.410    3.8968
   25.440    4.0969
   25.470    3.8968
   25.500    4.1074
   25.530    3.8863
   25.560    4.3602
   25.590    3.9073
   25.620    3.6862
   25.650    4.2549
   25.680    4.3286
   25.710    4.0548
   25.740    4.1285
   25.770    4.2338
   25.800    3.8125
   25.830    4.1390
   25.860    4.0969
   25.890    4.0126
   25.920    4.2549
   25.950    3.6335
   25.980    3.8863
   26.010    3.7915
   26.040    3.8125
   26.070    3.7072
   26.100    3.7704
   26.130    3.6230
   26.160    3.7599
   26.190    4.0548
   26.220    3.8020
   26.250    4.1285
   26.280    3.8125
   26.310    3.9600
   26.340    4.0653
   26.370    3.6019
   26.400    3.5282
   26.430    4.0232
   26.460    3.6651
   26.490    3.7072
   26.520    3.7072
   26.550    3.5914
   26.580    3.6124
   26.610    3.6651
   26.640    3.5703
   26.670    3.9179
   26.700    3.9284
   26.730    3.6019
   26.760    4.0653
   26.790    3.4544
   26.820    3.4439
   26.850    3.5808
   26.880    3.7283
   26.910    3.3913
   26.940    3.7072
   26.970    3.4966
   27.000    3.8652
   27.030    3.4650
   27.060    3.4334
   27.090    3.5808
   27.120    3.5808
   27.150    3.6756
   27.180    3.4334
   27.210    3.5387
   27.240    3.5914
   27.270    3.5598
   27.300    3.5176
   27.330    3.4439
   27.360    3.4123
   27.390    3.5808
   27.420    3.2227
   27.450    3.6862
   27.480    3.2965
   27.510    3.4229
   27.540    3.6651
   27.570    3.6230
   27.600    3.3597
   27.630    3.2227
   27.660    3.6651
   27.690    3.2543
   27.720    3.5071
   27.750    3.5808
   27.780    3.5598
   27.810    3.4334
   27.840    3.4123
   27.870    3.3070
   27.900    3.5071
   27.930    3.4229
   27.960    3.6335
   27.990    3.2543
   28.020    3.4334
   28.050    3.4229
   28.080    3.5176
   28.110    3.4755
   28.140    3.3175
   28.170    3.4860
   28.200    3.3175
   28.230    3.3597
   28.260    3.4123
   28.290    3.1701
   28.320    3.2649
   28.350    3.2333
   28.380    3.3386
   28.410    3.2859
   28.440    3.5071
   28.470    3.5703
   28.500    3.4123
   28.530    3.2333
   28.560    3.3807
   28.590    3.4229
   28.620    3.2017
   28.650    3.0964
   28.680    3.3807
   28.710    3.0016
   28.740    3.1806
   28.770    3.2122
   28.800    3.0542
   28.830    3.4334
   28.860    3.3070
   28.890    3.1806
   28.920    3.3070
   28.950    3.0753
   28.980    3.4439
   29.010    3.3386
   29.040    2.9173
   29.070    3.1596
   29.100    3.0121
   29.130    3.0226
   29.160    3.3070
   29.190    3.3175
   29.220    3.2859
   29.250    3.2859
   29.280    3.3491
   29.310    3.0858
   29.340    3.2227
   29.370    3.2649
   29.400    3.2017
   29.430    2.8120
   29.460    3.1490
   29.490    3.3175
   29.520    3.1596
   29.550    3.5282
   29.580    2.9805
   29.610    3.1596
   29.640    3.0437
   29.670    3.0332
   29.700    3.2754
   29.730    3.0542
   29.760    3.2543
   29.790    2.9489
   29.820    3.4018
   29.850    2.9068
   29.880    2.8120
   29.910    3.2438
   29.940    3.0753
   29.970    2.7909
   30.000    3.0858
   30.030    3.0964
   30.060    3.0016
   30.090    3.0542
   30.120    3.1385
   30.150    3.0964
   30.180    2.9910
   30.210    2.7909
   30.240    2.7804
   30.270    2.9068
   30.300    2.8331
   30.330    3.1069
   30.360    2.9384
   30.390    2.8225
   30.420    2.9173
   30.450    3.1596
   30.480    2.8857
   30.510    2.8541
   30.540    2.9173
   30.570    3.1701
   30.600    2.8963
   30.630    2.6435
   30.660    2.9489
   30.690    2.8120
   30.720    2.8015
   30.750    2.9595
   30.780    3.0542
   30.810    2.9068
   30.840    3.0332
   30.870    2.8963
   30.900    2.8963
   30.930    2.9173
   30.960    2.7593
   30.990    2.9489
   31.020    2.8541
   31.050    2.8541
   31.080    2.8015
   31.110    2.9489
   31.140    2.8015
   31.170    2.6224
   31.200    2.7699
   31.230    2.8015
   31.260    2.9068
   31.290    3.0016
   31.320    2.4961
   31.350    2.8963
   31.380    2.9068
   31.410    2.5698
   31.440    2.6224
   31.470    2.6751
   31.500    2.8963
   31.530    2.7172
   31.560    2.5276
   31.590    2.7804
   31.620    2.7067
   31.650    2.8120
   31.680    2.6540
   31.710    2.6962
   31.740    2.7067
   31.770    2.6119
   31.800    2.6224
   31.830    2.6751
   31.860    2.5382
   31.890    2.6856
   31.920    2.6856
   31.950    2.5698
   31.980    2.6119
   32.010    2.4434
   32.040    2.5908
   32.070    2.5171
   32.100    2.5382
   32.130    2.4855
   32.160    2.6540
   32.190    2.5382
   32.220    2.4329
   32.250    2.5487
   32.280    2.4223
   32.310    2.5487
   32.340    2.2117
   32.370    2.6014
   32.400    2.5803
   32.430    2.6014
   32.460    2.4013
   32.490    2.7278
   32.520    2.3486
   32.550    2.5487
   32.580    2.6435
   32.610    2.5908
   32.640    2.6014
   32.670    2.4223
   32.700    2.5803
   32.730    2.5803
   32.760    2.4855
   32.790    2.5171
   32.820    2.4539
   32.850    2.5487
   32.880    2.3065
   32.910    2.4855
   32.940    2.4645
   32.970    2.2643
   33.000    2.2433
   33.030    2.2749
   33.060    2.4961
   33.090    2.4645
   33.120    2.4539
   33.150    2.2643
   33.180    2.1906
   33.210    2.5276
   33.240    2.5487
   33.270    2.5171
   33.300    2.2959
   33.330    2.5171
   33.360    2.3907
   33.390    2.4645
   33.420    2.4961
   33.450    2.2328
   33.480    2.2538
   33.510    2.4750
   33.540    2.3591
   33.570    2.5698
   33.600    2.3486
   33.630    2.3275
   33.660    2.0221
   33.690    2.1274
   33.720    2.4223
   33.750    2.2749
   33.780    2.2328
   33.810    2.2749
   33.840    2.3907
   33.870    2.3907
   33.900    2.2222
   33.930    2.1380
   33.960    2.3802
   33.990    2.1485
   34.020    2.1485
   34.050    2.1485
   34.080    2.1380
   34.110    2.1696
   34.140    2.3486
   34.170    2.1906
   34.200    2.2643
   34.230    2.1169
   34.260    2.1696
   34.290    1.9695
   34.320    2.2749
   34.350    2.1906
   34.380    2.1380
   34.410    2.1696
   34.440    2.0326
   34.470    1.9905
   34.500    2.1590
   34.530    2.2222
   34.560    2.1801
   34.590    2.0326
   34.620    1.9484
   34.650    2.0537
   34.680    2.1169
   34.710    2.0326
   34.740    1.9589
   34.770    2.1274
   34.800    2.1590
   34.830    2.0958
   34.860    2.3275
   34.890    2.2117
   34.920    1.8220
   34.950    2.0432
   34.980    2.1169
   35.010    2.1169
   35.040    2.1169
   35.070    2.0537
   35.100    1.9379
   35.130    2.1064
   35.160    2.0642
   35.190    1.8536
   35.220    2.0642
   35.250    1.9168
   35.280    1.9905
   35.310    2.1906
   35.340    2.0642
   35.370    1.9168
   35.400    1.9379
   35.430    1.8431
   35.460    1.8641
   35.490    1.9273
   35.520    1.9168
   35.550    1.9273
   35.580    1.9589
   35.610    1.9063
   35.640    1.9905
   35.670    1.9168
   35.700    1.8641
   35.730    1.9273
   35.760    1.9168
   35.790    2.1274
   35.820    1.8747
   35.850    1.8747
   35.880    1.9168
   35.910    2.0958
   35.940    2.0642
   35.970    2.0221
   36.000    1.9695
   36.030    1.8747
   36.060    1.8115
   36.090    1.8747
   36.120    1.8115
   36.150    1.9695
   36.180    1.9063
   36.210    1.7167
   36.240    1.7483
   36.270    1.7799
   36.300    1.7588
   36.330    1.7588
   36.360    1.8325
   36.390    1.8220
   36.420    1.8115
   36.450    1.8220
   36.480    1.8536
   36.510    1.8536
   36.540    1.9273
   36.570    1.6535
   36.600    1.9063
   36.630    1.6640
   36.660    1.6114
   36.690    1.8852
   36.720    1.8009
   36.750    1.7588
   36.780    2.0326
   36.810    2.0116
   36.840    1.7062
   36.870    1.4955
   36.900    1.6324
   36.930    1.6430
   36.960    1.5377
   36.990    1.7694
   37.020    1.6956
   37.050    1.8115
   37.080    1.8115
   37.110    1.7167
   37.140    1.5587
   37.170    1.6746
   37.200    1.7272
   37.230    1.7062
   37.260    1.7062
   37.290    1.5377
   37.320    1.7483
   37.350    1.5903
   37.380    1.6219
   37.410    1.5482
   37.440    1.7167
   37.470    1.6324
   37.500    1.8220
   37.530    1.6430
   37.560    1.7062
   37.590    1.6746
   37.620    1.5692
   37.650    1.5377
   37.680    1.7904
   37.710    1.7483
   37.740    1.6114
   37.770    1.5798
   37.800    1.5271
   37.830    1.6114
   37.860    1.5061
   37.890    1.8115
   37.920    1.7588
   37.950    1.6956
   37.980    1.6746
   38.010    1.5482
   38.040    1.6746
   38.070    1.7272
   38.100    1.8009
   38.130    1.5061
   38.160    1.6851
   38.190    1.6114
   38.220    1.4850
   38.250    1.6746
   38.280    1.6746
   38.310    1.7062
   38.340    1.4639
   38.370    1.5587
   38.400    1.5798
   38.430    1.7588
   38.460    1.6851
   38.490    1.4429
   38.520    1.6535
   38.550    1.7694
   38.580    1.5798
   38.610    1.5587
   38.640    1.5798
   38.670    1.4955
   38.700    1.7167
   38.730    1.5903
   38.760    1.4850
   38.790    1.6535
   38.820    1.5587
   38.850    1.7167
   38.880    1.6219
   38.910    1.6535
   38.940    1.5798
   38.970    1.6640
   39.000    1.6746
   39.030    1.6640
   39.060    1.5061
   39.090    1.6008
   39.120    1.5482
   39.150    1.5377
   39.180    1.5692
   39.210    1.5798
   39.240    1.5692
   39.270    1.4955
   39.300    1.5798
   39.330    1.5061
   39.360    1.5061
   39.390    1.4745
   39.420    1.6008
   39.450    1.5271
   39.480    1.4429
   39.510    1.5377
   39.540    1.5587
   39.570    1.7483
   39.600    1.4007
   39.630    1.5377
   39.660    1.4745
   39.690    1.5271
   39.720    1.4534
   39.750    1.5061
   39.780    1.5061
   39.810    1.5587
   39.840    1.4850
   39.870    1.5482
   39.900    1.3691
   39.930    1.6640
   39.960    1.5587
   39.990    1.5166