File: data/PXRD/PXRD_KE-053-2_Cu-Ka1_capillary-1mm_5s-deg.xyd
    1.500   39.9052
    1.515   40.0948
    1.530   39.7051
    1.545   39.7156
    1.560   39.1364
    1.575   37.6935
    1.590   37.2196
    1.605   37.7251
    1.620   36.4508
    1.635   37.1037
    1.650   35.4608
    1.665   36.2928
    1.680   36.7351
    1.695   35.4292
    1.710   34.6077
    1.725   35.1448
    1.740   34.6604
    1.755   33.5861
    1.770   33.1227
    1.785   33.1648
    1.800   33.9547
    1.815   32.0906
    1.830   32.5118
    1.845   32.0695
    1.860   31.3533
    1.875   31.2270
    1.890   31.1006
    1.905   31.0690
    1.920   30.5108
    1.935   31.2270
    1.950   30.5635
    1.965   30.6266
    1.980   30.0579
    1.995   30.3844
    2.010   30.9110
    2.025   29.2048
    2.040   28.2991
    2.055   28.8678
    2.070   28.9415
    2.085   28.2675
    2.100   27.7514
    2.115   28.2991
    2.130   28.0885
    2.145   27.9621
    2.160   27.8989
    2.175   27.2459
    2.190   27.0563
    2.205   27.0458
    2.220   27.8357
    2.235   26.6456
    2.250   27.2459
    2.265   26.9510
    2.280   26.2981
    2.295   26.3507
    2.310   26.6245
    2.325   25.9400
    2.340   27.0669
    2.355   26.4560
    2.370   26.2033
    2.385   26.2033
    2.400   26.6140
    2.415   26.7193
    2.430   26.4982
    2.445   26.0979
    2.460   26.1401
    2.475   26.0453
    2.490   26.4876
    2.505   25.6767
    2.520   25.8452
    2.535   26.2138
    2.550   26.0242
    2.565   26.7720
    2.580   25.6030
    2.595   26.0874
    2.610   26.1190
    2.625   26.4455
    2.640   26.5719
    2.655   27.3091
    2.670   26.3612
    2.685   26.8457
    2.700   26.7193
    2.715   26.8562
    2.730   26.2665
    2.745   27.5092
    2.760   27.2354
    2.775   27.6356
    2.790   26.9510
    2.805   27.9516
    2.820   27.8252
    2.835   28.2254
    2.850   28.1727
    2.865   28.7730
    2.880   28.4571
    2.895   29.3839
    2.910   29.2154
    2.925   30.2686
    2.940   30.4897
    2.955   30.0263
    2.970   30.9321
    2.985   31.5219
    3.000   30.9110
    3.015   31.9115
    3.030   32.6698
    3.045   32.2801
    3.060   33.3755
    3.075   34.3760
    3.090   34.6604
    3.105   34.4286
    3.120   36.0611
    3.135   36.8720
    3.150   37.1037
    3.165   37.6725
    3.180   37.5461
    3.195   38.2201
    3.210   40.9689
    3.225   41.4218
    3.240   40.7267
    3.255   43.0332
    3.270   44.3813
    3.285   45.3818
    3.300   46.2138
    3.315   46.5719
    3.330   49.3523
    3.345   49.1943
    3.360   50.4897
    3.375   52.4697
    3.390   55.3239
    3.405   56.4402
    3.420   57.2933
    3.435   58.8942
    3.450   60.6740
    3.465   63.5492
    3.480   64.4760
    3.495   65.8873
    3.510   68.9205
    3.525   70.1317
    3.540   72.8699
    3.555   74.7973
    3.570   77.1459
    3.585   79.5998
    3.600   85.4344
    3.615   85.7083
    3.630   89.7209
    3.645   95.2712
    3.660   98.7678
    3.675  102.0853
    3.690  107.0353
    3.705  112.3749
    3.720  118.4518
    3.735  126.3823
    3.750  134.0074
    3.765  143.7283
    3.780  150.2896
    3.795  162.1064
    3.810  175.0395
    3.825  192.5961
    3.840  213.1964
    3.855  241.5903
    3.870  279.0837
    3.885  323.0016
    3.900  352.1643
    3.915  355.1343
    3.930  329.9210
    3.945  270.1106
    3.960  184.4023
    3.975  100.2212
    3.990   48.3623
    4.005   29.9210
    4.020   23.8020
    4.035   19.9473
    4.050   17.6935
    4.065   16.3665
    4.080   15.9874
    4.095   14.8710
    4.110   14.4497
    4.125   13.6704
    4.140   13.5966
    4.155   12.6172
    4.170   12.8278
    4.185   12.9647
    4.200   12.7962
    4.215   12.1116
    4.230   12.6172
    4.245   12.1116
    4.260   11.6482
    4.275   11.9431
    4.290   12.6382
    4.305   11.7114
    4.320   11.5956
    4.335   11.2586
    4.350   11.4271
    4.365   11.6588
    4.380   10.9321
    4.395   10.8478
    4.410   11.3428
    4.425   11.9642
    4.440   11.2270
    4.455   11.4271
    4.470   10.6056
    4.485   10.8689
    4.500   10.6056
    4.515   11.3323
    4.530   11.0900
    4.545   11.4587
    4.560   11.1848
    4.575   10.5108
    4.590   11.0690
    4.605   11.1216
    4.620   11.2270
    4.635   10.6477
    4.650   11.3007
    4.665   11.3849
    4.680   11.5850
    4.695   11.5113
    4.710   11.2902
    4.725   11.9115
    4.740   11.6482
    4.755   11.5113
    4.770   12.1011
    4.785   11.2164
    4.800   11.9431
    4.815   12.3328
    4.830   11.9958
    4.845   11.9221
    4.860   12.1959
    4.875   12.6698
    4.890   12.1116
    4.905   12.7646
    4.920   13.5334
    4.935   13.7441
    4.950   13.8705
    4.965   13.9231
    4.980   14.1338
    4.995   14.0074
    5.010   14.1022
    5.025   14.3128
    5.040   14.4392
    5.055   15.2923
    5.070   15.3133
    5.085   14.9868
    5.100   15.7451
    5.115   15.9874
    5.130   16.1137
    5.145   16.7351
    5.160   17.2196
    5.175   17.7988
    5.190   17.8620
    5.205   18.3465
    5.220   19.3892
    5.235   19.7999
    5.250   20.4213
    5.265   21.7378
    5.280   22.8647
    5.295   23.2543
    5.310   24.1917
    5.325   24.8236
    5.340   26.6561
    5.355   27.9200
    5.370   29.9631
    5.385   31.0269
    5.400   32.3644
    5.415   33.7757
    5.430   36.6719
    5.445   40.8847
    5.460   46.5087
    5.475   50.7741
    5.490   57.8515
    5.505   67.6883
    5.520   72.8383
    5.535   74.8710
    5.550   70.8794
    5.565   60.3897
    5.580   44.8763
    5.595   28.0779
    5.610   16.8720
    5.625   12.3644
    5.640   10.8794
    5.655   10.2791
    5.670    9.6682
    5.685    9.1206
    5.700    9.4471
    5.715    9.1627
    5.730    8.8468
    5.745    8.6151
    5.760    9.0890
    5.775    8.9100
    5.790    8.4992
    5.805    8.4150
    5.820    8.5413
    5.835    8.6888
    5.850    8.5624
    5.865    8.4992
    5.880    8.5624
    5.895    8.7625
    5.910    8.5835
    5.925    8.9100
    5.940    8.9942
    5.955    8.5835
    5.970    8.8784
    5.985    8.4360
    6.000    8.3623
    6.015    8.3307
    6.030    8.6783
    6.045    8.4360
    6.060    8.4150
    6.075    8.6783
    6.090    8.6888
    6.105    8.6151
    6.120    8.5729
    6.135    8.9310
    6.150    8.9626
    6.165    8.4992
    6.180    8.9310
    6.195    8.5729
    6.210    8.7730
    6.225    8.7836
    6.240    8.7730
    6.255    9.1417
    6.270    8.7520
    6.285    9.0574
    6.300    8.7730
    6.315    9.0574
    6.330    9.1627
    6.345    9.6051
    6.360    9.3418
    6.375    9.1417
    6.390    9.4365
    6.405    9.4997
    6.420    9.3418
    6.435    8.9415
    6.450    9.7314
    6.465    9.3418
    6.480    9.8999
    6.495    9.9842
    6.510   10.2791
    6.525   10.4476
    6.540   10.5529
    6.555   11.0058
    6.570   11.1532
    6.585   10.7214
    6.600   11.9221
    6.615   12.7014
    6.630   12.2064
    6.645   12.5118
    6.660   13.2070
    6.675   14.0390
    6.690   14.7973
    6.705   15.1764
    6.720   16.8720
    6.735   18.5993
    6.750   20.7583
    6.765   22.2959
    6.780   22.5276
    6.795   21.9905
    6.810   19.9895
    6.825   16.7667
    6.840   12.8489
    6.855   10.4897
    6.870    8.7941
    6.885    8.3202
    6.900    8.2464
    6.915    8.4150
    6.930    8.4676
    6.945    8.2043
    6.960    7.6883
    6.975    8.2991
    6.990    8.4150
    7.005    8.1517
    7.020    8.2149
    7.035    8.2780
    7.050    7.9094
    7.065    8.2149
    7.080    8.0779
    7.095    8.1517
    7.110    8.1095
    7.125    8.1095
    7.140    8.2464
    7.155    7.8673
    7.170    8.1833
    7.185    8.0463
    7.200    8.0990
    7.215    7.7830
    7.230    7.9410
    7.245    7.9726
    7.260    7.8357
    7.275    8.1833
    7.290    8.2464
    7.305    8.2359
    7.320    7.8146
    7.335    7.9621
    7.350    7.7093
    7.365    8.2675
    7.380    8.7204
    7.395    8.2254
    7.410    8.5097
    7.425    8.0674
    7.440    8.3412
    7.455    8.6256
    7.470    8.5940
    7.485    9.0785
    7.500    9.3944
    7.515    9.3418
    7.530    9.5419
    7.545    9.2575
    7.560    9.4997
    7.575   10.0895
    7.590   10.4160
    7.605   10.0579
    7.620   10.6266
    7.635   10.8689
    7.650   11.3744
    7.665   11.7430
    7.680   11.8799
    7.695   12.5961
    7.710   13.3333
    7.725   13.8494
    7.740   14.6919
    7.755   15.8189
    7.770   17.9358
    7.785   18.6414
    7.800   20.5898
    7.815   22.0853
    7.830   22.6646
    7.845   22.7383
    7.860   20.8110
    7.875   17.5040
    7.890   12.6382
    7.905   10.2475
    7.920    8.5835
    7.935    8.4887
    7.950    7.7620
    7.965    7.4355
    7.980    7.6356
    7.995    7.3196
    8.010    7.3512
    8.025    7.4671
    8.040    7.8673
    8.055    7.6040
    8.070    7.2459
    8.085    7.4882
    8.100    7.4250
    8.115    7.5619
    8.130    7.0774
    8.145    7.4671
    8.160    7.2880
    8.175    6.7720
    8.190    6.9932
    8.205    7.0669
    8.220    7.2565
    8.235    7.2459
    8.250    7.6883
    8.265    7.4987
    8.280    7.3302
    8.295    7.1195
    8.310    7.2038
    8.325    7.3828
    8.340    7.3723
    8.355    7.5935
    8.370    7.2249
    8.385    7.0458
    8.400    7.3934
    8.415    7.4355
    8.430    7.7409
    8.445    7.7830
    8.460    7.9410
    8.475    7.6145
    8.490    7.4987
    8.505    7.1090
    8.520    7.6356
    8.535    7.1511
    8.550    7.1827
    8.565    7.3934
    8.580    7.7093
    8.595    7.3196
    8.610    7.5303
    8.625    7.7409
    8.640    7.7830
    8.655    7.5513
    8.670    8.0042
    8.685    8.2149
    8.700    8.2886
    8.715    8.4571
    8.730    8.4571
    8.745    8.5308
    8.760    8.6045
    8.775    8.2359
    8.790    8.5413
    8.805    7.9831
    8.820    8.1517
    8.835    7.7620
    8.850    7.2354
    8.865    7.0985
    8.880    7.2354
    8.895    7.7304
    8.910    7.4460
    8.925    7.1195
    8.940    7.1617
    8.955    7.0248
    8.970    7.1827
    8.985    7.1827
    9.000    7.5935
    9.015    7.2354
    9.030    7.4566
    9.045    7.6356
    9.060    7.6040
    9.075    7.2775
    9.090    7.7409
    9.105    7.8462
    9.120    7.9831
    9.135    7.9831
    9.150    8.2254
    9.165    8.2254
    9.180    8.6361
    9.195    8.4781
    9.210    8.4781
    9.225    9.0047
    9.240    9.0785
    9.255    9.4681
    9.270   10.0474
    9.285    9.6682
    9.300   10.5108
    9.315   10.5319
    9.330   11.0795
    9.345   10.9005
    9.360   11.3955
    9.375   11.5534
    9.390   12.9753
    9.405   13.9863
    9.420   14.2496
    9.435   14.1548
    9.450   15.1343
    9.465   17.1775
    9.480   18.6835
    9.495   20.1474
    9.510   21.9168
    9.525   24.6656
    9.540   27.6567
    9.555   31.5850
    9.570   35.0395
    9.585   37.9147
    9.600   39.8842
    9.615   36.9142
    9.630   31.7957
    9.645   23.8757
    9.660   17.6093
    9.675   12.1643
    9.690    9.1943
    9.705    7.6777
    9.720    7.8357
    9.735    7.6988
    9.750    7.4039
    9.765    7.4882
    9.780    7.2459
    9.795    6.9405
    9.810    6.9194
    9.825    7.1511
    9.840    7.4882
    9.855    7.0142
    9.870    7.2670
    9.885    7.0037
    9.900    7.2775
    9.915    7.6040
    9.930    7.1301
    9.945    7.2038
    9.960    7.4566
    9.975    7.0037
    9.990    7.2670