File: data/PXRD/PXRD_KE-050_Cu-Ka1_capillary-1mm_46s-deg.xyd
    1.500   21.2114
    1.530   21.0511
    1.560   20.7523
    1.590   20.6047
    1.620   20.5406
    1.650   20.0723
    1.680   19.7633
    1.710   19.7392
    1.740   19.3546
    1.770   19.2058
    1.800   19.1668
    1.830   18.9928
    1.860   18.7982
    1.890   18.5510
    1.920   18.6254
    1.950   18.2064
    1.980   18.1480
    2.010   18.3426
    2.040   17.7382
    2.070   17.9202
    2.100   17.6992
    2.130   17.5275
    2.160   17.7073
    2.190   17.5424
    2.220   17.5298
    2.250   17.5710
    2.280   17.4806
    2.310   17.3593
    2.340   17.6180
    2.370   17.4108
    2.400   17.8858
    2.430   17.4394
    2.460   17.4646
    2.490   17.8458
    2.520   17.8423
    2.550   18.0587
    2.580   18.1617
    2.610   18.4147
    2.640   18.5658
    2.670   18.9871
    2.700   19.2000
    2.730   19.2023
    2.760   19.6854
    2.790   20.1147
    2.820   20.6413
    2.850   20.9870
    2.880   21.3877
    2.910   21.9051
    2.940   22.2325
    2.970   23.0728
    3.000   23.9142
    3.030   24.8140
    3.060   25.4390
    3.090   26.5529
    3.120   27.1688
    3.150   28.3765
    3.180   29.5579
    3.210   31.0713
    3.240   32.5961
    3.270   34.2308
    3.300   35.7625
    3.330   37.5827
    3.360   40.0027
    3.390   42.4136
    3.420   45.1233
    3.450   47.9589
    3.480   51.5935
    3.510   55.6758
    3.540   60.1289
    3.570   64.1608
    3.600   70.3024
    3.630   76.1728
    3.660   83.4364
    3.690   93.0799
    3.720  103.5350
    3.750  116.3873
    3.780  134.1301
    3.810  157.9573
    3.840  195.3145
    3.870  262.3967
    3.900  324.4236
    3.930  294.9848
    3.960  149.1723
    3.990   31.9138
    4.020   15.9386
    4.050   12.8924
    4.080   11.8083
    4.110   11.2359
    4.140   10.7539
    4.170   10.4872
    4.200   10.3899
    4.230   10.2880
    4.260   10.1770
    4.290   10.0545
    4.320    9.9538
    4.350    9.9309
    4.380    9.9331
    4.410    9.9286
    4.440    9.9973
    4.470    9.9331
    4.500   10.0820
    4.530    9.9183
    4.560   10.1140
    4.590   10.1884
    4.620   10.3235
    4.650   10.2960
    4.680   10.4861
    4.710   10.8192
    4.740   10.9669
    4.770   11.0974
    4.800   11.5370
    4.830   11.6961
    4.860   11.7751
    4.890   12.0567
    4.920   12.5192
    4.950   13.0320
    4.980   13.2656
    5.010   14.1722
    5.040   14.6118
    5.070   15.3571
    5.100   16.0508
    5.130   17.1463
    5.160   18.2087
    5.190   19.5000
    5.220   21.0408
    5.250   22.8312
    5.280   24.7911
    5.310   27.0886
    5.340   30.0112
    5.370   33.8920
    5.400   38.7767
    5.430   45.6419
    5.460   55.8555
    5.490   75.0361
    5.520   92.2190
    5.550   85.7007
    5.580   48.3092
    5.610   15.3273
    5.640    9.8977
    5.670    9.2039
    5.700    8.6911
    5.730    8.4713
    5.760    8.5056
    5.790    8.4163
    5.820    8.2332
    5.850    8.1576
    5.880    8.2469
    5.910    8.0969
    5.940    8.0283
    5.970    8.2000
    6.000    8.0866
    6.030    8.0935
    6.060    8.3019
    6.090    8.1244
    6.120    8.2446
    6.150    8.2549
    6.180    8.1027
    6.210    8.2927
    6.240    8.2893
    6.270    8.3362
    6.300    8.4163
    6.330    8.5262
    6.360    8.7140
    6.390    8.9612
    6.420    8.9235
    6.450    9.0345
    6.480    9.5256
    6.510    9.4123
    6.540    9.9068
    6.570   10.3292
    6.600   10.8455
    6.630   11.4958
    6.660   12.2044
    6.690   13.6239
    6.720   16.0485
    6.750   19.2252
    6.780   20.3402
    6.810   16.9151
    6.840   10.8398
    6.870    8.0569
    6.900    7.6070
    6.930    7.6631
    6.960    7.5910
    6.990    7.6264
    7.020    7.5772
    7.050    7.5955
    7.080    7.6104
    7.110    7.6974
    7.140    7.6035
    7.170    7.6883
    7.200    7.6642
    7.230    7.6974
    7.260    7.9092
    7.290    7.8646
    7.320    8.0237
    7.350    8.1576
    7.380    8.2744
    7.410    8.4449
    7.440    8.8227
    7.470    9.0242
    7.500    9.2715
    7.530    9.6721
    7.560   10.2789
    7.590   10.8066
    7.620   11.7465
    7.650   12.7802
    7.680   13.9971
    7.710   15.7360
    7.740   18.2236
    7.770   22.4993
    7.800   28.9042
    7.830   30.8446
    7.860   24.5541
    7.890   13.1625
    7.920    8.0202
    7.950    7.2945
    7.980    7.3070
    8.010    7.2029
    8.040    7.0770
    8.070    7.0025
    8.100    7.1216
    8.130    6.9568
    8.160    6.8720
    8.190    6.9098
    8.220    7.0254
    8.250    6.9819
    8.280    7.0117
    8.310    7.0483
    8.340    7.0598
    8.370    6.9453
    8.400    7.0380
    8.430    7.2452
    8.460    6.9648
    8.490    7.1285
    8.520    7.2407
    8.550    7.2807
    8.580    7.3918
    8.610    7.4982
    8.640    7.8130
    8.670    8.0855
    8.700    8.5880
    8.730    9.3699
    8.760    9.4798
    8.790    8.7575
    8.820    7.4536
    8.850    6.9110
    8.880    6.8480
    8.910    6.7908
    8.940    6.9590
    8.970    7.1388
    9.000    7.1983
    9.030    7.1330
    9.060    7.3162
    9.090    7.3563
    9.120    7.6974
    9.150    7.9458
    9.180    8.2652
    9.210    8.6464
    9.240    9.0253
    9.270    9.6676
    9.300   10.2079
    9.330   11.2531
    9.360   12.4825
    9.390   14.0245
    9.420   15.8150
    9.450   18.4250
    9.480   21.8593
    9.510   27.1688
    9.540   36.4860
    9.570   47.6670
    9.600   49.2696
    9.630   34.9051
    9.660   15.5471
    9.690    7.9355
    9.720    7.1823
    9.750    6.8034
    9.780    6.9625
    9.810    6.8045
    9.840    6.8137
    9.870    6.9671
    9.900    6.7713
    9.930    6.7713
    9.960    6.8446
    9.990    6.9568
   10.020    7.0415
   10.050    7.1388
   10.080    7.3494
   10.110    7.4753
   10.140    7.7924
   10.170    8.3717
   10.200    8.6636
   10.230    9.2497
   10.260   10.2926
   10.290   11.9250
   10.320   14.2844
   10.350   16.5945
   10.380   15.5127
   10.410   11.5427
   10.440    7.8085
   10.470    6.6293
   10.500    6.6362
   10.530    6.4576
   10.560    6.5698
   10.590    6.5607
   10.620    6.6900
   10.650    6.7827
   10.680    6.7908
   10.710    6.8869
   10.740    6.9487
   10.770    6.9957
   10.800    7.3139
   10.830    7.5669
   10.860    7.9722
   10.890    8.3454
   10.920    9.1547
   10.950   10.0316
   10.980   11.3172
   11.010   13.5220
   11.040   17.1715
   11.070   19.5045
   11.100   18.1388
   11.130   12.6886
   11.160    7.9561
   11.190    6.5492
   11.220    6.4153
   11.250    6.4691
   11.280    6.5046
   11.310    6.4553
   11.340    6.6271
   11.370    6.5996
   11.400    6.6156
   11.430    6.7495
   11.460    6.8148
   11.490    7.0254
   11.520    7.3620
   11.550    7.6608
   11.580    8.0317
   11.610    8.5423
   11.640    9.5268
   11.670   10.8913
   11.700   13.3411
   11.730   16.1286
   11.760   16.7914
   11.790   13.6548
   11.820    9.1707
   11.850    6.7690
   11.880    6.3409
   11.910    6.2218
   11.940    6.2081
   11.970    6.2619
   12.000    6.2092
   12.030    6.2252
   12.060    6.2161
   12.090    6.2115
   12.120    6.2710
   12.150    6.2699
   12.180    6.2997
   12.210    6.4748
   12.240    6.4153
   12.270    6.6625
   12.300    6.7667
   12.330    7.0495
   12.360    7.3070
   12.390    7.5257
   12.420    7.2739
   12.450    6.7747
   12.480    6.3970
   12.510    6.1760
   12.540    6.2023
   12.570    6.2081
   12.600    6.2905
   12.630    6.1920
   12.660    6.3340
   12.690    6.4244
   12.720    6.5240
   12.750    6.6053
   12.780    6.7896
   12.810    6.9293
   12.840    7.2326
   12.870    7.5738
   12.900    8.3351
   12.930    9.4993
   12.960   11.0390
   12.990   12.1483
   13.020   11.4694
   13.050    9.1513
   13.080    7.0060
   13.110    6.2710
   13.140    6.0890
   13.170    6.2310
   13.200    6.1909
   13.230    6.1611
   13.260    6.1463
   13.290    6.1588
   13.320    6.1646
   13.350    6.4096
   13.380    6.5046
   13.410    6.5057
   13.440    6.7461
   13.470    7.2704
   13.500    7.6837
   13.530    8.3660
   13.560    9.3070
   13.590    9.2875
   13.620    8.2377
   13.650    7.0289
   13.680    6.1943
   13.710    6.0821
   13.740    6.2275
   13.770    6.1680
   13.800    6.1646
   13.830    6.2836
   13.860    6.3535
   13.890    6.6076
   13.920    6.8205
   13.950    6.8034
   13.980    7.1617
   14.010    7.6928
   14.040    8.4129
   14.070    9.6092
   14.100   11.3607
   14.130   12.3509
   14.160   11.6606
   14.190    9.2062
   14.220    7.1205
   14.250    6.1852
   14.280    5.9631
   14.310    6.1153
   14.340    6.0959
   14.370    6.0856
   14.400    6.0341
   14.430    5.8646
   14.460    6.0753
   14.490    5.9871
   14.520    6.0661
   14.550    6.0570
   14.580    6.0833
   14.610    5.9585
   14.640    6.1165
   14.670    6.0261
   14.700    5.9723
   14.730    6.1795
   14.760    6.0673
   14.790    6.0364
   14.820    6.0501
   14.850    6.0123
   14.880    5.9368
   14.910    5.9619
   14.940    6.0490
   14.970    6.1405
   15.000    6.3992
   15.030    6.2756
   15.060    6.4096
   15.090    6.5298
   15.120    6.7656
   15.150    7.4124
   15.180    7.5257
   15.210    7.5852
   15.240    6.9533
   15.270    6.3603
   15.300    6.2207
   15.330    5.9780
   15.360    6.0169
   15.390    5.9883
   15.420    6.0799
   15.450    6.0054
   15.480    6.0478
   15.510    6.0627
   15.540    6.0650
   15.570    6.0856
   15.600    6.0146
   15.630    6.0638
   15.660    5.9448
   15.690    5.9310
   15.720    6.0066
   15.750    6.0192
   15.780    6.0295
   15.810    6.0066
   15.840    6.0054
   15.870    6.0432
   15.900    6.0673
   15.930    6.2436
   15.960    6.1405
   15.990    6.3775
   16.020    6.3019
   16.050    6.6156
   16.080    6.8045
   16.110    7.2601
   16.140    7.7421
   16.170    8.2080
   16.200    7.9550
   16.230    7.4124
   16.260    6.5549
   16.290    6.1657
   16.320    6.0844
   16.350    5.9871
   16.380    5.9333
   16.410    6.1337
   16.440    6.1726
   16.470    6.1657
   16.500    6.3225
   16.530    6.3683
   16.560    6.6316
   16.590    6.8926
   16.620    7.1079
   16.650    7.3437
   16.680    7.0873
   16.710    6.6683
   16.740    6.3374
   16.770    6.1978
   16.800    6.2539
   16.830    6.1909
   16.860    6.4050
   16.890    6.5790
   16.920    6.5790
   16.950    7.1010
   16.980    7.6425
   17.010    8.4999
   17.040    9.9675
   17.070   11.8106
   17.100   12.7607
   17.130   12.5570
   17.160   10.2457
   17.190    7.9504
   17.220    6.5675
   17.250    6.2195
   17.280    6.1657
   17.310    6.1840
   17.340    6.1840
   17.370    6.1669
   17.400    6.2790
   17.430    6.3935
   17.460    6.3878
   17.490    6.7141
   17.520    7.1914
   17.550    7.3288
   17.580    7.1891
   17.610    6.8102
   17.640    6.4084
   17.670    6.1703
   17.700    6.0238
   17.730    6.1646
   17.760    6.1314
   17.790    6.2951
   17.820    6.3042
   17.850    6.2459
   17.880    6.3489
   17.910    6.5080
   17.940    6.7038
   17.970    7.0323
   18.000    7.0106
   18.030    6.7965
   18.060    6.6065
   18.090    6.2252
   18.120    6.1279
   18.150    6.2768
   18.180    6.1291
   18.210    6.1428
   18.240    6.3329
   18.270    6.2562
   18.300    6.5767
   18.330    6.6179
   18.360    6.9854
   18.390    7.1731
   18.420    7.2819
   18.450    7.3368
   18.480    6.8961
   18.510    6.4508
   18.540    6.1863
   18.570    6.1199
   18.600    6.1508
   18.630    6.2127
   18.660    6.1749
   18.690    6.0306
   18.720    6.2733
   18.750    6.3283
   18.780    6.5046
   18.810    6.7404
   18.840    6.7106
   18.870    6.6053
   18.900    6.5389
   18.930    6.2813
   18.960    6.0959
   18.990    6.2527
   19.020    6.2676
   19.050    6.1360
   19.080    6.0570
   19.110    5.9883
   19.140    6.0810
   19.170    6.2825
   19.200    6.1451
   19.230    6.2298
   19.260    6.1211
   19.290    6.1531
   19.320    6.1840
   19.350    6.1772
   19.380    6.0741
   19.410    6.2355
   19.440    6.2413
   19.470    6.4187
   19.500    6.4073
   19.530    6.6763
   19.560    6.9602
   19.590    7.4295
   19.620    7.9206
   19.650    8.2252
   19.680    7.6528
   19.710    7.2647
   19.740    6.5046
   19.770    6.2035
   19.800    6.1497
   19.830    6.1726
   19.860    6.1932
   19.890    6.1199
   19.920    6.2459
   19.950    6.2310
   19.980    6.3122
   20.010    6.4347
   20.040    6.5252
   20.070    6.3191
   20.100    6.3901
   20.130    6.2962
   20.160    6.3065
   20.190    6.1955
   20.220    6.4427
   20.250    6.5492
   20.280    6.5961
   20.310    7.2429
   20.340    7.6322
   20.370    8.5423
   20.400    9.6481
   20.430    9.9389
   20.460    9.2944
   20.490    8.1347
   20.520    6.9201
   20.550    6.3329
   20.580    6.2390
   20.610    6.1176
   20.640    6.1955
   20.670    6.1199
   20.700    6.1646
   20.730    6.1726
   20.760    6.2653
   20.790    6.3729
   20.820    6.3111
   20.850    6.3523
   20.880    6.1474
   20.910    6.2504
   20.940    6.0707
   20.970    6.0833
   21.000    6.1978
   21.030    6.1028
   21.060    6.1852
   21.090    6.2161
   21.120    6.2138
   21.150    6.2859
   21.180    6.2481
   21.210    6.2859
   21.240    6.3592
   21.270    6.1554
   21.300    6.2333
   21.330    6.2779
   21.360    6.1176
   21.390    6.0718
   21.420    6.2321
   21.450    6.1371
   21.480    6.0547
   21.510    6.1840
   21.540    6.2516
   21.570    6.2321
   21.600    6.0627
   21.630    6.2802
   21.660    6.2859
   21.690    6.3500
   21.720    6.3741
   21.750    6.2905
   21.780    6.4599
   21.810    6.7370
   21.840    7.1937
   21.870    7.4421
   21.900    7.8394
   21.930    7.7947
   21.960    7.3391
   21.990    6.8354
   22.020    6.4050
   22.050    6.4050
   22.080    6.3294
   22.110    6.3695
   22.140    6.5114
   22.170    6.7312
   22.200    7.0094
   22.230    7.3277
   22.260    7.2956
   22.290    7.3219
   22.320    6.9499
   22.350    6.7358
   22.380    6.4519
   22.410    6.4977
   22.440    6.7301
   22.470    7.1067
   22.500    7.6928
   22.530    8.8136
   22.560   10.2377
   22.590   11.3641
   22.620   11.5324
   22.650   10.7059
   22.680    9.2680
   22.710    7.6608
   22.740    6.7839
   22.770    6.7095
   22.800    6.7953
   22.830    7.3254
   22.860    7.9790
   22.890    9.1330
   22.920   10.3842
   22.950   11.0069
   22.980   10.7024
   23.010    9.5817
   23.040    8.0683
   23.070    6.9075
   23.100    6.4485
   23.130    6.4130
   23.160    6.5755
   23.190    6.7587
   23.220    7.0209
   23.250    7.4444
   23.280    7.7203
   23.310    7.6608
   23.340    7.3231
   23.370    6.9316
   23.400    6.6065
   23.430    6.4027
   23.460    6.2813
   23.490    6.2802
   23.520    6.2504
   23.550    6.4336
   23.580    6.5710
   23.610    6.6385
   23.640    6.6213
   23.670    6.6625
   23.700    6.4531
   23.730    6.2436
   23.760    6.2207
   23.790    6.3958
   23.820    6.4805
   23.850    6.7827
   23.880    7.1685
   23.910    7.4215
   23.940    7.8760
   23.970    8.0168
   24.000    7.7444
   24.030    7.2475
   24.060    6.6625
   24.090    6.3008
   24.120    6.2195
   24.150    6.1131
   24.180    6.3248
   24.210    6.1405
   24.240    6.3397
   24.270    6.3122
   24.300    6.4531
   24.330    6.2997
   24.360    6.3065
   24.390    6.1360
   24.420    6.2481
   24.450    6.0283
   24.480    6.1749
   24.510    6.2733
   24.540    6.3603
   24.570    6.5744
   24.600    6.4966
   24.630    6.6694
   24.660    6.5114
   24.690    6.4427
   24.720    6.1737
   24.750    6.1360
   24.780    6.2069
   24.810    6.0318
   24.840    6.3443
   24.870    6.4279
   24.900    6.2768
   24.930    6.3225
   24.960    6.4015
   24.990    6.2252
   25.020    6.2264
   25.050    6.0593
   25.080    6.1508
   25.110    6.0615
   25.140    6.2619
   25.170    6.4496
   25.200    6.5114
   25.230    6.8469
   25.260    6.7930
   25.290    6.6568
   25.320    6.4096
   25.350    6.2001
   25.380    6.1840
   25.410    6.0135
   25.440    6.1073
   25.470    6.2539
   25.500    6.3340
   25.530    6.4943
   25.560    6.5240
   25.590    6.4599
   25.620    6.4141
   25.650    6.3225
   25.680    6.3867
   25.710    6.4141
   25.740    6.6832
   25.770    7.3631
   25.800    8.3122
   25.830    9.3962
   25.860    9.7168
   25.890    9.4592
   25.920    8.6647
   25.950    7.7237
   25.980    6.6660
   26.010    6.1245
   26.040    6.1405
   26.070    6.0535
   26.100    6.2470
   26.130    6.2401
   26.160    6.2848
   26.190    6.2871
   26.220    6.2172
   26.250    5.9963
   26.280    6.0341
   26.310    6.1680
   26.340    6.0959
   26.370    6.3535
   26.400    6.4668
   26.430    6.9041
   26.460    7.0231
   26.490    6.8537
   26.520    6.6843
   26.550    6.5091
   26.580    6.1588
   26.610    5.8429
   26.640    5.8463
   26.670    5.8978
   26.700    5.8452
   26.730    5.8727
   26.760    5.7490
   26.790    5.8944
   26.820    5.9734
   26.850    6.0295
   26.880    5.9081
   26.910    6.0650
   26.940    6.1634
   26.970    6.5172
   27.000    6.9865
   27.030    7.1903
   27.060    7.5623
   27.090    7.2647
   27.120    6.9579
   27.150    6.4450
   27.180    6.3981
   27.210    5.9482
   27.240    5.7273
   27.270    5.8280
   27.300    5.7525
   27.330    5.8475
   27.360    5.7731
   27.390    5.8074
   27.420    5.8223
   27.450    5.7845
   27.480    5.8303
   27.510    5.9608
   27.540    6.1050
   27.570    6.3477
   27.600    6.4725
   27.630    6.5870
   27.660    6.6900
   27.690    6.5595
   27.720    6.3672
   27.750    6.0501
   27.780    6.0135
   27.810    5.8280
   27.840    5.9471
   27.870    6.3100
   27.900    6.2562
   27.930    6.3260
   27.960    6.2275
   27.990    6.2905
   28.020    6.2401
   28.050    6.1485
   28.080    6.3157
   28.110    6.2436
   28.140    6.6293
   28.170    6.8892
   28.200    7.1342
   28.230    7.3906
   28.260    7.0575
   28.290    6.7198
   28.320    6.3626
   28.350    6.0913
   28.380    6.0867
   28.410    6.3695
   28.440    6.6946
   28.470    6.9671
   28.500    6.9854
   28.530    6.9671
   28.560    6.7289
   28.590    6.4096
   28.620    5.9688
   28.650    5.7147
   28.680    5.7422
   28.710    5.7628
   28.740    6.0261
   28.770    5.8841
   28.800    5.8395
   28.830    5.7948
   28.860    5.7353
   28.890    5.6494
   28.920    5.7811
   28.950    5.8772
   28.980    5.9402
   29.010    6.0295
   29.040    6.0169
   29.070    5.9471
   29.100    5.9665
   29.130    5.8486
   29.160    5.8200
   29.190    5.8177
   29.220    6.0833
   29.250    6.2355
   29.280    6.4817
   29.310    6.7347
   29.340    6.6362
   29.370    6.4679
   29.400    6.2790
   29.430    6.0032
   29.460    5.7101
   29.490    5.5647
   29.520    5.5521
   29.550    5.5647
   29.580    5.6552
   29.610    5.5670
   29.640    5.5613
   29.670    5.5533
   29.700    5.6013
   29.730    5.6758
   29.760    5.6586
   29.790    5.7948
   29.820    5.9711
   29.850    5.9425
   29.880    5.9917
   29.910    6.0180
   29.940    5.6929
   29.970    5.7181
   30.000    5.6174
   30.030    5.5384
   30.060    5.6826
   30.090    5.6941
   30.120    5.8440
   30.150    5.8063
   30.180    5.8795
   30.210    5.6597
   30.240    5.7078
   30.270    5.5464
   30.300    5.6677
   30.330    5.6128
   30.360    5.8131
   30.390    5.7376
   30.420    5.6906
   30.450    5.6517
   30.480    5.6013
   30.510    5.6059
   30.540    5.5349
   30.570    5.6838
   30.600    5.9207
   30.630    5.9505
   30.660    6.0570
   30.690    5.9482
   30.720    5.9608
   30.750    5.7650
   30.780    5.5166
   30.810    5.4147
   30.840    5.4479
   30.870    5.5727
   30.900    5.5430
   30.930    5.5224
   30.960    5.5762
   30.990    5.5269
   31.020    5.3232
   31.050    5.3037
   31.080    5.3667
   31.110    5.3690
   31.140    5.4376
   31.170    5.2785
   31.200    5.3186
   31.230    5.3277
   31.260    5.4617
   31.290    5.3323
   31.320    5.5121
   31.350    5.5384
   31.380    5.8074
   31.410    5.9322
   31.440    5.8681
   31.470    5.8440
   31.500    5.9471
   31.530    5.6231
   31.560    5.4537
   31.590    5.5224
   31.620    5.5258
   31.650    5.5292
   31.680    5.6288
   31.710    5.5155
   31.740    5.5613
   31.770    5.4525
   31.800    5.5544
   31.830    5.3781
   31.860    5.3197
   31.890    5.5979
   31.920    5.5590
   31.950    5.5888
   31.980    5.5464
   32.010    5.5796
   32.040    5.6059
   32.070    5.4560
   32.100    5.4903
   32.130    5.5830
   32.160    5.5533
   32.190    5.5475
   32.220    5.5098
   32.250    5.4560
   32.280    5.2602
   32.310    5.2682
   32.340    5.2178
   32.370    5.2694
   32.400    5.2156
   32.430    5.1915
   32.460    5.3083
   32.490    5.3541
   32.520    5.1537
   32.550    5.2705
   32.580    5.1984
   32.610    5.0851
   32.640    5.1183
   32.670    5.1869
   32.700    5.1377
   32.730    5.0976
   32.760    5.1618
   32.790    5.2442
   32.820    5.2350
   32.850    5.3919
   32.880    5.4560
   32.910    5.5601
   32.940    5.6013
   32.970    5.4972
   33.000    5.6162
   33.030    5.4846
   33.060    5.1652
   33.090    5.0896
   33.120    5.0702
   33.150    5.0267
   33.180    4.8973
   33.210    5.0599
   33.240    5.0862
   33.270    4.9500
   33.300    4.9832
   33.330    5.0450
   33.360    5.0576
   33.390    5.0851
   33.420    4.9694
   33.450    5.0003
   33.480    5.0725
   33.510    4.9752
   33.540    5.0049
   33.570    5.1102
   33.600    5.2133
   33.630    5.2156
   33.660    5.2442
   33.690    5.2636
   33.720    5.2694
   33.750    5.1057
   33.780    5.3071
   33.810    5.4479
   33.840    5.4972
   33.870    5.8131
   33.900    5.6849
   33.930    5.6597
   33.960    5.5212
   33.990    5.5132
   34.020    5.2339
   34.050    5.2831
   34.080    5.1274
   34.110    5.2121
   34.140    5.2007
   34.170    5.2144
   34.200    5.0954
   34.230    5.0507
   34.260    5.0805
   34.290    5.1492
   34.320    4.9454
   34.350    5.0599
   34.380    5.0061
   34.410    5.0816
   34.440    4.9855
   34.470    5.0564
   34.500    4.8630
   34.530    4.9546
   34.560    4.9442
   34.590    4.9843
   34.620    4.9454
   34.650    4.8973
   34.680    4.9752
   34.710    4.9878
   34.740    4.9809
   34.770    4.9546
   34.800    5.1343
   34.830    5.2545
   34.860    5.2201
   34.890    5.1125
   34.920    5.1789
   34.950    4.9202
   34.980    4.9546
   35.010    4.7702
   35.040    4.8870
   35.070    4.7931
   35.100    4.7622
   35.130    4.6913
   35.160    4.7954
   35.190    4.8950
   35.220    4.7485
   35.250    4.8092
   35.280    4.8160
   35.310    4.8263
   35.340    4.8321
   35.370    4.8092
   35.400    4.8813
   35.430    4.8561
   35.460    4.8366
   35.490    4.8584
   35.520    4.7325
   35.550    4.7233
   35.580    4.7886
   35.610    4.6832
   35.640    4.7794
   35.670    4.7622
   35.700    4.7577
   35.730    4.8355
   35.760    4.9225
   35.790    4.7714
   35.820    4.8572
   35.850    4.9042
   35.880    5.0072
   35.910    4.8779
   35.940    4.9294
   35.970    4.9729
   36.000    4.9351
   36.030    4.9099
   36.060    4.8664
   36.090    4.8618
   36.120    4.8309
   36.150    4.7496
   36.180    4.7439
   36.210    4.8481
   36.240    4.8664
   36.270    4.8355
   36.300    4.8847
   36.330    4.8252
   36.360    4.7909
   36.390    4.6340
   36.420    4.5825
   36.450    4.7084
   36.480    4.7050
   36.510    4.5745
   36.540    4.7771
   36.570    4.8378
   36.600    4.7416
   36.630    4.8664
   36.660    4.8779
   36.690    5.0084
   36.720    4.7851
   36.750    4.8572
   36.780    4.8160
   36.810    4.6535
   36.840    4.6077
   36.870    4.6329
   36.900    4.4543
   36.930    4.5573
   36.960    4.7462
   36.990    4.5894
   37.020    4.6832
   37.050    5.0942
   37.080    5.1411
   37.110    5.1297
   37.140    5.1125
   37.170    5.1228
   37.200    5.0530
   37.230    4.7737
   37.260    4.7290
   37.290    4.5665
   37.320    4.5356
   37.350    4.5756
   37.380    4.5447
   37.410    4.5917
   37.440    4.5173
   37.470    4.6134
   37.500    4.7222
   37.530    4.5905
   37.560    4.7588
   37.590    4.7084
   37.620    4.6741
   37.650    4.7142
   37.680    4.6798
   37.710    4.6443
   37.740    4.6352
   37.770    4.7096
   37.800    4.7725
   37.830    4.7725
   37.860    4.7737
   37.890    4.6329
   37.920    4.6237
   37.950    4.7016
   37.980    4.7622
   38.010    4.7748
   38.040    4.6741
   38.070    4.7210
   38.100    4.6317
   38.130    4.5436
   38.160    4.5493
   38.190    4.5390
   38.220    4.5356
   38.250    4.5928
   38.280    4.4520
   38.310    4.5081
   38.340    4.5173
   38.370    4.6168
   38.400    4.6913
   38.430    4.6661
   38.460    4.5401
   38.490    4.6077
   38.520    4.6237
   38.550    4.5401
   38.580    4.6157
   38.610    4.4371
   38.640    4.4978
   38.670    4.4760
   38.700    4.4005
   38.730    4.5253
   38.760    4.4234
   38.790    4.5447
   38.820    4.4692
   38.850    4.6249
   38.880    4.5310
   38.910    4.4921
   38.940    4.4829
   38.970    4.6317
   39.000    4.6684
   39.030    4.4234
   39.060    4.4760
   39.090    4.4577
   39.120    4.5001
   39.150    4.5447
   39.180    4.5447
   39.210    4.6226
   39.240    4.6226
   39.270    4.6226
   39.300    4.6283
   39.330    4.6569
   39.360    4.6088
   39.390    4.5859
   39.420    4.6123
   39.450    4.5001
   39.480    4.4348
   39.510    4.5459
   39.540    4.4909
   39.570    4.5619
   39.600    4.6008
   39.630    4.5779
   39.660    4.6237
   39.690    4.6432
   39.720    4.5482
   39.750    4.6317
   39.780    4.5264
   39.810    4.6043
   39.840    4.5195
   39.870    4.5573
   39.900    4.5688
   39.930    4.5642
   39.960    4.6008
   39.990    4.5390