File: data/PXRD/PXRD_KE-309-2_Cu-Ka1_capillary-1mm_3s-deg.xyd
    1.500   32.7892
    1.545   32.4206
    1.590   31.5078
    1.635   29.8578
    1.680   29.3839
    1.725   28.1727
    1.770   27.2600
    1.815   26.2945
    1.860   25.1711
    1.905   24.6621
    1.950   23.6265
    1.995   22.3802
    2.040   23.0999
    2.085   20.6424
    2.130   21.6781
    2.175   20.2387
    2.220   19.8526
    2.265   19.7648
    2.310   19.7472
    2.355   18.9925
    2.400   18.9925
    2.445   18.9573
    2.490   19.0276
    2.535   18.5712
    2.580   19.3611
    2.625   17.6584
    2.670   18.9222
    2.715   18.7116
    2.760   19.9930
    2.805   20.8706
    2.850   19.7297
    2.895   20.8355
    2.940   21.6079
    2.985   22.3626
    3.030   22.9419
    3.075   24.7323
    3.120   24.9254
    3.165   26.9265
    3.210   28.4711
    3.255   29.8227
    3.300   31.1041
    3.345   34.2988
    3.390   38.0025
    3.435   41.4253
    3.480   45.7434
    3.525   50.7811
    3.570   57.1353
    3.615   65.2273
    3.660   76.2507
    3.705   93.1192
    3.750  116.3595
    3.795  154.5024
    3.840  232.9472
    3.885  144.3040
    3.930   36.6333
    3.975   13.9196
    4.020   11.4797
    4.065    9.8297
    4.110    9.3031
    4.155    9.3031
    4.200    9.0047
    4.245    8.3728
    4.290    9.1276
    4.335    8.7414
    4.380    8.6186
    4.425    8.7414
    4.470    8.4957
    4.515    8.2851
    4.560    8.3728
    4.605    8.7590
    4.650    8.4255
    4.695    8.7941
    4.740    8.4957
    4.785    8.8819
    4.830    9.3382
    4.875    9.7771
    4.920   10.0053
    4.965   10.4441
    5.010   11.1989
    5.055   11.9712
    5.100   11.9010
    5.145   13.0420
    5.190   14.8850
    5.235   16.0260
    5.280   19.4488
    5.325   21.2041
    5.370   25.9961
    5.415   35.6503
    5.460   52.9577
    5.505   37.2301
    5.550   13.9021
    5.595    7.8462
    5.640    7.6180
    5.685    6.6877
    5.730    6.9861
    5.775    6.5649
    5.820    6.8633
    5.865    7.1266
    5.910    6.6702
    5.955    6.9686
    6.000    6.7755
    6.045    6.7404
    6.090    6.7755
    6.135    6.5649
    6.180    6.2138
    6.225    6.5473
    6.270    7.1266
    6.315    6.7053
    6.360    6.6526
    6.405    7.1266
    6.450    7.3021
    6.495    7.8638
    6.540    7.8989
    6.585    8.4781
    6.630    9.5138
    6.675   10.7600
    6.720   12.8840
    6.765    9.7069
    6.810    6.6877
    6.855    6.0207
    6.900    6.0734
    6.945    6.4244
    6.990    6.0734
    7.035    6.3016
    7.080    6.0207
    7.125    6.3542
    7.170    5.9856
    7.215    5.8101
    7.260    6.6000
    7.305    6.2665
    7.350    6.1962
    7.395    6.6702
    7.440    6.5649
    7.485    7.2143
    7.530    7.8111
    7.575    8.2149
    7.620    8.7414
    7.665   10.1983
    7.710   11.5148
    7.755   16.8861
    7.800   14.3935
    7.845    8.3202
    7.890    5.7750
    7.935    6.4771
    7.980    5.8803
    8.025    5.7399
    8.070    5.3712
    8.115    5.7750
    8.160    5.2659
    8.205    5.3361
    8.250    5.5468
    8.295    5.8978
    8.340    5.2659
    8.385    5.5994
    8.430    5.7399
    8.475    5.6872
    8.520    5.6170
    8.565    5.8452
    8.610    6.3718
    8.655    6.5298
    8.700    6.6877
    8.745    6.3542
    8.790    5.6521
    8.835    5.3010
    8.880    5.4766
    8.925    6.2840
    8.970    5.6697
    9.015    5.6521
    9.060    5.5994
    9.105    5.4590
    9.150    6.2138
    9.195    6.3367
    9.240    7.3547
    9.285    7.3196
    9.330    8.4430
    9.375    9.7771
    9.420   11.6202
    9.465   14.9026
    9.510   21.1690
    9.555   20.8355
    9.600   10.7249
    9.645    6.0909
    9.690    5.5468
    9.735    5.9329
    9.780    5.4415
    9.825    4.9500
    9.870    5.2484
    9.915    5.9329
    9.960    6.1085
   10.005    6.0909
   10.050    6.1962
   10.095    6.3016
   10.140    6.2665
   10.185    7.1266
   10.230    8.5484
   10.275   10.0930
   10.320   10.9882
   10.365    7.7585
   10.410    5.4941
   10.455    5.4064
   10.500    5.2308
   10.545    5.6345
   10.590    5.4941
   10.635    5.0377
   10.680    5.8452
   10.725    5.6872
   10.770    5.7925
   10.815    5.9681
   10.860    5.7574
   10.905    6.5122
   10.950    7.6005
   10.995    9.3382
   11.040   10.2686
   11.085    7.3021
   11.130    5.5117
   11.175    5.1255
   11.220    5.6345
   11.265    5.2484
   11.310    5.5117
   11.355    5.1957
   11.400    5.4766
   11.445    5.2133
   11.490    5.7750
   11.535    6.0383
   11.580    6.9861
   11.625    7.6180
   11.670   10.8127
   11.715   11.3393
   11.760    7.5654
   11.805    5.3712
   11.850    5.2484
   11.895    4.7042
   11.940    4.7920
   11.985    4.8447
   12.030    5.0026
   12.075    5.1782
   12.120    5.5117
   12.165    4.9149
   12.210    5.2484
   12.255    5.5643
   12.300    5.4415
   12.345    6.1962
   12.390    4.9851
   12.435    4.7218
   12.480    4.7920
   12.525    5.2484
   12.570    4.6867
   12.615    5.1080
   12.660    4.8622
   12.705    5.2308
   12.750    5.8452
   12.795    5.1080
   12.840    6.4420
   12.885    7.6883
   12.930    9.7946
   12.975    9.7420
   13.020    6.5473
   13.065    5.3712
   13.110    4.7920
   13.155    5.0553
   13.200    5.4590
   13.245    5.3361
   13.290    5.0377
   13.335    5.0026
   13.380    5.3361
   13.425    5.3888
   13.470    6.0383
   13.515    6.7579
   13.560    6.4595
   13.605    5.8101
   13.650    5.1255
   13.695    5.1080
   13.740    4.9324
   13.785    4.9324
   13.830    4.7744
   13.875    5.3186
   13.920    4.9851
   13.965    5.6872
   14.010    6.7930
   14.055    7.9340
   14.100    8.4606
   14.145    6.8106
   14.190    5.1957
   14.235    4.8271
   14.280    4.7393
   14.325    4.5814
   14.370    5.0728
   14.415    4.2830
   14.460    4.6165
   14.505    4.7744
   14.550    4.8622
   14.595    4.9500
   14.640    4.6165
   14.685    4.4234
   14.730    4.7744
   14.775    4.4936
   14.820    5.0026
   14.865    4.8973
   14.910    4.7569
   14.955    4.6516
   15.000    4.8271
   15.045    5.1606
   15.090    4.7393
   15.135    5.5994
   15.180    5.1782
   15.225    5.4239
   15.270    4.9851
   15.315    4.4234
   15.360    4.5287
   15.405    4.7042
   15.450    4.6516
   15.495    5.3888
   15.540    4.7744
   15.585    4.6867
   15.630    5.3186
   15.675    4.9675
   15.720    4.6691
   15.765    4.7744
   15.810    4.7042
   15.855    4.4058
   15.900    4.8095
   15.945    4.5287
   15.990    5.0202
   16.035    5.1431
   16.080    5.3186
   16.125    6.0558
   16.170    5.9681
   16.215    5.3186
   16.260    5.1255
   16.305    4.7042
   16.350    4.5989
   16.395    5.1255
   16.440    4.7744
   16.485    5.0904
   16.530    5.0904
   16.575    5.7048
   16.620    5.7574
   16.665    5.5117
   16.710    4.3005
   16.755    4.8271
   16.800    5.1431
   16.845    5.0553
   16.890    5.3361
   16.935    5.9154
   16.980    5.8627
   17.025    7.3723
   17.070    8.5659
   17.115    7.3196
   17.160    5.6170
   17.205    4.6340
   17.250    5.1080
   17.295    5.2659
   17.340    4.6691
   17.385    4.8447
   17.430    4.7920
   17.475    5.0728
   17.520    5.3010
   17.565    5.3010
   17.610    4.6165
   17.655    4.5989
   17.700    5.0377
   17.745    4.3883
   17.790    4.9149
   17.835    4.8798
   17.880    5.2133
   17.925    5.2308
   17.970    5.1606
   18.015    5.3888
   18.060    5.1606
   18.105    4.9324
   18.150    4.8447
   18.195    5.1431
   18.240    4.5814
   18.285    5.4064
   18.330    5.5994
   18.375    5.8276
   18.420    5.6345
   18.465    5.2308
   18.510    4.4234
   18.555    4.8622
   18.600    5.0553
   18.645    5.2484
   18.690    4.4058
   18.735    5.1255
   18.780    4.9500
   18.825    5.4941
   18.870    4.5989
   18.915    4.9324
   18.960    4.9851
   19.005    4.6516
   19.050    4.6165
   19.095    4.5989
   19.140    4.8271
   19.185    5.0377
   19.230    4.9500
   19.275    4.7744
   19.320    4.7042
   19.365    4.6867
   19.410    4.8798
   19.455    5.0026
   19.500    4.7218
   19.545    5.1606
   19.590    5.7574
   19.635    5.6170
   19.680    5.4415
   19.725    4.5814
   19.770    4.7920
   19.815    4.6867
   19.860    4.7744
   19.905    5.0202
   19.950    4.7569
   19.995    4.8973
   20.040    4.9500
   20.085    5.2133
   20.130    4.4936
   20.175    5.0904
   20.220    5.3186
   20.265    5.2484
   20.310    5.8627
   20.355    7.0563
   20.400    7.7409
   20.445    5.9856
   20.490    5.3361
   20.535    4.8447
   20.580    4.8095
   20.625    4.6340
   20.670    5.0553
   20.715    4.5463
   20.760    5.1255
   20.805    4.8095
   20.850    4.8095
   20.895    4.6340
   20.940    4.9851
   20.985    5.1080
   21.030    4.5287
   21.075    4.8798
   21.120    4.7744
   21.165    4.6867
   21.210    4.9149
   21.255    4.9149
   21.300    4.9149
   21.345    4.9851
   21.390    4.6691
   21.435    5.1080
   21.480    4.5287
   21.525    4.8622
   21.570    4.7393
   21.615    4.6340
   21.660    4.9675
   21.705    4.9324
   21.750    4.9500
   21.795    5.3361
   21.840    5.9856
   21.885    5.9681
   21.930    5.5292
   21.975    5.0026
   22.020    5.3888
   22.065    4.8447
   22.110    5.3010
   22.155    5.4766
   22.200    5.6170
   22.245    5.7399
   22.290    5.1255
   22.335    5.2133
   22.380    4.6516
   22.425    5.0026
   22.470    5.4941
   22.515    6.1085
   22.560    7.6707
   22.605    7.6707
   22.650    6.6000
   22.695    5.3712
   22.740    5.2484
   22.785    5.2133
   22.830    6.0207
   22.875    6.6175
   22.920    7.8287
   22.965    7.2670
   23.010    6.4069
   23.055    5.1782
   23.100    5.1606
   23.145    5.0202
   23.190    5.2659
   23.235    5.7925
   23.280    5.6697
   23.325    5.0377
   23.370    4.7569
   23.415    4.9851
   23.460    4.9500
   23.505    4.3356
   23.550    4.6691
   23.595    5.1080
   23.640    5.1957
   23.685    5.0202
   23.730    4.5638
   23.775    4.5814
   23.820    5.0904
   23.865    5.2659
   23.910    4.9851
   23.955    5.0728
   24.000    4.8973
   24.045    4.4585
   24.090    4.7218
   24.135    4.6165
   24.180    4.5989
   24.225    4.7393
   24.270    5.3186
   24.315    5.1606
   24.360    4.7569
   24.405    4.5463
   24.450    4.5287
   24.495    4.8271
   24.540    4.9149
   24.585    5.1431
   24.630    5.0553
   24.675    4.8271
   24.720    4.8095
   24.765    5.0377
   24.810    4.5287
   24.855    4.6165
   24.900    4.6867
   24.945    4.8271
   24.990    4.4058
   25.035    4.5638
   25.080    4.5111
   25.125    4.8973
   25.170    4.9675
   25.215    5.3537
   25.260    4.6867
   25.305    4.9149
   25.350    4.7920
   25.395    4.8798
   25.440    4.7218
   25.485    5.0026
   25.530    4.9851
   25.575    4.6691
   25.620    4.8271
   25.665    4.7042
   25.710    4.8095
   25.755    5.2484
   25.800    6.7930
   25.845    6.5298
   25.890    6.3893
   25.935    5.1782
   25.980    4.8095
   26.025    4.5989
   26.070    4.5989
   26.115    5.0202
   26.160    4.5287
   26.205    4.6340
   26.250    4.3181
   26.295    4.9149
   26.340    5.0904
   26.385    5.1606
   26.430    5.2484
   26.475    5.1431
   26.520    4.8798
   26.565    4.7744
   26.610    4.6165
   26.655    4.6165
   26.700    4.4234
   26.745    4.3532
   26.790    4.3005
   26.835    4.4234
   26.880    4.4058
   26.925    4.5814
   26.970    4.8973
   27.015    4.8095
   27.060    5.1782
   27.105    5.0553
   27.150    4.8798
   27.195    4.8271
   27.240    4.3532
   27.285    4.4936
   27.330    4.6165
   27.375    4.7218
   27.420    3.9846
   27.465    4.8271
   27.510    4.7920
   27.555    4.5111
   27.600    5.1431
   27.645    4.7744
   27.690    4.5463
   27.735    4.5814
   27.780    4.5638
   27.825    4.6165
   27.870    4.5814
   27.915    4.2654
   27.960    4.4760
   28.005    4.3181
   28.050    4.7393
   28.095    4.5463
   28.140    4.7920
   28.185    5.4941
   28.230    4.8271
   28.275    4.7218
   28.320    4.7393
   28.365    4.5638
   28.410    4.9675
   28.455    5.0202
   28.500    5.0026
   28.545    5.0904
   28.590    4.4409
   28.635    4.4058
   28.680    4.5287
   28.725    4.3356
   28.770    4.4409
   28.815    4.2303
   28.860    4.3181
   28.905    4.5111
   28.950    4.7744
   28.995    4.9500
   29.040    4.4760
   29.085    4.5989
   29.130    4.0723
   29.175    4.6867
   29.220    4.5111
   29.265    5.0026
   29.310    4.7569
   29.355    4.7744
   29.400    4.6516
   29.445    4.6867
   29.490    3.7739
   29.535    3.8266
   29.580    4.3883
   29.625    3.7739
   29.670    4.6691
   29.715    4.3707
   29.760    4.5638
   29.805    4.7920
   29.850    4.7393
   29.895    4.5463
   29.940    4.2127
   29.985    4.6165
   30.030    4.2127
   30.075    4.2127
   30.120    4.5638
   30.165    4.2303
   30.210    3.9670
   30.255    4.7042
   30.300    4.1074
   30.345    4.4234
   30.390    4.0372
   30.435    3.9670
   30.480    4.4234
   30.525    4.1250
   30.570    4.0899
   30.615    4.5287
   30.660    4.4585
   30.705    4.4936
   30.750    4.3356
   30.795    3.9494
   30.840    4.2478
   30.885    4.3181
   30.930    3.9319
   30.975    4.1776
   31.020    4.3005
   31.065    4.0899
   31.110    3.9319
   31.155    4.3005
   31.200    4.0372
   31.245    4.0372
   31.290    3.8441
   31.335    4.2303
   31.380    4.3532
   31.425    4.7744
   31.470    4.1776
   31.515    4.0723
   31.560    4.3532
   31.605    4.1425
   31.650    4.1425
   31.695    4.6165
   31.740    4.1952
   31.785    4.2127
   31.830    4.5989
   31.875    3.9494
   31.920    4.1601
   31.965    4.0021
   32.010    4.2303
   32.055    4.1601
   32.100    3.9143
   32.145    3.8617
   32.190    4.6867
   32.235    4.1074
   32.280    4.0723
   32.325    4.0021
   32.370    3.9319
   32.415    4.2127
   32.460    3.9143
   32.505    4.0372
   32.550    4.0723
   32.595    4.1952
   32.640    4.1074
   32.685    4.1952
   32.730    3.9670
   32.775    4.1952
   32.820    3.6862
   32.865    4.0372
   32.910    4.3181
   32.955    4.4234
   33.000    4.0197
   33.045    3.7739
   33.090    4.1425
   33.135    3.9494
   33.180    4.0372
   33.225    4.0723
   33.270    4.0021
   33.315    3.5457
   33.360    3.9670
   33.405    3.8441
   33.450    3.9143
   33.495    4.3181
   33.540    4.0372
   33.585    3.9319
   33.630    3.7213
   33.675    3.7915
   33.720    4.3005
   33.765    3.8090
   33.810    4.0372
   33.855    4.1425
   33.900    4.4058
   33.945    4.5638
   33.990    4.3532
   34.035    3.9319
   34.080    3.8617
   34.125    4.1074
   34.170    4.3707
   34.215    4.2303
   34.260    3.6510
   34.305    3.7213
   34.350    4.1425
   34.395    3.9494
   34.440    3.9494
   34.485    3.9143
   34.530    4.0197
   34.575    3.8441
   34.620    3.8266
   34.665    4.1250
   34.710    3.4755
   34.755    3.9319
   34.800    4.1425
   34.845    4.0723
   34.890    3.5457
   34.935    3.6862
   34.980    4.0197
   35.025    3.9319
   35.070    3.6159
   35.115    3.7915
   35.160    3.7564
   35.205    3.8968
   35.250    3.8090
   35.295    3.5282
   35.340    3.8090
   35.385    3.4931
   35.430    4.1250
   35.475    3.7739
   35.520    3.6159
   35.565    4.0372
   35.610    3.6862
   35.655    3.3702
   35.700    3.6510
   35.745    4.0548
   35.790    3.9143
   35.835    4.0723
   35.880    3.7388
   35.925    4.0899
   35.970    3.4755
   36.015    3.4755
   36.060    3.9319
   36.105    3.6335
   36.150    3.7213
   36.195    4.0548
   36.240    3.6335
   36.285    3.8090
   36.330    3.6159
   36.375    3.7739
   36.420    3.8617
   36.465    3.6159
   36.510    3.5633
   36.555    3.9143
   36.600    4.2303
   36.645    4.0021
   36.690    3.7739
   36.735    3.7213
   36.780    3.6335
   36.825    3.8792
   36.870    3.4755
   36.915    3.5633
   36.960    3.5106
   37.005    3.8441
   37.050    4.0372
   37.095    4.2654
   37.140    4.2127
   37.185    3.6335
   37.230    3.7388
   37.275    3.8792
   37.320    3.3877
   37.365    3.8968
   37.410    3.7213
   37.455    3.9143
   37.500    3.4053
   37.545    3.6510
   37.590    4.1776
   37.635    3.6510
   37.680    3.4053
   37.725    3.5282
   37.770    3.5106
   37.815    3.6686
   37.860    3.5984
   37.905    4.0899
   37.950    3.6510
   37.995    3.7564
   38.040    3.4931
   38.085    3.4404
   38.130    3.7213
   38.175    3.4580
   38.220    3.7564
   38.265    3.5808
   38.310    3.3000
   38.355    3.5282
   38.400    3.5106
   38.445    3.6159
   38.490    3.3175
   38.535    3.7388
   38.580    3.4053
   38.625    3.7564
   38.670    3.8266
   38.715    3.4580
   38.760    3.5984
   38.805    3.6159
   38.850    4.1250
   38.895    3.2298
   38.940    3.5457
   38.985    3.5808
   39.030    3.7037
   39.075    4.0021
   39.120    3.6686
   39.165    3.6159
   39.210    3.7388
   39.255    4.1074
   39.300    4.0372
   39.345    4.0548
   39.390    3.6510
   39.435    3.4404
   39.480    3.7915
   39.525    3.3877
   39.570    3.7739
   39.615    3.5808
   39.660    3.8266
   39.705    3.7037
   39.750    3.6510
   39.795    3.3000
   39.840    3.5808
   39.885    3.7213
   39.930    3.4755
   39.975    3.7213
   40.020    3.6335
   40.065    3.4931
   40.110    3.8090
   40.155    3.4755
   40.200    3.5808
   40.245    3.6159
   40.290    3.7739
   40.335    4.0197
   40.380    3.8792
   40.425    3.9143
   40.470    3.8792
   40.515    4.3005
   40.560    3.7037
   40.605    4.0021
   40.650    3.8441
   40.695    3.2824
   40.740    3.4053
   40.785    3.5984
   40.830    3.5984
   40.875    3.6159
   40.920    3.5808
   40.965    3.4755
   41.010    3.5106
   41.055    3.5282
   41.100    3.4755
   41.145    3.2824
   41.190    3.5984
   41.235    3.2649
   41.280    3.8266
   41.325    3.9846
   41.370    3.6159
   41.415    3.4580
   41.460    3.5984
   41.505    3.4580
   41.550    3.6159
   41.595    3.5106
   41.640    3.6510
   41.685    3.7213
   41.730    3.4229
   41.775    3.6335
   41.820    3.3526
   41.865    3.5457
   41.910    3.4755
   41.955    3.6335
   42.000    3.0893
   42.045    3.7388
   42.090    3.7915
   42.135    3.9143
   42.180    3.7564
   42.225    3.7564
   42.270    3.1771
   42.315    3.4580
   42.360    3.4053
   42.405    3.1596
   42.450    3.6159
   42.495    3.4755
   42.540    3.6686
   42.585    3.5457
   42.630    3.9846
   42.675    3.8266
   42.720    3.4755
   42.765    3.8090
   42.810    4.0197
   42.855    3.5808
   42.900    3.7564
   42.945    4.2830
   42.990    3.5282
   43.035    3.5808
   43.080    3.4931
   43.125    3.4229
   43.170    3.7915
   43.215    3.7037
   43.260    3.7564
   43.305    3.4053
   43.350    3.7037
   43.395    3.9143
   43.440    3.3526
   43.485    3.5457
   43.530    3.4580
   43.575    3.3877
   43.620    3.6335
   43.665    3.8792
   43.710    3.3526
   43.755    3.8090
   43.800    3.7037
   43.845    3.1420
   43.890    3.5282
   43.935    3.4229
   43.980    3.5457
   44.025    3.5808
   44.070    3.8441
   44.115    3.7037
   44.160    4.1952
   44.205    3.7213
   44.250    3.5808
   44.295    3.5808
   44.340    3.6862
   44.385    3.4931
   44.430    3.4755
   44.475    3.8090
   44.520    4.0372
   44.565    3.5282
   44.610    3.4580
   44.655    3.5633
   44.700    3.8266
   44.745    3.4580
   44.790    4.0372
   44.835    3.6686
   44.880    3.7564
   44.925    3.8090
   44.970    3.4580
   45.015    3.5457
   45.060    3.3351
   45.105    3.3351
   45.150    3.2122
   45.195    3.4931
   45.240    4.0197
   45.285    3.4931
   45.330    3.3175
   45.375    4.1250
   45.420    3.7564
   45.465    3.5808
   45.510    3.4404
   45.555    3.7739
   45.600    3.5106
   45.645    4.0197
   45.690    3.3877
   45.735    3.3351
   45.780    3.3175
   45.825    3.3702
   45.870    3.8441
   45.915    3.3175
   45.960    3.6862
   46.005    3.4053
   46.050    3.5457
   46.095    3.2649
   46.140    3.7213
   46.185    3.3877
   46.230    3.5282
   46.275    3.4404
   46.320    3.5282
   46.365    3.3526
   46.410    3.8792
   46.455    3.5282
   46.500    3.6862
   46.545    3.5457
   46.590    3.5633
   46.635    3.4229
   46.680    3.5808
   46.725    3.1771
   46.770    3.7213
   46.815    3.8617
   46.860    3.6686
   46.905    3.3702
   46.950    3.5808
   46.995    3.6335
   47.040    3.5457
   47.085    3.1596
   47.130    3.7388
   47.175    3.3702
   47.220    3.5633
   47.265    3.2122
   47.310    3.6159
   47.355    3.5457
   47.400    3.4931
   47.445    3.4053
   47.490    3.5633
   47.535    3.3351
   47.580    3.2122
   47.625    3.4404
   47.670    3.5984
   47.715    3.3877
   47.760    3.4755
   47.805    3.5984
   47.850    3.4404
   47.895    3.1596
   47.940    3.5633
   47.985    3.0542
   48.030    3.4229
   48.075    3.2649
   48.120    3.2649
   48.165    3.2649
   48.210    3.4229
   48.255    3.3000
   48.300    3.6510
   48.345    4.0021
   48.390    3.6862
   48.435    3.2824
   48.480    3.5457
   48.525    3.3702
   48.570    3.1947
   48.615    3.7564
   48.660    3.5106
   48.705    3.3000
   48.750    3.1420
   48.795    3.2298
   48.840    3.4931
   48.885    3.7213
   48.930    3.2122
   48.975    3.6159
   49.020    3.1947
   49.065    3.3702
   49.110    3.4404
   49.155    3.4404
   49.200    3.2649
   49.245    3.5282
   49.290    3.5457
   49.335    3.3702
   49.380    3.4580
   49.425    3.4931
   49.470    3.4580
   49.515    3.3351
   49.560    3.3351
   49.605    3.2122
   49.650    3.1947
   49.695    3.3175
   49.740    3.6510
   49.785    3.5984
   49.830    3.1069
   49.875    3.0367
   49.920    3.5808
   49.965    3.1596
   49.980    3.8090