File: data/PXRD/PXRD_KE-274_Cu-Ka1_film-3mm_3s-deg.xyd
    1.500   21.2217
    1.530   20.9584
    1.560   20.1334
    1.590   19.5893
    1.620   19.3084
    1.650   18.3781
    1.680   18.3781
    1.710   18.1148
    1.740   17.0441
    1.770   16.6579
    1.800   16.0084
    1.830   16.4648
    1.860   15.1308
    1.890   15.1308
    1.920   14.6744
    1.950   14.6042
    1.980   14.2882
    2.010   14.8675
    2.040   14.2005
    2.070   13.8143
    2.100   13.6037
    2.130   13.6212
    2.160   12.5856
    2.190   13.2350
    2.220   12.9191
    2.250   12.8138
    2.280   12.3223
    2.310   12.5680
    2.340   12.5329
    2.370   12.3398
    2.400   11.9537
    2.430   11.8132
    2.460   10.9882
    2.490   11.9712
    2.520   11.2515
    2.550   11.7430
    2.580   11.6728
    2.610   11.4622
    2.640   11.3217
    2.670   10.9356
    2.700   10.4265
    2.730   10.6898
    2.760   10.8303
    2.790   11.1989
    2.820   10.3388
    2.850   10.5494
    2.880   10.7952
    2.910   10.2686
    2.940   10.7249
    2.970   11.1111
    3.000   10.9356
    3.030   10.1983
    3.060   10.2686
    3.090   10.1632
    3.120   10.9531
    3.150   10.7776
    3.180   11.3744
    3.210   11.6728
    3.240   11.8834
    3.270   11.9010
    3.300   12.8664
    3.330   13.0068
    3.360   13.8669
    3.390   14.0249
    3.420   15.5696
    3.450   16.6754
    3.480   17.7813
    3.510   19.2031
    3.540   21.8009
    3.570   23.3632
    3.600   25.8733
    3.630   30.0158
    3.660   32.6137
    3.690   38.5642
    3.720   45.4099
    3.750   54.4848
    3.780   66.8246
    3.810   84.2724
    3.840  107.2494
    3.870  111.1462
    3.900   83.4825
    3.930   42.7945
    3.960   20.6600
    3.990   12.8840
    4.020   12.8664
    4.050   11.0936
    4.080   10.6547
    4.110   10.6196
    4.140    9.7595
    4.170   10.1106
    4.200    9.6893
    4.230    9.1276
    4.260    9.3031
    4.290    9.2856
    4.320    9.0047
    4.350    9.4962
    4.380    9.1978
    4.410    8.8994
    4.440    8.6010
    4.470    8.9872
    4.500    9.1627
    4.530    8.6888
    4.560    9.0047
    4.590    8.9521
    4.620    9.4085
    4.650    8.9345
    4.680    9.1276
    4.710    9.6367
    4.740    8.8643
    4.770    9.3734
    4.800    8.9696
    4.830    9.2154
    4.860    9.4611
    4.890    8.6186
    4.920    8.7063
    4.950    9.5489
    4.980    9.8999
    5.010   10.0228
    5.040    9.5138
    5.070   10.0228
    5.100   10.7249
    5.130   10.7952
    5.160   10.8127
    5.190   12.4100
    5.220   11.8308
    5.250   13.1122
    5.280   13.0595
    5.310   14.1829
    5.340   14.8148
    5.370   16.8510
    5.400   19.5190
    5.430   21.1690
    5.460   26.6105
    5.490   27.9621
    5.520   24.9254
    5.550   18.5010
    5.580   13.0244
    5.610   12.0590
    5.640   11.7430
    5.670   11.5850
    5.700   10.7600
    5.730   10.7952
    5.760   10.7425
    5.790    9.7771
    5.820   10.2159
    5.850    9.5138
    5.880    9.9877
    5.910    9.0925
    5.940    9.6367
    5.970    9.3909
    6.000    8.8117
    6.030    8.6537
    6.060    9.0398
    6.090    9.0574
    6.120    8.1973
    6.150    8.6537
    6.180    9.1978
    6.210    9.2680
    6.240    8.9170
    6.270    8.3553
    6.300    8.1973
    6.330    8.5133
    6.360    8.3553
    6.390    8.9345
    6.420    8.1271
    6.450    8.1095
    6.480    8.0744
    6.510    8.1797
    6.540    8.3377
    6.570    7.6707
    6.600    7.9340
    6.630    7.7234
    6.660    9.2154
    6.690    8.1271
    6.720    8.7765
    6.750    8.4606
    6.780    8.4430
    6.810    8.1446
    6.840    7.7760
    6.870    7.5478
    6.900    7.1968
    6.930    7.3021
    6.960    7.6005
    6.990    7.6180
    7.020    7.6356
    7.050    7.3899
    7.080    7.2143
    7.110    6.9159
    7.140    6.9159
    7.170    7.3899
    7.200    6.6175
    7.230    7.0037
    7.260    7.0915
    7.290    6.8984
    7.320    6.5122
    7.350    7.0037
    7.380    6.9686
    7.410    6.8282
    7.440    7.0563
    7.470    6.5122
    7.500    7.1968
    7.530    7.1617
    7.560    7.4952
    7.590    7.6707
    7.620    7.2319
    7.650    7.8813
    7.680    8.1095
    7.710    9.4611
    7.740   10.6021
    7.770   12.2170
    7.800   12.3223
    7.830   10.6196
    7.860    8.6537
    7.890    7.2670
    7.920    6.5122
    7.950    6.2138
    7.980    5.8978
    8.010    6.2840
    8.040    5.9681
    8.070    5.9505
    8.100    5.8276
    8.130    6.0909
    8.160    6.4244
    8.190    5.8803
    8.220    6.5824
    8.250    5.6521
    8.280    6.2665
    8.310    6.0383
    8.340    6.0032
    8.370    6.2313
    8.400    6.0558
    8.430    5.8276
    8.460    6.0734
    8.490    5.9154
    8.520    5.8803
    8.550    5.9681
    8.580    6.0207
    8.610    6.4244
    8.640    6.8808
    8.670    6.8984
    8.700    6.9686
    8.730    7.3899
    8.760    6.7404
    8.790    6.6175
    8.820    6.0032
    8.850    6.0558
    8.880    5.8452
    8.910    6.0734
    8.940    5.8452
    8.970    5.4415
    9.000    5.3186
    9.030    5.6170
    9.060    5.9505
    9.090    5.5292
    9.120    5.7048
    9.150    5.5117
    9.180    5.4941
    9.210    5.5994
    9.240    6.0558
    9.270    5.7399
    9.300    5.9154
    9.330    5.6872
    9.360    6.2313
    9.390    6.5298
    9.420    7.4425
    9.450    7.6707
    9.480    9.0047
    9.510   11.5675
    9.540   13.8669
    9.570   13.9196
    9.600   11.2515
    9.630    8.0393
    9.660    6.3367
    9.690    5.5994
    9.720    5.8803
    9.750    5.4941
    9.780    5.8452
    9.810    5.8452
    9.840    6.0383
    9.870    5.6697
    9.900    5.7750
    9.930    5.5643
    9.960    5.4064
    9.990    5.5468
   10.020    5.6170
   10.050    5.6521
   10.080    5.9329
   10.110    5.8978
   10.140    6.0383
   10.170    5.8627
   10.200    6.0383
   10.230    5.9856
   10.260    7.0388
   10.290    7.5478
   10.320    8.1095
   10.350    7.9691
   10.380    6.8808
   10.410    6.1611
   10.440    5.3186
   10.470    5.7574
   10.500    5.4941
   10.530    5.8101
   10.560    6.0909
   10.590    5.4415
   10.620    5.8276
   10.650    5.7399
   10.680    6.2138
   10.710    6.0909
   10.740    5.8803
   10.770    5.8276
   10.800    5.7048
   10.830    6.0032
   10.860    6.2489
   10.890    6.4069
   10.920    6.4069
   10.950    6.4771
   10.980    7.6883
   11.010    8.3026
   11.040    9.5840
   11.070    9.0398
   11.100    7.2670
   11.130    6.0383
   11.160    6.6702
   11.190    6.4946
   11.220    5.7750
   11.250    6.0558
   11.280    6.3367
   11.310    5.4590
   11.340    6.2665
   11.370    6.6526
   11.400    5.9681
   11.430    5.8978
   11.460    5.8803
   11.490    6.5824
   11.520    5.7048
   11.550    6.3893
   11.580    6.5649
   11.610    6.3191
   11.640    7.1441
   11.670    7.6356
   11.700    8.4430
   11.730    8.7063
   11.760    8.0393
   11.790    6.3542
   11.820    5.8276
   11.850    5.6697
   11.880    5.7399
   11.910    5.8276
   11.940    6.0207
   11.970    5.3888
   12.000    5.8101
   12.030    5.8276
   12.060    5.3537
   12.090    5.0553
   12.120    6.4244
   12.150    5.7574
   12.180    5.6170
   12.210    5.6521
   12.240    5.6872
   12.270    6.0207
   12.300    5.4941
   12.330    6.2665
   12.360    6.2313
   12.390    5.5819
   12.420    5.4415
   12.450    5.2133
   12.480    5.2484
   12.510    4.9324
   12.540    5.7750
   12.570    5.4239
   12.600    5.2484
   12.630    5.3712
   12.660    5.2133
   12.690    5.6872
   12.720    5.4064
   12.750    5.7399
   12.780    5.7750
   12.810    5.3888
   12.840    5.6697
   12.870    5.4415
   12.900    6.0207
   12.930    7.2494
   12.960    7.0212
   12.990    6.8808
   13.020    6.6000
   13.050    5.5819
   13.080    5.2308
   13.110    5.2484
   13.140    5.4590
   13.170    5.0026
   13.200    5.1606
   13.230    5.5117
   13.260    4.9851
   13.290    5.1255
   13.320    5.7399
   13.350    5.4064
   13.380    5.3537
   13.410    5.4590
   13.440    5.7574
   13.470    5.7048
   13.500    5.3010
   13.530    6.2840
   13.560    6.4595
   13.590    6.3542
   13.620    5.9329
   13.650    5.2308
   13.680    5.8101
   13.710    5.6697
   13.740    5.6170
   13.770    5.5643
   13.800    5.3712
   13.830    5.5643
   13.860    5.3888
   13.890    5.5468
   13.920    5.2308
   13.950    5.4590
   13.980    5.6521
   14.010    6.1787
   14.040    6.1085
   14.070    6.5473
   14.100    7.6005
   14.130    7.5829
   14.160    6.4595
   14.190    6.6526
   14.220    5.8978
   14.250    5.7399
   14.280    5.5994
   14.310    5.8803
   14.340    5.6697
   14.370    5.9505
   14.400    5.7574
   14.430    5.6345
   14.460    5.2308
   14.490    5.7399
   14.520    5.8101
   14.550    5.7399
   14.580    5.6521
   14.610    5.7750
   14.640    5.4766
   14.670    5.3712
   14.700    6.3542
   14.730    5.4239
   14.760    5.4415
   14.790    5.8803
   14.820    5.3712
   14.850    5.6872
   14.880    5.3712
   14.910    5.2835
   14.940    5.6345
   14.970    5.4064
   15.000    5.5643
   15.030    5.5292
   15.060    6.0032
   15.090    5.5117
   15.120    5.1431
   15.150    6.1260
   15.180    6.0207
   15.210    5.6872
   15.240    5.4064
   15.270    4.7744
   15.300    5.5643
   15.330    5.5468
   15.360    5.6170
   15.390    5.7399
   15.420    5.2835
   15.450    5.7223
   15.480    5.5643
   15.510    5.0202
   15.540    5.1431
   15.570    5.0377
   15.600    5.6521
   15.630    5.0202
   15.660    5.0728
   15.690    4.3883
   15.720    4.8973
   15.750    5.2659
   15.780    5.6170
   15.810    4.8798
   15.840    4.8622
   15.870    4.5814
   15.900    5.3888
   15.930    6.0909
   15.960    5.2659
   15.990    5.1080
   16.020    5.3010
   16.050    5.3537
   16.080    5.6872
   16.110    6.1436
   16.140    6.1611
   16.170    6.0558
   16.200    5.6521
   16.230    5.3888
   16.260    5.0026
   16.290    6.0383
   16.320    5.5292
   16.350    6.1611
   16.380    5.5819
   16.410    5.4064
   16.440    5.1782
   16.470    5.1080
   16.500    5.1431
   16.530    5.3888
   16.560    5.1255
   16.590    5.1606
   16.620    5.6521
   16.650    5.8803
   16.680    5.6345
   16.710    5.3712
   16.740    5.2308
   16.770    5.0377
   16.800    5.2659
   16.830    5.1957
   16.860    5.3010
   16.890    4.6516
   16.920    5.0728
   16.950    5.6697
   16.980    5.5994
   17.010    5.3186
   17.040    5.8978
   17.070    6.4946
   17.100    6.9510
   17.130    6.7579
   17.160    5.5468
   17.190    5.0553
   17.220    4.8622
   17.250    5.3361
   17.280    4.9851
   17.310    5.2308
   17.340    5.0904
   17.370    5.0377
   17.400    5.1782
   17.430    4.6165
   17.460    5.4415
   17.490    5.2659
   17.520    5.0904
   17.550    5.3010
   17.580    5.5117
   17.610    5.3361
   17.640    5.0026
   17.670    5.0377
   17.700    5.1080
   17.730    4.9149
   17.760    5.2308
   17.790    5.3537
   17.820    4.7569
   17.850    4.9851
   17.880    5.1782
   17.910    5.0728
   17.940    5.4239
   17.970    5.0377
   18.000    5.8101
   18.030    5.2484
   18.060    5.3537
   18.090    5.5468
   18.120    5.0904
   18.150    5.1957
   18.180    5.2133
   18.210    4.9324
   18.240    5.0202
   18.270    5.2484
   18.300    5.3712
   18.330    5.3888
   18.360    5.0377
   18.390    5.2835
   18.420    5.3010
   18.450    5.4941
   18.480    5.0728
   18.510    5.4239
   18.540    5.3186
   18.570    5.3361
   18.600    5.4064
   18.630    4.7920
   18.660    5.3712
   18.690    4.8973
   18.720    4.8622
   18.750    5.0377
   18.780    5.2308
   18.810    5.1431
   18.840    5.3537
   18.870    5.2133
   18.900    5.0904
   18.930    5.0377
   18.960    5.0377
   18.990    5.0728
   19.020    5.0377
   19.050    5.2659
   19.080    5.1782
   19.110    4.8798
   19.140    5.4064
   19.170    5.4239
   19.200    5.1606
   19.230    5.2133
   19.260    4.9851
   19.290    4.9675
   19.320    5.5292
   19.350    5.2133
   19.380    5.0026
   19.410    5.3010
   19.440    4.9324
   19.470    4.6516
   19.500    5.0026
   19.530    4.9149
   19.560    5.2133
   19.590    5.4766
   19.620    5.5117
   19.650    5.2659
   19.680    5.3186
   19.710    5.5643
   19.740    4.8447
   19.770    4.9675
   19.800    5.2133
   19.830    5.1782
   19.860    4.8095
   19.890    5.1782
   19.920    4.5814
   19.950    4.7744
   19.980    4.5111
   20.010    5.0026
   20.040    4.6867
   20.070    4.8798
   20.100    4.8622
   20.130    5.0377
   20.160    4.9851
   20.190    5.0202
   20.220    5.2133
   20.250    4.8973
   20.280    5.0202
   20.310    5.0377
   20.340    4.9851
   20.370    5.2835
   20.400    5.9681
   20.430    6.1962
   20.460    5.4239
   20.490    5.1080
   20.520    5.0026
   20.550    5.2484
   20.580    4.8095
   20.610    5.2308
   20.640    4.6691
   20.670    4.4760
   20.700    4.5638
   20.730    4.4409
   20.760    5.0026
   20.790    4.8271
   20.820    4.5638
   20.850    4.5989
   20.880    4.8447
   20.910    5.0553
   20.940    5.0728
   20.970    4.7920
   21.000    5.0377
   21.030    4.4409
   21.060    4.8622
   21.090    4.6340
   21.120    4.5463
   21.150    4.9851
   21.180    5.1431
   21.210    4.7920
   21.240    4.5111
   21.270    4.9851
   21.300    4.7042
   21.330    4.4936
   21.360    4.4760
   21.390    5.0728
   21.420    4.8622
   21.450    4.6691
   21.480    4.5814
   21.510    4.9149
   21.540    4.8973
   21.570    4.5814
   21.600    4.8271
   21.630    4.9675
   21.660    4.5814
   21.690    4.8271
   21.720    4.4585
   21.750    4.5287
   21.780    4.6867
   21.810    4.5989
   21.840    4.9500
   21.870    5.0202
   21.900    5.2659
   21.930    4.8798
   21.960    4.9675
   21.990    4.9500
   22.020    4.7920
   22.050    4.5814
   22.080    4.4936
   22.110    4.4760
   22.140    4.2478
   22.170    5.0377
   22.200    4.8798
   22.230    4.5814
   22.260    5.1606
   22.290    4.5638
   22.320    4.5463
   22.350    4.8973
   22.380    4.3883
   22.410    4.2303
   22.440    4.5287
   22.470    4.5463
   22.500    4.3707
   22.530    4.8447
   22.560    5.4239
   22.590    6.3016
   22.620    6.3542
   22.650    5.8452
   22.680    5.2484
   22.710    4.5638
   22.740    4.8095
   22.770    4.8447
   22.800    4.3005
   22.830    4.8973
   22.860    4.4585
   22.890    4.7920
   22.920    5.4590
   22.950    6.2489
   22.980    5.7925
   23.010    5.2308
   23.040    4.6867
   23.070    4.5638
   23.100    4.4058
   23.130    4.3181
   23.160    4.6340
   23.190    3.8090
   23.220    4.3532
   23.250    4.7042
   23.280    4.7042
   23.310    5.2308
   23.340    4.9149
   23.370    4.5989
   23.400    4.3356
   23.430    4.3356
   23.460    4.5111
   23.490    4.2478
   23.520    4.3005
   23.550    4.4760
   23.580    4.1952
   23.610    4.5814
   23.640    4.7569
   23.670    4.3356
   23.700    4.4585
   23.730    4.3532
   23.760    4.5814
   23.790    4.4409
   23.820    4.4058
   23.850    4.3356
   23.880    4.5111
   23.910    4.5638
   23.940    4.3532
   23.970    5.1080
   24.000    4.8271
   24.030    4.1074
   24.060    4.3883
   24.090    4.2303
   24.120    4.3532
   24.150    4.3181
   24.180    4.2303
   24.210    4.3181
   24.240    3.7213
   24.270    4.3532
   24.300    4.1952
   24.330    4.3883
   24.360    4.5989
   24.390    4.2654
   24.420    4.1425
   24.450    4.1074
   24.480    3.9670
   24.510    4.2303
   24.540    4.1601
   24.570    4.1250
   24.600    4.5463
   24.630    4.5638
   24.660    4.3356
   24.690    4.0021
   24.720    4.3356
   24.750    3.9846
   24.780    4.2127
   24.810    3.8617
   24.840    4.1250
   24.870    4.3005
   24.900    3.9846
   24.930    4.4936
   24.960    4.1250
   24.990    4.3707
   25.020    3.9846
   25.050    4.2303
   25.080    3.9143
   25.110    4.1425
   25.140    4.3883
   25.170    4.2478
   25.200    4.1425
   25.230    4.0899
   25.260    4.0899
   25.290    4.1601
   25.320    3.9846
   25.350    4.1250
   25.380    3.7739
   25.410    3.8968
   25.440    3.9846
   25.470    3.9670
   25.500    4.1952
   25.530    4.2127
   25.560    3.7739
   25.590    3.9846
   25.620    4.1074
   25.650    3.9494
   25.680    3.7739
   25.710    4.1776
   25.740    4.0899
   25.770    4.1776
   25.800    4.0372
   25.830    5.2484
   25.860    4.7744
   25.890    5.0377
   25.920    4.7393
   25.950    4.7042
   25.980    4.1601
   26.010    3.6159
   26.040    3.9846
   26.070    3.8090
   26.100    4.0372
   26.130    3.9319
   26.160    4.0723
   26.190    4.3181
   26.220    3.8968
   26.250    3.9319
   26.280    4.1776
   26.310    3.8617
   26.340    4.1074
   26.370    4.1074
   26.400    3.9143
   26.430    4.0723
   26.460    3.8617
   26.490    4.0899
   26.520    3.8617
   26.550    3.7388
   26.580    3.9143
   26.610    4.1074
   26.640    4.2303
   26.670    4.0021
   26.700    3.9143
   26.730    4.0723
   26.760    3.4229
   26.790    4.0197
   26.820    3.8090
   26.850    3.7388
   26.880    3.7388
   26.910    3.8441
   26.940    3.8792
   26.970    3.6335
   27.000    4.2303
   27.030    4.0372
   27.060    4.2830
   27.090    4.0372
   27.120    4.2303
   27.150    3.8441
   27.180    3.7915
   27.210    3.8792
   27.240    3.4580
   27.270    3.6862
   27.300    3.5808
   27.330    3.4755
   27.360    3.9846
   27.390    3.3351
   27.420    3.8617
   27.450    4.0548
   27.480    3.9494
   27.510    3.4931
   27.540    3.5106
   27.570    3.6686
   27.600    3.8441
   27.630    3.8968
   27.660    4.0899
   27.690    3.8792
   27.720    3.5808
   27.750    3.6335
   27.780    3.5984
   27.810    3.6510
   27.840    3.6510
   27.870    3.7388
   27.900    3.5633
   27.930    3.6686
   27.960    3.5282
   27.990    3.8968
   28.020    3.4931
   28.050    3.6510
   28.080    3.3000
   28.110    3.4404
   28.140    3.3877
   28.170    3.4580
   28.200    3.6159
   28.230    3.7739
   28.260    3.7037
   28.290    3.9670
   28.320    3.1420
   28.350    3.4755
   28.380    3.4755
   28.410    3.6335
   28.440    3.4053
   28.470    4.0372
   28.500    4.1776
   28.530    3.9319
   28.560    4.1952
   28.590    3.7564
   28.620    3.3526
   28.650    3.6862
   28.680    3.5984
   28.710    3.4931
   28.740    3.9143
   28.770    3.8441
   28.800    3.7564
   28.830    3.3877
   28.860    3.8090
   28.890    3.3526
   28.920    3.4580
   28.950    3.6159
   28.980    3.4404
   29.010    3.5808
   29.040    3.8968
   29.070    3.7915
   29.100    3.8617
   29.130    3.6510
   29.160    3.6686
   29.190    3.2298
   29.220    3.1947
   29.250    3.5457
   29.280    3.3526
   29.310    3.5808
   29.340    3.7037
   29.370    3.7388
   29.400    3.7213
   29.430    3.4931
   29.460    3.8090
   29.490    3.3526
   29.520    3.1245
   29.550    2.9840
   29.580    3.2473
   29.610    3.2122
   29.640    3.0016
   29.670    3.5106
   29.700    3.3877
   29.730    3.1947
   29.760    2.9138
   29.790    3.1771
   29.820    3.0542
   29.850    3.2649
   29.880    3.3351
   29.910    3.4404
   29.940    3.3175
   29.970    2.8963
   30.000    3.2122
   30.030    3.4404
   30.060    3.1245
   30.090    3.1596
   30.120    3.4229
   30.150    3.2473
   30.180    3.6862
   30.210    3.2649
   30.240    3.2122
   30.270    3.0718
   30.300    3.5457
   30.330    3.0718
   30.360    2.8612
   30.390    3.4580
   30.420    3.2473
   30.450    3.0718
   30.480    3.2473
   30.510    3.1947
   30.540    3.0191
   30.570    3.1596
   30.600    3.3877
   30.630    2.9489
   30.660    3.0367
   30.690    3.0893
   30.720    3.1420
   30.750    2.8612
   30.780    3.2298
   30.810    3.0367
   30.840    3.4229
   30.870    2.6505
   30.900    3.2122
   30.930    2.8963
   30.960    3.1947
   30.990    3.5282
   31.020    3.0016
   31.050    3.0367
   31.080    3.0542
   31.110    2.9840
   31.140    2.8085
   31.170    3.1771
   31.200    2.9138
   31.230    2.7909
   31.260    3.1069
   31.290    2.9138
   31.320    3.0893
   31.350    2.9314
   31.380    2.7207
   31.410    2.8963
   31.440    2.9314
   31.470    2.8436
   31.500    3.1947
   31.530    2.7909
   31.560    3.0367
   31.590    3.0367
   31.620    3.1771
   31.650    2.8260
   31.680    3.0191
   31.710    2.9314
   31.740    3.3000
   31.770    3.0542
   31.800    3.0542
   31.830    3.0718
   31.860    2.4750
   31.890    2.9840
   31.920    2.8436
   31.950    2.8260
   31.980    2.7032
   32.010    2.8260
   32.040    2.8436
   32.070    2.8612
   32.100    2.9138
   32.130    2.6154
   32.160    2.5979
   32.190    2.9665
   32.220    2.6505
   32.250    2.8260
   32.280    2.7909
   32.310    2.5452
   32.340    3.0718
   32.370    3.2298
   32.400    2.9314
   32.430    2.9840
   32.460    2.7558
   32.490    2.5276
   32.520    2.6856
   32.550    2.8436
   32.580    2.7032
   32.610    3.0016
   32.640    2.9314
   32.670    2.8260
   32.700    2.6330
   32.730    2.7032
   32.760    2.5979
   32.790    2.5628
   32.820    2.5101
   32.850    2.8787
   32.880    2.6856
   32.910    3.0718
   32.940    2.4223
   32.970    2.9489
   33.000    3.0718
   33.030    2.6330
   33.060    3.1420
   33.090    2.6154
   33.120    2.5276
   33.150    2.4223
   33.180    2.4399
   33.210    2.6681
   33.240    2.4750
   33.270    2.4925
   33.300    2.7032
   33.330    2.3521
   33.360    2.8787
   33.390    2.9665
   33.420    2.9314
   33.450    2.9665
   33.480    2.5803
   33.510    2.5276
   33.540    2.8085
   33.570    2.8436
   33.600    2.7207
   33.630    2.7734
   33.660    2.8612
   33.690    2.5803
   33.720    2.9138
   33.750    2.5276
   33.780    2.7734
   33.810    2.6330
   33.840    2.7207
   33.870    2.3872
   33.900    3.0718
   33.930    2.8612
   33.960    2.7207
   33.990    2.5979
   34.020    2.5452
   34.050    2.5452
   34.080    2.5101
   34.110    2.8085
   34.140    3.0016
   34.170    2.7032
   34.200    3.0191
   34.230    2.7909
   34.260    2.7909
   34.290    2.7909
   34.320    2.3346
   34.350    2.4223
   34.380    2.8787
   34.410    3.0016
   34.440    2.7383
   34.470    2.5101
   34.500    2.8787
   34.530    2.6856
   34.560    2.8436
   34.590    2.2292
   34.620    2.7909
   34.650    2.3521
   34.680    2.9840
   34.710    2.7207
   34.740    2.4750
   34.770    2.5979
   34.800    2.7734
   34.830    2.7558
   34.860    2.9489
   34.890    2.4399
   34.920    2.1766
   34.950    2.6330
   34.980    2.6505
   35.010    2.6154
   35.040    2.6505
   35.070    2.6856
   35.100    2.8612
   35.130    2.9138
   35.160    2.4048
   35.190    2.2819
   35.220    2.6505
   35.250    2.7383
   35.280    2.5276
   35.310    2.6505
   35.340    2.4223
   35.370    2.6505
   35.400    2.5803
   35.430    2.4223
   35.460    2.6856
   35.490    2.3521
   35.520    2.3697
   35.550    2.6330
   35.580    2.5276
   35.610    2.4048
   35.640    2.3521
   35.670    2.7558
   35.700    2.6856
   35.730    2.6681
   35.760    2.5979
   35.790    2.6856
   35.820    2.6856
   35.850    2.6154
   35.880    2.5452
   35.910    2.6856
   35.940    2.6681
   35.970    2.2819
   36.000    2.4574
   36.030    2.6856
   36.060    2.8085
   36.090    2.9840
   36.120    2.6856
   36.150    2.8963
   36.180    2.7032
   36.210    2.4574
   36.240    2.3346
   36.270    3.0016
   36.300    2.5979
   36.330    2.9665
   36.360    2.3170
   36.390    2.5803
   36.420    2.4750
   36.450    2.9489
   36.480    2.6330
   36.510    2.4399
   36.540    2.7909
   36.570    2.2468
   36.600    2.1941
   36.630    2.7207
   36.660    2.5979
   36.690    2.6154
   36.720    2.8260
   36.750    2.9138
   36.780    2.7383
   36.810    2.4399
   36.840    2.7383
   36.870    2.6505
   36.900    2.2643
   36.930    2.5276
   36.960    2.3170
   36.990    2.7558
   37.020    2.5979
   37.050    2.6330
   37.080    2.3521
   37.110    2.5276
   37.140    2.8787
   37.170    2.6856
   37.200    2.6856
   37.230    2.4223
   37.260    2.2819
   37.290    2.5628
   37.320    2.8436
   37.350    2.6154
   37.380    2.4223
   37.410    2.2643
   37.440    2.9489
   37.470    2.7558
   37.500    2.4750
   37.530    2.6856
   37.560    2.5101
   37.590    2.6505
   37.620    2.6505
   37.650    2.4399
   37.680    2.4223
   37.710    2.4925
   37.740    2.3872
   37.770    2.8260
   37.800    2.5452
   37.830    2.3521
   37.860    2.5628
   37.890    2.6856
   37.920    2.4574
   37.950    2.3170
   37.980    2.6330
   38.010    2.6505
   38.040    2.2995
   38.070    2.1941
   38.100    2.6856
   38.130    2.1239
   38.160    2.6856
   38.190    2.4223
   38.220    2.6154
   38.250    2.3346
   38.280    2.6505
   38.310    2.7383
   38.340    2.8260
   38.370    2.3346
   38.400    2.4399
   38.430    2.6505
   38.460    2.5628
   38.490    2.4223
   38.520    2.4223
   38.550    2.4574
   38.580    2.5452
   38.610    2.3521
   38.640    2.3872
   38.670    2.2468
   38.700    2.0713
   38.730    2.6330
   38.760    2.3346
   38.790    2.6330
   38.820    2.4399
   38.850    2.4048
   38.880    2.5803
   38.910    2.5101
   38.940    2.5276
   38.970    2.1941
   39.000    2.1590
   39.030    2.0186
   39.060    2.3697
   39.090    2.3872
   39.120    2.3697
   39.150    2.5628
   39.180    2.4223
   39.210    2.6681
   39.240    2.3170
   39.270    2.4925
   39.300    2.5628
   39.330    2.7734
   39.360    2.0713
   39.390    2.7032
   39.420    2.0537
   39.450    2.4750
   39.480    2.2292
   39.510    2.2819
   39.540    2.2468
   39.570    2.3170
   39.600    2.2643
   39.630    2.0888
   39.660    2.4223
   39.690    2.3346
   39.720    2.4574
   39.750    2.5803
   39.780    2.7909
   39.810    2.1766
   39.840    2.4574
   39.870    2.3346
   39.900    2.3872
   39.930    2.5276
   39.960    2.3170
   39.990    2.5276