File: data/PXRD/PXRD_KE-287_Co-Ka1_film-3mm_60s-deg.xyd
    1.500    3.1068
    1.530    3.1193
    1.560    2.9775
    1.590    2.8821
    1.620    2.7207
    1.650    2.7055
    1.680    2.5834
    1.710    2.5602
    1.740    2.4951
    1.770    2.3346
    1.800    2.3301
    1.830    2.3453
    1.860    2.2383
    1.890    2.1955
    1.920    2.1669
    1.950    2.1170
    1.980    2.1687
    2.010    2.0465
    2.040    2.0055
    2.070    2.0127
    2.100    2.0234
    2.130    1.9128
    2.160    1.8896
    2.190    1.8914
    2.220    1.8843
    2.250    1.8388
    2.280    1.7594
    2.310    1.7719
    2.340    1.7888
    2.370    1.7255
    2.400    1.6774
    2.430    1.6809
    2.460    1.6676
    2.490    1.6970
    2.520    1.6506
    2.550    1.6328
    2.580    1.6524
    2.610    1.6462
    2.640    1.5873
    2.670    1.5775
    2.700    1.6176
    2.730    1.5757
    2.760    1.6096
    2.790    1.5561
    2.820    1.5142
    2.850    1.5186
    2.880    1.4518
    2.910    1.4794
    2.940    1.4812
    2.970    1.5115
    3.000    1.4268
    3.030    1.4366
    3.060    1.4500
    3.090    1.3991
    3.120    1.4633
    3.150    1.4277
    3.180    1.4312
    3.210    1.4598
    3.240    1.3688
    3.270    1.4214
    3.300    1.4250
    3.330    1.3956
    3.360    1.3884
    3.390    1.3769
    3.420    1.3474
    3.450    1.3447
    3.480    1.3278
    3.510    1.3528
    3.540    1.3769
    3.570    1.3456
    3.600    1.3822
    3.630    1.3465
    3.660    1.3287
    3.690    1.3608
    3.720    1.3153
    3.750    1.3430
    3.780    1.3260
    3.810    1.3349
    3.840    1.3537
    3.870    1.3082
    3.900    1.3153
    3.930    1.3305
    3.960    1.3608
    3.990    1.3635
    4.020    1.3840
    4.050    1.3019
    4.080    1.3911
    4.110    1.3590
    4.140    1.3991
    4.170    1.3715
    4.200    1.3590
    4.230    1.3670
    4.260    1.3706
    4.290    1.3947
    4.320    1.4000
    4.350    1.5213
    4.380    1.4723
    4.410    1.5668
    4.440    1.5971
    4.470    1.7407
    4.500    1.9092
    4.530    2.3185
    4.560    1.7434
    4.590    1.3260
    4.620    1.4063
    4.650    1.3465
    4.680    1.3661
    4.710    1.3742
    4.740    1.3465
    4.770    1.3670
    4.800    1.3831
    4.830    1.3688
    4.860    1.3332
    4.890    1.3028
    4.920    1.3269
    4.950    1.3233
    4.980    1.3233
    5.010    1.3724
    5.040    1.3483
    5.070    1.3572
    5.100    1.3430
    5.130    1.3474
    5.160    1.3207
    5.190    1.3804
    5.220    1.3162
    5.250    1.3706
    5.280    1.3715
    5.310    1.3465
    5.340    1.3394
    5.370    1.3653
    5.400    1.2939
    5.430    1.3920
    5.460    1.3947
    5.490    1.3572
    5.520    1.3661
    5.550    1.3367
    5.580    1.4339
    5.610    1.4054
    5.640    1.3697
    5.670    1.4232
    5.700    1.3742
    5.730    1.4268
    5.760    1.4036
    5.790    1.3661
    5.820    1.4812
    5.850    1.3902
    5.880    1.4955
    5.910    1.4384
    5.940    1.4910
    5.970    1.5561
    6.000    1.5828
    6.030    1.6042
    6.060    1.5739
    6.090    1.6845
    6.120    1.6470
    6.150    1.6381
    6.180    1.7032
    6.210    1.7148
    6.240    1.7897
    6.270    1.7978
    6.300    1.8566
    6.330    1.8798
    6.360    1.9199
    6.390    1.9529
    6.420    2.0822
    6.450    1.8673
    6.480    1.9681
    6.510    1.8539
    6.540    1.8557
    6.570    1.8316
    6.600    1.8200
    6.630    1.8138
    6.660    1.7764
    6.690    1.7764
    6.720    1.7772
    6.750    1.6720
    6.780    1.5721
    6.810    1.6265
    6.840    1.6105
    6.870    1.5481
    6.900    1.5106
    6.930    1.5766
    6.960    1.5124
    6.990    1.4785
    7.020    1.3706
    7.050    1.4660
    7.080    1.3983
    7.110    1.4518
    7.140    1.3840
    7.170    1.3795
    7.200    1.3233
    7.230    1.3394
    7.260    1.3617
    7.290    1.3608
    7.320    1.3742
    7.350    1.3688
    7.380    1.3162
    7.410    1.3465
    7.440    1.3403
    7.470    1.2377
    7.500    1.3019
    7.530    1.2636
    7.560    1.2154
    7.590    1.2725
    7.620    1.2556
    7.650    1.2609
    7.680    1.2493
    7.710    1.2975
    7.740    1.2850
    7.770    1.2725
    7.800    1.3011
    7.830    1.4098
    7.860    1.5641
    7.890    1.3554
    7.920    1.1896
    7.950    1.2315
    7.980    1.1539
    8.010    1.1503
    8.040    1.1940
    8.070    1.1539
    8.100    1.1423
    8.130    1.1388
    8.160    1.1022
    8.190    1.1388
    8.220    1.1530
    8.250    1.1379
    8.280    1.1174
    8.310    1.1004
    8.340    1.1075
    8.370    1.0674
    8.400    1.0844
    8.430    1.1084
    8.460    1.1058
    8.490    1.0273
    8.520    1.0237
    8.550    1.0861
    8.580    1.0424
    8.610    1.0407
    8.640    1.0184
    8.670    1.0353
    8.700    0.9577
    8.730    1.0915
    8.760    0.9729
    8.790    1.0246
    8.820    1.0166
    8.850    1.0264
    8.880    1.0148
    8.910    0.9666
    8.940    0.9925
    8.970    0.9970
    9.000    0.9684
    9.030    1.0326
    9.060    1.0523
    9.090    1.1067
    9.120    0.9961
    9.150    0.9479
    9.180    0.9363
    9.210    0.9452
    9.240    0.9024
    9.270    0.9328
    9.300    0.9996
    9.330    0.9461
    9.360    0.9158
    9.390    0.9167
    9.420    0.9016
    9.450    0.9470
    9.480    0.9452
    9.510    0.9051
    9.540    0.8819
    9.570    0.9203
    9.600    0.9140
    9.630    0.8463
    9.660    0.8864
    9.690    0.8712
    9.720    0.8677
    9.750    0.9007
    9.780    0.8632
    9.810    0.9016
    9.840    0.8998
    9.870    0.8775
    9.900    0.8668
    9.930    0.8587
    9.960    0.8579
    9.990    0.8793
   10.020    0.9060
   10.050    0.8168
   10.080    0.8659
   10.110    0.8775
   10.140    0.9051
   10.170    0.8775
   10.200    0.8382
   10.230    0.8570
   10.260    0.8436
   10.290    0.8445
   10.320    0.8873
   10.350    0.8382
   10.380    0.8445
   10.410    0.8391
   10.440    0.8026
   10.470    0.8668
   10.500    0.8757
   10.530    0.8650
   10.560    0.8409
   10.590    0.8052
   10.620    0.8543
   10.650    0.8213
   10.680    0.8356
   10.710    0.8525
   10.740    0.9301
   10.770    0.8498
   10.800    0.8347
   10.830    0.8302
   10.860    0.8338
   10.890    0.8240
   10.920    0.8195
   10.950    0.8748
   10.980    0.8891
   11.010    0.8659
   11.040    0.8953
   11.070    0.9488
   11.100    1.0335
   11.130    1.2574
   11.160    1.0933
   11.190    0.8543
   11.220    0.8311
   11.250    0.8347
   11.280    0.8962
   11.310    0.8801
   11.340    0.8507
   11.370    0.8561
   11.400    0.8240
   11.430    0.8133
   11.460    0.8489
   11.490    0.8195
   11.520    0.8222
   11.550    0.8632
   11.580    0.8275
   11.610    0.8258
   11.640    0.8240
   11.670    0.7705
   11.700    0.8115
   11.730    0.8480
   11.760    0.8026
   11.790    0.8222
   11.820    0.8677
   11.850    0.8507
   11.880    0.8338
   11.910    0.8721
   11.940    0.9069
   11.970    0.9337
   12.000    0.9943
   12.030    1.2039
   12.060    0.9765
   12.090    0.8632
   12.120    0.8249
   12.150    0.8632
   12.180    0.8614
   12.210    0.8044
   12.240    0.8632
   12.270    0.8650
   12.300    0.8258
   12.330    0.9042
   12.360    0.8480
   12.390    0.8427
   12.420    0.8329
   12.450    0.8926
   12.480    0.8793
   12.510    0.9256
   12.540    0.8882
   12.570    0.8694
   12.600    0.8962
   12.630    0.9033
   12.660    0.8570
   12.690    0.9363
   12.720    0.9007
   12.750    0.8766
   12.780    0.9444
   12.810    0.9791
   12.840    0.9952
   12.870    1.1316
   12.900    0.9381
   12.930    0.9087
   12.960    0.9158
   12.990    0.8739
   13.020    0.8668
   13.050    0.8739
   13.080    0.8507
   13.110    0.9024
   13.140    0.8525
   13.170    0.8721
   13.200    0.8935
   13.230    0.8909
   13.260    0.8525
   13.290    0.8587
   13.320    0.8810
   13.350    0.8935
   13.380    0.8686
   13.410    0.8944
   13.440    0.8962
   13.470    0.8668
   13.500    0.8703
   13.530    0.8784
   13.560    0.9087
   13.590    0.9230
   13.620    0.9631
   13.650    1.1744
   13.680    0.9756
   13.710    0.8962
   13.740    0.8222
   13.770    0.8079
   13.800    0.8391
   13.830    0.8819
   13.860    0.8623
   13.890    0.8231
   13.920    0.7856
   13.950    0.8311
   13.980    0.8668
   14.010    0.8472
   14.040    0.8195
   14.070    0.8133
   14.100    0.8400
   14.130    0.8240
   14.160    0.8293
   14.190    0.8249
   14.220    0.8329
   14.250    0.8258
   14.280    0.8044
   14.310    0.8168
   14.340    0.8159
   14.370    0.7972
   14.400    0.8347
   14.430    0.8623
   14.460    0.8142
   14.490    0.8097
   14.520    0.8748
   14.550    0.7589
   14.580    0.7990
   14.610    0.7589
   14.640    0.7829
   14.670    0.7937
   14.700    0.7901
   14.730    0.7892
   14.760    0.7981
   14.790    0.8115
   14.820    0.8142
   14.850    0.7589
   14.880    0.8382
   14.910    0.8026
   14.940    0.8186
   14.970    0.7740
   15.000    0.8026
   15.030    0.7963
   15.060    0.8249
   15.090    0.9212
   15.120    0.9666
   15.150    0.7589
   15.180    0.7919
   15.210    0.7847
   15.240    0.7500
   15.270    0.7562
   15.300    0.7883
   15.330    0.7410
   15.360    0.7544
   15.390    0.7705
   15.420    0.7794
   15.450    0.7937
   15.480    0.7945
   15.510    0.7642
   15.540    0.7705
   15.570    0.7874
   15.600    0.8017
   15.630    0.7731
   15.660    0.7651
   15.690    0.7937
   15.720    0.8168
   15.750    0.8258
   15.780    0.8552
   15.810    0.8204
   15.840    0.7803
   15.870    0.7214
   15.900    0.7553
   15.930    0.7856
   15.960    0.7410
   15.990    0.7767
   16.020    0.7838
   16.050    0.7972
   16.080    0.7928
   16.110    0.8266
   16.140    0.7937
   16.170    0.8097
   16.200    0.8008
   16.230    0.7803
   16.260    0.7821
   16.290    0.7928
   16.320    0.7571
   16.350    0.7767
   16.380    0.8275
   16.410    0.8819
   16.440    0.9631
   16.470    0.8650
   16.500    0.8480
   16.530    0.8543
   16.560    0.8311
   16.590    0.8400
   16.620    0.8204
   16.650    0.8356
   16.680    0.8552
   16.710    0.8445
   16.740    0.8596
   16.770    0.8552
   16.800    0.8231
   16.830    0.8445
   16.860    0.8677
   16.890    0.8819
   16.920    0.8186
   16.950    0.8365
   16.980    0.8516
   17.010    0.8418
   17.040    0.8632
   17.070    0.8436
   17.100    0.8240
   17.130    0.8266
   17.160    0.8320
   17.190    0.8240
   17.220    0.7883
   17.250    0.7945
   17.280    0.7714
   17.310    0.7838
   17.340    0.8266
   17.370    0.7856
   17.400    0.7856
   17.430    0.7838
   17.460    0.7785
   17.490    0.8159
   17.520    0.7794
   17.550    0.7731
   17.580    0.7731
   17.610    0.7696
   17.640    0.8400
   17.670    0.7883
   17.700    0.7642
   17.730    0.7553
   17.760    0.7589
   17.790    0.7330
   17.820    0.7901
   17.850    0.7776
   17.880    0.7607
   17.910    0.7223
   17.940    0.7651
   17.970    0.7375
   18.000    0.7615
   18.030    0.7714
   18.060    0.7437
   18.090    0.7250
   18.120    0.7722
   18.150    0.7812
   18.180    0.7517
   18.210    0.7072
   18.240    0.7526
   18.270    0.7366
   18.300    0.7161
   18.330    0.7187
   18.360    0.7954
   18.390    0.7491
   18.420    0.7339
   18.450    0.7651
   18.480    0.7535
   18.510    0.7624
   18.540    0.7286
   18.570    0.7785
   18.600    0.7205
   18.630    0.7517
   18.660    0.7544
   18.690    0.7535
   18.720    0.7776
   18.750    0.7847
   18.780    0.7821
   18.810    0.8329
   18.840    0.7740
   18.870    0.7981
   18.900    0.7758
   18.930    0.7669
   18.960    0.8017
   18.990    0.7152
   19.020    0.7366
   19.050    0.7517
   19.080    0.7642
   19.110    0.7535
   19.140    0.7303
   19.170    0.7428
   19.200    0.7366
   19.230    0.7812
   19.260    0.7348
   19.290    0.7580
   19.320    0.7874
   19.350    0.7705
   19.380    0.8097
   19.410    0.7589
   19.440    0.7223
   19.470    0.7963
   19.500    0.7357
   19.530    0.7482
   19.560    0.7401
   19.590    0.7294
   19.620    0.7705
   19.650    0.7196
   19.680    0.7419
   19.710    0.7500
   19.740    0.6947
   19.770    0.7856
   19.800    0.7776
   19.830    0.8008
   19.860    0.8088
   19.890    0.8347
   19.920    0.8498
   19.950    0.7722
   19.980    0.7268
   20.010    0.7072
   20.040    0.7384
   20.070    0.7428
   20.100    0.7589
   20.130    0.7580
   20.160    0.6947
   20.190    0.7455
   20.220    0.6831
   20.250    0.7437
   20.280    0.7179
   20.310    0.7294
   20.340    0.7776
   20.370    0.7366
   20.400    0.7500
   20.430    0.7981
   20.460    0.7535
   20.490    0.7428
   20.520    0.7419
   20.550    0.7348
   20.580    0.7473
   20.610    0.7384
   20.640    0.7348
   20.670    0.7562
   20.700    0.7428
   20.730    0.7089
   20.760    0.6902
   20.790    0.6866
   20.820    0.7116
   20.850    0.7161
   20.880    0.7553
   20.910    0.7250
   20.940    0.7607
   20.970    0.7517
   21.000    0.7705
   21.030    0.7080
   21.060    0.7473
   21.090    0.7116
   21.120    0.7072
   21.150    0.7428
   21.180    0.7232
   21.210    0.7089
   21.240    0.7553
   21.270    0.7776
   21.300    0.7303
   21.330    0.7250
   21.360    0.7393
   21.390    0.7491
   21.420    0.7571
   21.450    0.7482
   21.480    0.7348
   21.510    0.7152
   21.540    0.7357
   21.570    0.7517
   21.600    0.7000
   21.630    0.6929
   21.660    0.7187
   21.690    0.7205
   21.720    0.7214
   21.750    0.7731
   21.780    0.7393
   21.810    0.7286
   21.840    0.7393
   21.870    0.7321
   21.900    0.7161
   21.930    0.7009
   21.960    0.7036
   21.990    0.7580
   22.020    0.7170
   22.050    0.7464
   22.080    0.7446
   22.110    0.8596
   22.140    0.9800
   22.170    0.7749
   22.200    0.7482
   22.230    0.7152
   22.260    0.6866
   22.290    0.6965
   22.320    0.7000
   22.350    0.7303
   22.380    0.6956
   22.410    0.7116
   22.440    0.7651
   22.470    0.7054
   22.500    0.6849
   22.530    0.6947
   22.560    0.7446
   22.590    0.7187
   22.620    0.7036
   22.650    0.7116
   22.680    0.7125
   22.710    0.7179
   22.740    0.7089
   22.770    0.6991
   22.800    0.7134
   22.830    0.6973
   22.860    0.7696
   22.890    0.7286
   22.920    0.6724
   22.950    0.6929
   22.980    0.6679
   23.010    0.6724
   23.040    0.7098
   23.070    0.7125
   23.100    0.6590
   23.130    0.6563
   23.160    0.7054
   23.190    0.6813
   23.220    0.7214
   23.250    0.6831
   23.280    0.6893
   23.310    0.6866
   23.340    0.6661
   23.370    0.6840
   23.400    0.6911
   23.430    0.6706
   23.460    0.6991
   23.490    0.6849
   23.520    0.6679
   23.550    0.6804
   23.580    0.7018
   23.610    0.6866
   23.640    0.6804
   23.670    0.6938
   23.700    0.6572
   23.730    0.6973
   23.760    0.7214
   23.790    0.7910
   23.820    0.7072
   23.850    0.6554
   23.880    0.7161
   23.910    0.6617
   23.940    0.6367
   23.970    0.6635
   24.000    0.6135
   24.030    0.6296
   24.060    0.6697
   24.090    0.6688
   24.120    0.6786
   24.150    0.6519
   24.180    0.6314
   24.210    0.6688
   24.240    0.6572
   24.270    0.6706
   24.300    0.6412
   24.330    0.6617
   24.360    0.6715
   24.390    0.6501
   24.420    0.6554
   24.450    0.6403
   24.480    0.6456
   24.510    0.6599
   24.540    0.6733
   24.570    0.6643
   24.600    0.6786
   24.630    0.6724
   24.660    0.6750
   24.690    0.6322
   24.720    0.6198
   24.750    0.6545
   24.780    0.6474
   24.810    0.6536
   24.840    0.6608
   24.870    0.6733
   24.900    0.6376
   24.930    0.6590
   24.960    0.6340
   24.990    0.6287
   25.020    0.6724
   25.050    0.6385
   25.080    0.6715
   25.110    0.6474
   25.140    0.6483
   25.170    0.6608
   25.200    0.6403
   25.230    0.6572
   25.260    0.6831
   25.290    0.6652
   25.320    0.6626
   25.350    0.6956
   25.380    0.6224
   25.410    0.6965
   25.440    0.6786
   25.470    0.6929
   25.500    0.6697
   25.530    0.6991
   25.560    0.6724
   25.590    0.6429
   25.620    0.6019
   25.650    0.6474
   25.680    0.6394
   25.710    0.6376
   25.740    0.6287
   25.770    0.6305
   25.800    0.6055
   25.830    0.6367
   25.860    0.6376
   25.890    0.6349
   25.920    0.6697
   25.950    0.6554
   25.980    0.6037
   26.010    0.6438
   26.040    0.6421
   26.070    0.6242
   26.100    0.5930
   26.130    0.5770
   26.160    0.5859
   26.190    0.5743
   26.220    0.6242
   26.250    0.6438
   26.280    0.6635
   26.310    0.6724
   26.340    0.8293
   26.370    0.7241
   26.400    0.6536
   26.430    0.5984
   26.460    0.6010
   26.490    0.6278
   26.520    0.6064
   26.550    0.6064
   26.580    0.6287
   26.610    0.5859
   26.640    0.6242
   26.670    0.6296
   26.700    0.6661
   26.730    0.7187
   26.760    0.7321
   26.790    0.6501
   26.820    0.6314
   26.850    0.5787
   26.880    0.6010
   26.910    0.6019
   26.940    0.6100
   26.970    0.6786
   27.000    0.6536
   27.030    0.6126
   27.060    0.6064
   27.090    0.5841
   27.120    0.6331
   27.150    0.6626
   27.180    0.5984
   27.210    0.5823
   27.240    0.5930
   27.270    0.5778
   27.300    0.5805
   27.330    0.5805
   27.360    0.5716
   27.390    0.5823
   27.420    0.5725
   27.450    0.5671
   27.480    0.6046
   27.510    0.6135
   27.540    0.5984
   27.570    0.5671
   27.600    0.5752
   27.630    0.5671
   27.660    0.5752
   27.690    0.5761
   27.720    0.6144
   27.750    0.5413
   27.780    0.5823
   27.810    0.5868
   27.840    0.5707
   27.870    0.5796
   27.900    0.5850
   27.930    0.6171
   27.960    0.5957
   27.990    0.5689
   28.020    0.5422
   28.050    0.6001
   28.080    0.5770
   28.110    0.5475
   28.140    0.5654
   28.170    0.5449
   28.200    0.5645
   28.230    0.5671
   28.260    0.5645
   28.290    0.5538
   28.320    0.6073
   28.350    0.5297
   28.380    0.5556
   28.410    0.5547
   28.440    0.5770
   28.470    0.5493
   28.500    0.5395
   28.530    0.5618
   28.560    0.5386
   28.590    0.5252
   28.620    0.5493
   28.650    0.5484
   28.680    0.5547
   28.710    0.5484
   28.740    0.5431
   28.770    0.5582
   28.800    0.5297
   28.830    0.5342
   28.860    0.5297
   28.890    0.5511
   28.920    0.5627
   28.950    0.5386
   28.980    0.5475
   29.010    0.5333
   29.040    0.5618
   29.070    0.5770
   29.100    0.5529
   29.130    0.4949
   29.160    0.5172
   29.190    0.5333
   29.220    0.5261
   29.250    0.5377
   29.280    0.5609
   29.310    0.5270
   29.340    0.5226
   29.370    0.5395
   29.400    0.5564
   29.430    0.5359
   29.460    0.5680
   29.490    0.5395
   29.520    0.5395
   29.550    0.5029
   29.580    0.5359
   29.610    0.5145
   29.640    0.5128
   29.670    0.5573
   29.700    0.5217
   29.730    0.5235
   29.760    0.6536
   29.790    0.6251
   29.820    0.5324
   29.850    0.5422
   29.880    0.5074
   29.910    0.5029
   29.940    0.4985
   29.970    0.5235
   30.000    0.5359
   30.030    0.5092
   30.060    0.5199
   30.090    0.5422
   30.120    0.5698
   30.150    0.6528
   30.180    0.6465
   30.210    0.5422
   30.240    0.5235
   30.270    0.5235
   30.300    0.4664
   30.330    0.5029
   30.360    0.5163
   30.390    0.5154
   30.420    0.5163
   30.450    0.5377
   30.480    0.4967
   30.510    0.5012
   30.540    0.5021
   30.570    0.5252
   30.600    0.5154
   30.630    0.5065
   30.660    0.5208
   30.690    0.5136
   30.720    0.5074
   30.750    0.5092
   30.780    0.5145
   30.810    0.5449
   30.840    0.5484
   30.870    0.5199
   30.900    0.5654
   30.930    0.4905
   30.960    0.5021
   30.990    0.5199
   31.020    0.4673
   31.050    0.5163
   31.080    0.5172
   31.110    0.5038
   31.140    0.4477
   31.170    0.4691
   31.200    0.4940
   31.230    0.4691
   31.260    0.5012
   31.290    0.4726
   31.320    0.4717
   31.350    0.4914
   31.380    0.4833
   31.410    0.4931
   31.440    0.4619
   31.470    0.4530
   31.500    0.4949
   31.530    0.4878
   31.560    0.5413
   31.590    0.5199
   31.620    0.4512
   31.650    0.5128
   31.680    0.4682
   31.710    0.4592
   31.740    0.4396
   31.770    0.4815
   31.800    0.4940
   31.830    0.4682
   31.860    0.4798
   31.890    0.4405
   31.920    0.4976
   31.950    0.4851
   31.980    0.4459
   32.010    0.4557
   32.040    0.4468
   32.070    0.4557
   32.100    0.4325
   32.130    0.4717
   32.160    0.4450
   32.190    0.4708
   32.220    0.5038
   32.250    0.4922
   32.280    0.4896
   32.310    0.4361
   32.340    0.4307
   32.370    0.4521
   32.400    0.4584
   32.430    0.4646
   32.460    0.4726
   32.490    0.4325
   32.520    0.4218
   32.550    0.4637
   32.580    0.4664
   32.610    0.4869
   32.640    0.4985
   32.670    0.5877
   32.700    0.6019
   32.730    0.4477
   32.760    0.4370
   32.790    0.4414
   32.820    0.4485
   32.850    0.4138
   32.880    0.4753
   32.910    0.5012
   32.940    0.5136
   32.970    0.4396
   33.000    0.4325
   33.030    0.4387
   33.060    0.4289
   33.090    0.4432
   33.120    0.4370
   33.150    0.4227
   33.180    0.4699
   33.210    0.4414
   33.240    0.4592
   33.270    0.4762
   33.300    0.4316
   33.330    0.4423
   33.360    0.4325
   33.390    0.4450
   33.420    0.4325
   33.450    0.4378
   33.480    0.4173
   33.510    0.4387
   33.540    0.4361
   33.570    0.4592
   33.600    0.4396
   33.630    0.4691
   33.660    0.4271
   33.690    0.4485
   33.720    0.4423
   33.750    0.4405
   33.780    0.5119
   33.810    0.6278
   33.840    0.5359
   33.870    0.4592
   33.900    0.4628
   33.930    0.4441
   33.960    0.4236
   33.990    0.4191
   34.020    0.4209
   34.050    0.4459
   34.080    0.4156
   34.110    0.4084
   34.140    0.4066
   34.170    0.4370
   34.200    0.4289
   34.230    0.4459
   34.260    0.4316
   34.290    0.4263
   34.320    0.4396
   34.350    0.3986
   34.380    0.3888
   34.410    0.3781
   34.440    0.3906
   34.470    0.3665
   34.500    0.4111
   34.530    0.3790
   34.560    0.3647
   34.590    0.3496
   34.620    0.3879
   34.650    0.3808
   34.680    0.3834
   34.710    0.3968
   34.740    0.3727
   34.770    0.3727
   34.800    0.3540
   34.830    0.3995
   34.860    0.3781
   34.890    0.4040
   34.920    0.3647
   34.950    0.3727
   34.980    0.3469
   35.010    0.3799
   35.040    0.3683
   35.070    0.3513
   35.100    0.3442
   35.130    0.3344
   35.160    0.3817
   35.190    0.3879
   35.220    0.3906
   35.250    0.3727
   35.280    0.3647
   35.310    0.3683
   35.340    0.3487
   35.370    0.3665
   35.400    0.3487
   35.430    0.3772
   35.460    0.3442
   35.490    0.3665
   35.520    0.3549
   35.550    0.3674
   35.580    0.3540
   35.610    0.3406
   35.640    0.3201
   35.670    0.3620
   35.700    0.3460
   35.730    0.3710
   35.760    0.3683
   35.790    0.3460
   35.820    0.3656
   35.850    0.3353
   35.880    0.3603
   35.910    0.3594
   35.940    0.3469
   35.970    0.3558
   36.000    0.3389
   36.030    0.3362
   36.060    0.3620
   36.090    0.3380
   36.120    0.3317
   36.150    0.3219
   36.180    0.3335
   36.210    0.3184
   36.240    0.3398
   36.270    0.3157
   36.300    0.3424
   36.330    0.3085
   36.360    0.3184
   36.390    0.3121
   36.420    0.3282
   36.450    0.3237
   36.480    0.3228
   36.510    0.3273
   36.540    0.3175
   36.570    0.3353
   36.600    0.3487
   36.630    0.3166
   36.660    0.3264
   36.690    0.3237
   36.720    0.3540
   36.750    0.3094
   36.780    0.3201
   36.810    0.3389
   36.840    0.3175
   36.870    0.3103
   36.900    0.3513
   36.930    0.3112
   36.960    0.3353
   36.990    0.3077
   37.020    0.3424
   37.050    0.3282
   37.080    0.3130
   37.110    0.3576
   37.140    0.4111
   37.170    0.4049
   37.200    0.3487
   37.230    0.3219
   37.260    0.3059
   37.290    0.3246
   37.320    0.3299
   37.350    0.3032
   37.380    0.3023
   37.410    0.3005
   37.440    0.3540
   37.470    0.4949
   37.500    0.7865
   37.530    0.5145
   37.560    0.3513
   37.590    0.3620
   37.620    0.3166
   37.650    0.3103
   37.680    0.2898
   37.710    0.2943
   37.740    0.2996
   37.770    0.2809
   37.800    0.3398
   37.830    0.2898
   37.860    0.2996
   37.890    0.2952
   37.920    0.2738
   37.950    0.2880
   37.980    0.2880
   38.010    0.3023
   38.040    0.2755
   38.070    0.2809
   38.100    0.3068
   38.130    0.2889
   38.160    0.2755
   38.190    0.2791
   38.220    0.2862
   38.250    0.2800
   38.280    0.2747
   38.310    0.2854
   38.340    0.2961
   38.370    0.2898
   38.400    0.2880
   38.430    0.2738
   38.460    0.2925
   38.490    0.2925
   38.520    0.3005
   38.550    0.2871
   38.580    0.2764
   38.610    0.2720
   38.640    0.2889
   38.670    0.2925
   38.700    0.2666
   38.730    0.2782
   38.760    0.2880
   38.790    0.2729
   38.820    0.2916
   38.850    0.2836
   38.880    0.2720
   38.910    0.2773
   38.940    0.2755
   38.970    0.2827
   39.000    0.2693
   39.030    0.2595
   39.060    0.2559
   39.090    0.2764
   39.120    0.2800
   39.150    0.2524
   39.180    0.2791
   39.210    0.2925
   39.240    0.2818
   39.270    0.2506
   39.300    0.2586
   39.330    0.2613
   39.360    0.2657
   39.390    0.2479
   39.420    0.2747
   39.450    0.2791
   39.480    0.3032
   39.510    0.3415
   39.540    0.3942
   39.570    0.3594
   39.600    0.2818
   39.630    0.2880
   39.660    0.2836
   39.690    0.3068
   39.720    0.3273
   39.750    0.2782
   39.780    0.2809
   39.810    0.2657
   39.840    0.2434
   39.870    0.2666
   39.900    0.2622
   39.930    0.2622
   39.960    0.2568
   39.990    0.2657