File: data/PXRD/PXRD_KE-210_Co-Ka1_film-3mm_5s-deg.xyd
    1.500    4.1627
    1.530    3.9272
    1.560    4.3553
    1.590    3.8951
    1.620    3.7239
    1.650    3.4671
    1.680    3.5420
    1.710    3.2638
    1.740    3.3173
    1.770    3.1996
    1.800    3.1889
    1.830    3.1461
    1.860    3.5741
    1.890    2.8678
    1.920    3.0498
    1.950    3.0926
    1.980    3.1889
    2.010    2.6645
    2.040    2.5361
    2.070    2.6859
    2.100    2.9856
    2.130    2.4505
    2.160    2.7394
    2.190    2.4826
    2.220    2.3649
    2.250    2.4077
    2.280    2.4612
    2.310    2.3756
    2.340    2.3863
    2.370    2.4398
    2.400    2.4077
    2.430    2.1509
    2.460    2.3970
    2.490    2.1295
    2.520    2.3328
    2.550    2.3542
    2.580    2.1402
    2.610    2.1616
    2.640    1.9904
    2.670    2.2258
    2.700    2.1616
    2.730    2.0118
    2.760    2.0653
    2.790    2.1616
    2.820    2.0546
    2.850    1.8620
    2.880    1.9048
    2.910    2.0011
    2.940    2.0439
    2.970    1.7657
    3.000    1.8299
    3.030    1.8727
    3.060    1.7764
    3.090    1.9048
    3.120    2.0439
    3.150    2.0867
    3.180    1.6800
    3.210    2.0974
    3.240    2.0439
    3.270    1.6479
    3.300    2.0867
    3.330    1.7978
    3.360    1.9155
    3.390    1.8941
    3.420    1.6586
    3.450    1.9262
    3.480    1.9904
    3.510    2.0011
    3.540    1.7871
    3.570    2.0118
    3.600    1.9797
    3.630    2.0546
    3.660    1.6051
    3.690    2.3756
    3.720    2.2900
    3.750    2.1616
    3.780    2.1188
    3.810    2.3542
    3.840    2.3114
    3.870    2.6752
    3.900    2.9535
    3.930    3.0819
    3.960    3.2424
    3.990    3.5313
    4.020    3.7239
    4.050    3.9379
    4.080    3.7453
    4.110    3.7881
    4.140    3.2638
    4.170    3.0177
    4.200    3.0712
    4.230    3.0498
    4.260    3.5955
    4.290    3.5741
    4.320    4.0770
    4.350    4.8903
    4.380    5.3398
    4.410    6.3242
    4.440    8.5179
    4.470   10.9042
    4.500   15.9444
    4.530   12.7983
    4.560    3.3601
    4.590    2.5789
    4.620    2.4398
    4.650    2.3970
    4.680    2.1081
    4.710    2.3542
    4.740    2.1937
    4.770    2.1402
    4.800    2.2793
    4.830    2.3007
    4.860    2.0439
    4.890    2.3007
    4.920    2.4077
    4.950    2.0011
    4.980    1.9262
    5.010    1.8620
    5.040    1.7871
    5.070    1.8620
    5.100    1.9904
    5.130    1.8941
    5.160    1.6158
    5.190    1.6158
    5.220    1.8192
    5.250    1.7335
    5.280    1.7442
    5.310    1.7978
    5.340    1.7657
    5.370    1.5516
    5.400    1.5944
    5.430    1.6800
    5.460    1.4874
    5.490    1.6051
    5.520    1.6372
    5.550    1.5837
    5.580    1.6479
    5.610    1.6265
    5.640    1.5730
    5.670    1.6907
    5.700    1.6372
    5.730    1.6800
    5.760    1.7549
    5.790    1.7442
    5.820    1.5623
    5.850    1.6800
    5.880    1.7228
    5.910    1.7442
    5.940    1.9048
    5.970    2.1295
    6.000    1.8299
    6.030    2.0332
    6.060    1.9048
    6.090    2.0974
    6.120    2.3542
    6.150    2.1295
    6.180    2.3863
    6.210    2.5575
    6.240    2.9963
    6.270    2.8785
    6.300    3.9379
    6.330    4.4302
    6.360    5.3612
    6.390    7.7796
    6.420    3.8951
    6.450    2.2044
    6.480    2.3649
    6.510    2.2151
    6.540    2.2151
    6.570    2.0867
    6.600    1.9797
    6.630    1.9583
    6.660    2.0118
    6.690    2.0011
    6.720    2.0118
    6.750    1.7978
    6.780    2.0332
    6.810    1.9583
    6.840    1.7978
    6.870    1.7335
    6.900    2.0011
    6.930    1.7764
    6.960    1.8727
    6.990    1.7657
    7.020    1.5623
    7.050    1.7657
    7.080    1.6800
    7.110    1.5944
    7.140    1.3590
    7.170    1.6693
    7.200    1.3590
    7.230    1.4981
    7.260    1.5516
    7.290    1.5730
    7.320    1.5623
    7.350    1.4767
    7.380    1.5730
    7.410    1.4446
    7.440    1.6051
    7.470    1.4339
    7.500    1.6693
    7.530    1.4339
    7.560    1.4553
    7.590    1.5944
    7.620    1.5516
    7.650    1.4660
    7.680    1.4446
    7.710    1.7549
    7.740    1.7549
    7.770    2.1830
    7.800    2.5361
    7.830    2.8357
    7.860    2.1830
    7.890    1.4981
    7.920    1.2413
    7.950    1.4553
    7.980    1.2734
    8.010    1.4981
    8.040    1.3911
    8.070    1.6800
    8.100    1.5623
    8.130    1.5516
    8.160    1.4553
    8.190    1.2199
    8.220    1.4232
    8.250    1.2841
    8.280    1.3804
    8.310    1.2948
    8.340    1.2306
    8.370    1.1450
    8.400    1.2199
    8.430    1.2092
    8.460    1.2092
    8.490    1.1771
    8.520    1.1771
    8.550    1.4018
    8.580    1.0915
    8.610    1.1343
    8.640    1.1343
    8.670    1.2092
    8.700    1.1557
    8.730    1.1236
    8.760    1.0915
    8.790    1.1343
    8.820    1.0594
    8.850    1.1664
    8.880    1.2520
    8.910    1.2627
    8.940    1.2948
    8.970    1.2734
    9.000    1.6372
    9.030    1.9904
    9.060    1.9262
    9.090    1.4232
    9.120    1.1450
    9.150    1.0594
    9.180    1.1343
    9.210    1.0915
    9.240    1.0487
    9.270    1.1236
    9.300    1.0059
    9.330    1.1022
    9.360    1.0808
    9.390    1.1664
    9.420    0.8240
    9.450    0.9738
    9.480    1.0808
    9.510    1.0380
    9.540    1.1450
    9.570    0.9524
    9.600    1.0273
    9.630    1.1022
    9.660    1.0915
    9.690    1.0273
    9.720    0.9738
    9.750    0.9952
    9.780    1.0273
    9.810    0.9845
    9.840    1.0273
    9.870    1.1022
    9.900    0.8026
    9.930    0.9631
    9.960    1.0380
    9.990    0.8668
   10.020    0.9524
   10.050    1.0487
   10.080    1.1022
   10.110    1.1022
   10.140    1.1129
   10.170    0.9738
   10.200    1.0915
   10.230    0.9631
   10.260    0.9738
   10.290    0.7812
   10.320    0.7491
   10.350    1.0166
   10.380    0.9417
   10.410    0.8454
   10.440    0.9845
   10.470    0.8561
   10.500    1.0594
   10.530    0.8668
   10.560    0.9310
   10.590    0.7277
   10.620    0.7384
   10.650    1.0166
   10.680    0.7919
   10.710    0.9952
   10.740    0.7919
   10.770    1.0701
   10.800    0.8882
   10.830    0.8989
   10.860    0.8668
   10.890    1.0380
   10.920    0.9524
   10.950    1.1557
   10.980    1.2948
   11.010    1.3590
   11.040    1.6693
   11.070    2.5789
   11.100    2.8892
   11.130    1.3483
   11.160    0.9524
   11.190    0.9631
   11.220    0.9952
   11.250    0.9524
   11.280    0.7919
   11.310    0.8026
   11.340    1.0059
   11.370    0.8882
   11.400    0.9738
   11.430    0.9845
   11.460    0.7812
   11.490    0.9417
   11.520    0.8989
   11.550    0.9631
   11.580    0.8775
   11.610    0.8026
   11.640    0.8882
   11.670    0.8989
   11.700    0.8026
   11.730    0.9310
   11.760    0.9096
   11.790    0.9952
   11.820    0.9417
   11.850    1.0273
   11.880    0.8989
   11.910    0.8775
   11.940    1.1664
   11.970    1.4125
   12.000    1.4767
   12.030    0.9524
   12.060    1.0915
   12.090    1.0273
   12.120    0.7705
   12.150    0.8989
   12.180    0.9096
   12.210    0.9845
   12.240    0.9417
   12.270    0.9845
   12.300    0.9310
   12.330    0.9310
   12.360    1.0701
   12.390    0.8989
   12.420    0.8668
   12.450    0.9310
   12.480    0.9524
   12.510    0.7919
   12.540    0.8133
   12.570    1.0808
   12.600    0.9524
   12.630    1.0487
   12.660    0.8026
   12.690    1.1129
   12.720    1.1450
   12.750    1.1022
   12.780    1.1878
   12.810    1.4981
   12.840    1.3269
   12.870    1.1450
   12.900    0.8882
   12.930    0.8133
   12.960    1.1129
   12.990    0.9631
   13.020    0.8989
   13.050    1.0380
   13.080    0.9096
   13.110    0.9203
   13.140    1.0059
   13.170    0.8668
   13.200    0.9845
   13.230    0.8561
   13.260    1.0273
   13.290    0.9738
   13.320    0.8561
   13.350    0.9738
   13.380    1.0594
   13.410    0.8989
   13.440    0.9417
   13.470    1.0059
   13.500    1.0273
   13.530    1.0808
   13.560    1.4125
   13.590    1.5730
   13.620    1.4660
   13.650    0.9096
   13.680    0.8775
   13.710    0.8240
   13.740    1.0487
   13.770    0.9096
   13.800    0.8775
   13.830    0.9310
   13.860    0.9524
   13.890    0.8882
   13.920    0.8561
   13.950    0.9417
   13.980    0.9524
   14.010    0.8882
   14.040    0.8989
   14.070    0.7277
   14.100    0.7277
   14.130    0.8882
   14.160    0.7919
   14.190    0.7919
   14.220    1.0166
   14.250    0.8561
   14.280    0.8454
   14.310    0.8347
   14.340    0.9631
   14.370    0.9631
   14.400    0.9417
   14.430    0.8668
   14.460    0.9631
   14.490    0.9417
   14.520    0.9738
   14.550    0.8775
   14.580    0.8454
   14.610    1.0273
   14.640    0.8026
   14.670    0.9738
   14.700    0.7919
   14.730    0.7491
   14.760    0.8561
   14.790    0.9738
   14.820    0.8775
   14.850    0.9417
   14.880    0.9310
   14.910    0.7491
   14.940    0.9845
   14.970    0.9952
   15.000    1.2841
   15.030    1.2092
   15.060    1.3697
   15.090    1.1022
   15.120    0.9203
   15.150    0.7705
   15.180    0.8454
   15.210    0.6956
   15.240    0.9096
   15.270    0.8240
   15.300    0.8133
   15.330    0.8347
   15.360    0.9631
   15.390    0.8775
   15.420    0.8133
   15.450    0.9738
   15.480    0.8561
   15.510    0.8668
   15.540    0.9417
   15.570    0.8026
   15.600    0.8989
   15.630    0.9096
   15.660    0.8240
   15.690    1.1236
   15.720    1.3055
   15.750    0.8989
   15.780    0.8347
   15.810    0.7598
   15.840    0.7705
   15.870    0.9524
   15.900    0.8989
   15.930    0.8668
   15.960    0.8668
   15.990    0.9096
   16.020    0.7812
   16.050    0.8882
   16.080    0.9310
   16.110    0.8347
   16.140    0.8989
   16.170    0.9310
   16.200    0.9631
   16.230    0.9096
   16.260    0.9203
   16.290    1.0808
   16.320    1.0915
   16.350    1.2627
   16.380    1.2841
   16.410    1.0808
   16.440    1.0915
   16.470    0.8561
   16.500    0.8882
   16.530    0.9203
   16.560    0.9417
   16.590    0.9952
   16.620    0.9631
   16.650    1.0273
   16.680    1.0166
   16.710    0.8454
   16.740    0.8561
   16.770    0.9417
   16.800    0.9952
   16.830    0.9524
   16.860    1.1343
   16.890    1.0380
   16.920    0.7919
   16.950    0.9952
   16.980    1.0380
   17.010    0.8989
   17.040    0.8668
   17.070    0.7812
   17.100    1.0487
   17.130    0.9310
   17.160    0.9524
   17.190    0.8989
   17.220    1.0594
   17.250    0.7919
   17.280    0.9524
   17.310    1.0166
   17.340    0.8240
   17.370    0.6421
   17.400    0.8133
   17.430    0.7812
   17.460    0.8347
   17.490    0.8347
   17.520    0.9203
   17.550    0.9310
   17.580    0.9096
   17.610    1.0487
   17.640    0.8882
   17.670    0.8133
   17.700    0.9524
   17.730    0.8133
   17.760    0.8133
   17.790    0.9417
   17.820    0.7384
   17.850    0.7919
   17.880    0.9738
   17.910    0.7384
   17.940    0.9631
   17.970    0.8454
   18.000    0.8668
   18.030    0.7812
   18.060    0.8240
   18.090    0.9631
   18.120    0.8026
   18.150    0.8882
   18.180    0.7170
   18.210    0.8347
   18.240    0.9952
   18.270    0.8668
   18.300    0.7919
   18.330    0.6956
   18.360    0.7919
   18.390    0.8454
   18.420    0.8026
   18.450    0.7491
   18.480    0.8882
   18.510    0.8561
   18.540    0.8347
   18.570    0.9417
   18.600    0.9845
   18.630    0.8240
   18.660    0.7812
   18.690    0.7812
   18.720    0.9096
   18.750    0.9096
   18.780    0.9417
   18.810    0.9631
   18.840    0.8882
   18.870    0.7170
   18.900    0.9524
   18.930    0.8668
   18.960    0.9203
   18.990    0.8989
   19.020    0.8347
   19.050    0.8775
   19.080    0.8561
   19.110    0.7812
   19.140    0.8989
   19.170    0.8240
   19.200    0.9738
   19.230    0.8561
   19.260    1.1343
   19.290    0.7705
   19.320    0.8775
   19.350    0.8668
   19.380    0.8775
   19.410    0.8454
   19.440    0.9524
   19.470    0.7705
   19.500    0.8347
   19.530    0.9845
   19.560    0.8882
   19.590    0.7277
   19.620    0.6742
   19.650    0.8133
   19.680    0.7384
   19.710    0.7812
   19.740    0.8026
   19.770    0.7919
   19.800    1.0915
   19.830    1.1450
   19.860    0.9952
   19.890    0.6849
   19.920    0.7812
   19.950    0.8347
   19.980    0.6742
   20.010    0.7491
   20.040    0.7598
   20.070    0.8561
   20.100    0.9631
   20.130    0.7277
   20.160    0.7705
   20.190    0.8454
   20.220    0.8668
   20.250    0.8347
   20.280    0.8026
   20.310    0.9524
   20.340    0.9524
   20.370    0.8668
   20.400    0.7170
   20.430    0.7063
   20.460    0.7812
   20.490    0.7491
   20.520    0.7919
   20.550    0.9096
   20.580    0.7812
   20.610    0.7812
   20.640    0.8882
   20.670    0.8882
   20.700    0.8240
   20.730    0.9096
   20.760    0.8026
   20.790    0.9524
   20.820    0.9417
   20.850    0.8454
   20.880    0.9738
   20.910    0.7491
   20.940    0.8454
   20.970    0.8989
   21.000    0.6956
   21.030    0.8561
   21.060    0.8240
   21.090    0.8240
   21.120    0.8347
   21.150    0.8775
   21.180    0.8026
   21.210    0.6528
   21.240    0.8347
   21.270    0.8775
   21.300    0.8668
   21.330    0.9417
   21.360    1.0701
   21.390    0.8240
   21.420    0.7491
   21.450    0.7491
   21.480    0.8240
   21.510    0.8882
   21.540    0.7063
   21.570    1.0166
   21.600    0.7063
   21.630    0.8454
   21.660    0.8775
   21.690    0.7812
   21.720    0.8561
   21.750    0.8561
   21.780    0.7277
   21.810    0.7598
   21.840    1.0380
   21.870    0.9203
   21.900    0.7384
   21.930    0.7491
   21.960    0.7705
   21.990    0.8989
   22.020    0.9203
   22.050    0.8240
   22.080    0.8240
   22.110    0.8454
   22.140    0.7598
   22.170    0.7919
   22.200    0.8454
   22.230    0.8775
   22.260    0.6849
   22.290    0.7170
   22.320    0.8668
   22.350    0.7491
   22.380    0.9203
   22.410    0.9096
   22.440    0.5886
   22.470    0.8240
   22.500    0.7812
   22.530    0.7491
   22.560    0.8454
   22.590    0.7598
   22.620    0.7170
   22.650    0.6528
   22.680    0.8026
   22.710    0.6849
   22.740    0.7919
   22.770    0.8668
   22.800    0.6528
   22.830    0.8454
   22.860    0.7063
   22.890    0.6956
   22.920    0.7812
   22.950    0.7598
   22.980    0.8240
   23.010    0.6849
   23.040    0.7919
   23.070    0.8561
   23.100    0.7812
   23.130    0.7919
   23.160    0.6742
   23.190    0.7063
   23.220    0.7063
   23.250    0.7919
   23.280    0.6849
   23.310    0.6528
   23.340    0.7063
   23.370    0.6314
   23.400    0.7063
   23.430    0.8133
   23.460    0.8026
   23.490    0.7277
   23.520    0.6742
   23.550    0.7277
   23.580    0.7491
   23.610    0.7705
   23.640    0.7598
   23.670    1.0059
   23.700    0.8882
   23.730    0.9310
   23.760    0.7384
   23.790    0.8133
   23.820    0.7705
   23.850    0.6849
   23.880    0.6635
   23.910    0.6207
   23.940    0.7812
   23.970    0.5886
   24.000    0.6100
   24.030    0.6635
   24.060    0.7170
   24.090    0.7598
   24.120    0.7277
   24.150    0.6207
   24.180    0.7491
   24.210    0.7170
   24.240    0.7277
   24.270    0.8240
   24.300    0.7170
   24.330    0.7384
   24.360    0.8240
   24.390    0.6635
   24.420    0.8133
   24.450    0.7063
   24.480    0.7812
   24.510    0.7063
   24.540    0.7491
   24.570    0.6100
   24.600    0.7384
   24.630    0.7491
   24.660    0.7277
   24.690    0.6314
   24.720    0.7919
   24.750    0.5671
   24.780    0.6207
   24.810    0.6849
   24.840    0.7170
   24.870    0.6742
   24.900    0.6635
   24.930    0.7812
   24.960    0.7705
   24.990    0.6100
   25.020    0.6207
   25.050    0.6849
   25.080    0.6849
   25.110    0.7491
   25.140    0.8882
   25.170    0.7919
   25.200    0.6528
   25.230    0.6742
   25.260    0.5886
   25.290    0.6956
   25.320    0.6849
   25.350    0.7063
   25.380    0.7491
   25.410    0.7491
   25.440    0.8775
   25.470    0.7598
   25.500    0.6956
   25.530    0.6849
   25.560    0.8454
   25.590    0.6849
   25.620    0.8989
   25.650    0.7491
   25.680    0.6849
   25.710    0.6314
   25.740    0.6207
   25.770    0.6635
   25.800    0.6849
   25.830    0.6849
   25.860    0.7170
   25.890    0.7063
   25.920    0.6528
   25.950    0.8133
   25.980    0.5671
   26.010    0.6528
   26.040    0.7277
   26.070    0.6635
   26.100    0.6635
   26.130    0.5993
   26.160    0.6207
   26.190    0.7491
   26.220    0.8454
   26.250    0.8775
   26.280    0.8133
   26.310    0.6207
   26.340    0.4922
   26.370    0.6421
   26.400    0.6207
   26.430    0.5243
   26.460    0.4815
   26.490    0.5564
   26.520    0.7705
   26.550    0.5993
   26.580    0.7598
   26.610    0.7812
   26.640    0.7277
   26.670    0.6849
   26.700    0.6528
   26.730    0.6528
   26.760    0.6421
   26.790    0.7277
   26.820    0.6100
   26.850    0.6421
   26.880    0.7812
   26.910    0.6100
   26.940    0.5993
   26.970    0.4815
   27.000    0.6314
   27.030    0.6956
   27.060    0.7063
   27.090    0.6742
   27.120    0.6849
   27.150    0.7384
   27.180    0.5671
   27.210    0.5029
   27.240    0.5350
   27.270    0.6421
   27.300    0.5993
   27.330    0.4922
   27.360    0.7812
   27.390    0.5993
   27.420    0.5778
   27.450    0.7491
   27.480    0.6100
   27.510    0.5778
   27.540    0.5886
   27.570    0.6742
   27.600    0.6314
   27.630    0.5457
   27.660    0.7491
   27.690    0.6421
   27.720    0.5457
   27.750    0.6849
   27.780    0.6528
   27.810    0.6956
   27.840    0.6635
   27.870    0.6528
   27.900    0.5564
   27.930    0.5778
   27.960    0.5671
   27.990    0.5671
   28.020    0.5457
   28.050    0.5136
   28.080    0.6742
   28.110    0.6314
   28.140    0.5886
   28.170    0.4815
   28.200    0.6421
   28.230    0.7063
   28.260    0.5993
   28.290    0.4815
   28.320    0.5886
   28.350    0.5243
   28.380    0.4387
   28.410    0.5671
   28.440    0.6421
   28.470    0.5886
   28.500    0.6956
   28.530    0.4708
   28.560    0.4815
   28.590    0.4815
   28.620    0.4280
   28.650    0.5457
   28.680    0.7063
   28.710    0.5993
   28.740    0.6956
   28.770    0.6421
   28.800    0.5457
   28.830    0.6100
   28.860    0.5778
   28.890    0.5671
   28.920    0.5350
   28.950    0.6635
   28.980    0.5029
   29.010    0.6742
   29.040    0.6528
   29.070    0.5886
   29.100    0.4815
   29.130    0.4815
   29.160    0.5671
   29.190    0.5029
   29.220    0.5029
   29.250    0.5993
   29.280    0.5671
   29.310    0.5457
   29.340    0.5029
   29.370    0.3852
   29.400    0.4494
   29.430    0.5457
   29.460    0.5564
   29.490    0.4922
   29.520    0.4922
   29.550    0.5671
   29.580    0.6528
   29.610    0.6421
   29.640    0.4601
   29.670    0.6100
   29.700    0.6956
   29.730    0.5564
   29.760    0.6207
   29.790    0.5671
   29.820    0.4494
   29.850    0.4815
   29.880    0.5243
   29.910    0.5029
   29.940    0.5243
   29.970    0.6100
   30.000    0.6207
   30.030    0.6207
   30.060    0.5778
   30.090    0.4708
   30.120    0.6635
   30.150    0.5029
   30.180    0.4815
   30.210    0.4815
   30.240    0.5350
   30.270    0.5029
   30.300    0.5457
   30.330    0.6100
   30.360    0.4494
   30.390    0.4815
   30.420    0.6314
   30.450    0.5350
   30.480    0.4494
   30.510    0.6100
   30.540    0.4173
   30.570    0.4815
   30.600    0.5243
   30.630    0.4922
   30.660    0.4708
   30.690    0.5671
   30.720    0.5671
   30.750    0.6100
   30.780    0.5993
   30.810    0.5564
   30.840    0.4280
   30.870    0.4280
   30.900    0.5350
   30.930    0.5243
   30.960    0.6421
   30.990    0.5457
   31.020    0.4708
   31.050    0.4387
   31.080    0.4815
   31.110    0.4173
   31.140    0.4494
   31.170    0.4066
   31.200    0.4922
   31.230    0.5671
   31.260    0.5136
   31.290    0.4815
   31.320    0.5457
   31.350    0.4708
   31.380    0.6207
   31.410    0.6314
   31.440    0.4922
   31.470    0.5993
   31.500    0.5350
   31.530    0.4066
   31.560    0.5457
   31.590    0.4173
   31.620    0.5564
   31.650    0.5564
   31.680    0.4815
   31.710    0.4601
   31.740    0.5029
   31.770    0.4173
   31.800    0.4601
   31.830    0.4708
   31.860    0.4601
   31.890    0.4494
   31.920    0.5029
   31.950    0.5886
   31.980    0.4173
   32.010    0.5136
   32.040    0.6100
   32.070    0.5243
   32.100    0.6314
   32.130    0.4173
   32.160    0.4815
   32.190    0.5457
   32.220    0.4601
   32.250    0.4601
   32.280    0.4280
   32.310    0.5136
   32.340    0.5136
   32.370    0.4066
   32.400    0.5350
   32.430    0.5136
   32.460    0.4173
   32.490    0.5350
   32.520    0.5350
   32.550    0.4387
   32.580    0.4708
   32.610    0.5029
   32.640    0.4708
   32.670    0.5243
   32.700    0.4387
   32.730    0.5457
   32.760    0.5993
   32.790    0.5778
   32.820    0.4922
   32.850    0.5350
   32.880    0.3638
   32.910    0.3852
   32.940    0.4387
   32.970    0.4922
   33.000    0.4922
   33.030    0.4922
   33.060    0.4708
   33.090    0.3959
   33.120    0.4494
   33.150    0.4815
   33.180    0.5243
   33.210    0.4815
   33.240    0.5671
   33.270    0.3745
   33.300    0.3638
   33.330    0.3959
   33.360    0.5350
   33.390    0.4494
   33.420    0.4494
   33.450    0.5136
   33.480    0.4815
   33.510    0.3745
   33.540    0.3745
   33.570    0.4173
   33.600    0.5029
   33.630    0.4708
   33.660    0.4815
   33.690    0.5457
   33.720    0.4280
   33.750    0.3531
   33.780    0.5350
   33.810    0.4815
   33.840    0.4601
   33.870    0.5350
   33.900    0.4494
   33.930    0.3317
   33.960    0.4280
   33.990    0.4280
   34.020    0.4280
   34.050    0.5564
   34.080    0.3959
   34.110    0.3852
   34.140    0.6635
   34.170    0.3531
   34.200    0.4815
   34.230    0.4173
   34.260    0.4708
   34.290    0.3424
   34.320    0.3638
   34.350    0.5136
   34.380    0.4280
   34.410    0.3424
   34.440    0.4173
   34.470    0.3745
   34.500    0.3745
   34.530    0.2996
   34.560    0.4922
   34.590    0.3638
   34.620    0.3959
   34.650    0.3959
   34.680    0.4387
   34.710    0.4066
   34.740    0.4815
   34.770    0.5136
   34.800    0.4815
   34.830    0.3531
   34.860    0.4066
   34.890    0.4387
   34.920    0.3531
   34.950    0.4280
   34.980    0.3745
   35.010    0.3531
   35.040    0.4601
   35.070    0.4066
   35.100    0.4173
   35.130    0.3745
   35.160    0.3531
   35.190    0.3638
   35.220    0.3852
   35.250    0.3852
   35.280    0.3959
   35.310    0.4708
   35.340    0.3103
   35.370    0.4280
   35.400    0.3103
   35.430    0.3424
   35.460    0.4815
   35.490    0.3317
   35.520    0.3210
   35.550    0.3745
   35.580    0.4815
   35.610    0.3959
   35.640    0.3317
   35.670    0.3852
   35.700    0.3638
   35.730    0.3531
   35.760    0.4494
   35.790    0.3638
   35.820    0.2782
   35.850    0.3210
   35.880    0.4708
   35.910    0.2354
   35.940    0.3317
   35.970    0.3210
   36.000    0.3317
   36.030    0.3210
   36.060    0.3959
   36.090    0.2354
   36.120    0.4708
   36.150    0.3531
   36.180    0.3959
   36.210    0.2568
   36.240    0.2782
   36.270    0.3638
   36.300    0.3531
   36.330    0.4066
   36.360    0.3745
   36.390    0.3210
   36.420    0.2247
   36.450    0.3531
   36.480    0.3103
   36.510    0.4494
   36.540    0.3638
   36.570    0.3103
   36.600    0.3103
   36.630    0.3745
   36.660    0.2996
   36.690    0.3103
   36.720    0.2675
   36.750    0.3103
   36.780    0.3317
   36.810    0.2675
   36.840    0.3531
   36.870    0.2675
   36.900    0.2996
   36.930    0.3745
   36.960    0.3210
   36.990    0.3959
   37.020    0.3424
   37.050    0.3745
   37.080    0.3638
   37.110    0.3103
   37.140    0.4601
   37.170    0.3531
   37.200    0.3531
   37.230    0.2889
   37.260    0.4280
   37.290    0.3317
   37.320    0.3210
   37.350    0.2033
   37.380    0.3638
   37.410    0.4280
   37.440    0.3210
   37.470    0.3531
   37.500    0.3852
   37.530    0.2675
   37.560    0.3210
   37.590    0.3103
   37.620    0.3103
   37.650    0.2889
   37.680    0.2568
   37.710    0.3424
   37.740    0.3745
   37.770    0.3745
   37.800    0.2782
   37.830    0.2461
   37.860    0.3638
   37.890    0.3424
   37.920    0.2996
   37.950    0.2889
   37.980    0.2568
   38.010    0.2782
   38.040    0.2889
   38.070    0.3852
   38.100    0.3638
   38.130    0.2461
   38.160    0.2782
   38.190    0.2461
   38.220    0.2996
   38.250    0.2675
   38.280    0.2140
   38.310    0.2782
   38.340    0.2996
   38.370    0.3424
   38.400    0.3638
   38.430    0.2782
   38.460    0.3103
   38.490    0.2354
   38.520    0.3103
   38.550    0.3317
   38.580    0.4601
   38.610    0.2996
   38.640    0.3424
   38.670    0.3210
   38.700    0.3317
   38.730    0.3210
   38.760    0.2461
   38.790    0.3103
   38.820    0.2247
   38.850    0.3317
   38.880    0.2461
   38.910    0.3424
   38.940    0.2140
   38.970    0.2568
   39.000    0.3852
   39.030    0.3103
   39.060    0.3317
   39.090    0.2568
   39.120    0.1926
   39.150    0.2996
   39.180    0.3103
   39.210    0.3959
   39.240    0.3745
   39.270    0.3531
   39.300    0.3745
   39.330    0.3210
   39.360    0.2782
   39.390    0.2675
   39.420    0.2675
   39.450    0.3638
   39.480    0.2889
   39.510    0.2996
   39.540    0.2033
   39.570    0.2675
   39.600    0.2461
   39.630    0.2889
   39.660    0.3103
   39.690    0.2461
   39.720    0.2247
   39.750    0.2033
   39.780    0.2247
   39.810    0.2889
   39.840    0.2996
   39.870    0.2996
   39.900    0.2140
   39.930    0.2568
   39.960    0.2996
   39.990    0.2568