File: data/PXRD/PXRD_KE-260_Co-Ka1_film-3mm_3s-deg.xyd
    1.500    4.4765
    1.530    4.3517
    1.560    4.1912
    1.590    4.0842
    1.620    4.0663
    1.650    3.6918
    1.680    3.5670
    1.710    3.5135
    1.740    3.4956
    1.770    3.3530
    1.800    3.6740
    1.830    3.0319
    1.860    3.3886
    1.890    3.0854
    1.920    2.9606
    1.950    2.9071
    1.980    2.9071
    2.010    2.8179
    2.040    2.8357
    2.070    2.8179
    2.100    2.6039
    2.130    2.6931
    2.160    2.4612
    2.190    2.6039
    2.220    2.7109
    2.250    2.5325
    2.280    2.5682
    2.310    2.2829
    2.340    2.2829
    2.370    2.4077
    2.400    2.7109
    2.430    2.3185
    2.460    2.2294
    2.490    2.1223
    2.520    2.2294
    2.550    1.8548
    2.580    2.1937
    2.610    1.8548
    2.640    1.9618
    2.670    1.9797
    2.700    2.1045
    2.730    1.8905
    2.760    2.1223
    2.790    2.1580
    2.820    1.6051
    2.850    2.1223
    2.880    2.3720
    2.910    2.0510
    2.940    1.7657
    2.970    1.9975
    3.000    2.1045
    3.030    1.8370
    3.060    1.9975
    3.090    2.1580
    3.120    1.6765
    3.150    1.8192
    3.180    1.8013
    3.210    1.5516
    3.240    2.2115
    3.270    2.0153
    3.300    1.7121
    3.330    2.0510
    3.360    1.7478
    3.390    2.0688
    3.420    2.0153
    3.450    2.0332
    3.480    2.0867
    3.510    2.3899
    3.540    2.2115
    3.570    2.0867
    3.600    2.5147
    3.630    2.4790
    3.660    2.4434
    3.690    2.8536
    3.720    2.8892
    3.750    3.6026
    3.780    3.9772
    3.810    3.2459
    3.840    4.4587
    3.870    5.0651
    3.900    5.4575
    3.930    5.7250
    3.960    6.7772
    3.990    7.9365
    4.020    8.4180
    4.050    8.7212
    4.080    8.7212
    4.110    6.6702
    4.140    5.0651
    4.170    4.2447
    4.200    3.4243
    4.230    3.3530
    4.260    3.0676
    4.290    3.0319
    4.320    2.9784
    4.350    2.9071
    4.380    2.7466
    4.410    3.4065
    4.440    3.0498
    4.470    2.8357
    4.500    3.3351
    4.530    3.4956
    4.560    3.3351
    4.590    3.5313
    4.620    3.8880
    4.650    4.1734
    4.680    4.1555
    4.710    4.0842
    4.740    3.7275
    4.770    3.9415
    4.800    3.7453
    4.830    3.5848
    4.860    3.7632
    4.890    3.0319
    4.920    3.3351
    4.950    2.9428
    4.980    2.7822
    5.010    2.6396
    5.040    2.6752
    5.070    2.5325
    5.100    2.1402
    5.130    2.3007
    5.160    2.2115
    5.190    1.8727
    5.220    1.8013
    5.250    1.9083
    5.280    2.0510
    5.310    1.9440
    5.340    1.7121
    5.370    1.9262
    5.400    1.8548
    5.430    1.9262
    5.460    1.9083
    5.490    1.9083
    5.520    1.4446
    5.550    1.4981
    5.580    1.4625
    5.610    1.6586
    5.640    1.8192
    5.670    1.6051
    5.700    1.4446
    5.730    1.8548
    5.760    1.5695
    5.790    1.7300
    5.820    1.6408
    5.850    1.6051
    5.880    1.7657
    5.910    1.7300
    5.940    1.9083
    5.970    1.9618
    6.000    1.5516
    6.030    1.7657
    6.060    1.7835
    6.090    1.7478
    6.120    1.8192
    6.150    2.1045
    6.180    1.9262
    6.210    1.9618
    6.240    1.7300
    6.270    2.1223
    6.300    2.0332
    6.330    1.8905
    6.360    1.9975
    6.390    1.8548
    6.420    1.9618
    6.450    2.0688
    6.480    1.7478
    6.510    1.9797
    6.540    2.2829
    6.570    1.8013
    6.600    1.9975
    6.630    1.8548
    6.660    2.0688
    6.690    2.3007
    6.720    1.9083
    6.750    1.9262
    6.780    1.7300
    6.810    1.6230
    6.840    1.9262
    6.870    1.8192
    6.900    1.4625
    6.930    1.4446
    6.960    1.5695
    6.990    1.5160
    7.020    1.3376
    7.050    1.4625
    7.080    1.3733
    7.110    1.3911
    7.140    1.3733
    7.170    1.4803
    7.200    1.4803
    7.230    1.4090
    7.260    1.1236
    7.290    1.4981
    7.320    1.3198
    7.350    1.4981
    7.380    1.1771
    7.410    1.4981
    7.440    1.4268
    7.470    1.4090
    7.500    1.6230
    7.530    1.5338
    7.560    1.4268
    7.590    1.2484
    7.620    1.0344
    7.650    1.3733
    7.680    1.1593
    7.710    1.5873
    7.740    1.4625
    7.770    1.3733
    7.800    1.3733
    7.830    1.3019
    7.860    1.5873
    7.890    1.3733
    7.920    1.3019
    7.950    1.3554
    7.980    1.4981
    8.010    1.9083
    8.040    1.6408
    8.070    1.8013
    8.100    1.5873
    8.130    1.9618
    8.160    1.9083
    8.190    1.7835
    8.220    1.7835
    8.250    1.5338
    8.280    1.5873
    8.310    1.2128
    8.340    1.2484
    8.370    1.1771
    8.400    1.2128
    8.430    1.3198
    8.460    1.2484
    8.490    1.0523
    8.520    1.3198
    8.550    0.9274
    8.580    0.8917
    8.610    1.0523
    8.640    0.9274
    8.670    1.0879
    8.700    1.0523
    8.730    1.0344
    8.760    1.0701
    8.790    1.1771
    8.820    1.0701
    8.850    1.0166
    8.880    1.0701
    8.910    1.2128
    8.940    1.0523
    8.970    1.1949
    9.000    0.9631
    9.030    1.1593
    9.060    1.1236
    9.090    1.0523
    9.120    1.1949
    9.150    1.0523
    9.180    0.9631
    9.210    1.2306
    9.240    0.9096
    9.270    1.2841
    9.300    1.1236
    9.330    1.3376
    9.360    1.1593
    9.390    1.2841
    9.420    0.9096
    9.450    1.0523
    9.480    0.9809
    9.510    0.8382
    9.540    1.0344
    9.570    1.0166
    9.600    1.1593
    9.630    1.0344
    9.660    1.0344
    9.690    0.9452
    9.720    1.1236
    9.750    1.0166
    9.780    1.2306
    9.810    0.8917
    9.840    0.9452
    9.870    1.0344
    9.900    1.0166
    9.930    0.9631
    9.960    0.9988
    9.990    0.7847
   10.020    0.9452
   10.050    0.9631
   10.080    0.9809
   10.110    1.1949
   10.140    0.9274
   10.170    1.0701
   10.200    0.9096
   10.230    0.9631
   10.260    1.0523
   10.290    0.8204
   10.320    0.8917
   10.350    0.9452
   10.380    0.8561
   10.410    0.9452
   10.440    0.8382
   10.470    0.9096
   10.500    0.8204
   10.530    0.8561
   10.560    0.9452
   10.590    0.8204
   10.620    0.9452
   10.650    0.8917
   10.680    0.8917
   10.710    0.8917
   10.740    0.7491
   10.770    0.8917
   10.800    0.9096
   10.830    0.8917
   10.860    0.9988
   10.890    0.7491
   10.920    0.9096
   10.950    0.7312
   10.980    0.5886
   11.010    0.6777
   11.040    0.7134
   11.070    0.9631
   11.100    0.8026
   11.130    0.8739
   11.160    0.7134
   11.190    0.7312
   11.220    0.9809
   11.250    0.6956
   11.280    0.9274
   11.310    0.9096
   11.340    0.9274
   11.370    0.9809
   11.400    0.8382
   11.430    0.7312
   11.460    0.9809
   11.490    0.8917
   11.520    0.8382
   11.550    0.6599
   11.580    0.9274
   11.610    0.9452
   11.640    0.6599
   11.670    1.0344
   11.700    0.7669
   11.730    0.8382
   11.760    0.8561
   11.790    0.9988
   11.820    0.9809
   11.850    0.8026
   11.880    0.9809
   11.910    0.8026
   11.940    0.9988
   11.970    0.8382
   12.000    0.9452
   12.030    0.8204
   12.060    0.6421
   12.090    0.8026
   12.120    0.8561
   12.150    0.7847
   12.180    0.8204
   12.210    0.8917
   12.240    1.0166
   12.270    0.7134
   12.300    0.7847
   12.330    0.8382
   12.360    1.0523
   12.390    0.8739
   12.420    0.9631
   12.450    1.0523
   12.480    1.0523
   12.510    0.9096
   12.540    0.5886
   12.570    0.8382
   12.600    0.7312
   12.630    0.6777
   12.660    0.8739
   12.690    0.8739
   12.720    1.0166
   12.750    0.7491
   12.780    0.8739
   12.810    0.8917
   12.840    0.6956
   12.870    1.0166
   12.900    0.9631
   12.930    1.0879
   12.960    0.8917
   12.990    0.8917
   13.020    0.7312
   13.050    0.9988
   13.080    1.0344
   13.110    0.6777
   13.140    0.7312
   13.170    0.8917
   13.200    0.8917
   13.230    0.8204
   13.260    0.8561
   13.290    0.8561
   13.320    0.7669
   13.350    0.9452
   13.380    0.9809
   13.410    0.9096
   13.440    0.8561
   13.470    1.1058
   13.500    0.8382
   13.530    1.1236
   13.560    0.7312
   13.590    0.7669
   13.620    0.8026
   13.650    0.7312
   13.680    1.0523
   13.710    0.9809
   13.740    0.8204
   13.770    0.7312
   13.800    0.8739
   13.830    0.7312
   13.860    0.7847
   13.890    1.0344
   13.920    0.8026
   13.950    0.7847
   13.980    0.8026
   14.010    0.6421
   14.040    0.8382
   14.070    0.8739
   14.100    0.7669
   14.130    0.8917
   14.160    0.9096
   14.190    0.8561
   14.220    0.8026
   14.250    0.9096
   14.280    0.9096
   14.310    0.7669
   14.340    0.7312
   14.370    0.8382
   14.400    1.0344
   14.430    0.9452
   14.460    0.8382
   14.490    0.7491
   14.520    0.5886
   14.550    0.7134
   14.580    0.8917
   14.610    0.8204
   14.640    0.6599
   14.670    0.7669
   14.700    0.8561
   14.730    0.6956
   14.760    0.8917
   14.790    0.7312
   14.820    0.9631
   14.850    0.8204
   14.880    0.8382
   14.910    0.8561
   14.940    0.8382
   14.970    0.7847
   15.000    0.8561
   15.030    0.8204
   15.060    0.7491
   15.090    0.7491
   15.120    0.5707
   15.150    0.8561
   15.180    0.8739
   15.210    0.9274
   15.240    0.6956
   15.270    0.8026
   15.300    0.9096
   15.330    0.7847
   15.360    0.6242
   15.390    0.7491
   15.420    0.7312
   15.450    0.8204
   15.480    0.7669
   15.510    1.0166
   15.540    0.8917
   15.570    0.9631
   15.600    0.8917
   15.630    0.6421
   15.660    0.8739
   15.690    0.6777
   15.720    0.8204
   15.750    0.8382
   15.780    0.9274
   15.810    0.8204
   15.840    0.8917
   15.870    0.8739
   15.900    0.7134
   15.930    0.5350
   15.960    0.6064
   15.990    0.8382
   16.020    0.8739
   16.050    0.7669
   16.080    0.9096
   16.110    0.7669
   16.140    0.7491
   16.170    0.8382
   16.200    0.8561
   16.230    0.7134
   16.260    0.9988
   16.290    0.8382
   16.320    0.5707
   16.350    0.8739
   16.380    0.7847
   16.410    0.8382
   16.440    0.8561
   16.470    0.9631
   16.500    0.8739
   16.530    0.8026
   16.560    1.0166
   16.590    0.8026
   16.620    0.9631
   16.650    0.8739
   16.680    0.8026
   16.710    0.8204
   16.740    0.9096
   16.770    0.8026
   16.800    0.7847
   16.830    0.7847
   16.860    0.7847
   16.890    1.0701
   16.920    0.6956
   16.950    1.0166
   16.980    0.8561
   17.010    0.8204
   17.040    0.7669
   17.070    1.0344
   17.100    0.9274
   17.130    0.8561
   17.160    0.7491
   17.190    0.8739
   17.220    0.8561
   17.250    0.8917
   17.280    0.8204
   17.310    0.9809
   17.340    0.6242
   17.370    0.8204
   17.400    0.9988
   17.430    0.8561
   17.460    0.6242
   17.490    0.6599
   17.520    0.7669
   17.550    0.7669
   17.580    0.7669
   17.610    0.8026
   17.640    0.7312
   17.670    0.6777
   17.700    0.7491
   17.730    0.8026
   17.760    0.6956
   17.790    0.7312
   17.820    0.8026
   17.850    0.7669
   17.880    0.6777
   17.910    0.6421
   17.940    0.8204
   17.970    0.6599
   18.000    0.8204
   18.030    0.6064
   18.060    0.7312
   18.090    0.7669
   18.120    0.8382
   18.150    0.5886
   18.180    0.6777
   18.210    0.8561
   18.240    0.8026
   18.270    0.6064
   18.300    0.8739
   18.330    0.7312
   18.360    0.8026
   18.390    0.8204
   18.420    0.7847
   18.450    0.8026
   18.480    0.7491
   18.510    0.9274
   18.540    0.7491
   18.570    0.8739
   18.600    0.7669
   18.630    0.9452
   18.660    0.7491
   18.690    0.8917
   18.720    0.6599
   18.750    0.8204
   18.780    0.8382
   18.810    0.6421
   18.840    0.8026
   18.870    0.7669
   18.900    0.7847
   18.930    0.8382
   18.960    0.7312
   18.990    0.9274
   19.020    0.6599
   19.050    0.8204
   19.080    0.8204
   19.110    0.8917
   19.140    0.6956
   19.170    0.6956
   19.200    0.9631
   19.230    0.8382
   19.260    0.7669
   19.290    0.6599
   19.320    0.6956
   19.350    0.6956
   19.380    0.7491
   19.410    0.7669
   19.440    0.7669
   19.470    0.7669
   19.500    0.9274
   19.530    0.7669
   19.560    0.6242
   19.590    0.7491
   19.620    0.8917
   19.650    0.6956
   19.680    0.7847
   19.710    0.8382
   19.740    0.7134
   19.770    0.8204
   19.800    0.7669
   19.830    0.6421
   19.860    0.8382
   19.890    0.7312
   19.920    0.6599
   19.950    0.7134
   19.980    0.7312
   20.010    0.9096
   20.040    0.6599
   20.070    0.6956
   20.100    0.7134
   20.130    0.8382
   20.160    0.5707
   20.190    0.7847
   20.220    0.8917
   20.250    0.8739
   20.280    0.6956
   20.310    0.7134
   20.340    0.8382
   20.370    0.5886
   20.400    0.6242
   20.430    0.7669
   20.460    0.9452
   20.490    0.7134
   20.520    0.8382
   20.550    0.7669
   20.580    0.8561
   20.610    0.8026
   20.640    0.7669
   20.670    0.7847
   20.700    0.9096
   20.730    0.8561
   20.760    0.8204
   20.790    0.7312
   20.820    0.8917
   20.850    0.9631
   20.880    0.7669
   20.910    0.7669
   20.940    0.6956
   20.970    0.7134
   21.000    0.7312
   21.030    0.7134
   21.060    0.5707
   21.090    0.8204
   21.120    0.6777
   21.150    0.8382
   21.180    0.8739
   21.210    0.7847
   21.240    0.7312
   21.270    0.7312
   21.300    0.7312
   21.330    0.7134
   21.360    0.8204
   21.390    0.8026
   21.420    0.7312
   21.450    0.9096
   21.480    0.6777
   21.510    0.6777
   21.540    0.8026
   21.570    0.8739
   21.600    0.7669
   21.630    0.8382
   21.660    0.6421
   21.690    0.5886
   21.720    0.6777
   21.750    0.7669
   21.780    0.6777
   21.810    0.7134
   21.840    0.7134
   21.870    0.6777
   21.900    0.8917
   21.930    0.5707
   21.960    0.7312
   21.990    0.6956
   22.020    0.8561
   22.050    0.7669
   22.080    0.7847
   22.110    0.7312
   22.140    0.7312
   22.170    0.7312
   22.200    0.7669
   22.230    0.6777
   22.260    0.5172
   22.290    0.6242
   22.320    0.6599
   22.350    0.7491
   22.380    0.7134
   22.410    0.8382
   22.440    0.5350
   22.470    0.6599
   22.500    0.6599
   22.530    0.7669
   22.560    0.7847
   22.590    0.6956
   22.620    0.7491
   22.650    0.5886
   22.680    0.7134
   22.710    0.7134
   22.740    0.6421
   22.770    0.8561
   22.800    0.5529
   22.830    0.6599
   22.860    0.7847
   22.890    0.8204
   22.920    0.5529
   22.950    0.7847
   22.980    0.5172
   23.010    0.8026
   23.040    0.6777
   23.070    0.7134
   23.100    0.7847
   23.130    0.7847
   23.160    0.6956
   23.190    0.6242
   23.220    0.5172
   23.250    0.8026
   23.280    0.6421
   23.310    0.4994
   23.340    0.8382
   23.370    0.6777
   23.400    0.6777
   23.430    0.6777
   23.460    0.7134
   23.490    0.5886
   23.520    0.7312
   23.550    0.8917
   23.580    0.6064
   23.610    0.7491
   23.640    0.5350
   23.670    0.8739
   23.700    0.6064
   23.730    0.6421
   23.760    0.5350
   23.790    0.6956
   23.820    0.6242
   23.850    0.8026
   23.880    0.7312
   23.910    0.7312
   23.940    0.5707
   23.970    0.7491
   24.000    0.7669
   24.030    0.8382
   24.060    0.6599
   24.090    0.8026
   24.120    0.7134
   24.150    0.7491
   24.180    0.6956
   24.210    0.5886
   24.240    0.5707
   24.270    0.7491
   24.300    0.5707
   24.330    0.6064
   24.360    0.7491
   24.390    0.7134
   24.420    0.6777
   24.450    0.6777
   24.480    0.4994
   24.510    0.5886
   24.540    0.5886
   24.570    0.6242
   24.600    0.6421
   24.630    0.7491
   24.660    0.4280
   24.690    0.5707
   24.720    0.7669
   24.750    0.6777
   24.780    0.7312
   24.810    0.6242
   24.840    0.6956
   24.870    0.6956
   24.900    0.6599
   24.930    0.6777
   24.960    0.5886
   24.990    0.7134
   25.020    0.6599
   25.050    0.6777
   25.080    0.6777
   25.110    0.6956
   25.140    0.6599
   25.170    0.7847
   25.200    0.6421
   25.230    0.7134
   25.260    0.6599
   25.290    0.8026
   25.320    0.7491
   25.350    0.8204
   25.380    0.6777
   25.410    0.6956
   25.440    0.7669
   25.470    0.7669
   25.500    0.6064
   25.530    0.6421
   25.560    0.5707
   25.590    0.7312
   25.620    0.7312
   25.650    0.8561
   25.680    0.6421
   25.710    0.4102
   25.740    0.5529
   25.770    0.5529
   25.800    0.5707
   25.830    0.7491
   25.860    0.5707
   25.890    0.5172
   25.920    0.5886
   25.950    0.8561
   25.980    0.8382
   26.010    0.6242
   26.040    0.6956
   26.070    0.5529
   26.100    0.4637
   26.130    0.5529
   26.160    0.4815
   26.190    0.7134
   26.220    0.7134
   26.250    0.5707
   26.280    0.7491
   26.310    0.5350
   26.340    0.5886
   26.370    0.6242
   26.400    0.5172
   26.430    0.6064
   26.460    0.5707
   26.490    0.4815
   26.520    0.5707
   26.550    0.6064
   26.580    0.5707
   26.610    0.7134
   26.640    0.6242
   26.670    0.6064
   26.700    0.5350
   26.730    0.5707
   26.760    0.4815
   26.790    0.5350
   26.820    0.7312
   26.850    0.6242
   26.880    0.5172
   26.910    0.5886
   26.940    0.4994
   26.970    0.6777
   27.000    0.5350
   27.030    0.6956
   27.060    0.5529
   27.090    0.5707
   27.120    0.5707
   27.150    0.7312
   27.180    0.6064
   27.210    0.5350
   27.240    0.7669
   27.270    0.6421
   27.300    0.4815
   27.330    0.6064
   27.360    0.5529
   27.390    0.6956
   27.420    0.4280
   27.450    0.5172
   27.480    0.5529
   27.510    0.5886
   27.540    0.5707
   27.570    0.7847
   27.600    0.4815
   27.630    0.6599
   27.660    0.5886
   27.690    0.6956
   27.720    0.6064
   27.750    0.5529
   27.780    0.5172
   27.810    0.4994
   27.840    0.5529
   27.870    0.5707
   27.900    0.4815
   27.930    0.6242
   27.960    0.5707
   27.990    0.5172
   28.020    0.5707
   28.050    0.4815
   28.080    0.4280
   28.110    0.6421
   28.140    0.5172
   28.170    0.4280
   28.200    0.5529
   28.230    0.6064
   28.260    0.5529
   28.290    0.5172
   28.320    0.4637
   28.350    0.5707
   28.380    0.6956
   28.410    0.3924
   28.440    0.5172
   28.470    0.5707
   28.500    0.4280
   28.530    0.5172
   28.560    0.7669
   28.590    0.4102
   28.620    0.4102
   28.650    0.5707
   28.680    0.5529
   28.710    0.5350
   28.740    0.3924
   28.770    0.3924
   28.800    0.5707
   28.830    0.5172
   28.860    0.6242
   28.890    0.4637
   28.920    0.6956
   28.950    0.5886
   28.980    0.5529
   29.010    0.5529
   29.040    0.6064
   29.070    0.4280
   29.100    0.5350
   29.130    0.4815
   29.160    0.5707
   29.190    0.5172
   29.220    0.4815
   29.250    0.6064
   29.280    0.6242
   29.310    0.5172
   29.340    0.5529
   29.370    0.5529
   29.400    0.5707
   29.430    0.5172
   29.460    0.3924
   29.490    0.6599
   29.520    0.4815
   29.550    0.6599
   29.580    0.5707
   29.610    0.4994
   29.640    0.5707
   29.670    0.6242
   29.700    0.6242
   29.730    0.5707
   29.760    0.4994
   29.790    0.4637
   29.820    0.3389
   29.850    0.5529
   29.880    0.5350
   29.910    0.5707
   29.940    0.4815
   29.970    0.5529
   30.000    0.4102
   30.030    0.4102
   30.060    0.4637
   30.090    0.4637
   30.120    0.4637
   30.150    0.5350
   30.180    0.4994
   30.210    0.4994
   30.240    0.5707
   30.270    0.4994
   30.300    0.4994
   30.330    0.4102
   30.360    0.4637
   30.390    0.4280
   30.420    0.5707
   30.450    0.5350
   30.480    0.5172
   30.510    0.3567
   30.540    0.4637
   30.570    0.5529
   30.600    0.4102
   30.630    0.3032
   30.660    0.4637
   30.690    0.6242
   30.720    0.4102
   30.750    0.5707
   30.780    0.4459
   30.810    0.5350
   30.840    0.4815
   30.870    0.5350
   30.900    0.3924
   30.930    0.4280
   30.960    0.5529
   30.990    0.5886
   31.020    0.4102
   31.050    0.5529
   31.080    0.5886
   31.110    0.4280
   31.140    0.4637
   31.170    0.6064
   31.200    0.4459
   31.230    0.3389
   31.260    0.5350
   31.290    0.4815
   31.320    0.4102
   31.350    0.3745
   31.380    0.4637
   31.410    0.6777
   31.440    0.5172
   31.470    0.5886
   31.500    0.4815
   31.530    0.3924
   31.560    0.4102
   31.590    0.4815
   31.620    0.4280
   31.650    0.5529
   31.680    0.3745
   31.710    0.4637
   31.740    0.4280
   31.770    0.5172
   31.800    0.4815
   31.830    0.3567
   31.860    0.3210
   31.890    0.4280
   31.920    0.3745
   31.950    0.3924
   31.980    0.4102
   32.010    0.4994
   32.040    0.4994
   32.070    0.3745
   32.100    0.4102
   32.130    0.4815
   32.160    0.4815
   32.190    0.4637
   32.220    0.4994
   32.250    0.5707
   32.280    0.4637
   32.310    0.4102
   32.340    0.3389
   32.370    0.4280
   32.400    0.4815
   32.430    0.4637
   32.460    0.5707
   32.490    0.4459
   32.520    0.4280
   32.550    0.3567
   32.580    0.5707
   32.610    0.3924
   32.640    0.4994
   32.670    0.3389
   32.700    0.3210
   32.730    0.3567
   32.760    0.6064
   32.790    0.4815
   32.820    0.6599
   32.850    0.5172
   32.880    0.4280
   32.910    0.3924
   32.940    0.5350
   32.970    0.3210
   33.000    0.5172
   33.030    0.3924
   33.060    0.4637
   33.090    0.4280
   33.120    0.4459
   33.150    0.4102
   33.180    0.3745
   33.210    0.4459
   33.240    0.4637
   33.270    0.4280
   33.300    0.4637
   33.330    0.5350
   33.360    0.4102
   33.390    0.3745
   33.420    0.3567
   33.450    0.4102
   33.480    0.4459
   33.510    0.5172
   33.540    0.5172
   33.570    0.5172
   33.600    0.4637
   33.630    0.4280
   33.660    0.3210
   33.690    0.5707
   33.720    0.4459
   33.750    0.2675
   33.780    0.6064
   33.810    0.3032
   33.840    0.4994
   33.870    0.4994
   33.900    0.3745
   33.930    0.4994
   33.960    0.4994
   33.990    0.3210
   34.020    0.3210
   34.050    0.4102
   34.080    0.3389
   34.110    0.4280
   34.140    0.4280
   34.170    0.3745
   34.200    0.3567
   34.230    0.3567
   34.260    0.3567
   34.290    0.4815
   34.320    0.4459
   34.350    0.3389
   34.380    0.3567
   34.410    0.5350
   34.440    0.3745
   34.470    0.2854
   34.500    0.4459
   34.530    0.3924
   34.560    0.3210
   34.590    0.3210
   34.620    0.3210
   34.650    0.2319
   34.680    0.3210
   34.710    0.3389
   34.740    0.3745
   34.770    0.3745
   34.800    0.4102
   34.830    0.4280
   34.860    0.3210
   34.890    0.3567
   34.920    0.2497
   34.950    0.3032
   34.980    0.4102
   35.010    0.3389
   35.040    0.2854
   35.070    0.2140
   35.100    0.2675
   35.130    0.4459
   35.160    0.3210
   35.190    0.3389
   35.220    0.2675
   35.250    0.3924
   35.280    0.3032
   35.310    0.3745
   35.340    0.3032
   35.370    0.4280
   35.400    0.3032
   35.430    0.3032
   35.460    0.4102
   35.490    0.2675
   35.520    0.3389
   35.550    0.3210
   35.580    0.3924
   35.610    0.2675
   35.640    0.3389
   35.670    0.3745
   35.700    0.2497
   35.730    0.3389
   35.760    0.2675
   35.790    0.2675
   35.820    0.3745
   35.850    0.2140
   35.880    0.3567
   35.910    0.2675
   35.940    0.3032
   35.970    0.2675
   36.000    0.3745
   36.030    0.4459
   36.060    0.3389
   36.090    0.3745
   36.120    0.4280
   36.150    0.3032
   36.180    0.3567
   36.210    0.3745
   36.240    0.2675
   36.270    0.3745
   36.300    0.1962
   36.330    0.2497
   36.360    0.3567
   36.390    0.3210
   36.420    0.3032
   36.450    0.3389
   36.480    0.2854
   36.510    0.2854
   36.540    0.3210
   36.570    0.2497
   36.600    0.3210
   36.630    0.2497
   36.660    0.3210
   36.690    0.2675
   36.720    0.2497
   36.750    0.3389
   36.780    0.2497
   36.810    0.3032
   36.840    0.3032
   36.870    0.3745
   36.900    0.3389
   36.930    0.3745
   36.960    0.2497
   36.990    0.3032
   37.020    0.2675
   37.050    0.3745
   37.080    0.2854
   37.110    0.3210
   37.140    0.2854
   37.170    0.2140
   37.200    0.2675
   37.230    0.3924
   37.260    0.2675
   37.290    0.3567
   37.320    0.3745
   37.350    0.2319
   37.380    0.3032
   37.410    0.3389
   37.440    0.3210
   37.470    0.2140
   37.500    0.3032
   37.530    0.3210
   37.560    0.2854
   37.590    0.2140
   37.620    0.3389
   37.650    0.3389
   37.680    0.3032
   37.710    0.1962
   37.740    0.3032
   37.770    0.2497
   37.800    0.3389
   37.830    0.3389
   37.860    0.2497
   37.890    0.1962
   37.920    0.2854
   37.950    0.3745
   37.980    0.2854
   38.010    0.3032
   38.040    0.3032
   38.070    0.1962
   38.100    0.2319
   38.130    0.2854
   38.160    0.2319
   38.190    0.2854
   38.220    0.2319
   38.250    0.3745
   38.280    0.2854
   38.310    0.3210
   38.340    0.3032
   38.370    0.1783
   38.400    0.1605
   38.430    0.2675
   38.460    0.2497
   38.490    0.3210
   38.520    0.2675
   38.550    0.2497
   38.580    0.3032
   38.610    0.2854
   38.640    0.1605
   38.670    0.2675
   38.700    0.3567
   38.730    0.2854
   38.760    0.2854
   38.790    0.2854
   38.820    0.2497
   38.850    0.2140
   38.880    0.2319
   38.910    0.2675
   38.940    0.1605
   38.970    0.3032
   39.000    0.1962
   39.030    0.2140
   39.060    0.1962
   39.090    0.2140
   39.120    0.2319
   39.150    0.2854
   39.180    0.3567
   39.210    0.2675
   39.240    0.2675
   39.270    0.1783
   39.300    0.1783
   39.330    0.3210
   39.360    0.2319
   39.390    0.1962
   39.420    0.3567
   39.450    0.2497
   39.480    0.3567
   39.510    0.3032
   39.540    0.2140
   39.570    0.1962
   39.600    0.2675
   39.630    0.2319
   39.660    0.3567
   39.690    0.2675
   39.720    0.3389
   39.750    0.2854
   39.780    0.2675
   39.810    0.2675
   39.840    0.2854
   39.870    0.3210
   39.900    0.2497
   39.930    0.2854
   39.960    0.1962
   39.990    0.2497