File: data/PXRD/PXRD_KE-115_Cu-Ka1_capillary-1mm_5s-deg.xyd
    1.500   20.7162
    1.530   20.7372
    1.560   19.9789
    1.590   20.0105
    1.620   18.9995
    1.650   18.8204
    1.680   18.9995
    1.710   18.8099
    1.740   18.8731
    1.770   18.5677
    1.800   18.2833
    1.830   18.7467
    1.860   18.3992
    1.890   17.9779
    1.920   18.2201
    1.950   18.3465
    1.980   18.9679
    2.010   17.9463
    2.040   18.0832
    2.070   18.2306
    2.100   18.4729
    2.130   18.5782
    2.160   19.2838
    2.190   18.8204
    2.220   18.7046
    2.250   19.9579
    2.280   19.8315
    2.310   19.8526
    2.340   19.9052
    2.370   19.9473
    2.400   20.8426
    2.430   21.7588
    2.460   22.7172
    2.490   23.2017
    2.520   24.7077
    2.550   24.2759
    2.580   25.1080
    2.610   26.1927
    2.640   26.9194
    2.670   27.7304
    2.700   28.4466
    2.730   30.3212
    2.760   30.9742
    2.790   32.6382
    2.820   33.2596
    2.850   35.5134
    2.880   36.9458
    2.910   38.7994
    2.940   40.8952
    2.970   43.6651
    3.000   46.2665
    3.030   49.0679
    3.060   52.9753
    3.090   54.4708
    3.120   59.1259
    3.150   63.2228
    3.180   68.9521
    3.210   73.9231
    3.240   81.0848
    3.270   88.0990
    3.300   98.4834
    3.330  110.2475
    3.360  125.4660
    3.390  141.4534
    3.420  158.2728
    3.450  159.7894
    3.480  144.5392
    3.510  113.7862
    3.540   81.9589
    3.570   59.2312
    3.600   49.1627
    3.630   43.1806
    3.660   40.8320
    3.690   40.0421
    3.720   39.4523
    3.750   41.1374
    3.780   42.0537
    3.810   43.6230
    3.840   46.9300
    3.870   50.5319
    3.900   51.5956
    3.930   55.3344
    3.960   60.4950
    3.990   62.4539
    4.020   66.3086
    4.050   68.8362
    4.080   70.2896
    4.110   70.7320
    4.140   69.9526
    4.170   66.8352
    4.200   63.2754
    4.230   58.3254
    4.260   51.1427
    4.290   44.6972
    4.320   38.0516
    4.350   31.0058
    4.380   25.6872
    4.410   21.4113
    4.440   17.8831
    4.470   15.7030
    4.500   13.7019
    4.530   12.1538
    4.560   10.8268
    4.590   10.2580
    4.620    9.3944
    4.650    8.7836
    4.680    8.5203
    4.710    8.3518
    4.740    8.4466
    4.770    7.8884
    4.800    8.3623
    4.830    7.6145
    4.860    7.4882
    4.890    7.5408
    4.920    7.0248
    4.950    6.8036
    4.980    7.1933
    5.010    7.0248
    5.040    7.2038
    5.070    6.7930
    5.100    6.9616
    5.130    6.6561
    5.160    6.6351
    5.190    6.8457
    5.220    6.4982
    5.250    7.0248
    5.280    6.6140
    5.310    6.4771
    5.340    6.5719
    5.370    6.4982
    5.400    6.3928
    5.430    6.4139
    5.460    6.3507
    5.490    6.4666
    5.520    6.4876
    5.550    6.5508
    5.580    6.4771
    5.610    5.9084
    5.640    6.0979
    5.670    6.0979
    5.700    5.6872
    5.730    5.6451
    5.760    5.9505
    5.790    6.0664
    5.820    5.5924
    5.850    5.8662
    5.880    6.0874
    5.910    5.7399
    5.940    5.8662
    5.970    5.9821
    6.000    6.0769
    6.030    5.6345
    6.060    5.6451
    6.090    5.9294
    6.120    6.0769
    6.150    5.8452
    6.180    6.0558
    6.210    6.0348
    6.240    6.3402
    6.270    6.5508
    6.300    6.1717
    6.330    6.6140
    6.360    6.4034
    6.390    6.7825
    6.420    6.8562
    6.450    7.1195
    6.480    6.9616
    6.510    7.7514
    6.540    7.8778
    6.570    7.8146
    6.600    8.2254
    6.630    8.6993
    6.660    9.5735
    6.690   10.0158
    6.720   10.9215
    6.750   12.0274
    6.780   13.2912
    6.810   13.3544
    6.840   16.2717
    6.870   17.8199
    6.900   19.5893
    6.930   20.3160
    6.960   20.8320
    6.990   18.3886
    7.020   15.1975
    7.050   11.3428
    7.080    9.5735
    7.110    8.2886
    7.140    7.4460
    7.170    6.9616
    7.200    6.5929
    7.230    6.8668
    7.260    6.4350
    7.290    6.0664
    7.320    6.2454
    7.350    6.1822
    7.380    6.2981
    7.410    6.4350
    7.440    6.4455
    7.470    6.3402
    7.500    6.3086
    7.530    6.5192
    7.560    6.3718
    7.590    6.5508
    7.620    6.6140
    7.650    6.5192
    7.680    6.8668
    7.710    6.7825
    7.740    6.6983
    7.770    7.3828
    7.800    7.1722
    7.830    7.4776
    7.860    7.4776
    7.890    8.1095
    7.920    8.2254
    7.950    8.4781
    7.980    8.5413
    8.010    8.8889
    8.040    9.2680
    8.070    9.6788
    8.100    9.7736
    8.130    9.9737
    8.160   10.8478
    8.190   10.4265
    8.220   10.9005
    8.250   11.1111
    8.280   11.1427
    8.310   11.1006
    8.340   11.3007
    8.370   11.8273
    8.400   11.0585
    8.430   11.0163
    8.460   10.8478
    8.490   10.6688
    8.520   10.8794
    8.550   10.3844
    8.580    9.9210
    8.610    9.7104
    8.640    8.8994
    8.670    8.8468
    8.700    8.0674
    8.730    8.0990
    8.760    7.5724
    8.790    7.2986
    8.820    7.3302
    8.850    6.3823
    8.880    6.6877
    8.910    6.0769
    8.940    6.3296
    8.970    6.3718
    9.000    6.1085
    9.030    5.6345
    9.060    5.8241
    9.090    5.9189
    9.120    5.5398
    9.150    5.4555
    9.180    5.2659
    9.210    5.2343
    9.240    5.2027
    9.270    5.6135
    9.300    5.6240
    9.330    4.6656
    9.360    5.4239
    9.390    5.8031
    9.420    5.2027
    9.450    5.4766
    9.480    5.3186
    9.510    5.7820
    9.540    5.2343
    9.570    5.6240
    9.600    5.4239
    9.630    5.3397
    9.660    4.8763
    9.690    5.7715
    9.720    5.1817
    9.750    5.2659
    9.780    5.4134
    9.810    5.3081
    9.840    5.5398
    9.870    5.2659
    9.900    5.1606
    9.930    5.4344
    9.960    5.2238
    9.990    5.0553
   10.020    5.5187
   10.050    5.1080
   10.080    5.5924
   10.110    5.1922
   10.140    5.5082
   10.170    5.5714
   10.200    5.4134
   10.230    5.6872
   10.260    5.8031
   10.290    5.7715
   10.320    5.9821
   10.350    5.8347
   10.380    6.0453
   10.410    6.4455
   10.440    5.9716
   10.470    6.4666
   10.500    5.9294
   10.530    6.0874
   10.560    5.5819
   10.590    5.7609
   10.620    5.3712
   10.650    5.3502
   10.680    5.1185
   10.710    5.9400
   10.740    5.3923
   10.770    5.3502
   10.800    5.6661
   10.830    5.5714
   10.860    5.3923
   10.890    5.2765
   10.920    5.1817
   10.950    5.8241
   10.980    5.3607
   11.010    5.4450
   11.040    5.3818
   11.070    5.2238
   11.100    5.4344
   11.130    5.2027
   11.160    5.4660
   11.190    4.9605
   11.220    5.1711
   11.250    5.0764
   11.280    5.2659
   11.310    5.3923
   11.340    5.5082
   11.370    5.1395
   11.400    5.2554
   11.430    5.3818
   11.460    5.3397
   11.490    5.1817
   11.520    5.0869
   11.550    5.1080
   11.580    5.4660
   11.610    5.3291
   11.640    5.1501
   11.670    5.2765
   11.700    5.2975
   11.730    5.4239
   11.760    5.3291
   11.790    5.3291
   11.820    5.6240
   11.850    5.9189
   11.880    5.6029
   11.910    5.5292
   11.940    5.4555
   11.970    5.4555
   12.000    5.5714
   12.030    6.0242
   12.060    5.7609
   12.090    5.5187
   12.120    5.8873
   12.150    6.0874
   12.180    5.7504
   12.210    6.4666
   12.240    5.7715
   12.270    5.7820
   12.300    6.2349
   12.330    6.2033
   12.360    5.8768
   12.390    6.0874
   12.420    6.2349
   12.450    6.4666
   12.480    6.2981
   12.510    6.4139
   12.540    6.2559
   12.570    6.4666
   12.600    6.6035
   12.630    6.4560
   12.660    6.1401
   12.690    6.0558
   12.720    6.3086
   12.750    6.2559
   12.780    6.3823
   12.810    5.9294
   12.840    6.2349
   12.870    6.0453
   12.900    6.2454
   12.930    5.7293
   12.960    5.7504
   12.990    6.0664
   13.020    6.0348
   13.050    6.0242
   13.080    5.7504
   13.110    6.1190
   13.140    5.6872
   13.170    5.8557
   13.200    6.1717
   13.230    6.3086
   13.260    5.5187
   13.290    5.5187
   13.320    5.7293
   13.350    5.9400
   13.380    5.9505
   13.410    5.6661
   13.440    5.8452
   13.470    5.6345
   13.500    5.8978
   13.530    5.7925
   13.560    5.8452
   13.590    5.6977
   13.620    5.9294
   13.650    5.5503
   13.680    5.8241
   13.710    5.7188
   13.740    5.8978
   13.770    5.6661
   13.800    5.7609
   13.830    5.8347
   13.860    6.0664
   13.890    5.8241
   13.920    6.0137
   13.950    5.3923
   13.980    5.6240
   14.010    5.0448
   14.040    5.5924
   14.070    5.6767
   14.100    5.7820
   14.130    5.2554
   14.160    5.6767
   14.190    5.7188
   14.220    5.1185
   14.250    5.0026
   14.280    5.0974
   14.310    5.4766
   14.340    5.2554
   14.370    5.2554
   14.400    5.3712
   14.430    5.2027
   14.460    5.2343
   14.490    4.7604
   14.520    4.9816
   14.550    4.9816
   14.580    5.0448
   14.610    5.0132
   14.640    5.2238
   14.670    5.1080
   14.700    5.3818
   14.730    5.2027
   14.760    5.4976
   14.790    5.4239
   14.820    5.0974
   14.850    5.0869
   14.880    4.7393
   14.910    5.0237
   14.940    4.9605
   14.970    5.0132
   15.000    5.6556
   15.030    5.2133
   15.060    5.0553
   15.090    5.0342
   15.120    5.1817
   15.150    5.1817
   15.180    5.0448
   15.210    5.2343
   15.240    5.1606
   15.270    5.1922
   15.300    4.9500
   15.330    4.8552
   15.360    5.2343
   15.390    5.0342
   15.420    5.2343
   15.450    5.3397
   15.480    5.3818
   15.510    5.6029
   15.540    5.4134
   15.570    5.3186
   15.600    5.2027
   15.630    5.2133
   15.660    5.4134
   15.690    5.3397
   15.720    5.6135
   15.750    5.5924
   15.780    5.1711
   15.810    5.7504
   15.840    5.5819
   15.870    5.6977
   15.900    5.4239
   15.930    5.3923
   15.960    5.7504
   15.990    5.2975
   16.020    5.6345
   16.050    5.5608
   16.080    5.5819
   16.110    5.3923
   16.140    5.5398
   16.170    5.3186
   16.200    5.3607
   16.230    5.0974
   16.260    5.3607
   16.290    5.8452
   16.320    5.1501
   16.350    5.4028
   16.380    5.2027
   16.410    4.9605
   16.440    5.4344
   16.470    5.6977
   16.500    5.2027
   16.530    5.2870
   16.560    4.9710
   16.590    5.2027
   16.620    5.1501
   16.650    5.0553
   16.680    5.2659
   16.710    5.0974
   16.740    4.8025
   16.770    4.8025
   16.800    4.8868
   16.830    5.0342
   16.860    5.0448
   16.890    5.2027
   16.920    4.8763
   16.950    5.0026
   16.980    4.8236
   17.010    4.8763
   17.040    4.8868
   17.070    5.6135
   17.100    5.3081
   17.130    5.2238
   17.160    5.3186
   17.190    5.3081
   17.220    5.2765
   17.250    5.1185
   17.280    5.2765
   17.310    5.2870
   17.340    5.4450
   17.370    4.9500
   17.400    5.5398
   17.430    5.3397
   17.460    5.4555
   17.490    5.0764
   17.520    5.2027
   17.550    5.4766
   17.580    5.1290
   17.610    5.3502
   17.640    5.1922
   17.670    5.2765
   17.700    5.3712
   17.730    5.2238
   17.760    5.4344
   17.790    5.4028
   17.820    5.4976
   17.850    5.4766
   17.880    5.1290
   17.910    5.3291
   17.940    5.6451
   17.970    5.6872
   18.000    5.1185
   18.030    5.3081
   18.060    5.2133
   18.090    5.4028
   18.120    5.9084
   18.150    5.2449
   18.180    5.3186
   18.210    5.3607
   18.240    5.0764
   18.270    5.6872
   18.300    5.3818
   18.330    5.0974
   18.360    5.4239
   18.390    5.1711
   18.420    5.2238
   18.450    5.7399
   18.480    5.2870
   18.510    5.4028
   18.540    5.3818
   18.570    5.2975
   18.600    5.2975
   18.630    5.2449
   18.660    5.0974
   18.690    5.7399
   18.720    5.1501
   18.750    5.4871
   18.780    5.0132
   18.810    5.4976
   18.840    5.2765
   18.870    5.0974
   18.900    4.9710
   18.930    5.2554
   18.960    5.0342
   18.990    5.3607
   19.020    5.1606
   19.050    5.4660
   19.080    5.1501
   19.110    5.6556
   19.140    5.2027
   19.170    4.9710
   19.200    5.4450
   19.230    5.4976
   19.260    5.4976
   19.290    5.3291
   19.320    5.5187
   19.350    5.5398
   19.380    5.9926
   19.410    5.7083
   19.440    5.6029
   19.470    5.5714
   19.500    5.8768
   19.530    6.0348
   19.560    5.6135
   19.590    5.8978
   19.620    6.1506
   19.650    5.6872
   19.680    6.3296
   19.710    6.0874
   19.740    6.1927
   19.770    6.0348
   19.800    5.8873
   19.830    6.2770
   19.860    6.0348
   19.890    6.0453
   19.920    6.0242
   19.950    6.3191
   19.980    5.8978
   20.010    6.6140
   20.040    5.8241
   20.070    6.1506
   20.100    6.1401
   20.130    6.3296
   20.160    6.3402
   20.190    6.2665
   20.220    6.3612
   20.250    6.1611
   20.280    5.5082
   20.310    6.1611
   20.340    5.8347
   20.370    6.5087
   20.400    5.8136
   20.430    6.0979
   20.460    6.2665
   20.490    6.0242
   20.520    5.8452
   20.550    6.0874
   20.580    5.8662
   20.610    5.7083
   20.640    5.8136
   20.670    6.0242
   20.700    6.0032
   20.730    5.8662
   20.760    6.0348
   20.790    5.8347
   20.820    5.9294
   20.850    5.8978
   20.880    5.7188
   20.910    5.9926
   20.940    6.1085
   20.970    5.7715
   21.000    6.2981
   21.030    6.3296
   21.060    6.2033
   21.090    6.0348
   21.120    5.9821
   21.150    5.5924
   21.180    6.2243
   21.210    6.0874
   21.240    5.8031
   21.270    6.0664
   21.300    5.8873
   21.330    5.6977
   21.360    5.9610
   21.390    6.1506
   21.420    5.5187
   21.450    6.0137
   21.480    5.6135
   21.510    5.6451
   21.540    5.8873
   21.570    5.5819
   21.600    5.8978
   21.630    5.7504
   21.660    6.1927
   21.690    5.9189
   21.720    5.9084
   21.750    5.8452
   21.780    5.5503
   21.810    5.6556
   21.840    5.7188
   21.870    5.8978
   21.900    5.9716
   21.930    5.4976
   21.960    6.3086
   21.990    5.8031
   22.020    5.7504
   22.050    6.2559
   22.080    6.1190
   22.110    6.2981
   22.140    5.9294
   22.170    6.0032
   22.200    6.1295
   22.230    6.0137
   22.260    6.1295
   22.290    6.0348
   22.320    5.8136
   22.350    5.8136
   22.380    5.9821
   22.410    5.8136
   22.440    5.8452
   22.470    5.5924
   22.500    5.8241
   22.530    5.7820
   22.560    5.9400
   22.590    6.0453
   22.620    6.1190
   22.650    5.8347
   22.680    5.7083
   22.710    5.8873
   22.740    5.7399
   22.770    5.7293
   22.800    5.4555
   22.830    5.7609
   22.860    5.8768
   22.890    5.5819
   22.920    6.1085
   22.950    5.6240
   22.980    5.9821
   23.010    5.8347
   23.040    5.8347
   23.070    5.5398
   23.100    5.4450
   23.130    5.2027
   23.160    5.4555
   23.190    5.6345
   23.220    5.8873
   23.250    5.8978
   23.280    5.6977
   23.310    5.9189
   23.340    5.7504
   23.370    5.7293
   23.400    5.4766
   23.430    5.5608
   23.460    5.8347
   23.490    5.6977
   23.520    5.5082
   23.550    5.5292
   23.580    5.7083
   23.610    5.7188
   23.640    5.6556
   23.670    5.5608
   23.700    5.3081
   23.730    5.3607
   23.760    5.6872
   23.790    5.5398
   23.820    5.3186
   23.850    5.6029
   23.880    5.8557
   23.910    5.6872
   23.940    5.8662
   23.970    5.2449
   24.000    5.5187
   24.030    5.5082
   24.060    5.4766
   24.090    5.8978
   24.120    5.3502
   24.150    5.4976
   24.180    5.7504
   24.210    5.3923
   24.240    5.4660
   24.270    5.6977
   24.300    5.5714
   24.330    5.4450
   24.360    5.5608
   24.390    5.8768
   24.420    5.3607
   24.450    5.5082
   24.480    5.4871
   24.510    6.1822
   24.540    5.7609
   24.570    5.4344
   24.600    5.9610
   24.630    5.8136
   24.660    5.6345
   24.690    5.7609
   24.720    5.8978
   24.750    5.7925
   24.780    5.8452
   24.810    5.4450
   24.840    5.6345
   24.870    5.4976
   24.900    5.4555
   24.930    5.0026
   24.960    5.0026
   24.990    5.5187
   25.020    5.2870
   25.050    5.2975
   25.080    5.2554
   25.110    5.5924
   25.140    5.5608
   25.170    5.2133
   25.200    5.2975
   25.230    5.3923
   25.260    5.3081
   25.290    5.2449
   25.320    5.3081
   25.350    5.2238
   25.380    5.4660
   25.410    5.2027
   25.440    5.5714
   25.470    5.5082
   25.500    5.6240
   25.530    5.9189
   25.560    5.5082
   25.590    5.5082
   25.620    5.3502
   25.650    5.2975
   25.680    5.3397
   25.710    5.1501
   25.740    5.0869
   25.770    5.1922
   25.800    5.1711
   25.830    5.2975
   25.860    5.1395
   25.890    5.4450
   25.920    5.0237
   25.950    5.2027
   25.980    5.2765
   26.010    5.1817
   26.040    4.9289
   26.070    5.0658
   26.100    4.9394
   26.130    4.9184
   26.160    4.9289
   26.190    4.8973
   26.220    5.0448
   26.250    5.0342
   26.280    4.8447
   26.310    5.4344
   26.340    5.1080
   26.370    4.8973
   26.400    4.9500
   26.430    5.0764
   26.460    5.2449
   26.490    5.1711
   26.520    4.9500
   26.550    4.8552
   26.580    4.7604
   26.610    5.1606
   26.640    5.1080
   26.670    4.9394
   26.700    4.6130
   26.730    5.3081
   26.760    5.2554
   26.790    4.7709
   26.820    4.8447
   26.850    4.9289
   26.880    4.9184
   26.910    4.8657
   26.940    4.5708
   26.970    4.9921
   27.000    4.8763
   27.030    4.8447
   27.060    4.8657
   27.090    4.7815
   27.120    5.0869
   27.150    4.8552
   27.180    5.1711
   27.210    5.1185
   27.240    4.9605
   27.270    4.9184
   27.300    4.6761
   27.330    4.9078
   27.360    4.7920
   27.390    4.9921
   27.420    4.8763
   27.450    4.9921
   27.480    4.7288
   27.510    4.8341
   27.540    5.2765
   27.570    5.2449
   27.600    4.8131
   27.630    4.8025
   27.660    4.6656
   27.690    4.7709
   27.720    5.1501
   27.750    5.1922
   27.780    4.9816
   27.810    4.8973
   27.840    4.8657
   27.870    4.7393
   27.900    4.8868
   27.930    5.0658
   27.960    5.0237
   27.990    5.0342
   28.020    5.1501
   28.050    4.8657
   28.080    5.3712
   28.110    5.2133
   28.140    5.3291
   28.170    5.2765
   28.200    5.0553
   28.230    5.2133
   28.260    4.8341
   28.290    5.2238
   28.320    4.9500
   28.350    4.9500
   28.380    4.8763
   28.410    5.0026
   28.440    4.9184
   28.470    4.8763
   28.500    5.0974
   28.530    5.2659
   28.560    4.9500
   28.590    5.1290
   28.620    4.9394
   28.650    4.8131
   28.680    4.6972
   28.710    4.7604
   28.740    4.9394
   28.770    4.8552
   28.800    5.1080
   28.830    4.6235
   28.860    4.5392
   28.890    4.9184
   28.920    4.6024
   28.950    4.9394
   28.980    4.7815
   29.010    4.8973
   29.040    4.9078
   29.070    4.8447
   29.100    4.8868
   29.130    4.8973
   29.160    4.8973
   29.190    4.7709
   29.220    4.2865
   29.250    4.9289
   29.280    4.6972
   29.310    4.8341
   29.340    5.1395
   29.370    4.6130
   29.400    5.0026
   29.430    4.6551
   29.460    4.3391
   29.490    4.3497
   29.520    4.4655
   29.550    4.5919
   29.580    4.5708
   29.610    4.4866
   29.640    4.5603
   29.670    4.2654
   29.700    4.5182
   29.730    4.8868
   29.760    4.6024
   29.790    4.7393
   29.820    4.5287
   29.850    4.8552
   29.880    4.4339
   29.910    4.4760
   29.940    4.8025
   29.970    4.5392
   30.000    4.4655
   30.030    4.7604
   30.060    4.4128
   30.090    4.6551
   30.120    4.6972
   30.150    4.9500
   30.180    4.6867
   30.210    4.2549
   30.240    4.4866
   30.270    4.7499
   30.300    4.6130
   30.330    4.7815
   30.360    4.8447
   30.390    4.6445
   30.420    4.8131
   30.450    4.4760
   30.480    4.6340
   30.510    4.5708
   30.540    4.6761
   30.570    4.3181
   30.600    4.3497
   30.630    4.2654
   30.660    4.5076
   30.690    4.5603
   30.720    4.7709
   30.750    4.6867
   30.780    4.4128
   30.810    4.7183
   30.840    4.5708
   30.870    4.5182
   30.900    4.2338
   30.930    4.4760
   30.960    4.8657
   30.990    4.6551
   31.020    4.6445
   31.050    4.5392
   31.080    4.7499
   31.110    4.4866
   31.140    4.7604
   31.170    4.4655
   31.200    4.6867
   31.230    4.4339
   31.260    4.6340
   31.290    4.3181
   31.320    4.6867
   31.350    4.8868
   31.380    4.4234
   31.410    4.5708
   31.440    4.3602
   31.470    4.8341
   31.500    4.6551
   31.530    4.5814
   31.560    4.4339
   31.590    4.5814
   31.620    4.6761
   31.650    4.6656
   31.680    4.6972
   31.710    4.4339
   31.740    4.5392
   31.770    5.0658
   31.800    4.5919
   31.830    4.6551
   31.860    4.9605
   31.890    4.7709
   31.920    4.8447
   31.950    4.3497
   31.980    4.6656
   32.010    4.5287
   32.040    4.7815
   32.070    4.5182
   32.100    4.4023
   32.130    4.3075
   32.160    4.3918
   32.190    4.2233
   32.220    4.0548
   32.250    4.4971
   32.280    4.4760
   32.310    4.2022
   32.340    4.3602
   32.370    4.0864
   32.400    4.3813
   32.430    4.3918
   32.460    4.4760
   32.490    4.2338
   32.520    4.4550
   32.550    4.1917
   32.580    4.5708
   32.610    4.6972
   32.640    4.3391
   32.670    3.8652
   32.700    4.3497
   32.730    4.1074
   32.760    4.3497
   32.790    4.3497
   32.820    4.2865
   32.850    4.4128
   32.880    4.1706
   32.910    4.7815
   32.940    4.3391
   32.970    4.3286
   33.000    4.2970
   33.030    4.0232
   33.060    4.2865
   33.090    3.9494
   33.120    3.8547
   33.150    4.1180
   33.180    4.5814
   33.210    4.4760
   33.240    4.2970
   33.270    4.3391
   33.300    3.9179
   33.330    4.0758
   33.360    3.9389
   33.390    4.0758
   33.420    4.0653
   33.450    4.1811
   33.480    4.0126
   33.510    4.0337
   33.540    3.9600
   33.570    4.0969
   33.600    4.4866
   33.630    4.1601
   33.660    3.8336
   33.690    4.1811
   33.720    4.4023
   33.750    4.1180
   33.780    4.1180
   33.810    4.4550
   33.840    4.3602
   33.870    4.2233
   33.900    4.2759
   33.930    4.1285
   33.960    4.1601
   33.990    3.9494
   34.020    3.9600
   34.050    4.1180
   34.080    3.9494
   34.110    3.9600
   34.140    4.2127
   34.170    4.2654
   34.200    3.8441
   34.230    4.0021
   34.260    4.2022
   34.290    3.7493
   34.320    4.3602
   34.350    3.8652
   34.380    4.1180
   34.410    4.3813
   34.440    4.0864
   34.470    3.9600
   34.500    4.1496
   34.530    4.0653
   34.560    4.1811
   34.590    4.0337
   34.620    3.7599
   34.650    3.8968
   34.680    3.8968
   34.710    4.0864
   34.740    4.0864
   34.770    3.9073
   34.800    3.8652
   34.830    3.9705
   34.860    4.0337
   34.890    3.8547
   34.920    3.9810
   34.950    4.0758
   34.980    4.0758
   35.010    3.9179
   35.040    3.8863
   35.070    4.1706
   35.100    4.0864
   35.130    3.7072
   35.160    4.0969
   35.190    3.9705
   35.220    4.1074
   35.250    3.9705
   35.280    4.1601
   35.310    4.1601
   35.340    3.9389
   35.370    3.8336
   35.400    4.0864
   35.430    4.0653
   35.460    4.0548
   35.490    3.7177
   35.520    3.8968
   35.550    3.8652
   35.580    4.2022
   35.610    3.9810
   35.640    4.0653
   35.670    4.0021
   35.700    3.9705
   35.730    3.7704
   35.760    3.8757
   35.790    3.9705
   35.820    4.1074
   35.850    3.6124
   35.880    3.8231
   35.910    3.9179
   35.940    3.7704
   35.970    3.9705
   36.000    4.0232
   36.030    4.2338
   36.060    4.2022
   36.090    4.3918
   36.120    3.9389
   36.150    4.0969
   36.180    3.4544
   36.210    3.5703
   36.240    4.0126
   36.270    3.6756
   36.300    4.0442
   36.330    3.8757
   36.360    3.5176
   36.390    3.5387
   36.420    3.8020
   36.450    3.9179
   36.480    3.6335
   36.510    3.9179
   36.540    3.8336
   36.570    4.0021
   36.600    4.0337
   36.630    3.9600
   36.660    3.9600
   36.690    3.7704
   36.720    3.8547
   36.750    3.8125
   36.780    3.7704
   36.810    3.6124
   36.840    3.7915
   36.870    3.7388
   36.900    3.6440
   36.930    3.7283
   36.960    3.7493
   36.990    3.5387
   37.020    3.5492
   37.050    3.4229
   37.080    4.0126
   37.110    3.6230
   37.140    3.6862
   37.170    3.9284
   37.200    3.6230
   37.230    3.7177
   37.260    3.6335
   37.290    3.5387
   37.320    3.5492
   37.350    3.8125
   37.380    3.7915
   37.410    3.7388
   37.440    3.6019
   37.470    3.5492
   37.500    3.9705
   37.530    3.6756
   37.560    4.0548
   37.590    3.7809
   37.620    3.6651
   37.650    3.4755
   37.680    3.8441
   37.710    3.6335
   37.740    3.4650
   37.770    4.0021
   37.800    3.6335
   37.830    3.8863
   37.860    3.6862
   37.890    3.4229
   37.920    3.8231
   37.950    3.5914
   37.980    3.7177
   38.010    3.7072
   38.040    3.6756
   38.070    3.6967
   38.100    3.7809
   38.130    3.7283
   38.160    3.6230
   38.190    3.6124
   38.220    3.8863
   38.250    3.6440
   38.280    3.8020
   38.310    3.7493
   38.340    3.7072
   38.370    3.6019
   38.400    3.5703
   38.430    3.6019
   38.460    3.8231
   38.490    3.7072
   38.520    3.5282
   38.550    3.6651
   38.580    3.6862
   38.610    3.6756
   38.640    4.0232
   38.670    3.7283
   38.700    3.7072
   38.730    3.4755
   38.760    3.6230
   38.790    3.6651
   38.820    3.4018
   38.850    3.5387
   38.880    3.7704
   38.910    3.5914
   38.940    3.8547
   38.970    3.4860
   39.000    3.5808
   39.030    3.6335
   39.060    3.8125
   39.090    3.6862
   39.120    3.8757
   39.150    3.5914
   39.180    3.4966
   39.210    3.5387
   39.240    3.9179
   39.270    3.3386
   39.300    3.5914
   39.330    3.7388
   39.360    3.8231
   39.390    3.6335
   39.420    3.8547
   39.450    3.8125
   39.480    3.9600
   39.510    3.8441
   39.540    3.5598
   39.570    3.7283
   39.600    3.8652
   39.630    3.5808
   39.660    3.7177
   39.690    3.6335
   39.720    3.9073
   39.750    3.7915
   39.780    3.7809
   39.810    3.6651
   39.840    3.4650
   39.870    3.8968
   39.900    3.8547
   39.930    3.8125
   39.960    3.7388
   39.990    3.4966