File: data/PXRD/PXRD_KE-275_Cu-Ka1_film-3mm_3s-deg.xyd
    1.500   15.4292
    1.530   15.1834
    1.560   15.4116
    1.590   15.0255
    1.620   13.9372
    1.650   13.8143
    1.680   13.2701
    1.710   13.8494
    1.740   13.4632
    1.770   12.0590
    1.800   12.8313
    1.830   13.1122
    1.860   12.9717
    1.890   12.2345
    1.920   11.7957
    1.950   12.2170
    1.980   11.5499
    2.010   11.8483
    2.040   11.1638
    2.070   10.4792
    2.100   11.1813
    2.130   11.4797
    2.160   11.2164
    2.190   10.8829
    2.220   11.4797
    2.250   10.7776
    2.280   10.7952
    2.310   10.7952
    2.340   10.9707
    2.370   10.3212
    2.400    9.9702
    2.430   10.3739
    2.460    9.6191
    2.490   10.0579
    2.520   10.2510
    2.550   10.3212
    2.580    9.7069
    2.610    9.8999
    2.640   10.2686
    2.670    9.8122
    2.700   10.0579
    2.730    9.4260
    2.760    9.3382
    2.790    9.8297
    2.820   10.2159
    2.850    9.4260
    2.880    9.6191
    2.910    9.6542
    2.940    9.1978
    2.970    9.2505
    3.000    9.3909
    3.030    9.0047
    3.060    9.4260
    3.090    9.5489
    3.120    9.9877
    3.150    9.8824
    3.180    9.3558
    3.210    9.7420
    3.240   10.4792
    3.270    9.9351
    3.300   10.1106
    3.330    9.9175
    3.360   11.0585
    3.390   10.4616
    3.420   11.9361
    3.450   12.3574
    3.480   12.1467
    3.510   13.6388
    3.540   13.3404
    3.570   16.0260
    3.600   16.8159
    3.630   17.3425
    3.660   20.8882
    3.690   24.2935
    3.720   28.0147
    3.750   34.7727
    3.780   41.3902
    3.810   34.2461
    3.840   21.6430
    3.870   12.9191
    3.900    9.6718
    3.930    9.4436
    3.960    8.6712
    3.990    8.7590
    4.020    8.1095
    4.050    9.2329
    4.080    9.0750
    4.110    8.6888
    4.140    8.7063
    4.170    9.0223
    4.200    8.2324
    4.230    8.0744
    4.260    8.0744
    4.290    9.0047
    4.320    8.4255
    4.350    8.0569
    4.380    8.3553
    4.410    7.9164
    4.440    8.2851
    4.470    9.2505
    4.500    8.6010
    4.530    8.2149
    4.560    8.6361
    4.590    8.2675
    4.620    8.6010
    4.650    8.2149
    4.680    8.6888
    4.710    8.8819
    4.740    8.1271
    4.770    8.0744
    4.800    9.0047
    4.830    8.0744
    4.860    8.8994
    4.890    8.8468
    4.920    9.0398
    4.950    8.4957
    4.980    9.0047
    5.010    9.1627
    5.040    9.6718
    5.070    9.1627
    5.100    9.6367
    5.130   10.4968
    5.160    9.9175
    5.190    9.8297
    5.220   10.3739
    5.250   11.7255
    5.280   11.0233
    5.310   12.2345
    5.340   12.3574
    5.370   13.3052
    5.400   13.4457
    5.430   12.0063
    5.460   11.7430
    5.490   11.2866
    5.520   11.3217
    5.550   10.9180
    5.580   11.2866
    5.610   10.5670
    5.640   10.3563
    5.670   10.8478
    5.700   11.0233
    5.730    9.8122
    5.760   10.3212
    5.790    9.6191
    5.820    9.3031
    5.850    8.9696
    5.880    9.5138
    5.910    9.1627
    5.940    8.3553
    5.970    8.5308
    6.000    8.8117
    6.030    8.5659
    6.060    8.8292
    6.090    8.4255
    6.120    8.5133
    6.150    8.5133
    6.180    9.1276
    6.210    8.3377
    6.240    8.3553
    6.270    8.1973
    6.300    8.1446
    6.330    7.9516
    6.360    7.9516
    6.390    8.0920
    6.420    8.1446
    6.450    7.1792
    6.480    8.4781
    6.510    8.3202
    6.540    8.3377
    6.570    8.4606
    6.600    8.3377
    6.630    7.8989
    6.660    7.2845
    6.690    7.0037
    6.720    7.0563
    6.750    6.7930
    6.780    7.3372
    6.810    6.9510
    6.840    7.4601
    6.870    7.2670
    6.900    6.8282
    6.930    6.5298
    6.960    6.8808
    6.990    6.8633
    7.020    7.2494
    7.050    5.8803
    7.080    7.1792
    7.110    7.4250
    7.140    6.8633
    7.170    6.4595
    7.200    6.8984
    7.230    6.4069
    7.260    6.4420
    7.290    6.0734
    7.320    6.8282
    7.350    6.4595
    7.380    6.2313
    7.410    6.5473
    7.440    6.6877
    7.470    6.3718
    7.500    6.4244
    7.530    6.4946
    7.560    6.3718
    7.590    6.7579
    7.620    6.6175
    7.650    7.3899
    7.680    6.6526
    7.710    5.8101
    7.740    5.7574
    7.770    6.3542
    7.800    5.6170
    7.830    6.0207
    7.860    5.7048
    7.890    6.2138
    7.920    5.5819
    7.950    5.7925
    7.980    5.6697
    8.010    5.5643
    8.040    5.5643
    8.070    5.6521
    8.100    5.1431
    8.130    5.8452
    8.160    5.4766
    8.190    5.2659
    8.220    5.8452
    8.250    5.5994
    8.280    6.1085
    8.310    5.2659
    8.340    5.4239
    8.370    5.5643
    8.400    5.4941
    8.430    5.9329
    8.460    5.5643
    8.490    5.6170
    8.520    6.0383
    8.550    5.8276
    8.580    5.9329
    8.610    5.3186
    8.640    5.6170
    8.670    5.0553
    8.700    5.3712
    8.730    4.9851
    8.760    5.0026
    8.790    5.0553
    8.820    4.8622
    8.850    4.7042
    8.880    5.2308
    8.910    5.3888
    8.940    5.4590
    8.970    5.2484
    9.000    4.8095
    9.030    5.0904
    9.060    5.1957
    9.090    5.0026
    9.120    5.2659
    9.150    4.9500
    9.180    5.1431
    9.210    5.0026
    9.240    5.5117
    9.270    5.7925
    9.300    5.1255
    9.330    5.5468
    9.360    6.0909
    9.390    5.9329
    9.420    5.3537
    9.450    5.1957
    9.480    4.8271
    9.510    5.2484
    9.540    4.9675
    9.570    4.8271
    9.600    5.3537
    9.630    4.8095
    9.660    5.3537
    9.690    4.8447
    9.720    4.9500
    9.750    5.1431
    9.780    4.8798
    9.810    5.1255
    9.840    4.7042
    9.870    4.7218
    9.900    5.2835
    9.930    5.0202
    9.960    5.0377
    9.990    5.3712
   10.020    5.2133
   10.050    5.2659
   10.080    6.1611
   10.110    6.2840
   10.140    6.0207
   10.170    5.6170
   10.200    5.5117
   10.230    5.1431
   10.260    5.1782
   10.290    5.3010
   10.320    5.0728
   10.350    4.9851
   10.380    5.3186
   10.410    5.5994
   10.440    5.2659
   10.470    5.1606
   10.500    5.2835
   10.530    5.1606
   10.560    5.2659
   10.590    5.1782
   10.620    5.5292
   10.650    5.7223
   10.680    5.4239
   10.710    5.6697
   10.740    5.6521
   10.770    6.2665
   10.800    5.4239
   10.830    6.3191
   10.860    5.5468
   10.890    5.9154
   10.920    5.8101
   10.950    5.3361
   10.980    5.5468
   11.010    4.9851
   11.040    5.3361
   11.070    5.1606
   11.100    5.2133
   11.130    4.8447
   11.160    5.3010
   11.190    5.2484
   11.220    5.7048
   11.250    5.1957
   11.280    4.9149
   11.310    5.1782
   11.340    5.1957
   11.370    5.3010
   11.400    5.2659
   11.430    5.7925
   11.460    5.6872
   11.490    5.4590
   11.520    5.3712
   11.550    5.2835
   11.580    5.0202
   11.610    5.2133
   11.640    5.7750
   11.670    5.0553
   11.700    4.9851
   11.730    4.8622
   11.760    5.6345
   11.790    5.1080
   11.820    5.0904
   11.850    5.0202
   11.880    5.4064
   11.910    5.3010
   11.940    5.1957
   11.970    5.2133
   12.000    5.1431
   12.030    5.4064
   12.060    5.4590
   12.090    5.8452
   12.120    5.7048
   12.150    5.1080
   12.180    5.0904
   12.210    4.9851
   12.240    5.2659
   12.270    5.1255
   12.300    5.5117
   12.330    5.0904
   12.360    4.5463
   12.390    4.7569
   12.420    4.7569
   12.450    5.3888
   12.480    5.3186
   12.510    4.9324
   12.540    5.1606
   12.570    4.7218
   12.600    5.0026
   12.630    5.1782
   12.660    5.1957
   12.690    5.5117
   12.720    5.6170
   12.750    5.3537
   12.780    4.9324
   12.810    4.4585
   12.840    4.8798
   12.870    4.3356
   12.900    5.2835
   12.930    4.6867
   12.960    5.4064
   12.990    4.8271
   13.020    4.7218
   13.050    5.0904
   13.080    4.7920
   13.110    4.5814
   13.140    4.9500
   13.170    4.8622
   13.200    4.7569
   13.230    4.7393
   13.260    4.8095
   13.290    4.7920
   13.320    4.9500
   13.350    4.9324
   13.380    4.7393
   13.410    4.6691
   13.440    4.5463
   13.470    4.6516
   13.500    4.7042
   13.530    5.0728
   13.560    4.6691
   13.590    4.5814
   13.620    4.8973
   13.650    4.8271
   13.680    5.0904
   13.710    4.8798
   13.740    4.7042
   13.770    5.3186
   13.800    5.3712
   13.830    5.1080
   13.860    5.5643
   13.890    5.4590
   13.920    4.8447
   13.950    5.2484
   13.980    5.1431
   14.010    4.8271
   14.040    5.1782
   14.070    5.4239
   14.100    5.2308
   14.130    5.9154
   14.160    4.7042
   14.190    5.1431
   14.220    5.1782
   14.250    5.1782
   14.280    4.8271
   14.310    5.1957
   14.340    5.2484
   14.370    5.3537
   14.400    5.1255
   14.430    5.9154
   14.460    5.2308
   14.490    5.2659
   14.520    5.3712
   14.550    5.2484
   14.580    5.2133
   14.610    5.4941
   14.640    5.7399
   14.670    5.6345
   14.700    4.8973
   14.730    4.6516
   14.760    5.0377
   14.790    4.6691
   14.820    5.1255
   14.850    5.2308
   14.880    5.7048
   14.910    4.9324
   14.940    4.6516
   14.970    4.6340
   15.000    4.8622
   15.030    5.1255
   15.060    4.9500
   15.090    5.0553
   15.120    5.0377
   15.150    4.8447
   15.180    4.9324
   15.210    4.5111
   15.240    4.6340
   15.270    5.0904
   15.300    5.0377
   15.330    4.7218
   15.360    4.9851
   15.390    4.7920
   15.420    4.9851
   15.450    4.9675
   15.480    4.9149
   15.510    4.9675
   15.540    4.6165
   15.570    4.6867
   15.600    4.6516
   15.630    4.8973
   15.660    4.1425
   15.690    4.4585
   15.720    4.6691
   15.750    4.5287
   15.780    5.0026
   15.810    4.4585
   15.840    4.8622
   15.870    5.0553
   15.900    5.1957
   15.930    5.0026
   15.960    4.9675
   15.990    4.8973
   16.020    4.4585
   16.050    4.9675
   16.080    4.8973
   16.110    4.6691
   16.140    5.0377
   16.170    4.8622
   16.200    5.2659
   16.230    5.0377
   16.260    5.0728
   16.290    5.1431
   16.320    4.8622
   16.350    4.9500
   16.380    4.6340
   16.410    4.5111
   16.440    4.7744
   16.470    4.4936
   16.500    4.8798
   16.530    4.7569
   16.560    5.1782
   16.590    4.9149
   16.620    4.5638
   16.650    4.2654
   16.680    5.1606
   16.710    4.5638
   16.740    4.6165
   16.770    5.1255
   16.800    5.3712
   16.830    4.9500
   16.860    4.7393
   16.890    4.4585
   16.920    4.8095
   16.950    4.5814
   16.980    4.8447
   17.010    4.0723
   17.040    4.5463
   17.070    4.9149
   17.100    4.3707
   17.130    4.8095
   17.160    4.6340
   17.190    4.7920
   17.220    4.8798
   17.250    4.8798
   17.280    4.4936
   17.310    4.5638
   17.340    5.1080
   17.370    4.7920
   17.400    4.6340
   17.430    4.9149
   17.460    4.8095
   17.490    4.6691
   17.520    4.6867
   17.550    4.9675
   17.580    4.4936
   17.610    4.8447
   17.640    4.1425
   17.670    4.9851
   17.700    5.1080
   17.730    4.4234
   17.760    4.7744
   17.790    4.4234
   17.820    4.7218
   17.850    4.6516
   17.880    4.7042
   17.910    4.2654
   17.940    5.1431
   17.970    4.6691
   18.000    4.2478
   18.030    4.4936
   18.060    4.4760
   18.090    4.3356
   18.120    5.0728
   18.150    4.4234
   18.180    4.5287
   18.210    4.5111
   18.240    5.0377
   18.270    4.3532
   18.300    4.8622
   18.330    4.3356
   18.360    4.8973
   18.390    4.4409
   18.420    5.0026
   18.450    4.7042
   18.480    4.9324
   18.510    4.8447
   18.540    5.0202
   18.570    4.6691
   18.600    5.0026
   18.630    4.6516
   18.660    4.6165
   18.690    4.3883
   18.720    4.6691
   18.750    4.7920
   18.780    4.9324
   18.810    4.5989
   18.840    4.8095
   18.870    4.2478
   18.900    4.6867
   18.930    4.5287
   18.960    4.2830
   18.990    4.5989
   19.020    4.5814
   19.050    4.5463
   19.080    4.0723
   19.110    4.6340
   19.140    4.4058
   19.170    4.4058
   19.200    4.4936
   19.230    4.5111
   19.260    4.8798
   19.290    4.4409
   19.320    4.3532
   19.350    4.4234
   19.380    4.0197
   19.410    4.3181
   19.440    4.7569
   19.470    4.4409
   19.500    4.6867
   19.530    4.3005
   19.560    4.4234
   19.590    4.3532
   19.620    4.1250
   19.650    4.3707
   19.680    4.0372
   19.710    4.5111
   19.740    4.5463
   19.770    4.5638
   19.800    4.3181
   19.830    4.4409
   19.860    4.5638
   19.890    4.2830
   19.920    4.5463
   19.950    4.2654
   19.980    4.2830
   20.010    4.7042
   20.040    4.4058
   20.070    4.5814
   20.100    4.3181
   20.130    4.1425
   20.160    4.3356
   20.190    3.9846
   20.220    4.0372
   20.250    4.1776
   20.280    4.4760
   20.310    4.5287
   20.340    4.3356
   20.370    4.3356
   20.400    4.4585
   20.430    4.4058
   20.460    4.6165
   20.490    4.5814
   20.520    4.0723
   20.550    4.3005
   20.580    4.3181
   20.610    4.3005
   20.640    3.8617
   20.670    4.3005
   20.700    4.0723
   20.730    4.3005
   20.760    4.4585
   20.790    4.3356
   20.820    4.0548
   20.850    4.1776
   20.880    4.2478
   20.910    4.0021
   20.940    3.7213
   20.970    4.4585
   21.000    4.3883
   21.030    4.0548
   21.060    3.6862
   21.090    4.0899
   21.120    4.1776
   21.150    3.7915
   21.180    4.3883
   21.210    4.4585
   21.240    3.8968
   21.270    3.7564
   21.300    4.5989
   21.330    4.0723
   21.360    3.6510
   21.390    4.2478
   21.420    4.2127
   21.450    3.9319
   21.480    4.7042
   21.510    4.3532
   21.540    4.1952
   21.570    4.1776
   21.600    4.4585
   21.630    4.3883
   21.660    3.8441
   21.690    4.2127
   21.720    4.4234
   21.750    4.1074
   21.780    4.0548
   21.810    4.1601
   21.840    4.3707
   21.870    4.0197
   21.900    3.7037
   21.930    4.0723
   21.960    4.0723
   21.990    4.2303
   22.020    4.4936
   22.050    4.1952
   22.080    3.8968
   22.110    3.9319
   22.140    4.2127
   22.170    3.9143
   22.200    4.1250
   22.230    4.2830
   22.260    3.6862
   22.290    4.3532
   22.320    3.9143
   22.350    4.0197
   22.380    3.9319
   22.410    4.2654
   22.440    4.3532
   22.470    4.0723
   22.500    4.3005
   22.530    4.4058
   22.560    3.8617
   22.590    4.3005
   22.620    3.7037
   22.650    3.8617
   22.680    4.0548
   22.710    3.8441
   22.740    3.8792
   22.770    3.7388
   22.800    3.8617
   22.830    3.9846
   22.860    3.5808
   22.890    4.0021
   22.920    4.1952
   22.950    3.5808
   22.980    3.8090
   23.010    4.1776
   23.040    3.9319
   23.070    3.7915
   23.100    3.8266
   23.130    3.6159
   23.160    3.6686
   23.190    3.7915
   23.220    3.7388
   23.250    3.4404
   23.280    3.7213
   23.310    3.4755
   23.340    3.3877
   23.370    4.0197
   23.400    4.0723
   23.430    3.9494
   23.460    4.0723
   23.490    4.4234
   23.520    3.9494
   23.550    3.6510
   23.580    3.8266
   23.610    3.5282
   23.640    3.7388
   23.670    3.6510
   23.700    3.5457
   23.730    3.6862
   23.760    3.5457
   23.790    3.3877
   23.820    3.5282
   23.850    3.3526
   23.880    3.9143
   23.910    3.8090
   23.940    3.3702
   23.970    3.5808
   24.000    3.4755
   24.030    3.6862
   24.060    3.9494
   24.090    3.3000
   24.120    3.5808
   24.150    3.8266
   24.180    3.7388
   24.210    3.4931
   24.240    3.6335
   24.270    3.2649
   24.300    3.3877
   24.330    3.2122
   24.360    3.7739
   24.390    3.6159
   24.420    3.5808
   24.450    3.2122
   24.480    3.5106
   24.510    3.3351
   24.540    4.0899
   24.570    3.5984
   24.600    3.7739
   24.630    3.8266
   24.660    3.6686
   24.690    3.4404
   24.720    3.7037
   24.750    3.6159
   24.780    3.2824
   24.810    3.5457
   24.840    3.4755
   24.870    3.6686
   24.900    3.5633
   24.930    3.6510
   24.960    3.3351
   24.990    3.6510
   25.020    3.7915
   25.050    3.4755
   25.080    3.3877
   25.110    3.5633
   25.140    3.5984
   25.170    3.3526
   25.200    3.2298
   25.230    3.6510
   25.260    3.3175
   25.290    3.5984
   25.320    3.8617
   25.350    3.6862
   25.380    3.7915
   25.410    3.7388
   25.440    3.5984
   25.470    3.5282
   25.500    3.9670
   25.530    3.4755
   25.560    3.3000
   25.590    3.3000
   25.620    3.3877
   25.650    3.4580
   25.680    3.4053
   25.710    3.3175
   25.740    3.5106
   25.770    3.4404
   25.800    3.1245
   25.830    3.4053
   25.860    3.3877
   25.890    3.4229
   25.920    3.6686
   25.950    3.6686
   25.980    3.4755
   26.010    3.4404
   26.040    3.4053
   26.070    3.1069
   26.100    3.3702
   26.130    3.3526
   26.160    3.6335
   26.190    3.3000
   26.220    3.4229
   26.250    3.1069
   26.280    3.0016
   26.310    3.2649
   26.340    3.5457
   26.370    3.0016
   26.400    3.3702
   26.430    3.0016
   26.460    3.2473
   26.490    3.2122
   26.520    3.3351
   26.550    3.1420
   26.580    3.5282
   26.610    3.1245
   26.640    3.3526
   26.670    3.3000
   26.700    3.1947
   26.730    3.3351
   26.760    3.1069
   26.790    3.4580
   26.820    3.4755
   26.850    3.0542
   26.880    3.4404
   26.910    2.9840
   26.940    3.3175
   26.970    3.2649
   27.000    3.1069
   27.030    3.1245
   27.060    3.1420
   27.090    2.9489
   27.120    3.2473
   27.150    3.1596
   27.180    2.7558
   27.210    3.0893
   27.240    3.2122
   27.270    2.8436
   27.300    3.1245
   27.330    3.3351
   27.360    3.1069
   27.390    3.0367
   27.420    2.8436
   27.450    3.2649
   27.480    3.1596
   27.510    2.9489
   27.540    2.7734
   27.570    3.0016
   27.600    2.9138
   27.630    3.2649
   27.660    3.1069
   27.690    2.8436
   27.720    3.0191
   27.750    2.8963
   27.780    3.1069
   27.810    3.1947
   27.840    2.8260
   27.870    3.1947
   27.900    3.0367
   27.930    3.1245
   27.960    2.8963
   27.990    3.2122
   28.020    2.8963
   28.050    2.8787
   28.080    3.1947
   28.110    2.9665
   28.140    2.6330
   28.170    3.1245
   28.200    3.0016
   28.230    2.9314
   28.260    3.1596
   28.290    3.0893
   28.320    3.0542
   28.350    3.1245
   28.380    3.0016
   28.410    2.7734
   28.440    3.0893
   28.470    2.8260
   28.500    3.1069
   28.530    3.1069
   28.560    2.7558
   28.590    2.8963
   28.620    2.8612
   28.650    2.7558
   28.680    3.1947
   28.710    3.0718
   28.740    3.3526
   28.770    3.1069
   28.800    3.0542
   28.830    2.8787
   28.860    3.0367
   28.890    2.9489
   28.920    3.3877
   28.950    3.0016
   28.980    2.9138
   29.010    3.2122
   29.040    3.1069
   29.070    2.5979
   29.100    2.8612
   29.130    2.4925
   29.160    2.9138
   29.190    2.9314
   29.220    2.7734
   29.250    3.0542
   29.280    2.9489
   29.310    3.1596
   29.340    2.6505
   29.370    2.7558
   29.400    2.7383
   29.430    2.7032
   29.460    2.6505
   29.490    2.7207
   29.520    2.7032
   29.550    2.4925
   29.580    2.7207
   29.610    2.1941
   29.640    2.9489
   29.670    2.6681
   29.700    2.2995
   29.730    2.5276
   29.760    2.7909
   29.790    2.9138
   29.820    2.5276
   29.850    2.5276
   29.880    2.7558
   29.910    2.7032
   29.940    2.6505
   29.970    2.5452
   30.000    2.5979
   30.030    2.9840
   30.060    2.4399
   30.090    2.5628
   30.120    2.4574
   30.150    2.5452
   30.180    2.6505
   30.210    2.4925
   30.240    2.6330
   30.270    2.0888
   30.300    2.7207
   30.330    2.4750
   30.360    2.7558
   30.390    2.5628
   30.420    2.2995
   30.450    2.5101
   30.480    2.4750
   30.510    2.4223
   30.540    2.4048
   30.570    2.7032
   30.600    2.2468
   30.630    2.2995
   30.660    2.2292
   30.690    2.5628
   30.720    2.2643
   30.750    2.6505
   30.780    2.4399
   30.810    2.3521
   30.840    2.3170
   30.870    2.5628
   30.900    2.2643
   30.930    2.3697
   30.960    2.3697
   30.990    2.2292
   31.020    2.2819
   31.050    2.5803
   31.080    2.3170
   31.110    2.3697
   31.140    2.1941
   31.170    2.3872
   31.200    2.2819
   31.230    2.3170
   31.260    2.1415
   31.290    2.1766
   31.320    2.2117
   31.350    2.3346
   31.380    1.9308
   31.410    2.1239
   31.440    2.0888
   31.470    2.4750
   31.500    2.2995
   31.530    2.4223
   31.560    2.2995
   31.590    2.2995
   31.620    2.4048
   31.650    2.0362
   31.680    2.2643
   31.710    2.2117
   31.740    2.2819
   31.770    2.6154
   31.800    2.2819
   31.830    2.6154
   31.860    2.1415
   31.890    2.2117
   31.920    2.2995
   31.950    2.2292
   31.980    2.2468
   32.010    2.2468
   32.040    2.0888
   32.070    2.1590
   32.100    1.8255
   32.130    2.2117
   32.160    2.1064
   32.190    2.2117
   32.220    2.3170
   32.250    2.1941
   32.280    2.3170
   32.310    2.3170
   32.340    2.1590
   32.370    2.1590
   32.400    2.0537
   32.430    2.4223
   32.460    1.9133
   32.490    2.2292
   32.520    2.3697
   32.550    2.1239
   32.580    2.2117
   32.610    2.1941
   32.640    2.1239
   32.670    2.1415
   32.700    2.0888
   32.730    1.9835
   32.760    2.2819
   32.790    2.2117
   32.820    2.2819
   32.850    2.2468
   32.880    2.3697
   32.910    2.3697
   32.940    2.1590
   32.970    2.3346
   33.000    2.1415
   33.030    2.1941
   33.060    2.0713
   33.090    2.2292
   33.120    1.9308
   33.150    2.1766
   33.180    2.4048
   33.210    2.1064
   33.240    2.1415
   33.270    1.9308
   33.300    2.1590
   33.330    1.9659
   33.360    2.3346
   33.390    1.7904
   33.420    2.0362
   33.450    1.9133
   33.480    2.1239
   33.510    2.2468
   33.540    2.0537
   33.570    2.2292
   33.600    2.1766
   33.630    2.3697
   33.660    2.0713
   33.690    2.1590
   33.720    2.0362
   33.750    1.8957
   33.780    1.8782
   33.810    1.9659
   33.840    1.8080
   33.870    1.8080
   33.900    1.9835
   33.930    2.0186
   33.960    2.1239
   33.990    2.1415
   34.020    2.5101
   34.050    2.1766
   34.080    1.7202
   34.110    2.0186
   34.140    1.8080
   34.170    2.0186
   34.200    2.1941
   34.230    2.0186
   34.260    1.9659
   34.290    2.1415
   34.320    1.8606
   34.350    1.7202
   34.380    1.9133
   34.410    1.8782
   34.440    2.2292
   34.470    2.0713
   34.500    1.8255
   34.530    2.0713
   34.560    2.1941
   34.590    1.9133
   34.620    2.1941
   34.650    1.9308
   34.680    2.1415
   34.710    2.0362
   34.740    2.0011
   34.770    2.1064
   34.800    1.9308
   34.830    2.1064
   34.860    2.1766
   34.890    1.8782
   34.920    2.2292
   34.950    1.9659
   34.980    1.8957
   35.010    2.0186
   35.040    1.9484
   35.070    1.9484
   35.100    2.0011
   35.130    1.7027
   35.160    2.0011
   35.190    2.0362
   35.220    2.2117
   35.250    1.8431
   35.280    2.0888
   35.310    2.0011
   35.340    1.6324
   35.370    1.6851
   35.400    1.9308
   35.430    2.1239
   35.460    1.8782
   35.490    1.9484
   35.520    1.9133
   35.550    1.8080
   35.580    2.0186
   35.610    1.9133
   35.640    2.0888
   35.670    2.0713
   35.700    1.8782
   35.730    1.7378
   35.760    1.9484
   35.790    1.9133
   35.820    1.9835
   35.850    1.9133
   35.880    1.7904
   35.910    1.9308
   35.940    2.0888
   35.970    2.0186
   36.000    1.9659
   36.030    1.9659
   36.060    2.0011
   36.090    2.0713
   36.120    2.0537
   36.150    2.1239
   36.180    1.7378
   36.210    2.0713
   36.240    2.0011
   36.270    1.6324
   36.300    1.9659
   36.330    1.8957
   36.360    1.7202
   36.390    2.0186
   36.420    1.7553
   36.450    2.0186
   36.480    2.0713
   36.510    1.7553
   36.540    1.9484
   36.570    2.0888
   36.600    2.1064
   36.630    1.9484
   36.660    1.9835
   36.690    2.0186
   36.720    1.9835
   36.750    1.8782
   36.780    1.8431
   36.810    1.9484
   36.840    1.7904
   36.870    1.7553
   36.900    1.8255
   36.930    2.0362
   36.960    2.0888
   36.990    1.9484
   37.020    2.0186
   37.050    1.8255
   37.080    1.8255
   37.110    1.8431
   37.140    2.0888
   37.170    1.7202
   37.200    1.6149
   37.230    1.6851
   37.260    1.9308
   37.290    1.8957
   37.320    2.0537
   37.350    1.7904
   37.380    2.0186
   37.410    1.8255
   37.440    1.9308
   37.470    2.0186
   37.500    1.7904
   37.530    1.8255
   37.560    1.8080
   37.590    1.8431
   37.620    1.7027
   37.650    2.0537
   37.680    1.6149
   37.710    1.7904
   37.740    1.6675
   37.770    1.9484
   37.800    1.8957
   37.830    2.1239
   37.860    1.7378
   37.890    1.6149
   37.920    1.7378
   37.950    1.8431
   37.980    1.8255
   38.010    1.9133
   38.040    1.6500
   38.070    1.9308
   38.100    1.5798
   38.130    2.0537
   38.160    1.7378
   38.190    1.9835
   38.220    1.9659
   38.250    2.0011
   38.280    1.9133
   38.310    1.7202
   38.340    1.8080
   38.370    1.6500
   38.400    1.7729
   38.430    1.4394
   38.460    1.8255
   38.490    2.1415
   38.520    1.7904
   38.550    1.8255
   38.580    1.6149
   38.610    1.8080
   38.640    1.7729
   38.670    1.7202
   38.700    1.6851
   38.730    1.9484
   38.760    1.4218
   38.790    1.8255
   38.820    1.6149
   38.850    1.8080
   38.880    1.8606
   38.910    1.9484
   38.940    1.7904
   38.970    1.6675
   39.000    1.7553
   39.030    1.8255
   39.060    1.8431
   39.090    1.7904
   39.120    1.7202
   39.150    1.7729
   39.180    1.7553
   39.210    1.5096
   39.240    1.5622
   39.270    1.6851
   39.300    1.9308
   39.330    1.5798
   39.360    2.0713
   39.390    1.7378
   39.420    1.9659
   39.450    1.4745
   39.480    1.5798
   39.510    1.7729
   39.540    1.8255
   39.570    2.0011
   39.600    1.6851
   39.630    1.9308
   39.660    1.7378
   39.690    1.6149
   39.720    1.7904
   39.750    1.7729
   39.780    1.4920
   39.810    1.7553
   39.840    1.5798
   39.870    1.7027
   39.900    1.7027
   39.930    1.7729
   39.960    1.8080
   39.990    1.7378