File: data/PXRD/PXRD_KE-035_Cu-Ka1_capillary-0.5mm_5s-deg.xyd
    1.500    2.6540
    1.530    2.6014
    1.560    2.4013
    1.590    2.7804
    1.620    2.6330
    1.650    2.7067
    1.680    2.8015
    1.710    2.7593
    1.740    2.7383
    1.770    2.5803
    1.800    3.0964
    1.830    3.1280
    1.860    3.0964
    1.890    3.1174
    1.920    2.9595
    1.950    3.2438
    1.980    3.1174
    2.010    3.3491
    2.040    3.4334
    2.070    3.1174
    2.100    3.2754
    2.130    2.9700
    2.160    3.2543
    2.190    2.9489
    2.220    3.4860
    2.250    3.0648
    2.280    3.0858
    2.310    3.2227
    2.340    3.5176
    2.370    3.6546
    2.400    3.2543
    2.430    3.4860
    2.460    3.7809
    2.490    3.3070
    2.520    3.7915
    2.550    3.6756
    2.580    3.4860
    2.610    3.7599
    2.640    3.5282
    2.670    3.7177
    2.700    3.6756
    2.730    4.1074
    2.760    3.9179
    2.790    3.8652
    2.820    4.0126
    2.850    4.3813
    2.880    4.4023
    2.910    4.0021
    2.940    3.9284
    2.970    4.3602
    3.000    4.3181
    3.030    4.1601
    3.060    4.4971
    3.090    4.5814
    3.120    4.6761
    3.150    4.3497
    3.180    4.6972
    3.210    4.6867
    3.240    4.7393
    3.270    5.1185
    3.300    5.4239
    3.330    5.6345
    3.360    5.3923
    3.390    6.0453
    3.420    5.5819
    3.450    5.7715
    3.480    5.6661
    3.510    6.0032
    3.540    5.9084
    3.570    5.4344
    3.600    5.5608
    3.630    5.0448
    3.660    5.4134
    3.690    4.7815
    3.720    5.0132
    3.750    4.8657
    3.780    4.8868
    3.810    4.8131
    3.840    4.5814
    3.870    4.7288
    3.900    4.7920
    3.930    4.4550
    3.960    4.5392
    3.990    4.2022
    4.020    3.9494
    4.050    4.0548
    4.080    4.0969
    4.110    3.8125
    4.140    3.7283
    4.170    3.7493
    4.200    3.5492
    4.230    3.5914
    4.260    3.6546
    4.290    3.2754
    4.320    3.2649
    4.350    3.3175
    4.380    3.5598
    4.410    3.4966
    4.440    3.5071
    4.470    2.9595
    4.500    3.3070
    4.530    3.3281
    4.560    3.3807
    4.590    3.4966
    4.620    3.2017
    4.650    3.1069
    4.680    3.0753
    4.710    3.6651
    4.740    3.5598
    4.770    3.2965
    4.800    3.3807
    4.830    3.2965
    4.860    3.5282
    4.890    3.2122
    4.920    3.2754
    4.950    3.4650
    4.980    3.2438
    5.010    3.4018
    5.040    3.1385
    5.070    3.3491
    5.100    3.2438
    5.130    3.0542
    5.160    3.2965
    5.190    3.0226
    5.220    3.0858
    5.250    3.3491
    5.280    3.4334
    5.310    3.2333
    5.340    3.1912
    5.370    3.2859
    5.400    3.4334
    5.430    3.3597
    5.460    3.6862
    5.490    3.1385
    5.520    3.2543
    5.550    3.2122
    5.580    3.1806
    5.610    2.9805
    5.640    3.3597
    5.670    3.2122
    5.700    3.2333
    5.730    3.5282
    5.760    3.1806
    5.790    3.5282
    5.820    3.3070
    5.850    3.4755
    5.880    3.3702
    5.910    3.2333
    5.940    3.2754
    5.970    3.2438
    6.000    3.2227
    6.030    3.3597
    6.060    3.5282
    6.090    3.3491
    6.120    3.5598
    6.150    3.2438
    6.180    3.0542
    6.210    3.2965
    6.240    3.3386
    6.270    3.3386
    6.300    3.5176
    6.330    3.4755
    6.360    3.1912
    6.390    3.2438
    6.420    3.2859
    6.450    3.1490
    6.480    3.4966
    6.510    3.1701
    6.540    3.3807
    6.570    3.2649
    6.600    3.4755
    6.630    3.2543
    6.660    3.4544
    6.690    3.5598
    6.720    3.6230
    6.750    3.4650
    6.780    3.3702
    6.810    3.4650
    6.840    3.8020
    6.870    3.5071
    6.900    3.5282
    6.930    3.6862
    6.960    3.4755
    6.990    3.6019
    7.020    3.8231
    7.050    3.3913
    7.080    3.5071
    7.110    3.5071
    7.140    3.2333
    7.170    3.2333
    7.200    3.7283
    7.230    3.5808
    7.260    3.2859
    7.290    3.2649
    7.320    3.1912
    7.350    3.5598
    7.380    3.4018
    7.410    3.2754
    7.440    3.4755
    7.470    3.5492
    7.500    3.1596
    7.530    3.3386
    7.560    3.6335
    7.590    3.2122
    7.620    3.4229
    7.650    3.4966
    7.680    3.5282
    7.710    3.5071
    7.740    3.4439
    7.770    3.3597
    7.800    3.4018
    7.830    3.4334
    7.860    3.5176
    7.890    3.2227
    7.920    3.4229
    7.950    3.1912
    7.980    3.5598
    8.010    3.5282
    8.040    3.3807
    8.070    3.3597
    8.100    3.2543
    8.130    3.2017
    8.160    3.1701
    8.190    3.4544
    8.220    3.3281
    8.250    3.3597
    8.280    3.1701
    8.310    3.6230
    8.340    3.1912
    8.370    3.2017
    8.400    3.3913
    8.430    3.0648
    8.460    3.2227
    8.490    3.1596
    8.520    3.2438
    8.550    3.0542
    8.580    3.1174
    8.610    3.1069
    8.640    3.4650
    8.670    3.4966
    8.700    3.2438
    8.730    3.1806
    8.760    3.0121
    8.790    2.8963
    8.820    3.2227
    8.850    3.1701
    8.880    3.1912
    8.910    3.1385
    8.940    3.2017
    8.970    3.1701
    9.000    3.0437
    9.030    3.2017
    9.060    3.0016
    9.090    3.3491
    9.120    3.6124
    9.150    3.0437
    9.180    3.2859
    9.210    3.0858
    9.240    3.2017
    9.270    3.4650
    9.300    3.4650
    9.330    3.3070
    9.360    3.1806
    9.390    3.4123
    9.420    3.0858
    9.450    3.0437
    9.480    2.9805
    9.510    3.2333
    9.540    3.1385
    9.570    3.0858
    9.600    3.4334
    9.630    3.1912
    9.660    3.1806
    9.690    3.3913
    9.720    2.9068
    9.750    2.9805
    9.780    3.2017
    9.810    3.3913
    9.840    3.1596
    9.870    2.9595
    9.900    3.2333
    9.930    3.3281
    9.960    3.1385
    9.990    2.9279
   10.020    3.3597
   10.050    3.1174
   10.080    3.0332
   10.110    2.8857
   10.140    3.5703
   10.170    3.0016
   10.200    3.0121
   10.230    3.1912
   10.260    3.0121
   10.290    3.1596
   10.320    3.1385
   10.350    3.3597
   10.380    3.1490
   10.410    3.0964
   10.440    3.4755
   10.470    3.4334
   10.500    2.9595
   10.530    3.1069
   10.560    3.4018
   10.590    2.8963
   10.620    3.0648
   10.650    3.0858
   10.680    3.1806
   10.710    3.0332
   10.740    3.1806
   10.770    2.9910
   10.800    3.0226
   10.830    2.9384
   10.860    3.0858
   10.890    3.1912
   10.920    3.1701
   10.950    3.1806
   10.980    3.0437
   11.010    3.2227
   11.040    3.2649
   11.070    2.9595
   11.100    3.1701
   11.130    3.2859
   11.160    3.2438
   11.190    3.2227
   11.220    2.9489
   11.250    3.0753
   11.280    3.0858
   11.310    3.0858
   11.340    3.5492
   11.370    3.1069
   11.400    3.2227
   11.430    3.3175
   11.460    2.8436
   11.490    2.9279
   11.520    3.3807
   11.550    3.1806
   11.580    3.4018
   11.610    3.0332
   11.640    3.2543
   11.670    2.8120
   11.700    3.0753
   11.730    3.0542
   11.760    2.8015
   11.790    3.0332
   11.820    2.9068
   11.850    3.0542
   11.880    2.9384
   11.910    2.8857
   11.940    3.0016
   11.970    3.0016
   12.000    2.9595
   12.030    3.0437
   12.060    2.9910
   12.090    2.8647
   12.120    3.2017
   12.150    3.0332
   12.180    2.7067
   12.210    2.9700
   12.240    3.0753
   12.270    2.8752
   12.300    3.0332
   12.330    3.0542
   12.360    3.0858
   12.390    3.1596
   12.420    2.8752
   12.450    2.9910
   12.480    2.7909
   12.510    2.8647
   12.540    3.1701
   12.570    3.2649
   12.600    2.7699
   12.630    3.0542
   12.660    2.9489
   12.690    3.1069
   12.720    2.8963
   12.750    3.0121
   12.780    3.0226
   12.810    2.8647
   12.840    2.9384
   12.870    2.8647
   12.900    3.1806
   12.930    2.8331
   12.960    2.8857
   12.990    2.8541
   13.020    3.0016
   13.050    2.9805
   13.080    2.9068
   13.110    3.0437
   13.140    3.0542
   13.170    2.8541
   13.200    3.0858
   13.230    3.1701
   13.260    3.0332
   13.290    2.9805
   13.320    3.0858
   13.350    2.9489
   13.380    2.9173
   13.410    2.8436
   13.440    2.9700
   13.470    2.9805
   13.500    2.8015
   13.530    3.0648
   13.560    2.7383
   13.590    3.0437
   13.620    2.9384
   13.650    2.8015
   13.680    2.6435
   13.710    3.0332
   13.740    2.7593
   13.770    3.0858
   13.800    2.9489
   13.830    2.9910
   13.860    3.2122
   13.890    2.9595
   13.920    3.2227
   13.950    3.2017
   13.980    2.9700
   14.010    2.8963
   14.040    3.2649
   14.070    2.8857
   14.100    2.8963
   14.130    2.9068
   14.160    2.9595
   14.190    3.0016
   14.220    2.6119
   14.250    2.8436
   14.280    3.1280
   14.310    3.1385
   14.340    3.0542
   14.370    2.9700
   14.400    3.0437
   14.430    2.7699
   14.460    3.2122
   14.490    3.0542
   14.520    2.8225
   14.550    3.1280
   14.580    2.9279
   14.610    2.9700
   14.640    2.9489
   14.670    3.3070
   14.700    2.6540
   14.730    2.9173
   14.760    2.8541
   14.790    3.0332
   14.820    2.8647
   14.850    3.1490
   14.880    3.0332
   14.910    3.1806
   14.940    3.0332
   14.970    2.8963
   15.000    2.9910
   15.030    3.0648
   15.060    3.0964
   15.090    3.0753
   15.120    2.7593
   15.150    2.8857
   15.180    2.8015
   15.210    2.7804
   15.240    3.0753
   15.270    2.8752
   15.300    2.9805
   15.330    2.7172
   15.360    2.7593
   15.390    2.8647
   15.420    2.8647
   15.450    2.7909
   15.480    2.9910
   15.510    3.0121
   15.540    2.9173
   15.570    2.5487
   15.600    2.7278
   15.630    2.7909
   15.660    3.0437
   15.690    3.2438
   15.720    2.7172
   15.750    2.7172
   15.780    2.8331
   15.810    2.8120
   15.840    2.7278
   15.870    2.8963
   15.900    2.8225
   15.930    2.9489
   15.960    2.7593
   15.990    2.8015
   16.020    2.7699
   16.050    2.9489
   16.080    2.7804
   16.110    2.9384
   16.140    2.9595
   16.170    3.0016
   16.200    2.7909
   16.230    2.7172
   16.260    2.7383
   16.290    2.6751
   16.320    2.6751
   16.350    2.9910
   16.380    2.7804
   16.410    2.9384
   16.440    2.8331
   16.470    2.9595
   16.500    2.6646
   16.530    2.8120
   16.560    2.8857
   16.590    2.8331
   16.620    3.0437
   16.650    2.8120
   16.680    3.0437
   16.710    3.0332
   16.740    3.1701
   16.770    2.6751
   16.800    2.7909
   16.830    2.7488
   16.860    2.9068
   16.890    2.9910
   16.920    2.9173
   16.950    2.8225
   16.980    3.1385
   17.010    2.7699
   17.040    3.0121
   17.070    3.3386
   17.100    2.7067
   17.130    3.0226
   17.160    2.7488
   17.190    3.2649
   17.220    2.9279
   17.250    3.0016
   17.280    3.2017
   17.310    2.9700
   17.340    2.7278
   17.370    3.1490
   17.400    2.8225
   17.430    2.8647
   17.460    2.7804
   17.490    2.9279
   17.520    2.7593
   17.550    3.0858
   17.580    2.8120
   17.610    2.8436
   17.640    2.8120
   17.670    2.8541
   17.700    2.7804
   17.730    3.0121
   17.760    2.9595
   17.790    3.0016
   17.820    2.8752
   17.850    2.9173
   17.880    2.7278
   17.910    2.8120
   17.940    2.8331
   17.970    2.8015
   18.000    2.9068
   18.030    2.9173
   18.060    3.0437
   18.090    3.0753
   18.120    3.0121
   18.150    2.6856
   18.180    3.0542
   18.210    2.9068
   18.240    2.6435
   18.270    2.9489
   18.300    3.0858
   18.330    3.2754
   18.360    3.0964
   18.390    2.8436
   18.420    2.8331
   18.450    2.9384
   18.480    2.9489
   18.510    2.9805
   18.540    2.8647
   18.570    2.8015
   18.600    2.8015
   18.630    2.9595
   18.660    3.0648
   18.690    3.2122
   18.720    2.9489
   18.750    3.0226
   18.780    2.8857
   18.810    2.8120
   18.840    3.1806
   18.870    2.9595
   18.900    3.0648
   18.930    2.9910
   18.960    2.8963
   18.990    3.0226
   19.020    3.0542
   19.050    2.9805
   19.080    2.8752
   19.110    2.9068
   19.140    2.6435
   19.170    2.8436
   19.200    3.0332
   19.230    2.8857
   19.260    2.9384
   19.290    2.7172
   19.320    2.9279
   19.350    2.9595
   19.380    3.2017
   19.410    2.8857
   19.440    2.9489
   19.470    2.8331
   19.500    3.3070
   19.530    3.0332
   19.560    2.7488
   19.590    3.1174
   19.620    2.9805
   19.650    2.9595
   19.680    3.1385
   19.710    2.8752
   19.740    3.0121
   19.770    3.4334
   19.800    2.9068
   19.830    3.0332
   19.860    3.0332
   19.890    3.0226
   19.920    2.9700
   19.950    3.0121
   19.980    2.9173
   20.010    3.1912
   20.040    3.0226
   20.070    3.0858
   20.100    3.3175
   20.130    2.9805
   20.160    3.2543
   20.190    2.9384
   20.220    3.0648
   20.250    3.2017
   20.280    3.3913
   20.310    2.9805
   20.340    2.7699
   20.370    2.9068
   20.400    3.1385
   20.430    2.8331
   20.460    2.9384
   20.490    2.8857
   20.520    3.2859
   20.550    3.0437
   20.580    2.8752
   20.610    3.2543
   20.640    2.8752
   20.670    3.1280
   20.700    2.9910
   20.730    2.7909
   20.760    3.0964
   20.790    2.9700
   20.820    3.0121
   20.850    3.0542
   20.880    2.8541
   20.910    3.1806
   20.940    2.9489
   20.970    2.8857
   21.000    2.9805
   21.030    2.9595
   21.060    2.9595
   21.090    2.8225
   21.120    2.7593
   21.150    2.8647
   21.180    2.9805
   21.210    3.0964
   21.240    2.8541
   21.270    2.9910
   21.300    2.8857
   21.330    3.1069
   21.360    3.0542
   21.390    2.9173
   21.420    3.3386
   21.450    3.2227
   21.480    3.3807
   21.510    2.8857
   21.540    3.0753
   21.570    3.1806
   21.600    3.1280
   21.630    2.8963
   21.660    3.3807
   21.690    2.9700
   21.720    2.8436
   21.750    3.1385
   21.780    3.0648
   21.810    2.6962
   21.840    3.1701
   21.870    3.0964
   21.900    3.0226
   21.930    2.9384
   21.960    2.9384
   21.990    2.8752
   22.020    2.7067
   22.050    3.1490
   22.080    3.2438
   22.110    3.2649
   22.140    2.9489
   22.170    3.1280
   22.200    2.8752
   22.230    3.0016
   22.260    3.0332
   22.290    3.0437
   22.320    2.9489
   22.350    3.0542
   22.380    2.7067
   22.410    2.9279
   22.440    3.1174
   22.470    3.1280
   22.500    3.0437
   22.530    3.3175
   22.560    3.1280
   22.590    2.9173
   22.620    3.0753
   22.650    3.0332
   22.680    2.9910
   22.710    2.9910
   22.740    3.2649
   22.770    3.0753
   22.800    3.3702
   22.830    3.0332
   22.860    3.2333
   22.890    3.3491
   22.920    3.1806
   22.950    3.0226
   22.980    3.0964
   23.010    2.7067
   23.040    3.1385
   23.070    3.1069
   23.100    3.0016
   23.130    2.9279
   23.160    3.2754
   23.190    2.8963
   23.220    3.1806
   23.250    3.0121
   23.280    3.0964
   23.310    2.8436
   23.340    2.7593
   23.370    3.0226
   23.400    2.8857
   23.430    2.8963
   23.460    3.3175
   23.490    2.9595
   23.520    3.3281
   23.550    3.4229
   23.580    2.8541
   23.610    3.0437
   23.640    2.6962
   23.670    3.0121
   23.700    3.1174
   23.730    2.8647
   23.760    2.8963
   23.790    3.1701
   23.820    2.9805
   23.850    2.8120
   23.880    2.8120
   23.910    2.8647
   23.940    2.9700
   23.970    2.8857
   24.000    2.8647
   24.030    2.9595
   24.060    2.8857
   24.090    2.9595
   24.120    2.8015
   24.150    3.0437
   24.180    2.9700
   24.210    3.0753
   24.240    3.1069
   24.270    2.9910
   24.300    2.9068
   24.330    2.7488
   24.360    2.9489
   24.390    2.9279
   24.420    2.8541
   24.450    3.1280
   24.480    2.9068
   24.510    2.8015
   24.540    2.9910
   24.570    2.7699
   24.600    3.1385
   24.630    3.1912
   24.660    2.9489
   24.690    3.0858
   24.720    2.9173
   24.750    3.0542
   24.780    2.7699
   24.810    2.6856
   24.840    3.1806
   24.870    2.6119
   24.900    2.8015
   24.930    2.7172
   24.960    2.9068
   24.990    2.8436
   25.020    2.8225
   25.050    3.1490
   25.080    3.0016
   25.110    2.6435
   25.140    3.0121
   25.170    3.0332
   25.200    2.8015
   25.230    2.9068
   25.260    3.0753
   25.290    3.0016
   25.320    2.9805
   25.350    3.1806
   25.380    2.8120
   25.410    2.9595
   25.440    2.8225
   25.470    2.7909
   25.500    3.0226
   25.530    2.8436
   25.560    2.8120
   25.590    2.8225
   25.620    2.6856
   25.650    2.9068
   25.680    2.7488
   25.710    2.7488
   25.740    2.7804
   25.770    2.8225
   25.800    3.0016
   25.830    2.8541
   25.860    2.8331
   25.890    2.6435
   25.920    2.7593
   25.950    2.8647
   25.980    2.7699
   26.010    2.7383
   26.040    2.8015
   26.070    2.7909
   26.100    2.7699
   26.130    2.6646
   26.160    2.9805
   26.190    2.9700
   26.220    2.9384
   26.250    3.0121
   26.280    2.5592
   26.310    2.7067
   26.340    2.4855
   26.370    2.6014
   26.400    2.7804
   26.430    2.7278
   26.460    2.7909
   26.490    2.6962
   26.520    2.8015
   26.550    2.8541
   26.580    2.5592
   26.610    2.4961
   26.640    2.6751
   26.670    3.0016
   26.700    2.5698
   26.730    2.4013
   26.760    2.7278
   26.790    2.4539
   26.820    2.6014
   26.850    2.5382
   26.880    2.6646
   26.910    2.4539
   26.940    2.6751
   26.970    2.6962
   27.000    2.8015
   27.030    2.3697
   27.060    2.7488
   27.090    2.6856
   27.120    2.5487
   27.150    2.7067
   27.180    2.8752
   27.210    2.5487
   27.240    2.5171
   27.270    2.6119
   27.300    2.4223
   27.330    2.5382
   27.360    2.7067
   27.390    2.6540
   27.420    2.6856
   27.450    2.6856
   27.480    2.5592
   27.510    2.6751
   27.540    2.5592
   27.570    2.4013
   27.600    2.7488
   27.630    2.5171
   27.660    2.5698
   27.690    2.7172
   27.720    2.3486
   27.750    2.2538
   27.780    2.7593
   27.810    2.4855
   27.840    2.5908
   27.870    2.4434
   27.900    2.7067
   27.930    2.4645
   27.960    2.8120
   27.990    2.8963
   28.020    2.4750
   28.050    2.4223
   28.080    2.6119
   28.110    2.7278
   28.140    2.5487
   28.170    2.6646
   28.200    2.5171
   28.230    2.5592
   28.260    2.7909
   28.290    2.7804
   28.320    2.6646
   28.350    2.4750
   28.380    2.7488
   28.410    2.6856
   28.440    2.5803
   28.470    2.7804
   28.500    2.4329
   28.530    2.7804
   28.560    2.4329
   28.590    2.8436
   28.620    2.4750
   28.650    2.7278
   28.680    2.3907
   28.710    2.5487
   28.740    2.4750
   28.770    2.6962
   28.800    2.4855
   28.830    2.3486
   28.860    2.2643
   28.890    2.4118
   28.920    2.5592
   28.950    2.6014
   28.980    2.3486
   29.010    2.6646
   29.040    2.4329
   29.070    2.4329
   29.100    2.4434
   29.130    2.5276
   29.160    2.3275
   29.190    2.4223
   29.220    2.6540
   29.250    2.4434
   29.280    2.5487
   29.310    2.5592
   29.340    2.1696
   29.370    2.5382
   29.400    2.3591
   29.430    2.7488
   29.460    2.2854
   29.490    2.4645
   29.520    2.2538
   29.550    2.4539
   29.580    2.5592
   29.610    2.5171
   29.640    2.5066
   29.670    2.4539
   29.700    2.5066
   29.730    2.4013
   29.760    2.2538
   29.790    2.2959
   29.820    2.4013
   29.850    2.3907
   29.880    2.2433
   29.910    2.1590
   29.940    2.3381
   29.970    2.5276
   30.000    2.5382
   30.030    2.4645
   30.060    2.1696
   30.090    2.3275
   30.120    2.4329
   30.150    2.2538
   30.180    2.3802
   30.210    2.3486
   30.240    2.0853
   30.270    2.4750
   30.300    2.5276
   30.330    2.3170
   30.360    2.2538
   30.390    2.0116
   30.420    2.3907
   30.450    2.1485
   30.480    2.6540
   30.510    2.1906
   30.540    2.5066
   30.570    2.3907
   30.600    2.1696
   30.630    2.3381
   30.660    2.1380
   30.690    2.3802
   30.720    2.2222
   30.750    2.1274
   30.780    1.9168
   30.810    2.4013
   30.840    2.1274
   30.870    2.3170
   30.900    2.6330
   30.930    2.3486
   30.960    2.2959
   30.990    2.2012
   31.020    2.1696
   31.050    2.4855
   31.080    2.4223
   31.110    2.3486
   31.140    2.0642
   31.170    2.1169
   31.200    2.1906
   31.230    2.2328
   31.260    2.2538
   31.290    2.2117
   31.320    2.0853
   31.350    2.0221
   31.380    2.3065
   31.410    2.2538
   31.440    2.0853
   31.470    2.0958
   31.500    2.4118
   31.530    2.2643
   31.560    2.2538
   31.590    2.2538
   31.620    2.2328
   31.650    2.2328
   31.680    2.2117
   31.710    2.3065
   31.740    2.3275
   31.770    2.1169
   31.800    2.1696
   31.830    1.9484
   31.860    2.0958
   31.890    2.1274
   31.920    1.9379
   31.950    2.2328
   31.980    2.0326
   32.010    2.2117
   32.040    2.2222
   32.070    2.1485
   32.100    1.7904
   32.130    2.3275
   32.160    2.0958
   32.190    2.0748
   32.220    1.8536
   32.250    2.1274
   32.280    2.1169
   32.310    2.3275
   32.340    1.9168
   32.370    2.0011
   32.400    1.9379
   32.430    1.9484
   32.460    2.1380
   32.490    2.1906
   32.520    2.1485
   32.550    1.8536
   32.580    1.8957
   32.610    2.0853
   32.640    2.2959
   32.670    1.9905
   32.700    1.9168
   32.730    2.0326
   32.760    2.1801
   32.790    2.0116
   32.820    2.0642
   32.850    2.2538
   32.880    2.0537
   32.910    1.9273
   32.940    1.8431
   32.970    1.6219
   33.000    2.0116
   33.030    1.8641
   33.060    2.1696
   33.090    1.8747
   33.120    2.0011
   33.150    1.7588
   33.180    1.8220
   33.210    1.9063
   33.240    1.9168
   33.270    1.8641
   33.300    1.8536
   33.330    2.0221
   33.360    1.8325
   33.390    1.8641
   33.420    1.9168
   33.450    1.9589
   33.480    1.9379
   33.510    1.9695
   33.540    1.9695
   33.570    1.7694
   33.600    1.8431
   33.630    1.7483
   33.660    1.7904
   33.690    1.7167
   33.720    1.9379
   33.750    1.9168
   33.780    1.9379
   33.810    1.7378
   33.840    1.8115
   33.870    1.9273
   33.900    1.7694
   33.930    1.7483
   33.960    1.7799
   33.990    1.8009
   34.020    1.8536
   34.050    1.8747
   34.080    1.8957
   34.110    1.7378
   34.140    1.7483
   34.170    1.6640
   34.200    1.8852
   34.230    1.9695
   34.260    1.7694
   34.290    1.5377
   34.320    1.7272
   34.350    1.5798
   34.380    1.7799
   34.410    1.6114
   34.440    1.8115
   34.470    1.8009
   34.500    1.7483
   34.530    1.6746
   34.560    1.7378
   34.590    1.6640
   34.620    1.5482
   34.650    1.7272
   34.680    1.6430
   34.710    1.6430
   34.740    1.5798
   34.770    1.7694
   34.800    1.7378
   34.830    1.6219
   34.860    1.6746
   34.890    1.5377
   34.920    1.6430
   34.950    1.6851
   34.980    1.6746
   35.010    1.7272
   35.040    1.5798
   35.070    1.6430
   35.100    1.7062
   35.130    1.6008
   35.160    1.6324
   35.190    1.5903
   35.220    1.6535
   35.250    1.6640
   35.280    1.5271
   35.310    1.4429
   35.340    1.6324
   35.370    1.5377
   35.400    1.4534
   35.430    1.6535