File: data/PXRD/PXRD_KE-265_Co-Ka1_film-3mm_3s-deg.xyd
    1.500    4.0842
    1.530    4.0663
    1.560    3.7632
    1.590    3.7632
    1.620    3.4065
    1.650    3.1924
    1.680    3.2103
    1.710    3.1746
    1.740    3.0498
    1.770    3.0319
    1.800    2.8001
    1.830    2.5325
    1.860    2.7644
    1.890    2.5147
    1.920    2.6752
    1.950    2.3007
    1.980    2.3185
    2.010    2.3185
    2.040    2.4255
    2.070    2.1223
    2.100    2.3720
    2.130    2.3542
    2.160    1.9262
    2.190    2.0688
    2.220    2.1580
    2.250    1.9975
    2.280    1.8548
    2.310    2.1759
    2.340    2.0688
    2.370    1.9618
    2.400    1.9797
    2.430    1.6051
    2.460    1.6586
    2.490    1.9262
    2.520    1.9975
    2.550    1.7657
    2.580    1.8727
    2.610    1.7478
    2.640    1.9083
    2.670    1.8192
    2.700    1.6230
    2.730    1.7121
    2.760    1.9083
    2.790    1.5160
    2.820    1.7478
    2.850    1.6943
    2.880    1.6765
    2.910    1.4803
    2.940    1.3019
    2.970    1.6408
    3.000    1.6408
    3.030    1.6943
    3.060    1.5873
    3.090    1.7300
    3.120    1.0701
    3.150    1.6586
    3.180    1.8013
    3.210    1.5516
    3.240    1.5160
    3.270    1.5338
    3.300    1.6408
    3.330    1.3554
    3.360    1.4446
    3.390    1.4090
    3.420    1.6408
    3.450    1.3376
    3.480    1.5695
    3.510    1.5338
    3.540    1.4981
    3.570    1.5338
    3.600    1.2306
    3.630    1.3198
    3.660    1.6765
    3.690    1.5160
    3.720    1.6586
    3.750    1.3019
    3.780    1.4803
    3.810    1.5516
    3.840    1.2306
    3.870    1.1771
    3.900    1.4625
    3.930    1.1949
    3.960    1.6230
    3.990    1.2484
    4.020    1.6586
    4.050    1.3198
    4.080    1.3376
    4.110    1.6051
    4.140    1.4268
    4.170    1.4803
    4.200    1.5695
    4.230    1.4090
    4.260    1.3019
    4.290    1.4090
    4.320    1.3733
    4.350    1.4981
    4.380    1.3376
    4.410    1.4625
    4.440    1.3911
    4.470    1.5695
    4.500    1.5516
    4.530    1.5338
    4.560    1.4268
    4.590    1.5338
    4.620    1.5160
    4.650    1.6408
    4.680    1.5516
    4.710    1.6051
    4.740    1.4803
    4.770    1.4803
    4.800    1.5516
    4.830    1.6586
    4.860    1.6586
    4.890    1.5695
    4.920    1.2306
    4.950    1.5338
    4.980    1.5695
    5.010    1.7300
    5.040    1.6230
    5.070    1.3019
    5.100    1.3376
    5.130    1.4268
    5.160    1.4981
    5.190    1.4446
    5.220    1.8013
    5.250    1.2841
    5.280    1.4981
    5.310    1.3554
    5.340    1.5516
    5.370    1.4090
    5.400    1.2841
    5.430    1.6765
    5.460    1.2841
    5.490    1.4981
    5.520    1.4981
    5.550    1.5695
    5.580    1.4268
    5.610    1.8192
    5.640    1.6051
    5.670    1.5873
    5.700    1.4981
    5.730    1.5516
    5.760    1.7657
    5.790    1.6765
    5.820    1.5516
    5.850    1.6586
    5.880    1.7121
    5.910    1.6586
    5.940    1.4803
    5.970    1.7657
    6.000    1.6765
    6.030    1.7300
    6.060    1.5338
    6.090    1.5873
    6.120    1.8192
    6.150    1.6765
    6.180    1.9262
    6.210    2.0332
    6.240    1.3376
    6.270    1.9440
    6.300    1.9975
    6.330    1.9618
    6.360    1.8727
    6.390    1.7300
    6.420    1.9975
    6.450    1.7835
    6.480    2.0867
    6.510    1.8548
    6.540    2.2650
    6.570    1.8192
    6.600    1.6051
    6.630    1.5338
    6.660    1.8013
    6.690    1.8727
    6.720    1.8727
    6.750    1.7478
    6.780    1.8192
    6.810    1.5873
    6.840    1.8727
    6.870    1.5695
    6.900    1.5695
    6.930    1.3911
    6.960    1.9262
    6.990    1.3911
    7.020    1.4803
    7.050    1.4981
    7.080    1.4446
    7.110    1.4625
    7.140    1.4268
    7.170    1.4625
    7.200    1.3733
    7.230    1.4090
    7.260    1.3733
    7.290    1.3376
    7.320    1.4446
    7.350    1.4625
    7.380    1.4090
    7.410    1.0879
    7.440    1.2128
    7.470    1.4803
    7.500    1.2841
    7.530    1.2663
    7.560    1.3911
    7.590    1.4803
    7.620    1.3911
    7.650    1.5160
    7.680    1.4625
    7.710    1.3198
    7.740    1.3911
    7.770    1.2663
    7.800    1.1771
    7.830    1.0701
    7.860    1.2841
    7.890    1.2306
    7.920    1.3376
    7.950    1.0879
    7.980    1.4625
    8.010    1.0701
    8.040    1.0879
    8.070    1.1236
    8.100    1.0701
    8.130    1.1593
    8.160    1.3019
    8.190    1.3198
    8.220    1.2484
    8.250    1.2306
    8.280    1.0523
    8.310    1.2484
    8.340    1.0523
    8.370    1.3733
    8.400    1.3019
    8.430    1.2306
    8.460    1.2663
    8.490    1.1414
    8.520    1.2841
    8.550    1.3911
    8.580    1.3733
    8.610    1.1236
    8.640    1.0523
    8.670    0.8917
    8.700    0.9988
    8.730    0.9631
    8.760    1.1771
    8.790    0.9809
    8.820    0.9631
    8.850    1.0166
    8.880    1.2128
    8.910    1.3198
    8.940    0.9988
    8.970    0.8026
    9.000    1.0344
    9.030    1.1593
    9.060    0.9274
    9.090    0.9809
    9.120    1.0879
    9.150    0.9274
    9.180    1.0166
    9.210    0.9452
    9.240    1.1058
    9.270    0.8739
    9.300    1.1593
    9.330    1.0879
    9.360    1.0166
    9.390    0.9274
    9.420    1.0523
    9.450    1.2841
    9.480    1.1593
    9.510    1.2128
    9.540    1.0344
    9.570    1.1236
    9.600    0.9274
    9.630    0.8917
    9.660    0.9452
    9.690    0.7669
    9.720    0.9452
    9.750    1.0523
    9.780    1.1058
    9.810    1.0701
    9.840    1.0166
    9.870    0.9096
    9.900    0.9988
    9.930    1.2128
    9.960    0.9988
    9.990    0.9988
   10.020    1.0523
   10.050    0.9988
   10.080    0.8382
   10.110    0.9988
   10.140    0.9988
   10.170    1.0879
   10.200    0.9452
   10.230    1.0344
   10.260    0.9988
   10.290    0.9096
   10.320    1.0166
   10.350    0.9631
   10.380    1.0344
   10.410    1.0879
   10.440    0.9631
   10.470    1.0166
   10.500    1.0166
   10.530    0.9631
   10.560    0.8204
   10.590    1.0344
   10.620    0.9631
   10.650    0.9988
   10.680    1.1236
   10.710    1.3019
   10.740    0.8204
   10.770    0.8739
   10.800    0.9988
   10.830    0.8739
   10.860    0.8739
   10.890    1.0344
   10.920    0.9452
   10.950    1.0701
   10.980    0.8204
   11.010    0.7312
   11.040    0.8561
   11.070    0.7134
   11.100    0.8382
   11.130    1.1058
   11.160    0.9631
   11.190    1.0344
   11.220    1.0166
   11.250    1.1058
   11.280    0.9274
   11.310    0.9809
   11.340    0.9274
   11.370    1.2128
   11.400    0.7847
   11.430    1.0166
   11.460    1.3554
   11.490    0.8917
   11.520    0.7669
   11.550    0.8561
   11.580    0.9988
   11.610    0.9096
   11.640    1.1058
   11.670    1.0701
   11.700    0.8917
   11.730    1.1236
   11.760    0.8739
   11.790    0.9096
   11.820    0.9631
   11.850    0.9096
   11.880    0.8382
   11.910    0.8561
   11.940    1.1593
   11.970    0.9274
   12.000    1.0166
   12.030    1.1771
   12.060    0.8026
   12.090    0.8204
   12.120    0.9274
   12.150    0.9452
   12.180    0.9988
   12.210    0.8917
   12.240    0.9452
   12.270    0.9988
   12.300    0.9809
   12.330    1.0523
   12.360    1.0523
   12.390    1.1949
   12.420    0.8917
   12.450    0.8739
   12.480    0.9452
   12.510    1.1058
   12.540    0.9631
   12.570    1.0523
   12.600    0.9452
   12.630    0.8382
   12.660    0.9274
   12.690    1.1593
   12.720    0.9631
   12.750    1.0701
   12.780    1.1949
   12.810    1.0344
   12.840    1.2128
   12.870    0.9809
   12.900    1.0701
   12.930    0.9631
   12.960    0.9274
   12.990    1.0166
   13.020    1.0523
   13.050    1.2663
   13.080    0.8204
   13.110    0.8561
   13.140    1.1593
   13.170    1.0344
   13.200    1.0166
   13.230    0.8026
   13.260    0.8917
   13.290    0.8204
   13.320    1.1058
   13.350    0.9631
   13.380    1.1058
   13.410    0.9452
   13.440    0.8026
   13.470    0.9096
   13.500    0.9096
   13.530    1.0523
   13.560    1.1058
   13.590    1.0344
   13.620    1.0879
   13.650    0.9274
   13.680    0.9274
   13.710    1.0344
   13.740    0.8739
   13.770    1.0344
   13.800    0.7669
   13.830    1.1058
   13.860    1.1771
   13.890    0.9096
   13.920    0.9988
   13.950    0.7669
   13.980    0.9274
   14.010    0.9452
   14.040    0.7669
   14.070    0.9988
   14.100    0.8917
   14.130    0.9096
   14.160    0.9096
   14.190    0.9452
   14.220    0.8739
   14.250    0.9988
   14.280    0.8739
   14.310    0.9809
   14.340    0.8739
   14.370    0.8739
   14.400    0.9096
   14.430    0.8739
   14.460    1.0523
   14.490    0.9631
   14.520    0.8917
   14.550    0.8739
   14.580    0.9274
   14.610    1.2663
   14.640    0.8917
   14.670    0.9274
   14.700    0.9096
   14.730    0.9274
   14.760    0.9274
   14.790    0.8204
   14.820    0.9631
   14.850    0.8917
   14.880    0.8917
   14.910    1.0879
   14.940    0.8561
   14.970    0.5886
   15.000    0.7134
   15.030    0.9096
   15.060    1.0879
   15.090    0.7491
   15.120    0.9809
   15.150    0.7847
   15.180    0.8382
   15.210    1.0879
   15.240    0.9631
   15.270    0.9274
   15.300    0.8739
   15.330    0.8917
   15.360    0.9274
   15.390    1.0166
   15.420    1.0523
   15.450    0.8739
   15.480    1.1236
   15.510    0.7847
   15.540    0.9452
   15.570    0.8382
   15.600    0.9809
   15.630    0.9631
   15.660    0.8382
   15.690    0.8739
   15.720    0.7491
   15.750    0.8561
   15.780    0.7312
   15.810    0.7312
   15.840    0.9274
   15.870    0.6777
   15.900    0.9274
   15.930    0.9096
   15.960    0.8204
   15.990    0.9096
   16.020    0.9809
   16.050    1.0166
   16.080    0.9274
   16.110    0.9809
   16.140    0.9809
   16.170    0.9274
   16.200    0.8739
   16.230    0.8739
   16.260    0.8739
   16.290    0.9274
   16.320    0.8026
   16.350    1.0166
   16.380    1.0879
   16.410    1.2128
   16.440    0.8739
   16.470    1.0344
   16.500    1.1414
   16.530    1.1414
   16.560    0.8917
   16.590    1.0166
   16.620    0.8739
   16.650    1.2841
   16.680    0.9631
   16.710    1.0701
   16.740    0.8561
   16.770    0.8917
   16.800    1.1058
   16.830    0.9452
   16.860    0.8204
   16.890    0.9096
   16.920    0.8561
   16.950    1.0701
   16.980    1.0879
   17.010    0.9452
   17.040    0.8917
   17.070    1.0879
   17.100    1.1949
   17.130    1.0879
   17.160    0.8561
   17.190    0.9631
   17.220    0.8561
   17.250    0.9096
   17.280    0.8204
   17.310    0.9274
   17.340    0.8382
   17.370    0.7669
   17.400    0.8026
   17.430    0.9274
   17.460    1.0879
   17.490    0.8917
   17.520    0.7312
   17.550    1.1058
   17.580    0.7847
   17.610    0.9631
   17.640    0.9274
   17.670    0.9274
   17.700    0.9452
   17.730    0.9096
   17.760    0.7847
   17.790    1.1236
   17.820    0.8561
   17.850    0.8026
   17.880    0.8739
   17.910    0.7312
   17.940    0.8026
   17.970    0.9631
   18.000    0.8026
   18.030    0.8204
   18.060    0.7134
   18.090    0.8382
   18.120    0.8739
   18.150    0.9631
   18.180    1.1236
   18.210    1.0166
   18.240    0.8204
   18.270    1.1593
   18.300    0.9809
   18.330    1.0523
   18.360    0.9452
   18.390    0.9096
   18.420    0.7847
   18.450    0.9274
   18.480    0.9274
   18.510    0.8382
   18.540    0.8204
   18.570    0.8917
   18.600    0.9274
   18.630    0.8561
   18.660    0.8917
   18.690    0.9096
   18.720    0.7669
   18.750    0.9096
   18.780    1.0523
   18.810    0.9452
   18.840    0.9988
   18.870    0.8739
   18.900    0.8917
   18.930    0.9631
   18.960    0.8917
   18.990    0.9631
   19.020    0.9452
   19.050    0.9452
   19.080    0.9452
   19.110    0.9452
   19.140    0.8561
   19.170    0.9096
   19.200    0.9809
   19.230    0.8561
   19.260    0.9809
   19.290    1.1236
   19.320    0.9809
   19.350    0.7669
   19.380    0.7847
   19.410    0.8917
   19.440    0.9096
   19.470    1.1236
   19.500    0.8561
   19.530    1.0523
   19.560    0.8917
   19.590    0.9988
   19.620    0.8917
   19.650    0.8382
   19.680    0.8204
   19.710    1.0879
   19.740    0.9988
   19.770    0.6777
   19.800    0.8382
   19.830    0.9809
   19.860    0.6777
   19.890    0.8739
   19.920    1.1593
   19.950    0.8204
   19.980    1.0344
   20.010    0.8026
   20.040    0.9096
   20.070    0.8917
   20.100    1.1236
   20.130    0.7847
   20.160    0.9631
   20.190    1.0523
   20.220    0.8382
   20.250    0.9096
   20.280    0.9274
   20.310    0.7847
   20.340    1.0701
   20.370    1.0166
   20.400    1.0523
   20.430    0.9809
   20.460    1.1236
   20.490    0.9274
   20.520    0.8739
   20.550    1.0344
   20.580    0.9452
   20.610    0.9452
   20.640    0.7491
   20.670    1.0523
   20.700    0.9096
   20.730    0.7847
   20.760    0.8561
   20.790    0.9809
   20.820    0.8561
   20.850    0.9274
   20.880    0.8026
   20.910    0.8739
   20.940    0.8204
   20.970    0.8917
   21.000    0.9096
   21.030    0.8382
   21.060    0.8026
   21.090    0.8561
   21.120    0.9631
   21.150    1.2484
   21.180    1.1058
   21.210    0.8204
   21.240    0.9988
   21.270    1.0166
   21.300    0.8204
   21.330    0.8739
   21.360    0.8917
   21.390    1.0166
   21.420    0.8917
   21.450    0.6956
   21.480    0.9274
   21.510    0.9988
   21.540    0.8382
   21.570    0.8917
   21.600    1.1058
   21.630    0.8917
   21.660    0.9096
   21.690    0.8204
   21.720    0.9096
   21.750    0.8917
   21.780    1.0701
   21.810    1.0344
   21.840    1.1236
   21.870    0.8739
   21.900    1.0523
   21.930    1.1236
   21.960    0.8561
   21.990    1.3376
   22.020    1.1414
   22.050    0.8382
   22.080    0.9274
   22.110    0.8561
   22.140    0.9274
   22.170    1.0166
   22.200    0.9631
   22.230    0.9096
   22.260    1.0166
   22.290    1.3733
   22.320    0.7669
   22.350    0.8917
   22.380    0.8026
   22.410    0.8561
   22.440    0.9988
   22.470    0.9631
   22.500    0.8382
   22.530    0.8204
   22.560    0.8917
   22.590    0.9096
   22.620    0.8026
   22.650    0.8026
   22.680    0.9452
   22.710    0.8204
   22.740    0.7312
   22.770    1.0344
   22.800    0.8917
   22.830    1.1414
   22.860    0.9096
   22.890    0.7134
   22.920    0.6421
   22.950    0.9809
   22.980    0.8739
   23.010    0.9988
   23.040    1.0701
   23.070    0.8739
   23.100    0.8561
   23.130    0.7134
   23.160    0.8204
   23.190    0.7669
   23.220    0.8026
   23.250    0.8561
   23.280    0.8382
   23.310    0.9988
   23.340    0.8561
   23.370    0.8561
   23.400    0.9452
   23.430    0.8739
   23.460    0.9274
   23.490    0.9988
   23.520    0.8739
   23.550    1.0344
   23.580    0.7669
   23.610    0.8917
   23.640    0.8382
   23.670    0.9631
   23.700    0.8561
   23.730    0.7847
   23.760    0.9988
   23.790    1.0701
   23.820    0.6956
   23.850    0.7847
   23.880    0.9988
   23.910    1.0166
   23.940    0.7134
   23.970    0.7847
   24.000    0.9274
   24.030    0.9274
   24.060    0.9452
   24.090    0.8561
   24.120    1.0344
   24.150    0.9809
   24.180    0.7669
   24.210    0.8026
   24.240    1.0701
   24.270    0.9988
   24.300    0.9096
   24.330    0.8204
   24.360    1.0879
   24.390    0.7847
   24.420    0.6956
   24.450    0.8561
   24.480    0.8917
   24.510    0.9631
   24.540    0.8204
   24.570    0.7491
   24.600    1.0344
   24.630    0.9988
   24.660    1.1593
   24.690    0.8561
   24.720    1.0166
   24.750    0.8561
   24.780    0.7312
   24.810    0.8561
   24.840    0.8382
   24.870    0.8382
   24.900    0.9274
   24.930    1.0166
   24.960    0.7847
   24.990    1.0166
   25.020    0.8561
   25.050    0.8917
   25.080    0.8917
   25.110    0.8382
   25.140    0.9096
   25.170    0.9452
   25.200    0.9096
   25.230    0.8561
   25.260    0.8561
   25.290    0.9274
   25.320    0.8204
   25.350    0.9988
   25.380    0.8382
   25.410    0.7847
   25.440    0.8561
   25.470    0.8739
   25.500    0.8561
   25.530    0.8739
   25.560    0.9096
   25.590    0.8204
   25.620    0.8026
   25.650    0.8561
   25.680    0.9809
   25.710    0.7312
   25.740    0.8026
   25.770    0.8739
   25.800    0.7491
   25.830    0.8561
   25.860    0.7847
   25.890    1.0523
   25.920    0.8204
   25.950    0.8561
   25.980    0.8026
   26.010    0.8561
   26.040    0.7312
   26.070    0.8204
   26.100    0.9452
   26.130    0.6777
   26.160    0.8561
   26.190    0.8382
   26.220    0.8204
   26.250    0.7312
   26.280    1.0166
   26.310    1.0344
   26.340    0.6599
   26.370    0.6599
   26.400    0.8204
   26.430    0.7847
   26.460    1.0166
   26.490    0.8204
   26.520    0.6777
   26.550    0.8382
   26.580    0.7134
   26.610    0.9274
   26.640    0.9274
   26.670    0.5529
   26.700    0.7669
   26.730    0.9274
   26.760    0.8917
   26.790    0.7669
   26.820    0.6777
   26.850    0.7847
   26.880    0.7669
   26.910    0.7669
   26.940    0.8204
   26.970    0.7669
   27.000    0.6064
   27.030    0.7312
   27.060    0.6421
   27.090    0.6777
   27.120    0.8561
   27.150    0.7491
   27.180    0.6242
   27.210    0.7669
   27.240    0.6599
   27.270    0.7312
   27.300    0.7847
   27.330    0.6599
   27.360    0.6599
   27.390    0.6242
   27.420    0.7312
   27.450    0.8204
   27.480    0.8204
   27.510    0.6599
   27.540    0.6421
   27.570    0.9452
   27.600    0.8382
   27.630    0.8382
   27.660    0.6421
   27.690    0.6599
   27.720    0.8561
   27.750    0.7134
   27.780    0.6421
   27.810    0.7134
   27.840    0.6956
   27.870    0.6242
   27.900    0.7669
   27.930    0.7491
   27.960    0.5707
   27.990    0.8917
   28.020    0.7847
   28.050    0.8026
   28.080    0.7669
   28.110    0.6956
   28.140    0.8204
   28.170    0.6064
   28.200    0.6956
   28.230    0.6777
   28.260    0.6956
   28.290    0.7134
   28.320    0.6599
   28.350    0.7491
   28.380    0.6599
   28.410    0.6599
   28.440    0.7847
   28.470    0.6242
   28.500    0.7669
   28.530    0.6956
   28.560    0.7491
   28.590    0.7491
   28.620    0.6599
   28.650    0.6242
   28.680    0.6599
   28.710    0.6242
   28.740    0.6421
   28.770    0.7312
   28.800    0.7134
   28.830    0.6599
   28.860    0.7312
   28.890    0.6421
   28.920    0.7491
   28.950    0.5350
   28.980    0.5886
   29.010    0.7312
   29.040    0.6421
   29.070    0.7491
   29.100    0.6956
   29.130    0.6599
   29.160    0.4637
   29.190    0.6242
   29.220    0.7134
   29.250    0.6599
   29.280    0.7491
   29.310    0.6064
   29.340    0.6064
   29.370    0.5350
   29.400    0.4994
   29.430    0.7491
   29.460    0.5529
   29.490    0.7491
   29.520    0.6421
   29.550    0.5707
   29.580    0.7312
   29.610    0.7669
   29.640    0.5886
   29.670    0.6064
   29.700    0.7491
   29.730    0.6421
   29.760    0.6956
   29.790    0.5350
   29.820    0.6242
   29.850    0.5350
   29.880    0.6242
   29.910    0.7134
   29.940    0.6777
   29.970    0.6242
   30.000    0.5529
   30.030    0.6956
   30.060    0.7134
   30.090    0.5529
   30.120    0.6064
   30.150    0.6956
   30.180    0.7134
   30.210    0.6599
   30.240    0.4815
   30.270    0.7134
   30.300    0.5350
   30.330    0.5707
   30.360    0.6421
   30.390    0.5350
   30.420    0.7312
   30.450    0.5707
   30.480    0.6777
   30.510    0.4994
   30.540    0.6421
   30.570    0.7491
   30.600    0.5529
   30.630    0.4815
   30.660    0.4637
   30.690    0.5350
   30.720    0.5172
   30.750    0.8382
   30.780    0.6064
   30.810    0.5707
   30.840    0.4994
   30.870    0.5529
   30.900    0.4815
   30.930    0.6777
   30.960    0.6421
   30.990    0.5886
   31.020    0.7669
   31.050    0.4815
   31.080    0.4815
   31.110    0.6777
   31.140    0.5707
   31.170    0.6599
   31.200    0.5707
   31.230    0.4102
   31.260    0.6777
   31.290    0.6777
   31.320    0.5350
   31.350    0.5529
   31.380    0.6599
   31.410    0.6064
   31.440    0.6777
   31.470    0.6242
   31.500    0.5350
   31.530    0.6421
   31.560    0.4459
   31.590    0.6064
   31.620    0.7134
   31.650    0.4994
   31.680    0.4994
   31.710    0.6064
   31.740    0.5350
   31.770    0.4994
   31.800    0.5707
   31.830    0.4459
   31.860    0.5886
   31.890    0.7134
   31.920    0.7134
   31.950    0.4459
   31.980    0.5529
   32.010    0.4994
   32.040    0.6956
   32.070    0.5707
   32.100    0.5172
   32.130    0.6777
   32.160    0.4815
   32.190    0.5172
   32.220    0.6421
   32.250    0.4459
   32.280    0.7134
   32.310    0.4102
   32.340    0.4815
   32.370    0.4994
   32.400    0.6064
   32.430    0.6064
   32.460    0.4102
   32.490    0.5172
   32.520    0.5529
   32.550    0.5886
   32.580    0.4637
   32.610    0.4637
   32.640    0.6242
   32.670    0.5886
   32.700    0.4994
   32.730    0.4994
   32.760    0.4815
   32.790    0.4459
   32.820    0.4637
   32.850    0.4459
   32.880    0.5886
   32.910    0.5172
   32.940    0.4994
   32.970    0.5529
   33.000    0.3389
   33.030    0.3745
   33.060    0.6064
   33.090    0.5350
   33.120    0.4637
   33.150    0.6421
   33.180    0.5350
   33.210    0.4815
   33.240    0.4280
   33.270    0.4994
   33.300    0.4280
   33.330    0.4994
   33.360    0.4815
   33.390    0.4815
   33.420    0.5172
   33.450    0.4815
   33.480    0.3924
   33.510    0.5350
   33.540    0.5350
   33.570    0.4637
   33.600    0.6064
   33.630    0.5529
   33.660    0.5886
   33.690    0.5350
   33.720    0.3745
   33.750    0.5172
   33.780    0.5529
   33.810    0.3567
   33.840    0.7312
   33.870    0.4815
   33.900    0.4459
   33.930    0.5529
   33.960    0.5350
   33.990    0.3924
   34.020    0.5350
   34.050    0.5886
   34.080    0.4994
   34.110    0.4459
   34.140    0.4994
   34.170    0.3924
   34.200    0.3567
   34.230    0.5529
   34.260    0.5886
   34.290    0.4815
   34.320    0.5172
   34.350    0.3745
   34.380    0.3210
   34.410    0.4459
   34.440    0.5172
   34.470    0.5172
   34.500    0.3567
   34.530    0.4815
   34.560    0.4102
   34.590    0.4102
   34.620    0.4815
   34.650    0.4102
   34.680    0.4280
   34.710    0.4280
   34.740    0.3389
   34.770    0.4280
   34.800    0.4815
   34.830    0.3389
   34.860    0.3924
   34.890    0.4459
   34.920    0.4637
   34.950    0.3210
   34.980    0.3567
   35.010    0.3032
   35.040    0.5172
   35.070    0.3389
   35.100    0.3032
   35.130    0.3924
   35.160    0.3567
   35.190    0.3210
   35.220    0.5172
   35.250    0.4459
   35.280    0.3032
   35.310    0.2854
   35.340    0.5350
   35.370    0.4102
   35.400    0.3924
   35.430    0.4102
   35.460    0.4102
   35.490    0.3745
   35.520    0.4815
   35.550    0.4637
   35.580    0.3924
   35.610    0.3210
   35.640    0.3924
   35.670    0.4459
   35.700    0.3210
   35.730    0.2854
   35.760    0.4637
   35.790    0.4637
   35.820    0.5350
   35.850    0.3389
   35.880    0.3924
   35.910    0.4637
   35.940    0.3745
   35.970    0.3389
   36.000    0.3924
   36.030    0.3745
   36.060    0.4815
   36.090    0.3567
   36.120    0.4994
   36.150    0.3924
   36.180    0.3032
   36.210    0.4102
   36.240    0.3924
   36.270    0.2675
   36.300    0.3924
   36.330    0.3567
   36.360    0.3567
   36.390    0.2854
   36.420    0.3032
   36.450    0.2675
   36.480    0.4994
   36.510    0.3745
   36.540    0.3567
   36.570    0.3924
   36.600    0.3389
   36.630    0.3745
   36.660    0.3745
   36.690    0.2675
   36.720    0.5172
   36.750    0.2675
   36.780    0.3389
   36.810    0.4280
   36.840    0.4994
   36.870    0.2854
   36.900    0.4102
   36.930    0.3745
   36.960    0.4102
   36.990    0.3567
   37.020    0.4815
   37.050    0.3924
   37.080    0.2319
   37.110    0.2854
   37.140    0.4280
   37.170    0.3745
   37.200    0.2319
   37.230    0.4102
   37.260    0.3032
   37.290    0.3567
   37.320    0.3389
   37.350    0.3389
   37.380    0.3032
   37.410    0.3567
   37.440    0.3032
   37.470    0.2319
   37.500    0.3389
   37.530    0.3745
   37.560    0.4994
   37.590    0.3567
   37.620    0.2497
   37.650    0.2497
   37.680    0.3567
   37.710    0.3389
   37.740    0.2854
   37.770    0.3567
   37.800    0.3210
   37.830    0.3567
   37.860    0.4102
   37.890    0.3745
   37.920    0.3389
   37.950    0.4815
   37.980    0.2854
   38.010    0.2319
   38.040    0.3210
   38.070    0.3567
   38.100    0.3567
   38.130    0.3032
   38.160    0.2319
   38.190    0.3567
   38.220    0.3567
   38.250    0.3210
   38.280    0.3745
   38.310    0.3567
   38.340    0.4280
   38.370    0.2675
   38.400    0.2319
   38.430    0.2497
   38.460    0.2675
   38.490    0.4637
   38.520    0.3210
   38.550    0.2140
   38.580    0.3567
   38.610    0.3745
   38.640    0.4102
   38.670    0.3745
   38.700    0.3567
   38.730    0.3745
   38.760    0.3389
   38.790    0.2140
   38.820    0.2854
   38.850    0.2140
   38.880    0.3210
   38.910    0.2854
   38.940    0.3210
   38.970    0.2675
   39.000    0.4102
   39.030    0.2854
   39.060    0.3210
   39.090    0.2854
   39.120    0.3032
   39.150    0.2675
   39.180    0.2497
   39.210    0.3210
   39.240    0.2140
   39.270    0.1962
   39.300    0.3032
   39.330    0.3924
   39.360    0.2497
   39.390    0.2497
   39.420    0.3567
   39.450    0.2854
   39.480    0.2854
   39.510    0.2854
   39.540    0.3567
   39.570    0.2140
   39.600    0.2675
   39.630    0.2497
   39.660    0.3924
   39.690    0.3389
   39.720    0.1783
   39.750    0.0713
   39.780    0.1962
   39.810    0.2497
   39.840    0.2675
   39.870    0.2497
   39.900    0.4102
   39.930    0.3032
   39.960    0.2140
   39.990    0.4280