File: data/PXRD/PXRD_KE-293_Cu-Ka1_film-3mm_3s-deg.xyd
    1.500   13.6739
    1.530   13.6739
    1.560   13.2701
    1.590   13.6914
    1.620   13.3930
    1.650   12.2696
    1.680   12.5505
    1.710   12.4276
    1.740   12.2345
    1.770   11.7606
    1.800   11.6553
    1.830   10.9882
    1.860   11.5148
    1.890   11.3393
    1.920   11.3569
    1.950   11.2164
    1.980   10.5670
    2.010   10.6196
    2.040   10.7776
    2.070   10.4090
    2.100   11.0585
    2.130   10.1808
    2.160   10.0579
    2.190   10.1106
    2.220    9.8473
    2.250   10.1457
    2.280    9.7244
    2.310    9.5138
    2.340   10.3563
    2.370    9.5489
    2.400    9.9526
    2.430    9.6718
    2.460    9.9351
    2.490    9.6367
    2.520    9.9702
    2.550   10.2335
    2.580   10.2335
    2.610   10.7425
    2.640   10.5319
    2.670   10.3388
    2.700   11.4446
    2.730   11.2515
    2.760   11.5499
    2.790   11.0936
    2.820   11.9361
    2.850   13.1999
    2.880   13.6388
    2.910   14.7095
    2.940   15.4116
    2.970   17.0792
    3.000   18.0621
    3.030   20.3967
    3.060   21.8887
    3.090   25.3642
    3.120   30.8583
    3.150   32.6839
    3.180   31.3674
    3.210   28.2429
    3.240   22.2047
    3.270   16.7457
    3.300   14.7797
    3.330   13.4632
    3.360   13.7967
    3.390   13.2877
    3.420   12.5505
    3.450   12.6558
    3.480   13.9021
    3.510   14.4286
    3.540   15.3414
    3.570   14.8675
    3.600   15.5872
    3.630   16.4297
    3.660   17.6058
    3.690   17.7813
    3.720   19.1153
    3.750   19.7648
    3.780   20.2387
    3.810   18.5361
    3.840   16.9036
    3.870   13.5510
    3.900   12.6909
    3.930   12.1643
    3.960   11.5675
    3.990   10.6723
    4.020    9.6893
    4.050    9.4085
    4.080    9.1627
    4.110    8.7239
    4.140    8.4957
    4.170    7.9691
    4.200    8.5659
    4.230    8.4606
    4.260    8.3553
    4.290    8.6361
    4.320    8.2324
    4.350    8.2851
    4.380    8.5659
    4.410    8.0569
    4.440    8.4430
    4.470    8.3026
    4.500    8.7063
    4.530    7.5303
    4.560    7.7760
    4.590    8.6712
    4.620    7.6532
    4.650    8.0569
    4.680    7.6356
    4.710    8.0218
    4.740    8.0920
    4.770    8.3377
    4.800    8.0569
    4.830    8.2851
    4.860    8.6361
    4.890    8.5659
    4.920    8.5133
    4.950    8.8117
    4.980    8.5835
    5.010    8.8117
    5.040    8.8994
    5.070    9.1101
    5.100    9.0047
    5.130    9.2505
    5.160    9.1627
    5.190    9.1978
    5.220    9.1101
    5.250    9.3207
    5.280    9.7771
    5.310   10.8478
    5.340   10.0053
    5.370   10.5494
    5.400   10.2159
    5.430    9.8122
    5.460   10.4792
    5.490   10.2335
    5.520    9.8999
    5.550    9.9702
    5.580   10.1457
    5.610   10.0228
    5.640    9.5138
    5.670    9.6542
    5.700    9.3031
    5.730    8.8117
    5.760    8.4079
    5.790    8.7063
    5.820    8.9521
    5.850    8.6537
    5.880    8.7414
    5.910    8.4255
    5.940    8.1095
    5.970    8.6888
    6.000    8.1973
    6.030    8.0569
    6.060    8.1973
    6.090    7.8638
    6.120    8.1973
    6.150    8.4255
    6.180    8.8117
    6.210    8.3553
    6.240    8.0393
    6.270    9.0925
    6.300    9.1803
    6.330    9.3382
    6.360    9.6542
    6.390    9.9526
    6.420   10.3739
    6.450    9.9175
    6.480    8.6010
    6.510    8.5835
    6.540    7.5478
    6.570    8.0393
    6.600    8.0218
    6.630    8.0569
    6.660    7.7234
    6.690    7.5478
    6.720    7.5127
    6.750    7.1441
    6.780    7.2494
    6.810    7.2319
    6.840    7.2494
    6.870    6.8808
    6.900    6.4244
    6.930    7.0563
    6.960    7.0739
    6.990    7.0739
    7.020    6.8808
    7.050    6.7228
    7.080    6.8808
    7.110    6.6877
    7.140    7.0915
    7.170    7.1090
    7.200    6.9159
    7.230    6.6877
    7.260    6.8106
    7.290    6.5649
    7.320    6.4420
    7.350    7.0037
    7.380    6.1787
    7.410    7.1792
    7.440    6.6702
    7.470    6.5649
    7.500    6.6000
    7.530    6.3718
    7.560    7.2670
    7.590    6.5473
    7.620    6.8282
    7.650    6.9510
    7.680    6.8633
    7.710    6.6526
    7.740    6.2489
    7.770    6.6526
    7.800    6.1085
    7.830    6.2138
    7.860    6.5824
    7.890    6.3016
    7.920    5.9681
    7.950    6.2313
    7.980    6.3718
    8.010    5.7223
    8.040    5.7399
    8.070    5.7223
    8.100    4.9851
    8.130    5.8101
    8.160    5.5292
    8.190    5.7223
    8.220    5.5643
    8.250    5.5292
    8.280    5.4415
    8.310    5.7925
    8.340    5.2308
    8.370    4.6516
    8.400    5.5468
    8.430    5.3010
    8.460    5.4415
    8.490    5.5292
    8.520    5.6872
    8.550    5.9154
    8.580    5.5643
    8.610    5.2484
    8.640    5.5643
    8.670    5.2484
    8.700    5.1957
    8.730    5.4941
    8.760    5.7223
    8.790    5.4941
    8.820    5.1255
    8.850    5.1431
    8.880    5.5468
    8.910    5.1606
    8.940    5.4590
    8.970    5.6697
    9.000    5.0553
    9.030    5.3186
    9.060    5.3361
    9.090    5.3888
    9.120    5.0202
    9.150    4.9500
    9.180    5.3712
    9.210    5.3010
    9.240    5.0026
    9.270    5.7399
    9.300    4.8973
    9.330    5.4239
    9.360    5.5643
    9.390    5.2308
    9.420    5.4239
    9.450    5.2308
    9.480    4.9149
    9.510    5.1080
    9.540    5.1431
    9.570    5.1080
    9.600    5.5292
    9.630    5.2133
    9.660    4.9675
    9.690    5.1782
    9.720    5.0904
    9.750    5.1782
    9.780    5.4941
    9.810    5.0377
    9.840    5.2133
    9.870    5.5117
    9.900    5.7399
    9.930    5.7925
    9.960    5.5292
    9.990    5.7750
   10.020    5.8803
   10.050    5.9505
   10.080    5.5117
   10.110    6.4069
   10.140    5.5994
   10.170    5.9329
   10.200    5.1606
   10.230    5.3888
   10.260    5.4239
   10.290    5.3186
   10.320    5.4941
   10.350    5.2133
   10.380    5.5468
   10.410    5.6872
   10.440    5.4064
   10.470    5.2133
   10.500    5.6872
   10.530    5.3712
   10.560    5.1431
   10.590    5.3361
   10.620    5.5292
   10.650    5.6521
   10.680    5.8452
   10.710    5.3888
   10.740    5.5292
   10.770    5.7574
   10.800    5.9505
   10.830    5.4590
   10.860    6.3191
   10.890    5.5468
   10.920    5.9505
   10.950    5.4941
   10.980    5.7574
   11.010    5.2659
   11.040    5.0202
   11.070    5.3361
   11.100    5.4415
   11.130    5.6345
   11.160    5.6697
   11.190    5.5292
   11.220    5.1782
   11.250    5.4766
   11.280    5.5468
   11.310    4.9851
   11.340    5.1957
   11.370    5.3712
   11.400    5.4590
   11.430    5.2133
   11.460    5.5643
   11.490    5.8452
   11.520    5.7048
   11.550    5.4941
   11.580    5.3888
   11.610    5.1957
   11.640    5.2484
   11.670    5.0202
   11.700    5.1782
   11.730    5.3888
   11.760    4.8798
   11.790    5.1255
   11.820    4.9675
   11.850    5.3361
   11.880    5.3010
   11.910    4.9500
   11.940    5.0728
   11.970    4.8798
   12.000    5.0377
   12.030    5.5819
   12.060    5.1606
   12.090    5.1957
   12.120    4.9851
   12.150    5.0202
   12.180    4.9500
   12.210    5.1606
   12.240    5.3537
   12.270    5.0553
   12.300    5.4064
   12.330    5.1255
   12.360    4.7218
   12.390    4.9149
   12.420    5.1080
   12.450    4.7042
   12.480    4.6691
   12.510    5.1957
   12.540    4.9851
   12.570    4.9149
   12.600    5.2835
   12.630    4.9851
   12.660    5.0377
   12.690    4.8973
   12.720    5.1606
   12.750    5.0728
   12.780    4.8271
   12.810    5.2835
   12.840    5.0553
   12.870    4.4760
   12.900    4.6867
   12.930    5.0904
   12.960    5.1255
   12.990    4.8095
   13.020    4.7393
   13.050    4.9149
   13.080    4.7218
   13.110    4.5989
   13.140    5.2484
   13.170    5.1782
   13.200    5.3010
   13.230    5.0202
   13.260    4.7393
   13.290    5.0202
   13.320    4.6516
   13.350    4.5111
   13.380    5.3888
   13.410    4.7393
   13.440    4.8271
   13.470    4.9149
   13.500    4.5463
   13.530    5.5117
   13.560    4.7218
   13.590    4.8271
   13.620    4.8095
   13.650    4.9500
   13.680    4.9675
   13.710    5.1080
   13.740    4.5638
   13.770    5.1782
   13.800    5.1431
   13.830    5.0553
   13.860    5.0904
   13.890    5.0202
   13.920    5.0026
   13.950    4.8271
   13.980    5.5117
   14.010    5.2133
   14.040    5.4239
   14.070    5.4415
   14.100    5.3361
   14.130    5.4590
   14.160    4.9149
   14.190    5.2133
   14.220    4.9149
   14.250    4.9324
   14.280    4.8798
   14.310    5.7048
   14.340    5.5292
   14.370    5.3010
   14.400    5.4415
   14.430    5.3888
   14.460    5.4590
   14.490    5.7399
   14.520    5.1255
   14.550    5.4239
   14.580    5.3537
   14.610    5.1957
   14.640    5.2835
   14.670    4.7393
   14.700    5.1255
   14.730    5.4766
   14.760    5.1782
   14.790    5.1080
   14.820    4.8622
   14.850    4.8622
   14.880    5.2133
   14.910    4.8973
   14.940    4.9324
   14.970    4.8798
   15.000    5.1431
   15.030    4.9149
   15.060    4.8095
   15.090    4.6165
   15.120    5.0202
   15.150    5.0553
   15.180    4.9675
   15.210    4.8973
   15.240    5.1957
   15.270    4.7744
   15.300    5.1431
   15.330    5.4766
   15.360    5.0202
   15.390    4.6165
   15.420    4.6691
   15.450    4.6691
   15.480    4.4760
   15.510    4.6691
   15.540    5.5292
   15.570    4.7569
   15.600    4.8447
   15.630    5.1782
   15.660    4.8095
   15.690    5.0026
   15.720    5.3361
   15.750    4.8095
   15.780    4.8447
   15.810    4.8447
   15.840    5.0026
   15.870    5.2659
   15.900    5.3010
   15.930    4.5989
   15.960    4.5638
   15.990    5.1606
   16.020    4.7393
   16.050    5.0728
   16.080    4.7218
   16.110    5.1606
   16.140    4.6165
   16.170    4.7218
   16.200    4.9851
   16.230    5.1080
   16.260    4.8798
   16.290    4.9675
   16.320    5.0904
   16.350    5.0553
   16.380    4.8798
   16.410    4.9500
   16.440    5.2835
   16.470    4.4585
   16.500    4.8798
   16.530    5.0904
   16.560    5.1431
   16.590    4.4585
   16.620    4.6867
   16.650    4.7569
   16.680    5.1431
   16.710    4.9675
   16.740    5.0728
   16.770    4.2654
   16.800    4.7920
   16.830    4.4760
   16.860    4.6340
   16.890    4.8973
   16.920    4.9149
   16.950    4.6165
   16.980    4.4760
   17.010    4.8271
   17.040    4.4409
   17.070    5.3361
   17.100    4.3883
   17.130    4.5111
   17.160    4.6340
   17.190    4.4585
   17.220    4.7218
   17.250    4.6867
   17.280    4.7744
   17.310    5.0553
   17.340    4.7744
   17.370    4.5638
   17.400    4.9149
   17.430    4.6165
   17.460    4.2303
   17.490    4.6691
   17.520    4.7218
   17.550    4.7218
   17.580    4.6516
   17.610    4.8622
   17.640    4.2127
   17.670    4.3356
   17.700    4.5111
   17.730    4.6691
   17.760    4.1776
   17.790    4.9500
   17.820    4.8447
   17.850    5.0377
   17.880    5.0202
   17.910    4.5463
   17.940    4.7042
   17.970    4.5989
   18.000    4.8622
   18.030    4.1776
   18.060    5.3010
   18.090    4.7393
   18.120    4.9675
   18.150    4.6867
   18.180    4.6516
   18.210    5.0026
   18.240    4.8271
   18.270    4.6867
   18.300    4.9149
   18.330    4.5287
   18.360    4.6516
   18.390    5.2484
   18.420    4.4760
   18.450    4.4234
   18.480    4.8271
   18.510    4.9324
   18.540    4.9500
   18.570    5.1957
   18.600    4.6340
   18.630    4.2478
   18.660    4.5814
   18.690    4.5287
   18.720    4.7920
   18.750    4.8447
   18.780    4.6867
   18.810    4.7042
   18.840    4.8973
   18.870    4.7042
   18.900    4.9675
   18.930    5.7750
   18.960    6.8282
   18.990    7.2319
   19.020    6.3893
   19.050    5.2659
   19.080    4.9851
   19.110    4.7920
   19.140    4.7920
   19.170    4.8447
   19.200    4.5814
   19.230    4.5638
   19.260    4.1425
   19.290    4.6516
   19.320    4.6867
   19.350    4.3707
   19.380    4.5638
   19.410    4.4234
   19.440    4.7393
   19.470    4.6867
   19.500    4.3707
   19.530    4.8973
   19.560    4.2830
   19.590    4.1250
   19.620    4.3883
   19.650    4.6340
   19.680    5.0377
   19.710    4.8973
   19.740    4.4936
   19.770    4.3532
   19.800    4.4234
   19.830    4.6165
   19.860    4.3883
   19.890    4.4760
   19.920    4.2478
   19.950    4.7393
   19.980    4.4760
   20.010    4.6691
   20.040    4.5463
   20.070    4.1250
   20.100    4.6165
   20.130    4.6867
   20.160    4.8622
   20.190    4.8973
   20.220    4.0723
   20.250    4.5989
   20.280    4.5638
   20.310    4.8447
   20.340    4.7218
   20.370    4.3005
   20.400    4.5814
   20.430    4.4058
   20.460    4.8798
   20.490    4.5111
   20.520    4.2654
   20.550    4.0723
   20.580    4.1776
   20.610    4.5287
   20.640    4.5287
   20.670    4.4585
   20.700    4.6516
   20.730    4.3532
   20.760    4.7042
   20.790    4.1601
   20.820    4.0372
   20.850    4.1952
   20.880    4.1425
   20.910    4.4409
   20.940    4.2303
   20.970    4.5989
   21.000    4.0197
   21.030    4.0723
   21.060    4.7042
   21.090    4.5989
   21.120    4.3181
   21.150    4.2830
   21.180    4.0372
   21.210    4.4058
   21.240    4.9675
   21.270    4.0899
   21.300    4.7218
   21.330    4.6516
   21.360    4.2303
   21.390    4.5111
   21.420    4.4936
   21.450    4.5989
   21.480    4.5638
   21.510    4.7042
   21.540    4.3356
   21.570    4.1776
   21.600    4.6691
   21.630    4.4585
   21.660    4.3181
   21.690    4.5463
   21.720    4.4760
   21.750    4.5111
   21.780    4.3356
   21.810    4.6165
   21.840    4.3181
   21.870    4.5111
   21.900    4.4760
   21.930    4.4409
   21.960    4.5814
   21.990    4.3707
   22.020    4.6867
   22.050    4.0899
   22.080    4.0372
   22.110    4.1425
   22.140    4.3532
   22.170    4.3883
   22.200    4.5287
   22.230    4.4409
   22.260    4.3356
   22.290    4.4760
   22.320    4.1601
   22.350    4.3707
   22.380    4.4760
   22.410    4.3532
   22.440    4.4585
   22.470    4.4234
   22.500    4.7569
   22.530    4.2830
   22.560    4.6340
   22.590    4.9149
   22.620    4.7218
   22.650    3.9670
   22.680    4.6340
   22.710    4.1074
   22.740    4.5989
   22.770    4.2830
   22.800    4.2127
   22.830    3.8441
   22.860    4.2830
   22.890    4.3356
   22.920    4.1425
   22.950    3.8266
   22.980    4.4058
   23.010    4.0021
   23.040    4.6165
   23.070    4.3532
   23.100    5.4415
   23.130    4.8095
   23.160    4.5814
   23.190    4.3707
   23.220    4.0021
   23.250    4.1074
   23.280    4.8095
   23.310    4.6867
   23.340    3.9846
   23.370    4.2127
   23.400    4.1776
   23.430    4.5814
   23.460    3.9494
   23.490    4.2478
   23.520    4.2654
   23.550    4.7393
   23.580    3.9494
   23.610    4.4585
   23.640    3.8441
   23.670    3.9670
   23.700    4.4234
   23.730    4.0197
   23.760    3.9319
   23.790    3.9319
   23.820    4.3181
   23.850    3.9319
   23.880    3.7388
   23.910    3.9846
   23.940    3.7388
   23.970    3.9494
   24.000    3.9846
   24.030    4.1425
   24.060    4.0372
   24.090    4.1074
   24.120    4.0021
   24.150    4.0021
   24.180    4.1250
   24.210    3.8968
   24.240    3.8090
   24.270    3.7915
   24.300    4.2478
   24.330    4.1074
   24.360    4.0548
   24.390    3.5984
   24.420    3.5633
   24.450    4.0723
   24.480    3.8441
   24.510    3.5633
   24.540    4.0197
   24.570    4.0899
   24.600    4.3181
   24.630    4.2478
   24.660    4.0372
   24.690    4.0197
   24.720    4.1601
   24.750    3.9846
   24.780    3.6686
   24.810    3.7915
   24.840    3.8968
   24.870    3.7037
   24.900    4.0548
   24.930    4.0021
   24.960    3.9494
   24.990    3.9319
   25.020    4.0899
   25.050    3.8792
   25.080    3.7037
   25.110    3.9494
   25.140    4.1776
   25.170    3.5282
   25.200    4.0372
   25.230    3.4931
   25.260    3.5282
   25.290    3.3351
   25.320    4.0723
   25.350    3.7739
   25.380    3.7037
   25.410    3.9670
   25.440    3.8441
   25.470    4.1601
   25.500    4.6516
   25.530    4.0723
   25.560    3.9494
   25.590    3.8968
   25.620    4.0372
   25.650    3.8617
   25.680    3.8441
   25.710    3.7388
   25.740    4.1074
   25.770    4.0021
   25.800    3.7388
   25.830    3.1947
   25.860    3.7213
   25.890    3.9494
   25.920    3.8617
   25.950    3.7739
   25.980    3.4755
   26.010    3.5633
   26.040    3.9494
   26.070    3.3526
   26.100    4.0372
   26.130    3.7037
   26.160    3.8792
   26.190    4.0723
   26.220    3.7037
   26.250    3.7915
   26.280    3.5106
   26.310    3.8266
   26.340    3.2122
   26.370    3.7915
   26.400    3.4580
   26.430    3.5457
   26.460    3.8266
   26.490    3.8441
   26.520    3.8617
   26.550    3.4755
   26.580    3.3702
   26.610    3.6159
   26.640    3.8792
   26.670    3.6862
   26.700    3.3351
   26.730    3.8266
   26.760    3.4931
   26.790    3.7915
   26.820    3.5633
   26.850    3.7037
   26.880    3.6159
   26.910    3.5282
   26.940    3.7213
   26.970    3.8968
   27.000    3.6862
   27.030    3.5457
   27.060    3.4404
   27.090    3.4931
   27.120    3.2824
   27.150    3.8090
   27.180    3.7388
   27.210    3.6159
   27.240    3.1771
   27.270    3.4404
   27.300    3.6159
   27.330    3.3702
   27.360    3.2298
   27.390    3.7739
   27.420    3.5808
   27.450    3.4755
   27.480    3.3702
   27.510    3.4229
   27.540    3.3526
   27.570    3.4229
   27.600    3.4404
   27.630    3.5984
   27.660    3.2298
   27.690    3.8090
   27.720    3.1245
   27.750    3.5633
   27.780    3.4931
   27.810    3.4931
   27.840    3.5984
   27.870    3.2298
   27.900    3.5808
   27.930    3.8090
   27.960    4.8798
   27.990    5.4590
   28.020    5.4941
   28.050    4.3005
   28.080    3.8617
   28.110    3.4053
   28.140    3.3526
   28.170    3.1947
   28.200    3.6335
   28.230    3.4053
   28.260    3.1947
   28.290    3.4229
   28.320    3.2649
   28.350    3.4229
   28.380    3.6686
   28.410    3.1420
   28.440    3.2122
   28.470    3.3175
   28.500    3.2824
   28.530    3.5106
   28.560    3.1245
   28.590    3.2473
   28.620    3.2473
   28.650    3.2824
   28.680    3.4755
   28.710    3.7037
   28.740    3.3702
   28.770    3.6159
   28.800    3.2824
   28.830    3.3526
   28.860    3.5633
   28.890    3.4755
   28.920    4.4409
   28.950    5.3010
   28.980    5.2659
   29.010    4.3181
   29.040    3.2824
   29.070    3.1420
   29.100    2.9314
   29.130    3.0367
   29.160    3.4404
   29.190    2.8260
   29.220    3.4404
   29.250    3.1069
   29.280    3.2298
   29.310    3.1771
   29.340    3.2473
   29.370    2.7032
   29.400    3.0542
   29.430    3.0191
   29.460    3.1596
   29.490    3.1245
   29.520    2.8963
   29.550    2.7383
   29.580    3.2122
   29.610    2.7032
   29.640    3.0893
   29.670    2.9840
   29.700    2.9138
   29.730    2.8612
   29.760    3.0367
   29.790    2.6856
   29.820    3.0016
   29.850    2.9665
   29.880    2.8612
   29.910    3.0191
   29.940    2.8085
   29.970    3.4580
   30.000    3.0542
   30.030    2.9489
   30.060    2.8085
   30.090    2.9665
   30.120    2.8787
   30.150    2.6856
   30.180    2.9138
   30.210    2.9840
   30.240    2.7558
   30.270    2.6505
   30.300    2.8085
   30.330    2.7383
   30.360    2.7909
   30.390    2.9840
   30.420    2.9314
   30.450    3.1069
   30.480    2.7207
   30.510    3.0718
   30.540    2.9840
   30.570    3.1596
   30.600    3.1596
   30.630    2.5452
   30.660    2.7558
   30.690    3.1069
   30.720    2.7383
   30.750    2.8085
   30.780    3.1420
   30.810    2.8612
   30.840    2.5452
   30.870    2.8436
   30.900    3.2122
   30.930    2.9138
   30.960    2.6154
   30.990    2.6154
   31.020    3.1771
   31.050    2.8963
   31.080    2.7909
   31.110    2.9665
   31.140    2.2117
   31.170    2.8787
   31.200    2.6856
   31.230    2.6856
   31.260    2.8436
   31.290    3.1245
   31.320    2.8260
   31.350    2.8085
   31.380    2.6330
   31.410    2.8963
   31.440    2.2292
   31.470    2.4925
   31.500    2.8085
   31.530    2.4574
   31.560    2.5101
   31.590    2.9314
   31.620    2.7207
   31.650    2.6505
   31.680    3.0191
   31.710    2.7383
   31.740    3.3351
   31.770    3.2122
   31.800    4.1425
   31.830    3.5808
   31.860    3.0191
   31.890    2.7909
   31.920    2.7383
   31.950    2.7734
   31.980    3.4053
   32.010    2.9665
   32.040    4.3707
   32.070    7.4425
   32.100    7.2494
   32.130    6.3191
   32.160    4.0372
   32.190    2.8436
   32.220    2.6505
   32.250    2.7558
   32.280    2.5979
   32.310    2.6330
   32.340    2.7032
   32.370    2.5276
   32.400    2.7734
   32.430    2.5276
   32.460    2.7558
   32.490    2.6330
   32.520    2.4925
   32.550    2.5101
   32.580    2.8787
   32.610    2.6330
   32.640    2.4925
   32.670    2.8612
   32.700    2.5979
   32.730    2.7734
   32.760    2.3521
   32.790    2.2819
   32.820    2.7558
   32.850    2.6681
   32.880    2.4750
   32.910    2.6681
   32.940    2.6330
   32.970    2.4223
   33.000    2.2117
   33.030    2.6681
   33.060    2.5276
   33.090    2.4750
   33.120    2.6154
   33.150    2.4750
   33.180    2.7909
   33.210    2.5628
   33.240    2.7383
   33.270    2.6154
   33.300    2.3872
   33.330    2.5803
   33.360    2.6330
   33.390    2.4750
   33.420    2.4399
   33.450    2.4925
   33.480    2.4750
   33.510    2.6330
   33.540    2.4399
   33.570    2.2468
   33.600    2.6154
   33.630    2.6330
   33.660    2.1239
   33.690    2.2995
   33.720    2.5276
   33.750    3.1069
   33.780    4.0197
   33.810    4.5463
   33.840    3.9846
   33.870    3.3351
   33.900    2.4048
   33.930    2.6681
   33.960    2.8260
   33.990    2.9314
   34.020    3.0542
   34.050    2.9314
   34.080    2.4223
   34.110    2.8436
   34.140    2.6856
   34.170    2.3697
   34.200    2.6154
   34.230    2.5979
   34.260    2.5101
   34.290    2.2468
   34.320    2.2292
   34.350    2.0713
   34.380    2.4750
   34.410    2.3872
   34.440    2.2643
   34.470    2.5628
   34.500    2.4574
   34.530    2.8787
   34.560    2.5101
   34.590    2.7207
   34.620    2.4574
   34.650    2.2819
   34.680    2.1590
   34.710    2.2292
   34.740    2.6505
   34.770    2.2117
   34.800    2.4925
   34.830    2.4399
   34.860    2.5101
   34.890    2.4925
   34.920    2.4223
   34.950    2.2819
   34.980    2.5452
   35.010    2.3872
   35.040    2.5101
   35.070    2.8260
   35.100    2.3697
   35.130    2.2819
   35.160    2.3697
   35.190    2.2819
   35.220    2.2819
   35.250    2.6154
   35.280    2.1590
   35.310    2.0713
   35.340    2.4048
   35.370    2.5452
   35.400    2.4750
   35.430    2.5101
   35.460    2.3170
   35.490    2.1766
   35.520    2.5101
   35.550    2.5979
   35.580    2.5452
   35.610    2.5803
   35.640    2.2995
   35.670    2.1941
   35.700    2.1590
   35.730    2.3521
   35.760    2.4048
   35.790    2.5803
   35.820    2.4048
   35.850    2.4925
   35.880    2.4750
   35.910    2.5101
   35.940    2.5276
   35.970    2.0186
   36.000    2.3697
   36.030    2.3170
   36.060    2.3346
   36.090    2.5979
   36.120    2.4223
   36.150    2.5628
   36.180    2.5803
   36.210    2.3521
   36.240    2.3872
   36.270    2.3346
   36.300    2.5276
   36.330    2.4223
   36.360    2.4399
   36.390    2.4223
   36.420    2.7032
   36.450    2.4399
   36.480    2.2643
   36.510    2.3521
   36.540    2.3346
   36.570    2.3346
   36.600    2.4750
   36.630    2.1415
   36.660    2.6154
   36.690    2.8260
   36.720    2.3697
   36.750    2.5101
   36.780    2.0888
   36.810    2.5979
   36.840    2.3521
   36.870    2.4750
   36.900    2.3170
   36.930    2.4574
   36.960    2.5452
   36.990    2.3346
   37.020    2.4399
   37.050    2.4048
   37.080    2.5803
   37.110    2.4048
   37.140    2.5979
   37.170    2.4925
   37.200    2.1239
   37.230    2.1766
   37.260    2.2117
   37.290    2.4399
   37.320    2.2292
   37.350    2.3346
   37.380    2.6330
   37.410    2.5452
   37.440    2.2995
   37.470    1.9659
   37.500    2.6681
   37.530    2.3346
   37.560    2.1941
   37.590    2.2292
   37.620    2.1941
   37.650    2.2643
   37.680    2.2819
   37.710    2.2643
   37.740    2.2643
   37.770    2.7032
   37.800    2.3170
   37.830    2.3521
   37.860    2.2117
   37.890    2.2995
   37.920    2.3170
   37.950    2.2995
   37.980    2.3170
   38.010    2.1941
   38.040    2.5452
   38.070    2.2292
   38.100    2.7734
   38.130    2.2819
   38.160    2.0186
   38.190    2.5101
   38.220    2.1064
   38.250    2.2995
   38.280    2.3697
   38.310    2.3521
   38.340    2.0186
   38.370    2.5803
   38.400    2.2468
   38.430    2.2995
   38.460    2.2468
   38.490    2.2643
   38.520    2.3697
   38.550    2.7383
   38.580    3.2824
   38.610    3.3702
   38.640    2.5628
   38.670    2.4574
   38.700    2.4399
   38.730    2.5628
   38.760    2.3872
   38.790    2.3697
   38.820    2.7032
   38.850    2.4048
   38.880    2.3170
   38.910    2.1239
   38.940    2.4223
   38.970    2.3697
   39.000    2.2292
   39.030    2.3872
   39.060    2.4750
   39.090    2.1239
   39.120    2.3872
   39.150    2.2819
   39.180    2.2643
   39.210    2.2292
   39.240    2.2117
   39.270    2.2819
   39.300    1.9835
   39.330    2.3346
   39.360    2.1941
   39.390    1.9835
   39.420    2.2292
   39.450    2.5803
   39.480    2.6154
   39.510    2.2643
   39.540    1.9133
   39.570    2.2643
   39.600    2.2468
   39.630    2.2292
   39.660    2.0186
   39.690    2.1415
   39.720    2.2468
   39.750    2.3521
   39.780    2.1766
   39.810    2.5276
   39.840    2.1590
   39.870    2.3346
   39.900    2.2117
   39.930    2.1415
   39.960    2.2468
   39.990    2.2819