File: data/PXRD/PXRD_KE-125_Cu-Ka1_capillary-1mm_5s-deg.xyd
    1.500   16.6614
    1.530   16.7246
    1.560   17.3565
    1.590   16.2928
    1.620   16.3244
    1.650   15.5134
    1.680   16.2296
    1.710   15.9347
    1.740   15.5556
    1.770   15.1659
    1.800   15.4608
    1.830   15.5872
    1.860   14.9868
    1.890   14.4602
    1.920   14.8183
    1.950   14.8710
    1.980   15.4397
    2.010   15.1553
    2.040   15.1237
    2.070   15.1132
    2.100   14.8289
    2.130   14.7130
    2.160   15.2396
    2.190   15.4081
    2.220   15.9979
    2.250   15.8083
    2.280   15.8504
    2.310   16.1875
    2.340   16.6193
    2.370   16.4929
    2.400   16.3876
    2.430   17.2617
    2.460   17.4092
    2.490   18.0411
    2.520   19.5155
    2.550   19.4418
    2.580   19.4418
    2.610   20.4213
    2.640   21.7378
    2.670   21.9063
    2.700   22.9489
    2.730   23.6230
    2.760   24.9605
    2.790   25.6240
    2.820   26.3507
    2.850   28.6572
    2.880   29.8789
    2.910   30.7952
    2.940   32.2486
    2.970   34.3865
    3.000   36.1664
    3.030   39.4734
    3.060   41.5061
    3.090   43.2122
    3.120   46.6772
    3.150   51.5745
    3.180   55.4818
    3.210   60.1896
    3.240   64.1706
    3.270   71.6904
    3.300   79.2101
    3.330   89.1943
    3.360   98.9995
    3.390  115.3660
    3.420  129.2048
    3.450  139.9368
    3.480  133.0490
    3.510  107.5724
    3.540   78.5571
    3.570   58.1148
    3.600   47.4987
    3.630   42.4645
    3.660   40.6424
    3.690   39.8210
    3.720   41.0216
    3.750   42.7067
    3.780   43.8125
    3.810   46.3086
    3.840   48.3412
    3.870   51.4481
    3.900   54.4286
    3.930   55.7873
    3.960   56.7141
    3.990   58.0095
    4.020   57.3144
    4.050   54.8710
    4.080   52.3223
    4.110   48.9416
    4.140   44.0548
    4.170   40.5582
    4.200   35.4397
    4.230   32.1011
    4.260   27.5303
    4.290   23.8652
    4.320   20.4845
    4.350   18.7362
    4.380   16.3770
    4.410   14.8289
    4.440   13.6388
    4.470   11.8694
    4.500   11.6272
    4.530   10.3739
    4.560    9.4155
    4.590    9.5945
    4.620    8.9837
    4.650    8.0779
    4.680    8.5729
    4.710    7.9621
    4.740    8.3307
    4.770    7.5408
    4.800    7.1827
    4.830    7.6988
    4.860    7.2565
    4.890    7.2775
    4.920    7.7725
    4.950    7.1406
    4.980    6.8457
    5.010    6.8562
    5.040    6.5508
    5.070    6.8984
    5.100    6.6561
    5.130    6.3823
    5.160    6.6667
    5.190    6.4350
    5.220    6.7193
    5.250    5.9821
    5.280    6.7825
    5.310    6.5508
    5.340    6.3718
    5.370    6.2454
    5.400    6.2454
    5.430    6.1190
    5.460    6.4350
    5.490    6.3612
    5.520    5.7820
    5.550    6.2033
    5.580    5.7609
    5.610    5.9400
    5.640    5.9189
    5.670    5.9926
    5.700    5.8978
    5.730    5.9294
    5.760    5.7715
    5.790    5.6451
    5.820    5.6029
    5.850    5.9505
    5.880    5.4344
    5.910    5.7504
    5.940    5.6029
    5.970    5.6029
    6.000    5.8241
    6.030    5.7188
    6.060    5.5608
    6.090    6.1506
    6.120    5.7293
    6.150    5.8662
    6.180    6.0558
    6.210    6.0874
    6.240    5.7609
    6.270    5.9084
    6.300    6.1717
    6.330    6.0979
    6.360    6.0558
    6.390    6.5298
    6.420    6.5192
    6.450    6.4560
    6.480    6.4455
    6.510    6.7404
    6.540    6.8562
    6.570    7.1090
    6.600    7.8462
    6.630    7.7409
    6.660    7.8462
    6.690    8.5940
    6.720    9.2470
    6.750    9.7736
    6.780   11.2480
    6.810   11.9642
    6.840   12.8805
    6.870   14.1022
    6.900   15.6819
    6.930   17.7146
    6.960   18.6835
    6.990   17.4934
    7.020   14.3233
    7.050   12.0590
    7.080    9.7630
    7.110    8.0358
    7.140    7.2670
    7.170    7.2670
    7.200    6.9194
    7.230    6.7299
    7.260    7.1933
    7.290    6.7825
    7.320    6.8457
    7.350    6.9300
    7.380    6.8562
    7.410    6.4034
    7.440    6.5087
    7.470    6.6667
    7.500    6.4455
    7.530    6.8036
    7.560    6.8141
    7.590    7.0563
    7.620    7.1301
    7.650    7.1933
    7.680    7.2249
    7.710    7.3723
    7.740    7.7409
    7.770    7.6883
    7.800    8.1306
    7.830    8.5835
    7.860    8.1938
    7.890    9.0258
    7.920    8.6467
    7.950    9.1417
    7.980    8.9942
    8.010    9.5419
    8.040   10.0790
    8.070    9.9105
    8.100    9.4892
    8.130    9.5524
    8.160    9.7420
    8.190    9.5524
    8.220    9.6051
    8.250    9.1311
    8.280    9.3418
    8.310    8.7520
    8.340    9.1943
    8.370    7.8146
    8.400    8.7520
    8.430    8.2675
    8.460    8.6045
    8.490    7.8884
    8.520    8.0358
    8.550    7.8884
    8.580    7.5724
    8.610    7.3407
    8.640    7.1195
    8.670    7.2354
    8.700    6.7299
    8.730    6.7088
    8.760    6.0137
    8.790    6.0664
    8.820    6.4034
    8.850    6.0664
    8.880    6.3086
    8.910    6.3191
    8.940    6.1190
    8.970    6.1506
    9.000    5.8136
    9.030    5.5292
    9.060    5.3712
    9.090    5.7188
    9.120    5.4766
    9.150    5.5608
    9.180    5.9084
    9.210    5.7293
    9.240    5.9505
    9.270    5.6345
    9.300    5.7820
    9.330    5.6661
    9.360    5.5398
    9.390    5.6661
    9.420    5.8768
    9.450    5.5714
    9.480    5.6661
    9.510    5.3081
    9.540    4.9921
    9.570    5.6977
    9.600    5.5714
    9.630    5.3186
    9.660    5.1395
    9.690    5.4344
    9.720    5.2449
    9.750    5.7925
    9.780    5.4976
    9.810    5.3818
    9.840    5.2870
    9.870    5.2975
    9.900    5.4766
    9.930    5.4028
    9.960    5.2343
    9.990    5.4134
   10.020    5.5503
   10.050    5.4134
   10.080    5.5398
   10.110    5.7188
   10.140    5.6240
   10.170    5.4660
   10.200    5.5292
   10.230    5.6977
   10.260    5.8662
   10.290    5.5714
   10.320    5.7399
   10.350    6.1822
   10.380    6.1822
   10.410    6.3191
   10.440    6.6561
   10.470    6.4244
   10.500    6.4139
   10.530    6.0032
   10.560    5.6977
   10.590    5.7715
   10.620    5.6872
   10.650    5.3186
   10.680    5.2554
   10.710    5.6135
   10.740    5.2133
   10.770    5.3923
   10.800    5.6977
   10.830    5.4239
   10.860    5.1395
   10.890    5.5292
   10.920    5.5292
   10.950    5.3186
   10.980    5.5187
   11.010    5.7504
   11.040    5.4555
   11.070    5.2765
   11.100    5.3081
   11.130    5.5924
   11.160    5.2765
   11.190    5.7820
   11.220    5.4450
   11.250    5.1606
   11.280    5.4660
   11.310    5.5187
   11.340    4.9289
   11.370    5.5714
   11.400    5.4660
   11.430    5.4555
   11.460    5.5503
   11.490    5.8768
   11.520    5.6451
   11.550    5.5503
   11.580    5.7083
   11.610    5.5714
   11.640    5.6556
   11.670    5.5503
   11.700    5.4766
   11.730    5.7925
   11.760    5.8031
   11.790    5.8241
   11.820    5.6029
   11.850    6.2138
   11.880    5.7293
   11.910    5.5608
   11.940    5.9400
   11.970    5.8452
   12.000    5.7820
   12.030    5.8978
   12.060    6.0348
   12.090    6.2349
   12.120    6.0664
   12.150    5.6872
   12.180    5.6872
   12.210    5.9716
   12.240    6.1401
   12.270    5.8873
   12.300    6.2981
   12.330    6.1717
   12.360    5.8768
   12.390    5.9400
   12.420    5.7399
   12.450    6.1506
   12.480    5.9084
   12.510    5.6661
   12.540    5.8347
   12.570    6.1085
   12.600    5.4028
   12.630    6.1927
   12.660    5.9610
   12.690    6.0242
   12.720    6.0242
   12.750    6.0137
   12.780    5.7083
   12.810    5.8768
   12.840    5.6661
   12.870    5.8136
   12.900    5.9821
   12.930    5.5292
   12.960    5.6556
   12.990    5.7820
   13.020    5.2870
   13.050    5.8452
   13.080    5.7083
   13.110    5.7399
   13.140    5.3923
   13.170    5.8241
   13.200    5.8873
   13.230    6.0769
   13.260    5.6872
   13.290    5.7293
   13.320    5.1185
   13.350    5.6451
   13.380    5.6029
   13.410    5.7925
   13.440    5.2870
   13.470    5.8557
   13.500    5.4976
   13.530    5.5398
   13.560    5.6451
   13.590    5.7188
   13.620    5.5503
   13.650    5.6661
   13.680    5.5819
   13.710    5.6767
   13.740    5.7504
   13.770    5.9189
   13.800    5.5398
   13.830    5.5292
   13.860    5.6451
   13.890    5.8978
   13.920    5.6135
   13.950    5.5819
   13.980    5.5292
   14.010    5.5503
   14.040    5.3291
   14.070    5.2975
   14.100    5.3818
   14.130    5.6767
   14.160    4.9816
   14.190    5.3081
   14.220    5.6767
   14.250    5.3818
   14.280    5.4660
   14.310    5.5819
   14.340    5.0658
   14.370    5.4871
   14.400    5.5714
   14.430    5.3186
   14.460    5.0974
   14.490    5.4976
   14.520    5.2765
   14.550    5.8768
   14.580    4.7815
   14.610    5.3712
   14.640    5.4976
   14.670    5.2133
   14.700    5.4555
   14.730    5.1501
   14.760    5.2554
   14.790    5.3081
   14.820    5.5608
   14.850    5.1080
   14.880    5.2238
   14.910    5.4976
   14.940    5.2659
   14.970    5.6240
   15.000    5.2238
   15.030    5.3818
   15.060    5.1817
   15.090    5.1817
   15.120    5.2554
   15.150    5.2870
   15.180    5.4450
   15.210    5.1711
   15.240    5.5082
   15.270    5.3818
   15.300    5.3923
   15.330    5.3291
   15.360    5.3607
   15.390    5.3186
   15.420    5.4239
   15.450    5.3081
   15.480    5.3607
   15.510    5.3502
   15.540    5.5819
   15.570    5.2765
   15.600    5.0974
   15.630    5.3923
   15.660    5.2975
   15.690    5.2870
   15.720    5.4976
   15.750    5.5608
   15.780    5.1711
   15.810    5.3923
   15.840    5.5924
   15.870    4.7499
   15.900    5.0764
   15.930    5.3397
   15.960    5.3923
   15.990    5.7083
   16.020    5.4028
   16.050    5.2133
   16.080    5.3923
   16.110    5.6135
   16.140    5.4134
   16.170    5.6661
   16.200    5.6872
   16.230    5.5292
   16.260    5.3186
   16.290    5.2133
   16.320    5.2870
   16.350    5.1817
   16.380    5.4660
   16.410    5.3712
   16.440    5.5503
   16.470    4.9710
   16.500    5.3712
   16.530    5.4239
   16.560    5.4028
   16.590    5.3291
   16.620    5.0869
   16.650    5.3502
   16.680    5.4766
   16.710    5.4871
   16.740    5.3291
   16.770    5.0553
   16.800    5.3502
   16.830    5.4450
   16.860    5.4344
   16.890    5.0553
   16.920    5.3291
   16.950    5.3186
   16.980    5.2765
   17.010    5.3502
   17.040    5.0869
   17.070    5.3502
   17.100    5.3186
   17.130    5.5292
   17.160    4.8973
   17.190    5.2133
   17.220    5.0764
   17.250    5.6767
   17.280    5.2975
   17.310    5.5924
   17.340    5.2027
   17.370    5.3081
   17.400    5.4028
   17.430    5.3607
   17.460    5.0132
   17.490    5.5292
   17.520    5.6240
   17.550    5.1922
   17.580    5.8557
   17.610    5.4871
   17.640    5.2975
   17.670    5.1606
   17.700    5.3923
   17.730    5.1501
   17.760    5.1606
   17.790    5.4344
   17.820    5.5714
   17.850    5.3502
   17.880    5.5292
   17.910    5.2343
   17.940    5.1395
   17.970    5.2449
   18.000    5.3502
   18.030    5.1080
   18.060    5.8347
   18.090    5.3818
   18.120    5.4871
   18.150    5.4344
   18.180    5.3502
   18.210    5.2133
   18.240    5.5608
   18.270    5.7399
   18.300    5.1395
   18.330    5.1606
   18.360    5.4871
   18.390    5.2133
   18.420    5.7293
   18.450    5.5608
   18.480    5.0869
   18.510    5.5608
   18.540    5.6556
   18.570    5.4450
   18.600    5.3818
   18.630    5.6977
   18.660    5.4766
   18.690    5.2659
   18.720    5.2343
   18.750    5.7715
   18.780    5.4450
   18.810    5.7925
   18.840    5.8768
   18.870    5.5819
   18.900    5.8136
   18.930    5.4028
   18.960    5.9400
   18.990    5.9926
   19.020    5.5714
   19.050    5.4555
   19.080    5.4766
   19.110    5.4134
   19.140    5.0869
   19.170    5.6135
   19.200    5.6767
   19.230    5.7399
   19.260    5.9294
   19.290    5.7399
   19.320    5.3291
   19.350    5.5924
   19.380    5.6872
   19.410    5.5503
   19.440    5.6661
   19.470    6.1190
   19.500    6.0453
   19.530    5.8031
   19.560    5.8452
   19.590    5.4344
   19.620    5.9294
   19.650    6.0348
   19.680    6.0453
   19.710    6.0979
   19.740    5.9084
   19.770    6.1190
   19.800    6.2243
   19.830    6.0242
   19.860    5.9505
   19.890    5.7715
   19.920    6.0137
   19.950    5.9716
   19.980    5.9505
   20.010    5.8873
   20.040    6.2138
   20.070    6.4034
   20.100    6.1822
   20.130    5.8873
   20.160    6.1085
   20.190    5.7293
   20.220    5.9189
   20.250    5.7083
   20.280    5.8241
   20.310    5.9084
   20.340    6.2138
   20.370    5.8241
   20.400    5.8873
   20.430    5.9610
   20.460    5.7925
   20.490    6.1085
   20.520    5.9926
   20.550    6.0242
   20.580    6.2559
   20.610    5.8031
   20.640    6.1611
   20.670    5.9610
   20.700    5.8557
   20.730    5.8873
   20.760    5.7925
   20.790    5.7293
   20.820    5.8557
   20.850    6.0979
   20.880    6.3402
   20.910    6.0348
   20.940    6.0979
   20.970    5.6345
   21.000    6.1611
   21.030    5.9505
   21.060    6.2243
   21.090    6.1295
   21.120    6.2875
   21.150    6.3823
   21.180    6.0453
   21.210    5.7504
   21.240    5.9189
   21.270    6.2770
   21.300    5.7715
   21.330    6.3296
   21.360    5.9294
   21.390    6.0453
   21.420    5.7504
   21.450    5.8241
   21.480    5.5819
   21.510    6.3612
   21.540    6.1401
   21.570    5.5714
   21.600    5.6451
   21.630    6.1295
   21.660    5.8452
   21.690    5.8557
   21.720    5.9505
   21.750    6.3612
   21.780    5.9610
   21.810    6.1190
   21.840    5.7399
   21.870    6.3086
   21.900    6.1190
   21.930    5.7820
   21.960    6.1717
   21.990    5.9294
   22.020    6.0348
   22.050    5.4766
   22.080    6.2559
   22.110    6.0137
   22.140    5.6345
   22.170    6.0137
   22.200    6.0453
   22.230    5.9189
   22.260    6.2665
   22.290    5.6767
   22.320    5.8873
   22.350    6.0874
   22.380    5.8557
   22.410    5.6029
   22.440    6.0558
   22.470    5.8768
   22.500    5.4976
   22.530    5.7609
   22.560    6.1190
   22.590    5.4871
   22.620    6.1927
   22.650    5.9926
   22.680    6.0453
   22.710    6.3296
   22.740    5.8241
   22.770    6.2243
   22.800    6.0242
   22.830    6.0664
   22.860    5.8136
   22.890    6.1190
   22.920    5.7504
   22.950    6.1190
   22.980    5.8241
   23.010    5.8662
   23.040    6.0348
   23.070    5.8452
   23.100    6.0242
   23.130    6.5929
   23.160    6.0874
   23.190    6.2033
   23.220    6.0453
   23.250    5.8347
   23.280    5.6451
   23.310    5.8768
   23.340    5.7083
   23.370    5.7504
   23.400    5.7715
   23.430    5.8873
   23.460    5.8873
   23.490    5.6029
   23.520    5.4976
   23.550    5.8557
   23.580    5.9294
   23.610    5.8873
   23.640    5.5503
   23.670    5.7399
   23.700    5.9189
   23.730    5.6240
   23.760    5.8768
   23.790    5.8347
   23.820    5.6767
   23.850    5.6661
   23.880    5.4239
   23.910    5.6240
   23.940    5.6345
   23.970    5.7504
   24.000    5.4028
   24.030    5.8452
   24.060    5.7609
   24.090    5.6135
   24.120    5.4976
   24.150    5.8347
   24.180    5.4239
   24.210    5.8662
   24.240    5.5714
   24.270    5.5819
   24.300    5.4344
   24.330    5.7293
   24.360    5.7399
   24.390    5.4344
   24.420    5.5819
   24.450    5.8136
   24.480    5.8136
   24.510    5.5924
   24.540    6.0032
   24.570    5.4871
   24.600    5.7504
   24.630    5.7293
   24.660    5.8031
   24.690    5.7715
   24.720    5.6556
   24.750    6.0137
   24.780    5.6345
   24.810    5.7083
   24.840    5.9294
   24.870    5.2659
   24.900    5.4134
   24.930    5.4134
   24.960    5.6872
   24.990    5.6345
   25.020    5.4555
   25.050    5.2765
   25.080    5.0974
   25.110    5.2343
   25.140    5.2343
   25.170    5.4450
   25.200    5.4976
   25.230    5.8347
   25.260    4.8657
   25.290    5.6767
   25.320    5.3607
   25.350    5.6451
   25.380    5.2133
   25.410    5.1922
   25.440    5.4134
   25.470    5.8768
   25.500    5.6977
   25.530    5.4134
   25.560    5.2870
   25.590    5.3818
   25.620    5.1817
   25.650    5.4450
   25.680    5.1080
   25.710    5.6345
   25.740    5.3081
   25.770    5.5608
   25.800    5.3923
   25.830    5.3712
   25.860    4.9184
   25.890    5.2133
   25.920    5.1922
   25.950    5.2027
   25.980    5.1606
   26.010    5.4660
   26.040    5.2343
   26.070    5.0974
   26.100    5.2659
   26.130    5.1395
   26.160    5.0026
   26.190    5.3502
   26.220    5.3186
   26.250    4.9394
   26.280    4.9289
   26.310    4.8763
   26.340    5.2554
   26.370    5.4555
   26.400    5.3081
   26.430    5.4134
   26.460    5.0026
   26.490    5.3923
   26.520    5.3607
   26.550    4.9921
   26.580    5.4976
   26.610    4.9710
   26.640    5.0974
   26.670    5.2554
   26.700    5.0974
   26.730    5.0026
   26.760    5.2870
   26.790    5.0553
   26.820    5.0553
   26.850    4.8763
   26.880    5.0974
   26.910    4.9710
   26.940    5.2765
   26.970    5.2975
   27.000    5.0869
   27.030    4.9921
   27.060    5.2343
   27.090    5.1290
   27.120    5.1501
   27.150    5.0448
   27.180    5.0974
   27.210    5.0974
   27.240    5.2027
   27.270    5.2659
   27.300    4.8131
   27.330    5.5187
   27.360    5.2765
   27.390    5.1711
   27.420    4.7499
   27.450    4.8025
   27.480    5.2343
   27.510    5.0869
   27.540    4.7920
   27.570    5.2133
   27.600    5.1185
   27.630    5.3502
   27.660    5.1606
   27.690    5.0342
   27.720    4.9078
   27.750    4.9816
   27.780    5.0342
   27.810    4.5708
   27.840    5.3081
   27.870    4.9921
   27.900    5.2554
   27.930    5.1606
   27.960    5.4344
   27.990    5.3923
   28.020    5.0132
   28.050    5.1395
   28.080    5.2659
   28.110    5.3186
   28.140    5.0974
   28.170    5.1290
   28.200    5.3502
   28.230    5.2554
   28.260    5.4344
   28.290    5.2765
   28.320    5.2343
   28.350    5.3923
   28.380    4.7183
   28.410    5.4976
   28.440    5.1606
   28.470    5.1290
   28.500    5.2765
   28.530    4.7920
   28.560    4.7183
   28.590    4.8552
   28.620    5.3712
   28.650    4.9710
   28.680    4.8552
   28.710    5.2133
   28.740    4.9500
   28.770    4.8973
   28.800    4.7604
   28.830    5.0026
   28.860    4.9816
   28.890    4.7393
   28.920    4.7183
   28.950    5.0026
   28.980    5.0237
   29.010    5.0026
   29.040    5.1395
   29.070    4.9921
   29.100    4.7709
   29.130    4.5814
   29.160    5.2343
   29.190    4.9500
   29.220    4.7604
   29.250    4.8763
   29.280    5.0237
   29.310    4.9605
   29.340    5.0132
   29.370    5.0974
   29.400    4.8131
   29.430    5.0974
   29.460    4.8236
   29.490    4.7183
   29.520    4.9500
   29.550    4.8236
   29.580    5.0764
   29.610    4.9605
   29.640    4.4128
   29.670    4.7288
   29.700    4.7499
   29.730    5.0237
   29.760    4.6340
   29.790    4.9605
   29.820    4.6972
   29.850    5.1606
   29.880    4.6551
   29.910    4.9710
   29.940    4.8025
   29.970    4.5287
   30.000    4.7183
   30.030    4.6972
   30.060    4.8236
   30.090    4.3602
   30.120    4.6340
   30.150    4.9500
   30.180    4.6761
   30.210    4.5919
   30.240    4.6024
   30.270    4.5708
   30.300    4.6972
   30.330    4.4128
   30.360    4.6235
   30.390    4.3707
   30.420    5.2238
   30.450    4.5919
   30.480    4.9605
   30.510    4.7709
   30.540    4.8973
   30.570    4.7393
   30.600    4.6551
   30.630    4.8341
   30.660    4.7709
   30.690    4.6551
   30.720    4.4866
   30.750    4.5392
   30.780    4.9289
   30.810    4.9710
   30.840    4.8973
   30.870    4.8763
   30.900    5.0237
   30.930    4.6024
   30.960    4.6656
   30.990    4.8868
   31.020    4.6235
   31.050    4.6972
   31.080    4.7604
   31.110    4.5603
   31.140    4.5919
   31.170    4.5076
   31.200    4.8657
   31.230    4.4339
   31.260    4.4444
   31.290    4.7183
   31.320    4.8447
   31.350    4.5919
   31.380    4.8025
   31.410    4.7183
   31.440    4.9921
   31.470    4.7604
   31.500    4.6551
   31.530    4.7920
   31.560    4.7604
   31.590    4.7499
   31.620    4.8236
   31.650    4.8657
   31.680    4.5919
   31.710    4.8236
   31.740    4.8341
   31.770    4.6551
   31.800    4.4760
   31.830    4.9921
   31.860    4.8973
   31.890    4.7393
   31.920    5.1711
   31.950    4.7077
   31.980    4.8657
   32.010    5.0237
   32.040    5.0553
   32.070    5.2659
   32.100    4.9184
   32.130    5.3502
   32.160    4.9605
   32.190    4.6867
   32.220    4.8025
   32.250    4.7815
   32.280    4.6761
   32.310    4.3707
   32.340    4.5182
   32.370    4.4971
   32.400    4.2759
   32.430    4.5076
   32.460    4.5287
   32.490    4.5814
   32.520    4.5287
   32.550    4.6130
   32.580    4.4023
   32.610    4.9184
   32.640    4.4760
   32.670    4.3075
   32.700    4.4550
   32.730    4.1706
   32.760    4.9605
   32.790    4.5076
   32.820    4.2865
   32.850    4.3286
   32.880    4.5182
   32.910    4.3497
   32.940    4.4971
   32.970    4.6130
   33.000    4.2127
   33.030    4.4760
   33.060    4.3497
   33.090    4.4655
   33.120    4.3391
   33.150    4.2759
   33.180    4.7499
   33.210    4.3075
   33.240    4.2970
   33.270    4.1285
   33.300    4.1285
   33.330    4.2233
   33.360    4.2233
   33.390    4.5498
   33.420    4.4234
   33.450    4.1601
   33.480    4.3813
   33.510    4.2865
   33.540    4.2549
   33.570    4.1390
   33.600    4.4128
   33.630    4.3918
   33.660    4.2127
   33.690    3.9073
   33.720    4.3181
   33.750    4.2970
   33.780    4.6656
   33.810    4.5392
   33.840    4.6445
   33.870    4.2865
   33.900    4.8236
   33.930    4.5814
   33.960    4.4023
   33.990    4.7920
   34.020    4.2443
   34.050    4.1706
   34.080    4.3497
   34.110    4.1811
   34.140    4.2759
   34.170    4.0126
   34.200    4.1285
   34.230    4.2654
   34.260    4.1285
   34.290    3.8757
   34.320    4.1285
   34.350    4.2549
   34.380    4.3813
   34.410    4.1180
   34.440    4.0548
   34.470    3.9600
   34.500    4.2549
   34.530    4.2338
   34.560    3.9600
   34.590    3.9705
   34.620    4.0758
   34.650    4.0969
   34.680    4.1285
   34.710    4.0126
   34.740    3.9705
   34.770    3.9916
   34.800    4.0442
   34.830    3.6862
   34.860    4.2127
   34.890    4.0021
   34.920    3.6862
   34.950    3.9389
   34.980    4.2443
   35.010    4.1390
   35.040    4.4655
   35.070    4.4760
   35.100    4.0758
   35.130    3.8231
   35.160    4.4971
   35.190    3.9179
   35.220    3.9284
   35.250    3.9600
   35.280    4.1917
   35.310    4.1390
   35.340    4.2233
   35.370    4.0126
   35.400    4.2127
   35.430    4.2022
   35.460    4.2970
   35.490    4.1917
   35.520    4.0969
   35.550    4.1180
   35.580    4.3497
   35.610    4.1811
   35.640    4.0232
   35.670    3.7704
   35.700    4.0758
   35.730    4.3813
   35.760    4.0548
   35.790    3.8336
   35.820    4.0653
   35.850    3.8020
   35.880    4.0548
   35.910    3.8336
   35.940    4.0864
   35.970    3.9389
   36.000    4.0442
   36.030    3.7809
   36.060    3.9284
   36.090    3.9179
   36.120    3.8231
   36.150    3.9810
   36.180    4.0864
   36.210    3.9179
   36.240    3.8336
   36.270    3.8336
   36.300    3.9494
   36.330    3.6335
   36.360    3.6546
   36.390    3.9494
   36.420    3.8652
   36.450    3.9179
   36.480    3.9600
   36.510    3.6756
   36.540    3.8968
   36.570    3.9916
   36.600    3.8231
   36.630    3.8757
   36.660    4.0442
   36.690    4.0021
   36.720    4.0969
   36.750    3.4439
   36.780    3.5492
   36.810    3.9073
   36.840    3.8757
   36.870    3.7177
   36.900    4.0021
   36.930    4.0864
   36.960    4.2338
   36.990    3.7388
   37.020    3.9916
   37.050    3.9284
   37.080    3.8863
   37.110    3.7388
   37.140    3.6862
   37.170    3.6756
   37.200    4.0021
   37.230    3.9179
   37.260    3.7809
   37.290    3.7493
   37.320    3.8652
   37.350    3.6756
   37.380    3.8020
   37.410    3.5703
   37.440    3.6230
   37.470    3.8547
   37.500    4.2970
   37.530    3.8336
   37.560    3.6862
   37.590    3.7915
   37.620    3.6230
   37.650    3.9916
   37.680    3.8020
   37.710    3.9705
   37.740    4.2970
   37.770    3.8125
   37.800    3.7599
   37.830    3.9916
   37.860    3.8125
   37.890    3.9389
   37.920    3.8652
   37.950    3.7177
   37.980    3.7177
   38.010    3.5176
   38.040    3.7809
   38.070    3.7915
   38.100    3.5914
   38.130    3.5914
   38.160    3.6756
   38.190    3.5492
   38.220    3.5914
   38.250    3.8020
   38.280    3.6546
   38.310    4.0442
   38.340    3.8863
   38.370    3.8336
   38.400    3.7177
   38.430    3.6124
   38.460    3.8547
   38.490    3.7599
   38.520    3.6862
   38.550    3.9284
   38.580    3.7915
   38.610    3.6756
   38.640    3.8441
   38.670    3.7599
   38.700    3.8441
   38.730    3.8757
   38.760    3.8020
   38.790    3.7072
   38.820    3.9916
   38.850    3.8125
   38.880    3.8863
   38.910    3.8336
   38.940    4.0021
   38.970    3.9389
   39.000    3.9600
   39.030    4.0864
   39.060    3.7072
   39.090    4.0337
   39.120    3.8441
   39.150    3.7072
   39.180    3.4860
   39.210    3.9073
   39.240    3.9494
   39.270    3.9284
   39.300    3.7599
   39.330    3.8968
   39.360    3.9389
   39.390    3.6756
   39.420    3.8231
   39.450    3.9916
   39.480    3.7493
   39.510    3.7493
   39.540    3.8652
   39.570    3.6967
   39.600    3.8020
   39.630    4.0548
   39.660    3.5492
   39.690    4.0232
   39.720    3.9600
   39.750    3.8652
   39.780    3.6651
   39.810    3.8547
   39.840    3.8125
   39.870    3.8231
   39.900    3.8231
   39.930    3.7599
   39.960    3.6124
   39.990    3.6335