File: data/PXRD/PXRD_KE-213_Co-Ka1_film-3mm_5s-deg.xyd
    1.500    3.7988
    1.530    3.6811
    1.560    3.7453
    1.590    3.7560
    1.620    3.5206
    1.650    3.6490
    1.680    3.4136
    1.710    3.1782
    1.740    3.5313
    1.770    3.2852
    1.800    3.4029
    1.830    2.9535
    1.860    2.8143
    1.890    2.8785
    1.920    3.0070
    1.950    2.7608
    1.980    2.8036
    2.010    2.8357
    2.040    2.5468
    2.070    2.6966
    2.100    2.5468
    2.130    2.5147
    2.160    2.6324
    2.190    2.7822
    2.220    2.3863
    2.250    2.1616
    2.280    2.3114
    2.310    2.4184
    2.340    2.2793
    2.370    2.2472
    2.400    2.3114
    2.430    2.2258
    2.460    2.1723
    2.490    2.0225
    2.520    2.0653
    2.550    1.9904
    2.580    2.0546
    2.610    2.0653
    2.640    2.1295
    2.670    2.0011
    2.700    2.0974
    2.730    2.1937
    2.760    1.8620
    2.790    2.0225
    2.820    2.0225
    2.850    1.9048
    2.880    1.7335
    2.910    2.0867
    2.940    2.0546
    2.970    1.9904
    3.000    1.9048
    3.030    1.8192
    3.060    1.7335
    3.090    2.0974
    3.120    1.7121
    3.150    1.8941
    3.180    1.8941
    3.210    1.7228
    3.240    1.8513
    3.270    1.8834
    3.300    2.0439
    3.330    1.8620
    3.360    2.1937
    3.390    2.2686
    3.420    1.9690
    3.450    2.1402
    3.480    2.2793
    3.510    2.4933
    3.540    2.1723
    3.570    2.4398
    3.600    2.5254
    3.630    2.6003
    3.660    3.0712
    3.690    3.1782
    3.720    3.2852
    3.750    3.0284
    3.780    3.9058
    3.810    4.0342
    3.840    4.2376
    3.870    4.9224
    3.900    5.1364
    3.930    6.3670
    3.960    7.1161
    3.990    7.5120
    4.020    8.1755
    4.050    7.8117
    4.080    7.0947
    4.110    5.6073
    4.140    4.8261
    4.170    3.7346
    4.200    3.5527
    4.230    3.3173
    4.260    3.2424
    4.290    3.2531
    4.320    3.1996
    4.350    3.2531
    4.380    3.2424
    4.410    3.4778
    4.440    3.5527
    4.470    3.5099
    4.500    3.7025
    4.530    3.8309
    4.560    3.8844
    4.590    3.6062
    4.620    3.5634
    4.650    3.6276
    4.680    4.2162
    4.710    3.6811
    4.740    3.6062
    4.770    3.6918
    4.800    3.5634
    4.830    3.1354
    4.860    3.3387
    4.890    2.8250
    4.920    2.7822
    4.950    2.8357
    4.980    2.5896
    5.010    2.5040
    5.040    2.5147
    5.070    2.3756
    5.100    2.1509
    5.130    1.9048
    5.160    1.9369
    5.190    1.8299
    5.220    1.8513
    5.250    2.0332
    5.280    1.9262
    5.310    1.9155
    5.340    1.9797
    5.370    2.1188
    5.400    1.8513
    5.430    1.7978
    5.460    1.9155
    5.490    1.9583
    5.520    1.8299
    5.550    1.5409
    5.580    1.7335
    5.610    1.6800
    5.640    1.7978
    5.670    1.7228
    5.700    1.9797
    5.730    1.6586
    5.760    1.5837
    5.790    1.8620
    5.820    1.8299
    5.850    1.7335
    5.880    1.6372
    5.910    1.7657
    5.940    1.5516
    5.970    1.8406
    6.000    1.8192
    6.030    1.8727
    6.060    1.9262
    6.090    1.8941
    6.120    2.0546
    6.150    1.7871
    6.180    1.9797
    6.210    2.1081
    6.240    2.0653
    6.270    2.0011
    6.300    2.1723
    6.330    2.0546
    6.360    2.1402
    6.390    2.2579
    6.420    2.1937
    6.450    2.1830
    6.480    2.1402
    6.510    2.0439
    6.540    2.0118
    6.570    2.0225
    6.600    1.9369
    6.630    1.9048
    6.660    1.9583
    6.690    2.0225
    6.720    1.8085
    6.750    1.8085
    6.780    1.9583
    6.810    1.7228
    6.840    1.8406
    6.870    1.8941
    6.900    1.7871
    6.930    1.7657
    6.960    1.5837
    6.990    1.8085
    7.020    1.7121
    7.050    1.6372
    7.080    1.7657
    7.110    1.6372
    7.140    1.6158
    7.170    1.4018
    7.200    1.4232
    7.230    1.7014
    7.260    1.3804
    7.290    1.4981
    7.320    1.6907
    7.350    1.3483
    7.380    1.5837
    7.410    1.5088
    7.440    1.3376
    7.470    1.4660
    7.500    1.5409
    7.530    1.4018
    7.560    1.3483
    7.590    1.4339
    7.620    1.3590
    7.650    1.3483
    7.680    1.3376
    7.710    1.2199
    7.740    1.4018
    7.770    1.4553
    7.800    1.4981
    7.830    1.4125
    7.860    1.3590
    7.890    1.4553
    7.920    1.3162
    7.950    1.7228
    7.980    1.7335
    8.010    1.4446
    8.040    1.9262
    8.070    1.7657
    8.100    1.7978
    8.130    1.7978
    8.160    1.6907
    8.190    1.4874
    8.220    1.5302
    8.250    1.4660
    8.280    1.4767
    8.310    1.4767
    8.340    1.2627
    8.370    1.2948
    8.400    1.2734
    8.430    1.2092
    8.460    1.2199
    8.490    1.1236
    8.520    1.2627
    8.550    1.3055
    8.580    1.1771
    8.610    1.2520
    8.640    1.1343
    8.670    1.2092
    8.700    1.2520
    8.730    1.1771
    8.760    1.1450
    8.790    1.1022
    8.820    1.1129
    8.850    1.1878
    8.880    1.2306
    8.910    1.0166
    8.940    1.1664
    8.970    1.0166
    9.000    1.1771
    9.030    1.1878
    9.060    1.0701
    9.090    1.1236
    9.120    0.9203
    9.150    1.1022
    9.180    1.0273
    9.210    1.0487
    9.240    0.9203
    9.270    1.1985
    9.300    1.1664
    9.330    1.1985
    9.360    1.1557
    9.390    1.2627
    9.420    1.0059
    9.450    1.1129
    9.480    1.1129
    9.510    1.2627
    9.540    1.2092
    9.570    1.0487
    9.600    0.9524
    9.630    1.1236
    9.660    1.1236
    9.690    1.0701
    9.720    1.0059
    9.750    0.9952
    9.780    1.1022
    9.810    0.9845
    9.840    0.9417
    9.870    1.1236
    9.900    1.0059
    9.930    1.1022
    9.960    1.0059
    9.990    1.0273
   10.020    0.9417
   10.050    0.9845
   10.080    0.8989
   10.110    0.9631
   10.140    0.9631
   10.170    1.1129
   10.200    1.0380
   10.230    0.9417
   10.260    0.8989
   10.290    0.8454
   10.320    0.8347
   10.350    0.9203
   10.380    0.9952
   10.410    0.9203
   10.440    0.9845
   10.470    0.9631
   10.500    0.8454
   10.530    1.0487
   10.560    0.8561
   10.590    0.9524
   10.620    0.8668
   10.650    0.8989
   10.680    0.8454
   10.710    0.8561
   10.740    0.8133
   10.770    0.8240
   10.800    1.0380
   10.830    0.7705
   10.860    0.8454
   10.890    0.9845
   10.920    1.1129
   10.950    1.0273
   10.980    0.9203
   11.010    0.8882
   11.040    0.8026
   11.070    0.8989
   11.100    0.9310
   11.130    1.0059
   11.160    0.9310
   11.190    0.8240
   11.220    0.8561
   11.250    0.9631
   11.280    0.8133
   11.310    0.9310
   11.340    1.0487
   11.370    0.8882
   11.400    0.8133
   11.430    0.8882
   11.460    0.8240
   11.490    0.8882
   11.520    0.8989
   11.550    0.8026
   11.580    0.8240
   11.610    0.8668
   11.640    0.8882
   11.670    0.8882
   11.700    0.7598
   11.730    0.6956
   11.760    0.7170
   11.790    0.8989
   11.820    0.7598
   11.850    0.8775
   11.880    0.8989
   11.910    0.9310
   11.940    1.0380
   11.970    0.8347
   12.000    1.0594
   12.030    1.0487
   12.060    0.8240
   12.090    0.7812
   12.120    0.8561
   12.150    0.8133
   12.180    0.8561
   12.210    0.9738
   12.240    0.9738
   12.270    0.7598
   12.300    0.8347
   12.330    0.9417
   12.360    0.9310
   12.390    0.9417
   12.420    1.0166
   12.450    0.9310
   12.480    1.0594
   12.510    0.9310
   12.540    1.0380
   12.570    1.0808
   12.600    1.0273
   12.630    0.7812
   12.660    1.0273
   12.690    0.9203
   12.720    0.9417
   12.750    0.9096
   12.780    0.9096
   12.810    1.0380
   12.840    0.8775
   12.870    0.9952
   12.900    0.9203
   12.930    0.8668
   12.960    0.9310
   12.990    0.9417
   13.020    0.7277
   13.050    0.8347
   13.080    0.9096
   13.110    0.9952
   13.140    0.9310
   13.170    0.8989
   13.200    0.7598
   13.230    0.8882
   13.260    0.7705
   13.290    1.0808
   13.320    1.1236
   13.350    0.8668
   13.380    1.0380
   13.410    0.8026
   13.440    0.8240
   13.470    1.0273
   13.500    0.7491
   13.530    1.1022
   13.560    0.9310
   13.590    1.0380
   13.620    0.8347
   13.650    0.8454
   13.680    0.8882
   13.710    0.9631
   13.740    0.8775
   13.770    0.8882
   13.800    0.8668
   13.830    0.9203
   13.860    0.8133
   13.890    0.9738
   13.920    0.7277
   13.950    0.8882
   13.980    0.9096
   14.010    0.8775
   14.040    0.9845
   14.070    0.9952
   14.100    0.7598
   14.130    0.8882
   14.160    0.9203
   14.190    0.7919
   14.220    0.9096
   14.250    1.0487
   14.280    0.8775
   14.310    0.8882
   14.340    0.8454
   14.370    0.9952
   14.400    0.9524
   14.430    0.9952
   14.460    1.0487
   14.490    0.8882
   14.520    0.8775
   14.550    0.7812
   14.580    0.8240
   14.610    0.8026
   14.640    0.9524
   14.670    0.9631
   14.700    0.9417
   14.730    0.8882
   14.760    0.7598
   14.790    0.9203
   14.820    0.8347
   14.850    0.8989
   14.880    0.8989
   14.910    1.0273
   14.940    0.8775
   14.970    0.7705
   15.000    0.7277
   15.030    0.9417
   15.060    0.9631
   15.090    0.8133
   15.120    0.7812
   15.150    0.8882
   15.180    0.8668
   15.210    0.7491
   15.240    0.9631
   15.270    0.8240
   15.300    0.8989
   15.330    0.8026
   15.360    0.8026
   15.390    0.9845
   15.420    0.7919
   15.450    0.7812
   15.480    0.8561
   15.510    0.8882
   15.540    0.9096
   15.570    0.8989
   15.600    0.7598
   15.630    0.7598
   15.660    0.7812
   15.690    0.7384
   15.720    0.9952
   15.750    0.8775
   15.780    0.8882
   15.810    0.7384
   15.840    1.0166
   15.870    0.8454
   15.900    0.8668
   15.930    0.8133
   15.960    0.7491
   15.990    0.8989
   16.020    0.9310
   16.050    0.8026
   16.080    0.9631
   16.110    0.9738
   16.140    0.7170
   16.170    0.8240
   16.200    0.7812
   16.230    0.9738
   16.260    0.9310
   16.290    0.9952
   16.320    1.0059
   16.350    1.0059
   16.380    0.9417
   16.410    0.9417
   16.440    0.9203
   16.470    0.8347
   16.500    1.0273
   16.530    1.0166
   16.560    0.9845
   16.590    0.9096
   16.620    1.0701
   16.650    1.0808
   16.680    0.8775
   16.710    1.0273
   16.740    0.8989
   16.770    1.1022
   16.800    0.9952
   16.830    0.9952
   16.860    1.0166
   16.890    1.0915
   16.920    0.9738
   16.950    0.9096
   16.980    0.8561
   17.010    0.8882
   17.040    0.9845
   17.070    0.8240
   17.100    0.9203
   17.130    0.8454
   17.160    0.7919
   17.190    0.9096
   17.220    0.9310
   17.250    0.9310
   17.280    0.8026
   17.310    0.8561
   17.340    0.8989
   17.370    0.9417
   17.400    0.9952
   17.430    0.9738
   17.460    0.8454
   17.490    0.8989
   17.520    0.8454
   17.550    0.7170
   17.580    0.9524
   17.610    0.7919
   17.640    0.8668
   17.670    0.6956
   17.700    1.0166
   17.730    0.9096
   17.760    0.9524
   17.790    0.8775
   17.820    0.8454
   17.850    0.7919
   17.880    0.8561
   17.910    0.8133
   17.940    0.8668
   17.970    0.7812
   18.000    0.7919
   18.030    0.6956
   18.060    0.8133
   18.090    0.8775
   18.120    0.9417
   18.150    0.7705
   18.180    0.8133
   18.210    0.7919
   18.240    0.7705
   18.270    0.7919
   18.300    0.9203
   18.330    0.9631
   18.360    0.8668
   18.390    0.7919
   18.420    0.9096
   18.450    1.0166
   18.480    0.8668
   18.510    0.9631
   18.540    0.8347
   18.570    0.7812
   18.600    0.7598
   18.630    0.9310
   18.660    0.9845
   18.690    0.9203
   18.720    0.8347
   18.750    0.8775
   18.780    0.8133
   18.810    0.8668
   18.840    0.9203
   18.870    0.8133
   18.900    0.6849
   18.930    0.9310
   18.960    0.7812
   18.990    0.8133
   19.020    0.8668
   19.050    0.9310
   19.080    0.8133
   19.110    0.8240
   19.140    0.7063
   19.170    0.8775
   19.200    0.7170
   19.230    0.7170
   19.260    0.8240
   19.290    0.7919
   19.320    0.8775
   19.350    0.8347
   19.380    0.8775
   19.410    0.8347
   19.440    0.7170
   19.470    0.8240
   19.500    0.8668
   19.530    0.6849
   19.560    0.7384
   19.590    0.6742
   19.620    0.6528
   19.650    0.8989
   19.680    0.8989
   19.710    0.7598
   19.740    0.7491
   19.770    0.7705
   19.800    0.7705
   19.830    0.7919
   19.860    0.6207
   19.890    0.8133
   19.920    0.8026
   19.950    0.8561
   19.980    0.6956
   20.010    0.8454
   20.040    0.7919
   20.070    0.8133
   20.100    0.9524
   20.130    0.7812
   20.160    0.7919
   20.190    0.8347
   20.220    0.7705
   20.250    0.7919
   20.280    0.8133
   20.310    0.8989
   20.340    0.6742
   20.370    0.7919
   20.400    0.8026
   20.430    0.7277
   20.460    0.8668
   20.490    0.8668
   20.520    0.8026
   20.550    0.8561
   20.580    0.6956
   20.610    0.7705
   20.640    0.7491
   20.670    0.8133
   20.700    0.9310
   20.730    0.7277
   20.760    0.6421
   20.790    0.8561
   20.820    0.7598
   20.850    0.7919
   20.880    0.7384
   20.910    0.8347
   20.940    0.6421
   20.970    0.7063
   21.000    1.0487
   21.030    0.7170
   21.060    0.7384
   21.090    0.7491
   21.120    0.8882
   21.150    0.6849
   21.180    0.7598
   21.210    0.8775
   21.240    0.7491
   21.270    0.6207
   21.300    0.7491
   21.330    0.8561
   21.360    0.7919
   21.390    0.8347
   21.420    0.6100
   21.450    0.7491
   21.480    0.7705
   21.510    0.7277
   21.540    0.7491
   21.570    0.7277
   21.600    0.7705
   21.630    0.8668
   21.660    0.8454
   21.690    0.7812
   21.720    0.8454
   21.750    0.7384
   21.780    0.7170
   21.810    0.8026
   21.840    0.6528
   21.870    0.7812
   21.900    0.8775
   21.930    0.7491
   21.960    0.8775
   21.990    0.8775
   22.020    0.9310
   22.050    0.8882
   22.080    0.8240
   22.110    0.7170
   22.140    0.5993
   22.170    0.8026
   22.200    0.8561
   22.230    0.6742
   22.260    0.6635
   22.290    0.7170
   22.320    0.8454
   22.350    0.7063
   22.380    0.7491
   22.410    0.8133
   22.440    0.8561
   22.470    0.5993
   22.500    0.8989
   22.530    0.7919
   22.560    0.8347
   22.590    0.6207
   22.620    0.7277
   22.650    0.7384
   22.680    0.8240
   22.710    0.8240
   22.740    0.8026
   22.770    0.7491
   22.800    0.7812
   22.830    0.6849
   22.860    0.7277
   22.890    0.7812
   22.920    0.8775
   22.950    0.7491
   22.980    0.8989
   23.010    0.7277
   23.040    0.6421
   23.070    0.7491
   23.100    0.6849
   23.130    0.7705
   23.160    0.6635
   23.190    0.7063
   23.220    0.7384
   23.250    0.7384
   23.280    0.8026
   23.310    0.7491
   23.340    0.7063
   23.370    0.7063
   23.400    0.7812
   23.430    0.7598
   23.460    0.6742
   23.490    0.5778
   23.520    0.7170
   23.550    0.9524
   23.580    0.7705
   23.610    0.7705
   23.640    0.6421
   23.670    0.8454
   23.700    0.5778
   23.730    0.8240
   23.760    0.6635
   23.790    0.7919
   23.820    0.7919
   23.850    0.8347
   23.880    0.7063
   23.910    0.6207
   23.940    0.6207
   23.970    0.6635
   24.000    0.7705
   24.030    0.7598
   24.060    0.5886
   24.090    0.7063
   24.120    0.8026
   24.150    0.7277
   24.180    0.6528
   24.210    0.8133
   24.240    0.6528
   24.270    0.8668
   24.300    0.6956
   24.330    0.7491
   24.360    0.7277
   24.390    0.7384
   24.420    0.8347
   24.450    0.7812
   24.480    0.7277
   24.510    0.6421
   24.540    0.6421
   24.570    0.7384
   24.600    0.7063
   24.630    0.6314
   24.660    0.7384
   24.690    0.7705
   24.720    0.7170
   24.750    0.6742
   24.780    0.6528
   24.810    0.6207
   24.840    0.7491
   24.870    0.6956
   24.900    0.6849
   24.930    0.7170
   24.960    0.6849
   24.990    0.5778
   25.020    0.7812
   25.050    0.7063
   25.080    0.8240
   25.110    0.6314
   25.140    0.9203
   25.170    0.7170
   25.200    0.7812
   25.230    0.5886
   25.260    0.6100
   25.290    0.8454
   25.320    0.7384
   25.350    0.8026
   25.380    0.6314
   25.410    0.6421
   25.440    0.6742
   25.470    0.6100
   25.500    0.7170
   25.530    0.7277
   25.560    0.5993
   25.590    0.6100
   25.620    0.8347
   25.650    0.7277
   25.680    0.7063
   25.710    0.8347
   25.740    0.5778
   25.770    0.5457
   25.800    0.5564
   25.830    0.6207
   25.860    0.7384
   25.890    0.6635
   25.920    0.5350
   25.950    0.5886
   25.980    0.6421
   26.010    0.5778
   26.040    0.5886
   26.070    0.5886
   26.100    0.7384
   26.130    0.6742
   26.160    0.6100
   26.190    0.7812
   26.220    0.5671
   26.250    0.7384
   26.280    0.6100
   26.310    0.6421
   26.340    0.7277
   26.370    0.6207
   26.400    0.5564
   26.430    0.7170
   26.460    0.6956
   26.490    0.6528
   26.520    0.6207
   26.550    0.6314
   26.580    0.5886
   26.610    0.6849
   26.640    0.6849
   26.670    0.7705
   26.700    0.5564
   26.730    0.6421
   26.760    0.7063
   26.790    0.7277
   26.820    0.6421
   26.850    0.5886
   26.880    0.5671
   26.910    0.7598
   26.940    0.6635
   26.970    0.6635
   27.000    0.6742
   27.030    0.5564
   27.060    0.5243
   27.090    0.5564
   27.120    0.6528
   27.150    0.6635
   27.180    0.3852
   27.210    0.5564
   27.240    0.6635
   27.270    0.6635
   27.300    0.5778
   27.330    0.7063
   27.360    0.6207
   27.390    0.4922
   27.420    0.5993
   27.450    0.5457
   27.480    0.6207
   27.510    0.5136
   27.540    0.5243
   27.570    0.5564
   27.600    0.4815
   27.630    0.6421
   27.660    0.5350
   27.690    0.6314
   27.720    0.5350
   27.750    0.5136
   27.780    0.4922
   27.810    0.6956
   27.840    0.4815
   27.870    0.5029
   27.900    0.6528
   27.930    0.6421
   27.960    0.4815
   27.990    0.5564
   28.020    0.6849
   28.050    0.6635
   28.080    0.6100
   28.110    0.6100
   28.140    0.6207
   28.170    0.5350
   28.200    0.5457
   28.230    0.6100
   28.260    0.6849
   28.290    0.5457
   28.320    0.5778
   28.350    0.6100
   28.380    0.6100
   28.410    0.5993
   28.440    0.5778
   28.470    0.5564
   28.500    0.5993
   28.530    0.5671
   28.560    0.5029
   28.590    0.5778
   28.620    0.5886
   28.650    0.4494
   28.680    0.5457
   28.710    0.4815
   28.740    0.5350
   28.770    0.5136
   28.800    0.5243
   28.830    0.5350
   28.860    0.5136
   28.890    0.6314
   28.920    0.6314
   28.950    0.5993
   28.980    0.6100
   29.010    0.5564
   29.040    0.4601
   29.070    0.3959
   29.100    0.4815
   29.130    0.5993
   29.160    0.5350
   29.190    0.6100
   29.220    0.6421
   29.250    0.6849
   29.280    0.4708
   29.310    0.5350
   29.340    0.5243
   29.370    0.5778
   29.400    0.5564
   29.430    0.4815
   29.460    0.5457
   29.490    0.4922
   29.520    0.5136
   29.550    0.5243
   29.580    0.4494
   29.610    0.4815
   29.640    0.6956
   29.670    0.5671
   29.700    0.5993
   29.730    0.5243
   29.760    0.6956
   29.790    0.6207
   29.820    0.6635
   29.850    0.5136
   29.880    0.5457
   29.910    0.5778
   29.940    0.5029
   29.970    0.4922
   30.000    0.4387
   30.030    0.4922
   30.060    0.5993
   30.090    0.4280
   30.120    0.5136
   30.150    0.5350
   30.180    0.4494
   30.210    0.5457
   30.240    0.4815
   30.270    0.5243
   30.300    0.5993
   30.330    0.4708
   30.360    0.7170
   30.390    0.4922
   30.420    0.5243
   30.450    0.3424
   30.480    0.6528
   30.510    0.5136
   30.540    0.5671
   30.570    0.5029
   30.600    0.4494
   30.630    0.4601
   30.660    0.5029
   30.690    0.5778
   30.720    0.4066
   30.750    0.5778
   30.780    0.5136
   30.810    0.5136
   30.840    0.7384
   30.870    0.4494
   30.900    0.5457
   30.930    0.5029
   30.960    0.4601
   30.990    0.5029
   31.020    0.4601
   31.050    0.4066
   31.080    0.4708
   31.110    0.3959
   31.140    0.4815
   31.170    0.5243
   31.200    0.4601
   31.230    0.4494
   31.260    0.5136
   31.290    0.5350
   31.320    0.5243
   31.350    0.5457
   31.380    0.4815
   31.410    0.5457
   31.440    0.4280
   31.470    0.4708
   31.500    0.5350
   31.530    0.5029
   31.560    0.5457
   31.590    0.4708
   31.620    0.4280
   31.650    0.3531
   31.680    0.4173
   31.710    0.5243
   31.740    0.4280
   31.770    0.4815
   31.800    0.5350
   31.830    0.4387
   31.860    0.3852
   31.890    0.3745
   31.920    0.5671
   31.950    0.5671
   31.980    0.4601
   32.010    0.4815
   32.040    0.4173
   32.070    0.4387
   32.100    0.5243
   32.130    0.3745
   32.160    0.4922
   32.190    0.3959
   32.220    0.5136
   32.250    0.3424
   32.280    0.5136
   32.310    0.3531
   32.340    0.4601
   32.370    0.5029
   32.400    0.5243
   32.430    0.4280
   32.460    0.3852
   32.490    0.4066
   32.520    0.4815
   32.550    0.4280
   32.580    0.5136
   32.610    0.4387
   32.640    0.4922
   32.670    0.4601
   32.700    0.4280
   32.730    0.4815
   32.760    0.4173
   32.790    0.6100
   32.820    0.5136
   32.850    0.3531
   32.880    0.3959
   32.910    0.4601
   32.940    0.5993
   32.970    0.4066
   33.000    0.5136
   33.030    0.2889
   33.060    0.3852
   33.090    0.4173
   33.120    0.4173
   33.150    0.3959
   33.180    0.4494
   33.210    0.5457
   33.240    0.4601
   33.270    0.4280
   33.300    0.4280
   33.330    0.3745
   33.360    0.4066
   33.390    0.3852
   33.420    0.3424
   33.450    0.4173
   33.480    0.3638
   33.510    0.4173
   33.540    0.4173
   33.570    0.5136
   33.600    0.4494
   33.630    0.4601
   33.660    0.3745
   33.690    0.4066
   33.720    0.3638
   33.750    0.4173
   33.780    0.4066
   33.810    0.5671
   33.840    0.4066
   33.870    0.5029
   33.900    0.4601
   33.930    0.4922
   33.960    0.3424
   33.990    0.3959
   34.020    0.3852
   34.050    0.4494
   34.080    0.3852
   34.110    0.4815
   34.140    0.3745
   34.170    0.4173
   34.200    0.4173
   34.230    0.4494
   34.260    0.3638
   34.290    0.4066
   34.320    0.2889
   34.350    0.3317
   34.380    0.3103
   34.410    0.3745
   34.440    0.4066
   34.470    0.3745
   34.500    0.3852
   34.530    0.4922
   34.560    0.3317
   34.590    0.4066
   34.620    0.2782
   34.650    0.3317
   34.680    0.4708
   34.710    0.3638
   34.740    0.3638
   34.770    0.3638
   34.800    0.2568
   34.830    0.3745
   34.860    0.4815
   34.890    0.4815
   34.920    0.3531
   34.950    0.3745
   34.980    0.3317
   35.010    0.3424
   35.040    0.3638
   35.070    0.4173
   35.100    0.3424
   35.130    0.3745
   35.160    0.3103
   35.190    0.3852
   35.220    0.4280
   35.250    0.2889
   35.280    0.3210
   35.310    0.2996
   35.340    0.3638
   35.370    0.3317
   35.400    0.2568
   35.430    0.4066
   35.460    0.3852
   35.490    0.3317
   35.520    0.3317
   35.550    0.2889
   35.580    0.4708
   35.610    0.4601
   35.640    0.3424
   35.670    0.3852
   35.700    0.3424
   35.730    0.4066
   35.760    0.3852
   35.790    0.3745
   35.820    0.3424
   35.850    0.4066
   35.880    0.3638
   35.910    0.4173
   35.940    0.3852
   35.970    0.3210
   36.000    0.3424
   36.030    0.3852
   36.060    0.3210
   36.090    0.3638
   36.120    0.3317
   36.150    0.2568
   36.180    0.3317
   36.210    0.2782
   36.240    0.3317
   36.270    0.2996
   36.300    0.3317
   36.330    0.3852
   36.360    0.3745
   36.390    0.4066
   36.420    0.3210
   36.450    0.2889
   36.480    0.3852
   36.510    0.2461
   36.540    0.3638
   36.570    0.3745
   36.600    0.2996
   36.630    0.3103
   36.660    0.2996
   36.690    0.2782
   36.720    0.2461
   36.750    0.3317
   36.780    0.2675
   36.810    0.3852
   36.840    0.3210
   36.870    0.3424
   36.900    0.3852
   36.930    0.3103
   36.960    0.3852
   36.990    0.3317
   37.020    0.3531
   37.050    0.2889
   37.080    0.3317
   37.110    0.4066
   37.140    0.2782
   37.170    0.3210
   37.200    0.2140
   37.230    0.3424
   37.260    0.3745
   37.290    0.3103
   37.320    0.3424
   37.350    0.3210
   37.380    0.3638
   37.410    0.3424
   37.440    0.3103
   37.470    0.3852
   37.500    0.2889
   37.530    0.3103
   37.560    0.2461
   37.590    0.2889
   37.620    0.2782
   37.650    0.3317
   37.680    0.2247
   37.710    0.3103
   37.740    0.3103
   37.770    0.3210
   37.800    0.2996
   37.830    0.2247
   37.860    0.3852
   37.890    0.2996
   37.920    0.2889
   37.950    0.2782
   37.980    0.3210
   38.010    0.3745
   38.040    0.3103
   38.070    0.2889
   38.100    0.3424
   38.130    0.2675
   38.160    0.2889
   38.190    0.2782
   38.220    0.3424
   38.250    0.2033
   38.280    0.3210
   38.310    0.2782
   38.340    0.2675
   38.370    0.2354
   38.400    0.2782
   38.430    0.3210
   38.460    0.3424
   38.490    0.3210
   38.520    0.2782
   38.550    0.2033
   38.580    0.3424
   38.610    0.2996
   38.640    0.2461
   38.670    0.2782
   38.700    0.2354
   38.730    0.3210
   38.760    0.3531
   38.790    0.2996
   38.820    0.3424
   38.850    0.3959
   38.880    0.3317
   38.910    0.3210
   38.940    0.3103
   38.970    0.3210
   39.000    0.2568
   39.030    0.2889
   39.060    0.2568
   39.090    0.3103
   39.120    0.3424
   39.150    0.2782
   39.180    0.2568
   39.210    0.2889
   39.240    0.3103
   39.270    0.3103
   39.300    0.2354
   39.330    0.3852
   39.360    0.2354
   39.390    0.3210
   39.420    0.2889
   39.450    0.2996
   39.480    0.2889
   39.510    0.2140
   39.540    0.2889
   39.570    0.2568
   39.600    0.2675
   39.630    0.2889
   39.660    0.3103
   39.690    0.2889
   39.720    0.2675
   39.750    0.2996
   39.780    0.2675
   39.810    0.3103
   39.840    0.2996
   39.870    0.1926
   39.900    0.3210
   39.930    0.2033
   39.960    0.1926
   39.990    0.2461