File: data/PXRD/PXRD_KE-320_Cu-Ka1_capillary-1mm_3s-deg.xyd
    1.500   18.2377
    1.530   18.2201
    1.560   17.3074
    1.590   16.9387
    1.620   15.7451
    1.650   14.4462
    1.680   15.0957
    1.710   14.1829
    1.740   13.4106
    1.770   13.8494
    1.800   12.7787
    1.830   12.5329
    1.860   11.4446
    1.890   11.8308
    1.920   11.4095
    1.950   10.6372
    1.980   10.5143
    2.010   10.1632
    2.040    9.5313
    2.070    9.6893
    2.100    9.6542
    2.130    9.1627
    2.160    9.2856
    2.190    8.8994
    2.220    8.7063
    2.250    8.3904
    2.280    7.9340
    2.310    8.3026
    2.340    7.6707
    2.370    7.2494
    2.400    7.1090
    2.430    7.5127
    2.460    6.7053
    2.490    7.6532
    2.520    6.9510
    2.550    7.2494
    2.580    6.3367
    2.610    6.3016
    2.640    6.4420
    2.670    6.1085
    2.700    6.1787
    2.730    5.8452
    2.760    5.7048
    2.790    5.9329
    2.820    5.8276
    2.850    5.5468
    2.880    5.3712
    2.910    5.0377
    2.940    5.2484
    2.970    5.1957
    3.000    5.5292
    3.030    4.9851
    3.060    5.2308
    3.090    5.3361
    3.120    4.8798
    3.150    4.5287
    3.180    4.6691
    3.210    4.7920
    3.240    5.0202
    3.270    4.2830
    3.300    4.7920
    3.330    4.4058
    3.360    4.7218
    3.390    4.7920
    3.420    4.6340
    3.450    4.5463
    3.480    4.5638
    3.510    4.0372
    3.540    4.4936
    3.570    4.2654
    3.600    4.5638
    3.630    4.3005
    3.660    4.6340
    3.690    4.4760
    3.720    4.2478
    3.750    4.3356
    3.780    4.4585
    3.810    3.8968
    3.840    4.2654
    3.870    3.8968
    3.900    4.1425
    3.930    4.0548
    3.960    4.2303
    3.990    4.5463
    4.020    4.2478
    4.050    4.0723
    4.080    4.1250
    4.110    4.0372
    4.140    4.2303
    4.170    3.9319
    4.200    4.1074
    4.230    4.0899
    4.260    3.9319
    4.290    3.7564
    4.320    4.1425
    4.350    4.0372
    4.380    3.8441
    4.410    3.5633
    4.440    4.0021
    4.470    3.6862
    4.500    3.9319
    4.530    3.6159
    4.560    4.0197
    4.590    4.2127
    4.620    3.5457
    4.650    3.7213
    4.680    3.5106
    4.710    3.9494
    4.740    3.8090
    4.770    3.6686
    4.800    3.3877
    4.830    3.5984
    4.860    4.0021
    4.890    3.3000
    4.920    3.5633
    4.950    3.5633
    4.980    3.5633
    5.010    3.6159
    5.040    3.8441
    5.070    3.4580
    5.100    3.2824
    5.130    3.7739
    5.160    3.6862
    5.190    3.8968
    5.220    3.6510
    5.250    3.4580
    5.280    3.6862
    5.310    3.6159
    5.340    3.6159
    5.370    3.5633
    5.400    3.7915
    5.430    3.8792
    5.460    3.6510
    5.490    3.1420
    5.520    3.4229
    5.550    3.4931
    5.580    3.5633
    5.610    3.6862
    5.640    3.6510
    5.670    3.4580
    5.700    3.2122
    5.730    3.5457
    5.760    3.5457
    5.790    3.3000
    5.820    3.7564
    5.850    3.3526
    5.880    3.6510
    5.910    3.6159
    5.940    3.4229
    5.970    3.6510
    6.000    3.3526
    6.030    3.4053
    6.060    3.3175
    6.090    3.5106
    6.120    3.3702
    6.150    3.2473
    6.180    3.5282
    6.210    3.7388
    6.240    3.0893
    6.270    3.5457
    6.300    3.4755
    6.330    3.7213
    6.360    3.3877
    6.390    3.6686
    6.420    3.1245
    6.450    3.5984
    6.480    3.5106
    6.510    3.6335
    6.540    3.5457
    6.570    3.3351
    6.600    3.9494
    6.630    3.4931
    6.660    3.4404
    6.690    3.3175
    6.720    3.4229
    6.750    3.2824
    6.780    3.5808
    6.810    3.2824
    6.840    3.0542
    6.870    3.8441
    6.900    3.1420
    6.930    3.3526
    6.960    3.3000
    6.990    3.4580
    7.020    3.6335
    7.050    3.7388
    7.080    3.3877
    7.110    3.4755
    7.140    3.6510
    7.170    3.5457
    7.200    3.5633
    7.230    3.2122
    7.260    3.4404
    7.290    3.5106
    7.320    3.3877
    7.350    3.3351
    7.380    3.3175
    7.410    3.4229
    7.440    3.5282
    7.470    3.6510
    7.500    3.7213
    7.530    3.5106
    7.560    3.5106
    7.590    3.2824
    7.620    3.5633
    7.650    3.6686
    7.680    3.6335
    7.710    3.3702
    7.740    3.9143
    7.770    3.4053
    7.800    3.3526
    7.830    3.3877
    7.860    3.6159
    7.890    3.3351
    7.920    3.6686
    7.950    3.4229
    7.980    3.5984
    8.010    3.2122
    8.040    3.1069
    8.070    3.3702
    8.100    3.6686
    8.130    3.4404
    8.160    3.5282
    8.190    3.8441
    8.220    3.7213
    8.250    3.5808
    8.280    3.5984
    8.310    3.6686
    8.340    3.3702
    8.370    4.0548
    8.400    3.5282
    8.430    3.7213
    8.460    3.2122
    8.490    3.4931
    8.520    3.6159
    8.550    3.9319
    8.580    3.3526
    8.610    3.5106
    8.640    3.7213
    8.670    3.5282
    8.700    3.5808
    8.730    3.9143
    8.760    3.6510
    8.790    3.8792
    8.820    3.7388
    8.850    3.6159
    8.880    3.8090
    8.910    3.4404
    8.940    3.4755
    8.970    3.6510
    9.000    3.7739
    9.030    3.7564
    9.060    3.6335
    9.090    4.1425
    9.120    3.8090
    9.150    3.7213
    9.180    3.9319
    9.210    3.8090
    9.240    3.8968
    9.270    3.7037
    9.300    3.4755
    9.330    3.7739
    9.360    3.7213
    9.390    3.8266
    9.420    3.7915
    9.450    3.4755
    9.480    3.5457
    9.510    3.4755
    9.540    3.8266
    9.570    3.7564
    9.600    3.4580
    9.630    3.6686
    9.660    3.6862
    9.690    4.2830
    9.720    3.5106
    9.750    3.9319
    9.780    4.1250
    9.810    3.8968
    9.840    3.9319
    9.870    3.4053
    9.900    3.8090
    9.930    3.5106
    9.960    3.7388
    9.990    3.7564
   10.020    3.8792
   10.050    3.8792
   10.080    3.3877
   10.110    3.8441
   10.140    3.6862
   10.170    3.7037
   10.200    3.6862
   10.230    3.5808
   10.260    3.9143
   10.290    3.3877
   10.320    3.4053
   10.350    3.8266
   10.380    4.1425
   10.410    4.1074
   10.440    3.7564
   10.470    4.0372
   10.500    3.5457
   10.530    3.6862
   10.560    3.4580
   10.590    3.7564
   10.620    3.6159
   10.650    3.8090
   10.680    3.7739
   10.710    3.7564
   10.740    3.3175
   10.770    3.8968
   10.800    4.0372
   10.830    3.5984
   10.860    3.7213
   10.890    3.7915
   10.920    4.3707
   10.950    3.5984
   10.980    3.3702
   11.010    3.9143
   11.040    3.9319
   11.070    3.6159
   11.100    4.0021
   11.130    3.5808
   11.160    3.8968
   11.190    3.5633
   11.220    3.5808
   11.250    3.3877
   11.280    3.4755
   11.310    3.8090
   11.340    3.9143
   11.370    3.5106
   11.400    3.5984
   11.430    3.8968
   11.460    3.6686
   11.490    3.6510
   11.520    3.6862
   11.550    3.9143
   11.580    3.5282
   11.610    3.4580
   11.640    3.5808
   11.670    3.8617
   11.700    3.8090
   11.730    3.6335
   11.760    3.5282
   11.790    3.1947
   11.820    3.6862
   11.850    3.5457
   11.880    3.5633
   11.910    3.7739
   11.940    3.5633
   11.970    3.2824
   12.000    3.1596
   12.030    3.9319
   12.060    3.4404
   12.090    3.7388
   12.120    3.6510
   12.150    3.3877
   12.180    3.5984
   12.210    3.7739
   12.240    3.5457
   12.270    3.5457
   12.300    3.4755
   12.330    3.6862
   12.360    3.5457
   12.390    3.4053
   12.420    3.4229
   12.450    3.6159
   12.480    3.2649
   12.510    3.5633
   12.540    3.7915
   12.570    3.4053
   12.600    3.5106
   12.630    3.7388
   12.660    3.8090
   12.690    3.0367
   12.720    3.3351
   12.750    3.2824
   12.780    3.4053
   12.810    3.5106
   12.840    3.3702
   12.870    3.4053
   12.900    3.7915
   12.930    3.7213
   12.960    3.3175
   12.990    3.8441
   13.020    3.6686
   13.050    3.3702
   13.080    3.3877
   13.110    3.4404
   13.140    3.6159
   13.170    3.6159
   13.200    3.4755
   13.230    3.7037
   13.260    3.2473
   13.290    3.5808
   13.320    3.1069
   13.350    3.4053
   13.380    3.4755
   13.410    3.7915
   13.440    4.0197
   13.470    3.7564
   13.500    3.6335
   13.530    3.7915
   13.560    3.2473
   13.590    3.5282
   13.620    3.6862
   13.650    4.0899
   13.680    3.4931
   13.710    3.4755
   13.740    3.7915
   13.770    3.3000
   13.800    3.5984
   13.830    3.7915
   13.860    3.7037
   13.890    3.9319
   13.920    3.8968
   13.950    3.8617
   13.980    3.4404
   14.010    4.3532
   14.040    3.5282
   14.070    3.6686
   14.100    3.7213
   14.130    3.7037
   14.160    3.7739
   14.190    3.7213
   14.220    3.6686
   14.250    3.5106
   14.280    3.5633
   14.310    3.4755
   14.340    3.1771
   14.370    3.2649
   14.400    3.5633
   14.430    3.6686
   14.460    4.0021
   14.490    3.8266
   14.520    3.7213
   14.550    3.5106
   14.580    3.8441
   14.610    3.7037
   14.640    3.9494
   14.670    3.9319
   14.700    3.0718
   14.730    3.3175
   14.760    4.1776
   14.790    3.7564
   14.820    3.4053
   14.850    3.5106
   14.880    3.3702
   14.910    3.9846
   14.940    3.5808
   14.970    3.5984
   15.000    3.1596
   15.030    3.5808
   15.060    3.4931
   15.090    3.6335
   15.120    3.8792
   15.150    3.5282
   15.180    3.6159
   15.210    3.2649
   15.240    3.3877
   15.270    3.8441
   15.300    3.9319
   15.330    3.4053
   15.360    3.2122
   15.390    3.3175
   15.420    3.5984
   15.450    3.3000
   15.480    3.1947
   15.510    3.5282
   15.540    3.6510
   15.570    3.2649
   15.600    3.1771
   15.630    3.4404
   15.660    3.2824
   15.690    3.2473
   15.720    3.4229
   15.750    3.1947
   15.780    3.5808
   15.810    3.4755
   15.840    3.6510
   15.870    3.7037
   15.900    3.4404
   15.930    3.3526
   15.960    3.3526
   15.990    3.7564
   16.020    3.7739
   16.050    3.5808
   16.080    3.4404
   16.110    3.4580
   16.140    3.3526
   16.170    3.3000
   16.200    3.6335
   16.230    3.5282
   16.260    3.6862
   16.290    3.7213
   16.320    3.5282
   16.350    3.6159
   16.380    3.4229
   16.410    3.6510
   16.440    3.5808
   16.470    3.1069
   16.500    3.7915
   16.530    3.5984
   16.560    3.4755
   16.590    3.4404
   16.620    3.6510
   16.650    3.4931
   16.680    3.6159
   16.710    3.4931
   16.740    3.8090
   16.770    3.7037
   16.800    3.7739
   16.830    3.5457
   16.860    3.4931
   16.890    3.5106
   16.920    3.7915
   16.950    3.6335
   16.980    3.6686
   17.010    3.1245
   17.040    3.2473
   17.070    3.8266
   17.100    4.1601
   17.130    3.6159
   17.160    3.6862
   17.190    3.4755
   17.220    3.2649
   17.250    3.4580
   17.280    3.2473
   17.310    3.5282
   17.340    3.5808
   17.370    3.3000
   17.400    3.4931
   17.430    3.4229
   17.460    3.6862
   17.490    3.6159
   17.520    3.4229
   17.550    3.3526
   17.580    3.7213
   17.610    3.5457
   17.640    3.2473
   17.670    3.3000
   17.700    3.3877
   17.730    3.5282
   17.760    3.5984
   17.790    3.4755
   17.820    3.9319
   17.850    3.5808
   17.880    3.7213
   17.910    3.4580
   17.940    3.9846
   17.970    3.7739
   18.000    3.8441
   18.030    3.8617
   18.060    3.7037
   18.090    3.3526
   18.120    3.3000
   18.150    3.1069
   18.180    3.7915
   18.210    3.5808
   18.240    3.4755
   18.270    3.4404
   18.300    3.6335
   18.330    4.0548
   18.360    3.4580
   18.390    3.8792
   18.420    3.7739
   18.450    3.6686
   18.480    3.3877
   18.510    3.5633
   18.540    3.6862
   18.570    3.8090
   18.600    3.4755
   18.630    3.8266
   18.660    3.4404
   18.690    3.3526
   18.720    3.6686
   18.750    3.4053
   18.780    3.5633
   18.810    3.4404
   18.840    3.4755
   18.870    3.5282
   18.900    3.5457
   18.930    3.1069
   18.960    3.6862
   18.990    3.3877
   19.020    3.4580
   19.050    3.3526
   19.080    3.3702
   19.110    3.5808
   19.140    3.3702
   19.170    3.1596
   19.200    3.6335
   19.230    3.5106
   19.260    3.5808
   19.290    3.3877
   19.320    3.4404
   19.350    3.4229
   19.380    3.3702
   19.410    3.6686
   19.440    3.3175
   19.470    3.3526
   19.500    3.3000
   19.530    3.5633
   19.560    3.2473
   19.590    3.4931
   19.620    3.6510
   19.650    3.0016
   19.680    3.3351
   19.710    3.6862
   19.740    3.3526
   19.770    3.6686
   19.800    3.4404
   19.830    3.5282
   19.860    3.5106
   19.890    3.6159
   19.920    3.5984
   19.950    3.7213
   19.980    3.4053
   20.010    3.6862
   20.040    3.3351
   20.070    3.3877
   20.100    3.5633
   20.130    3.4053
   20.160    3.1596
   20.190    3.7915
   20.220    3.3877
   20.250    3.0893
   20.280    3.7037
   20.310    3.2122
   20.340    3.6686
   20.370    3.6335
   20.400    3.2649
   20.430    3.6335
   20.460    3.5106
   20.490    3.7037
   20.520    3.4404
   20.550    3.5984
   20.580    3.5282
   20.610    3.4229
   20.640    3.6335
   20.670    3.7564
   20.700    3.4580
   20.730    3.8441
   20.760    3.5106
   20.790    3.5984
   20.820    3.7037
   20.850    3.4229
   20.880    3.7739
   20.910    3.4580
   20.940    3.6510
   20.970    3.8968
   21.000    3.3000
   21.030    3.8617
   21.060    3.6510
   21.090    4.1074
   21.120    3.5282
   21.150    3.5808
   21.180    3.5282
   21.210    3.7915
   21.240    3.5106
   21.270    3.5808
   21.300    3.5808
   21.330    4.0548
   21.360    3.7388
   21.390    3.6159
   21.420    3.6686
   21.450    3.6510
   21.480    3.6335
   21.510    3.8792
   21.540    3.7739
   21.570    3.5984
   21.600    3.6862
   21.630    3.8617
   21.660    3.9494
   21.690    3.4229
   21.720    3.5282
   21.750    3.5106
   21.780    3.3877
   21.810    3.5633
   21.840    3.2122
   21.870    3.6510
   21.900    3.4931
   21.930    3.8792
   21.960    3.8441
   21.990    4.0021
   22.020    3.4404
   22.050    3.7037
   22.080    3.5808
   22.110    3.2649
   22.140    3.6862
   22.170    3.6335
   22.200    3.6159
   22.230    3.5808
   22.260    3.2298
   22.290    3.4229
   22.320    3.2473
   22.350    3.6510
   22.380    3.8266
   22.410    3.7037
   22.440    3.5633
   22.470    3.5808
   22.500    3.1420
   22.530    3.4755
   22.560    3.2473
   22.590    3.4931
   22.620    2.9665
   22.650    3.7388
   22.680    3.0893
   22.710    3.1245
   22.740    3.1420
   22.770    3.2122
   22.800    3.5106
   22.830    3.7564
   22.860    3.7915
   22.890    3.3000
   22.920    3.3526
   22.950    3.4580
   22.980    3.4755
   23.010    3.5282
   23.040    3.5633
   23.070    3.6159
   23.100    3.3175
   23.130    3.5457
   23.160    3.4580
   23.190    3.2122
   23.220    3.3526
   23.250    3.3877
   23.280    3.1947
   23.310    3.3351
   23.340    3.5282
   23.370    3.1947
   23.400    3.4755
   23.430    3.4404
   23.460    3.2298
   23.490    3.2122
   23.520    2.8963
   23.550    3.4755
   23.580    3.4580
   23.610    3.0718
   23.640    3.2649
   23.670    3.6335
   23.700    2.9840
   23.730    3.2122
   23.760    3.5808
   23.790    3.0016
   23.820    3.6335
   23.850    3.4229
   23.880    3.6510
   23.910    3.3175
   23.940    3.4580
   23.970    3.1596
   24.000    3.2473
   24.030    3.5457
   24.060    3.4755
   24.090    3.1771
   24.120    3.3702
   24.150    2.9665
   24.180    3.5106
   24.210    3.1245
   24.240    3.3175
   24.270    3.3351
   24.300    3.3351
   24.330    3.6862
   24.360    2.9840
   24.390    3.3877
   24.420    3.1771
   24.450    3.3877
   24.480    3.0542
   24.510    3.7388
   24.540    3.1947
   24.570    3.3351
   24.600    3.0893
   24.630    3.2824
   24.660    3.1245
   24.690    3.3526
   24.720    3.0016
   24.750    3.5984
   24.780    3.0191
   24.810    3.2824
   24.840    3.0893
   24.870    3.1596
   24.900    3.4580
   24.930    3.2649
   24.960    3.1420
   24.990    3.0718
   25.020    2.8260
   25.050    2.9665
   25.080    3.0542
   25.110    2.8963
   25.140    2.9138
   25.170    3.1069
   25.200    3.3000
   25.230    3.3877
   25.260    2.9489
   25.290    3.5633
   25.320    3.3351
   25.350    3.4580
   25.380    3.0367
   25.410    3.1947
   25.440    3.3702
   25.470    3.2824
   25.500    3.1771
   25.530    3.0191
   25.560    2.8963
   25.590    3.3526
   25.620    3.1245
   25.650    3.1947
   25.680    3.1245
   25.710    3.1245
   25.740    3.0893
   25.770    2.8787
   25.800    3.4755
   25.830    2.7207
   25.860    3.3526
   25.890    3.1245
   25.920    3.0893
   25.950    3.3351
   25.980    3.1947
   26.010    3.2298
   26.040    3.2122
   26.070    3.3877
   26.100    3.4755
   26.130    3.1420
   26.160    3.1420
   26.190    3.1069
   26.220    3.1245
   26.250    3.6159
   26.280    2.6330
   26.310    3.1771
   26.340    2.9665
   26.370    2.9665
   26.400    2.8085
   26.430    2.9840
   26.460    2.9314
   26.490    3.1947
   26.520    3.1947
   26.550    2.9314
   26.580    3.0718
   26.610    3.4053
   26.640    3.2824
   26.670    2.9665
   26.700    3.0367
   26.730    3.4580
   26.760    3.2649
   26.790    3.0191
   26.820    2.9138
   26.850    2.9314
   26.880    3.1771
   26.910    2.6154
   26.940    3.2298
   26.970    2.8260
   27.000    3.0191
   27.030    3.0893
   27.060    3.0191
   27.090    3.3351
   27.120    2.9665
   27.150    3.0191
   27.180    3.0718
   27.210    3.1771
   27.240    2.9489
   27.270    2.8963
   27.300    2.9840
   27.330    2.9840
   27.360    3.0367
   27.390    2.9665
   27.420    2.7558
   27.450    2.9314
   27.480    2.9314
   27.510    2.9840
   27.540    2.7032
   27.570    3.1596
   27.600    3.0016
   27.630    3.0718
   27.660    3.0367
   27.690    2.8085
   27.720    2.8787
   27.750    2.8085
   27.780    3.1420
   27.810    3.1596
   27.840    3.1069
   27.870    3.1069
   27.900    3.0191
   27.930    3.1596
   27.960    2.8963
   27.990    2.8436
   28.020    2.9489
   28.050    2.9489
   28.080    2.8787
   28.110    3.0718
   28.140    2.6681
   28.170    2.7558
   28.200    2.5979
   28.230    2.9840
   28.260    2.9138
   28.290    2.9314
   28.320    3.2649
   28.350    3.2824
   28.380    2.8612
   28.410    2.7032
   28.440    2.8260
   28.470    2.7383
   28.500    3.0542
   28.530    2.5276
   28.560    2.9489
   28.590    2.9314
   28.620    2.7383
   28.650    2.8963
   28.680    2.8612
   28.710    2.8787
   28.740    3.1596
   28.770    3.2122
   28.800    2.7383
   28.830    2.8436
   28.860    3.0718
   28.890    3.0893
   28.920    3.1069
   28.950    2.9138
   28.980    2.9489
   29.010    3.0191
   29.040    2.7207
   29.070    2.6154
   29.100    2.6505
   29.130    3.0016
   29.160    2.7207
   29.190    3.0893
   29.220    2.5979
   29.250    3.0542
   29.280    2.6154
   29.310    2.7207
   29.340    2.5979
   29.370    2.8787
   29.400    2.5628
   29.430    2.7734
   29.460    2.6505
   29.490    3.0893
   29.520    2.6330
   29.550    2.7558
   29.580    3.2649
   29.610    2.9314
   29.640    2.9138
   29.670    2.7909
   29.700    2.7383
   29.730    2.8612
   29.760    2.9840
   29.790    2.7558
   29.820    2.9138
   29.850    3.0893
   29.880    2.9665
   29.910    2.7207
   29.940    3.0542
   29.970    2.7558
   30.000    2.5628
   30.030    2.7032
   30.060    2.4048
   30.090    3.2298
   30.120    2.8963
   30.150    2.5452
   30.180    2.7032
   30.210    2.7207
   30.240    2.7032
   30.270    2.7909
   30.300    2.7558
   30.330    2.7207
   30.360    2.8260
   30.390    2.5452
   30.420    2.8963
   30.450    2.7383
   30.480    2.8085
   30.510    2.8085
   30.540    2.9840
   30.570    2.4925
   30.600    2.5452
   30.630    2.7909
   30.660    2.4574
   30.690    2.8260
   30.720    2.7383
   30.750    2.9665
   30.780    2.4750
   30.810    2.6856
   30.840    2.7909
   30.870    2.5276
   30.900    2.8612
   30.930    2.6505
   30.960    2.5628
   30.990    2.9665
   31.020    2.4574
   31.050    2.9138
   31.080    2.4750
   31.110    2.3872
   31.140    2.7383
   31.170    2.4750
   31.200    2.5276
   31.230    2.7032
   31.260    3.0016
   31.290    2.6505
   31.320    2.8260
   31.350    2.6154
   31.380    2.5628
   31.410    2.6681
   31.440    2.4574
   31.470    3.0016
   31.500    2.9138
   31.530    2.8787
   31.560    2.8963
   31.590    2.5628
   31.620    2.3170
   31.650    2.3346
   31.680    2.7032
   31.710    2.7558
   31.740    2.4925
   31.770    2.6681
   31.800    2.3697
   31.830    2.6856
   31.860    2.5101
   31.890    2.3521
   31.920    2.7032
   31.950    2.6681
   31.980    2.3521
   32.010    2.6505
   32.040    2.4574
   32.070    2.5276
   32.100    2.6330
   32.130    2.8260
   32.160    2.4750
   32.190    2.5101
   32.220    2.4925
   32.250    2.5979
   32.280    2.7383
   32.310    2.6856
   32.340    2.4223
   32.370    2.6330
   32.400    2.5452
   32.430    2.5101
   32.460    2.4399
   32.490    2.5276
   32.520    2.7383
   32.550    2.0888
   32.580    2.7207
   32.610    2.2643
   32.640    2.3170
   32.670    2.5628
   32.700    2.4223
   32.730    2.6330
   32.760    2.5276
   32.790    2.4574
   32.820    2.7734
   32.850    2.5979
   32.880    2.2819
   32.910    2.4223
   32.940    2.5803
   32.970    2.2995
   33.000    2.4750
   33.030    2.4223
   33.060    2.5628
   33.090    2.4925
   33.120    2.4399
   33.150    2.3697
   33.180    2.5276
   33.210    2.5101
   33.240    2.2468
   33.270    2.6330
   33.300    2.6154
   33.330    2.2995
   33.360    2.4925
   33.390    2.3521
   33.420    2.2643
   33.450    2.2643
   33.480    2.4048
   33.510    2.7383
   33.540    2.3872
   33.570    2.5276
   33.600    2.2643
   33.630    2.2292
   33.660    2.6856
   33.690    2.7383
   33.720    1.9835
   33.750    2.2995
   33.780    2.2468
   33.810    2.6681
   33.840    2.3521
   33.870    2.2819
   33.900    2.3170
   33.930    2.4399
   33.960    2.4048
   33.990    2.2643
   34.020    2.2292
   34.050    2.3872
   34.080    2.1766
   34.110    2.2643
   34.140    2.2643
   34.170    2.2995
   34.200    2.5979
   34.230    2.0713
   34.260    2.4574
   34.290    2.4223
   34.320    2.2117
   34.350    2.1064
   34.380    2.4048
   34.410    2.5101
   34.440    2.4048
   34.470    2.1415
   34.500    2.1766
   34.530    2.2995
   34.560    2.2995
   34.590    2.2643
   34.620    2.1415
   34.650    2.2643
   34.680    1.8782
   34.710    2.3872
   34.740    2.2117
   34.770    2.5628
   34.800    2.5452
   34.830    2.4574
   34.860    2.1064
   34.890    2.3346
   34.920    2.2468
   34.950    2.1415
   34.980    2.2643
   35.010    2.1941
   35.040    2.0537
   35.070    2.1766
   35.100    2.1766
   35.130    2.2117
   35.160    2.0888
   35.190    2.2995
   35.220    2.3346
   35.250    2.4048
   35.280    2.3872
   35.310    2.1766
   35.340    2.3170
   35.370    2.1064
   35.400    2.1766
   35.430    2.2292
   35.460    2.1239
   35.490    1.8255
   35.520    2.4048
   35.550    2.2819
   35.580    2.2117
   35.610    2.0713
   35.640    2.4048
   35.670    2.1239
   35.700    2.1590
   35.730    1.9308
   35.760    1.7904
   35.790    2.1590
   35.820    2.0888
   35.850    2.2995
   35.880    2.2995
   35.910    2.2995
   35.940    2.1415
   35.970    2.0888
   36.000    1.9133
   36.030    2.2292
   36.060    2.2468
   36.090    2.5101
   36.120    2.1415
   36.150    1.9308
   36.180    2.3170
   36.210    2.2468
   36.240    2.0011
   36.270    2.5276
   36.300    2.1766
   36.330    2.0362
   36.360    2.2117
   36.390    2.1415
   36.420    2.2995
   36.450    2.0362
   36.480    1.9835
   36.510    2.2117
   36.540    2.1590
   36.570    2.1415
   36.600    1.8957
   36.630    2.2292
   36.660    1.8957
   36.690    2.2819
   36.720    1.9659
   36.750    2.1941
   36.780    1.9835
   36.810    2.2643
   36.840    1.9133
   36.870    1.9484
   36.900    2.4399
   36.930    1.8957
   36.960    2.3521
   36.990    1.9835
   37.020    2.1064
   37.050    1.8080
   37.080    2.1766
   37.110    2.1941
   37.140    2.0186
   37.170    2.1239
   37.200    2.0713
   37.230    1.8782
   37.260    2.1064
   37.290    2.1064
   37.320    2.0186
   37.350    1.7904
   37.380    2.2292
   37.410    2.0537
   37.440    2.0186
   37.470    2.2117
   37.500    2.0362
   37.530    2.1941
   37.560    2.0186
   37.590    2.1415
   37.620    2.1064
   37.650    2.0713
   37.680    1.9308
   37.710    2.0186
   37.740    1.7904
   37.770    1.9308
   37.800    1.9835
   37.830    1.9835
   37.860    1.9659
   37.890    2.0186
   37.920    1.8782
   37.950    2.1415
   37.980    1.9659
   38.010    2.0186
   38.040    1.8255
   38.070    1.9659
   38.100    2.1064
   38.130    1.9484
   38.160    1.8431
   38.190    1.6500
   38.220    2.0186
   38.250    1.9484
   38.280    1.8782
   38.310    1.9133
   38.340    1.8957
   38.370    2.0713
   38.400    1.8957
   38.430    2.0537
   38.460    2.0713
   38.490    2.2117
   38.520    2.0362
   38.550    1.7729
   38.580    1.8606
   38.610    2.1064
   38.640    2.1415
   38.670    1.8606
   38.700    1.8957
   38.730    2.0186
   38.760    1.8606
   38.790    1.8606
   38.820    2.0011
   38.850    2.0713
   38.880    1.8782
   38.910    2.0362
   38.940    2.3170
   38.970    1.8957
   39.000    1.9133
   39.030    2.0011
   39.060    2.0537
   39.090    1.8080
   39.120    1.6675
   39.150    1.9484
   39.180    1.6324
   39.210    2.2819
   39.240    2.0362
   39.270    1.9308
   39.300    2.1239
   39.330    1.7553
   39.360    2.1766
   39.390    1.5622
   39.420    2.0713
   39.450    1.9484
   39.480    2.1766
   39.510    1.9484
   39.540    1.9484
   39.570    1.9835
   39.600    2.0713
   39.630    1.8255
   39.660    1.7378
   39.690    1.7553
   39.720    2.2292
   39.750    1.7904
   39.780    1.9484
   39.810    1.9484
   39.840    1.9659
   39.870    1.9133
   39.900    2.0888
   39.930    1.7729
   39.960    1.9484
   39.990    1.8255