File: data/PXRD/PXRD_KE-033_Cu-Ka1_capillary-1mm_5s-deg.xyd
    1.500   56.6719
    1.530   56.0822
    1.560   53.0068
    1.590   50.1317
    1.620   49.3944
    1.650   46.3612
    1.680   42.9068
    1.710   44.2759
    1.740   41.9273
    1.770   38.8204
    1.800   37.5355
    1.830   36.3665
    1.860   35.5345
    1.890   33.4702
    1.920   32.8173
    1.950   32.6804
    1.980   31.6798
    2.010   30.0790
    2.040   29.5103
    2.070   28.5413
    2.100   28.3518
    2.130   26.8668
    2.160   27.4144
    2.190   25.8241
    2.220   25.5292
    2.250   24.3602
    2.280   24.0548
    2.310   23.7283
    2.340   23.2122
    2.370   23.2859
    2.400   23.4650
    2.430   22.3802
    2.460   22.7172
    2.490   22.1906
    2.520   21.9379
    2.550   22.0432
    2.580   21.5482
    2.610   20.8952
    2.640   21.3060
    2.670   21.8641
    2.700   21.5903
    2.730   21.5377
    2.760   21.5061
    2.790   22.3170
    2.820   22.6751
    2.850   22.1064
    2.880   21.9379
    2.910   22.4539
    2.940   23.5387
    2.970   23.2649
    3.000   24.7393
    3.030   25.5398
    3.060   24.4128
    3.090   25.9400
    3.120   26.7193
    3.150   28.0463
    3.180   28.9837
    3.210   29.8473
    3.240   31.2480
    3.270   34.1232
    3.300   34.7025
    3.330   37.4513
    3.360   39.4734
    3.390   42.7278
    3.420   45.1185
    3.450   47.9516
    3.480   49.0469
    3.510   48.0569
    3.540   43.9284
    3.570   40.1474
    3.600   36.9563
    3.630   36.5245
    3.660   36.9879
    3.690   37.9147
    3.720   40.4423
    3.750   42.0011
    3.780   46.0664
    3.810   48.8046
    3.840   53.9863
    3.870   61.6956
    3.900   68.3623
    3.930   64.0864
    3.960   46.3402
    3.990   26.5298
    4.020   18.3360
    4.050   14.7130
    4.080   13.6388
    4.110   12.5540
    4.140   11.5640
    4.170   10.8373
    4.200    9.9737
    4.230    9.5840
    4.260    9.6261
    4.290    8.9310
    4.320    8.8784
    4.350    8.8362
    4.380    8.7309
    4.410    8.2149
    4.440    7.9516
    4.470    7.9937
    4.500    8.0463
    4.530    7.8778
    4.560    7.6040
    4.590    7.9621
    4.620    7.6040
    4.650    7.7725
    4.680    7.4671
    4.710    7.1301
    4.740    7.8357
    4.770    8.0569
    4.800    7.6672
    4.830    7.5408
    4.860    7.9621
    4.890    8.0253
    4.920    7.8778
    4.950    8.2359
    4.980    8.7309
    5.010    8.3307
    5.040    8.9100
    5.070    8.6888
    5.100    9.0995
    5.130    9.3523
    5.160    9.9105
    5.190   10.3212
    5.220   10.2686
    5.250   10.5635
    5.280   11.3955
    5.310   11.3217
    5.340   12.3960
    5.370   13.4281
    5.400   14.5340
    5.430   15.5977
    5.460   17.1037
    5.490   20.0105
    5.520   24.5392
    5.550   23.9179
    5.580   18.4202
    5.610   10.8162
    5.640    7.7514
    5.670    6.6667
    5.700    6.7615
    5.730    6.2559
    5.760    6.2454
    5.790    6.2665
    5.820    6.6561
    5.850    6.1611
    5.880    6.0874
    5.910    5.9084
    5.940    6.1190
    5.970    5.9716
    6.000    5.8557
    6.030    6.1190
    6.060    6.1611
    6.090    6.3612
    6.120    6.4982
    6.150    6.2559
    6.180    5.8873
    6.210    5.9926
    6.240    6.1822
    6.270    6.2138
    6.300    6.4455
    6.330    6.5929
    6.360    6.6561
    6.390    6.7088
    6.420    6.7930
    6.450    7.0669
    6.480    6.6667
    6.510    7.4987
    6.540    7.6356
    6.570    7.2670
    6.600    8.1727
    6.630    8.1095
    6.660    8.0358
    6.690    8.8468
    6.720    9.3734
    6.750   10.4055
    6.780   11.4060
    6.810   10.5740
    6.840    9.7525
    6.870    9.4471
    6.900    9.4892
    6.930    9.9631
    6.960   10.2370
    6.990   10.0790
    7.020    9.0890
    7.050    8.5835
    7.080    7.6356
    7.110    6.9405
    7.140    6.9932
    7.170    6.9616
    7.200    6.2349
    7.230    6.5613
    7.260    6.6983
    7.290    6.5087
    7.320    6.6561
    7.350    7.1301
    7.380    6.4560
    7.410    7.1301
    7.440    7.1827
    7.470    7.0669
    7.500    7.3934
    7.530    7.7409
    7.560    8.2149
    7.590    8.5519
    7.620    8.7204
    7.650    9.3523
    7.680    9.9210
    7.710   10.4055
    7.740   10.6056
    7.770   11.9431
    7.800   11.9115
    7.830   12.4276
    7.860   11.7009
    7.890    9.7314
    7.920    8.3518
    7.950    7.2143
    7.980    6.7615
    8.010    6.5192
    8.040    5.9821
    8.070    6.0874
    8.100    6.2454
    8.130    6.0137
    8.160    5.7399
    8.190    5.9610
    8.220    5.7820
    8.250    5.6872
    8.280    5.8662
    8.310    5.7925
    8.340    5.6135
    8.370    5.9189
    8.400    5.8241
    8.430    5.6556
    8.460    5.6029
    8.490    5.8768
    8.520    5.8873
    8.550    5.5714
    8.580    5.4450
    8.610    5.6767
    8.640    5.9189
    8.670    5.6135
    8.700    5.8662
    8.730    6.0137
    8.760    6.2981
    8.790    5.7820
    8.820    5.8768
    8.850    5.3712
    8.880    5.4028
    8.910    4.9605
    8.940    5.5819
    8.970    5.5292
    9.000    5.4976
    9.030    5.3502
    9.060    5.3081
    9.090    5.8136
    9.120    5.6240
    9.150    5.4660
    9.180    5.7083
    9.210    5.7820
    9.240    5.8768
    9.270    5.7083
    9.300    6.4350
    9.330    6.0348
    9.360    6.5613
    9.390    6.7720
    9.420    7.1617
    9.450    7.8146
    9.480    8.2570
    9.510    9.1206
    9.540   10.2580
    9.570   12.2064
    9.600   12.8594
    9.630   12.6382
    9.660    9.3418
    9.690    6.5298
    9.720    5.8768
    9.750    5.5503
    9.780    5.5292
    9.810    5.3397
    9.840    5.5082
    9.870    5.3712
    9.900    5.7925
    9.930    5.4239
    9.960    5.5503
    9.990    5.5292
   10.020    5.2870
   10.050    5.3818
   10.080    5.7609
   10.110    5.7715
   10.140    5.6661
   10.170    5.8768
   10.200    6.0348
   10.230    6.1085
   10.260    5.9294
   10.290    6.3612
   10.320    6.7404
   10.350    7.5092
   10.380    7.5935
   10.410    7.2143
   10.440    6.4139
   10.470    5.8768
   10.500    5.6767
   10.530    5.2343
   10.560    5.4134
   10.590    5.2765
   10.620    5.1395
   10.650    5.3397
   10.680    6.0558
   10.710    5.4766
   10.740    5.2238
   10.770    5.5714
   10.800    5.4134
   10.830    5.8768
   10.860    5.6872
   10.890    5.8978
   10.920    5.9505
   10.950    6.0558
   10.980    6.5719
   11.010    6.5929
   11.040    6.9721
   11.070    7.5303
   11.100    8.0779
   11.130    7.2038
   11.160    6.3296
   11.190    5.5187
   11.220    5.5819
   11.250    5.3397
   11.280    5.3291
   11.310    5.1395
   11.340    5.3186
   11.370    5.2133
   11.400    5.3186
   11.430    5.6767
   11.460    5.4028
   11.490    5.6029
   11.520    5.7399
   11.550    5.6135
   11.580    5.8978
   11.610    5.8136
   11.640    6.1611
   11.670    6.6772
   11.700    7.0985
   11.730    7.1827
   11.760    7.9516
   11.790    7.4039
   11.820    6.8562
   11.850    5.8557
   11.880    5.2343
   11.910    5.4239
   11.940    5.6345
   11.970    4.9394
   12.000    4.9500
   12.030    5.2133
   12.060    5.1817
   12.090    5.0869
   12.120    5.2133
   12.150    5.2554
   12.180    5.0974
   12.210    5.1606
   12.240    5.3186
   12.270    5.1395
   12.300    5.3607
   12.330    5.1185
   12.360    5.3081
   12.390    5.7293
   12.420    5.4450
   12.450    4.8763
   12.480    4.6972
   12.510    4.9289
   12.540    4.8025
   12.570    4.9289
   12.600    5.0974
   12.630    5.1606
   12.660    4.9184
   12.690    4.8131
   12.720    5.0132
   12.750    5.2027
   12.780    5.1395
   12.810    5.1817
   12.840    5.2554
   12.870    5.5714
   12.900    5.7609
   12.930    5.9189
   12.960    5.9505
   12.990    5.8452
   13.020    5.9294
   13.050    6.1295
   13.080    5.7188
   13.110    5.2449
   13.140    5.1711
   13.170    5.0342
   13.200    5.4134
   13.230    4.8657
   13.260    4.8763
   13.290    5.0237
   13.320    5.1817
   13.350    5.2027
   13.380    4.9710
   13.410    5.1922
   13.440    5.1185
   13.470    5.4028
   13.500    5.2133
   13.530    5.1080
   13.560    5.4766
   13.590    5.3291
   13.620    4.9394
   13.650    5.1922
   13.680    5.1606
   13.710    4.8763
   13.740    4.9078
   13.770    4.9078
   13.800    4.7288
   13.830    4.9605
   13.860    5.1290
   13.890    4.9078
   13.920    4.8447
   13.950    5.1711
   13.980    5.0342
   14.010    5.1290
   14.040    5.4239
   14.070    5.4766
   14.100    5.9084
   14.130    5.9084
   14.160    5.8662
   14.190    5.4766
   14.220    5.4134
   14.250    5.2870
   14.280    4.7393
   14.310    4.7709
   14.340    4.9184
   14.370    5.0553
   14.400    4.7183
   14.430    4.6235
   14.460    4.3813
   14.490    4.8552
   14.520    4.8447
   14.550    4.6761
   14.580    4.5814
   14.610    4.8868
   14.640    5.1290
   14.670    5.1711
   14.700    4.8341
   14.730    4.5498
   14.760    4.5287
   14.790    4.5498
   14.820    4.6656
   14.850    4.7709
   14.880    4.6445
   14.910    4.7288
   14.940    4.7709
   14.970    4.9184
   15.000    4.7183
   15.030    4.8763
   15.060    5.0869
   15.090    5.1290
   15.120    4.9289
   15.150    4.7077
   15.180    5.3712
   15.210    5.3818
   15.240    5.3923
   15.270    4.9710
   15.300    5.0553
   15.330    4.6445
   15.360    4.5919
   15.390    4.6761
   15.420    4.5287
   15.450    4.8341
   15.480    4.8657
   15.510    4.7393
   15.540    4.9921
   15.570    5.0974
   15.600    4.9078
   15.630    4.8341
   15.660    4.9078
   15.690    5.2133
   15.720    5.1185
   15.750    4.7288
   15.780    5.0764
   15.810    5.1395
   15.840    4.8868
   15.870    5.1817
   15.900    5.0132
   15.930    4.8763
   15.960    4.8025
   15.990    5.3397
   16.020    4.6656
   16.050    5.0448
   16.080    5.1711
   16.110    4.7709
   16.140    5.0448
   16.170    5.3502
   16.200    5.4450
   16.230    5.0237
   16.260    4.9605
   16.290    4.8763
   16.320    4.6130
   16.350    4.7393
   16.380    4.9078
   16.410    5.0448
   16.440    5.0658
   16.470    4.5919
   16.500    4.9394
   16.530    4.9078
   16.560    4.8763
   16.590    4.9078
   16.620    4.8236
   16.650    4.8973
   16.680    4.9289
   16.710    4.9921
   16.740    4.8131
   16.770    4.8447
   16.800    4.7077
   16.830    4.7183
   16.860    5.0237
   16.890    4.8447
   16.920    4.5814
   16.950    4.9289
   16.980    5.0237
   17.010    5.2975
   17.040    5.2659
   17.070    5.4450
   17.100    5.9716
   17.130    6.2349
   17.160    5.8978
   17.190    5.8768
   17.220    5.4976
   17.250    4.7499
   17.280    4.8868
   17.310    4.8025
   17.340    4.8131
   17.370    4.9921
   17.400    5.0974
   17.430    4.7815
   17.460    5.0658
   17.490    5.0132
   17.520    4.9921
   17.550    5.1395
   17.580    5.2238
   17.610    5.3397
   17.640    5.3081
   17.670    5.0237
   17.700    5.1080
   17.730    5.0342
   17.760    4.7288
   17.790    5.1185
   17.820    5.4450
   17.850    5.0132
   17.880    4.9710
   17.910    5.0132
   17.940    4.9921
   17.970    4.7815
   18.000    5.2765
   18.030    5.2870
   18.060    4.8025
   18.090    4.7920
   18.120    4.7920
   18.150    5.0026
   18.180    4.6130
   18.210    4.8552
   18.240    4.6130
   18.270    4.9289
   18.300    4.9078
   18.330    4.6130
   18.360    4.8973
   18.390    5.1606
   18.420    5.2659
   18.450    5.0448
   18.480    4.9078
   18.510    4.9816
   18.540    4.8552
   18.570    4.8868
   18.600    4.9816
   18.630    4.5919
   18.660    4.9184
   18.690    4.8973
   18.720    4.4234
   18.750    4.8657
   18.780    4.8341
   18.810    5.0974
   18.840    5.0026
   18.870    4.7709
   18.900    4.8025
   18.930    4.9394
   18.960    4.9184
   18.990    4.9605
   19.020    4.5182
   19.050    4.9710
   19.080    5.0342
   19.110    5.0764
   19.140    5.1922
   19.170    4.7709
   19.200    4.9394
   19.230    4.8657
   19.260    4.9289
   19.290    5.2765
   19.320    5.0237
   19.350    5.0764
   19.380    4.9500
   19.410    4.8447
   19.440    4.8657
   19.470    4.9605
   19.500    5.0237
   19.530    4.7288
   19.560    5.0974
   19.590    5.2975
   19.620    4.8657
   19.650    5.4239
   19.680    5.5292
   19.710    5.2027
   19.740    5.1290
   19.770    5.2870
   19.800    4.8763
   19.830    4.8236
   19.860    5.0026
   19.890    4.9394
   19.920    5.3186
   19.950    5.0132
   19.980    5.4871
   20.010    5.1817
   20.040    4.9710
   20.070    5.3081
   20.100    5.0869
   20.130    5.2449
   20.160    5.1606
   20.190    5.2870
   20.220    5.3291
   20.250    5.0342
   20.280    5.2449
   20.310    5.2343
   20.340    5.4134
   20.370    5.3923
   20.400    5.4871
   20.430    5.9821
   20.460    5.7609
   20.490    6.0032
   20.520    5.4976
   20.550    5.4871
   20.580    5.0132
   20.610    5.3712
   20.640    5.3502
   20.670    5.5292
   20.700    5.3502
   20.730    5.0658
   20.760    5.3502
   20.790    4.9921
   20.820    5.3607
   20.850    5.1606
   20.880    5.2659
   20.910    5.1185
   20.940    4.8657
   20.970    5.3291
   21.000    5.2449
   21.030    5.1395
   21.060    5.3502
   21.090    4.8868
   21.120    5.6135
   21.150    5.0448
   21.180    5.3291
   21.210    4.8131
   21.240    5.2659
   21.270    5.0026
   21.300    5.1501
   21.330    5.3291
   21.360    5.3712
   21.390    5.1817
   21.420    5.0132
   21.450    5.1501
   21.480    5.3081
   21.510    5.4766
   21.540    5.2449
   21.570    5.1395
   21.600    5.1817
   21.630    4.9816
   21.660    5.3607
   21.690    5.2238
   21.720    5.0132
   21.750    5.2975
   21.780    5.0658
   21.810    5.2343
   21.840    5.4344
   21.870    5.3923
   21.900    5.3186
   21.930    5.2554
   21.960    5.7293
   21.990    5.1290
   22.020    5.3081
   22.050    5.2343
   22.080    5.1606
   22.110    5.1395
   22.140    5.2870
   22.170    5.2659
   22.200    5.2133
   22.230    5.4450
   22.260    5.3502
   22.290    5.4134
   22.320    5.4555
   22.350    5.4344
   22.380    5.8768
   22.410    5.6661
   22.440    5.5292
   22.470    5.3712
   22.500    5.3818
   22.530    5.7083
   22.560    5.9505
   22.590    6.0242
   22.620    6.0979
   22.650    6.4139
   22.680    6.2559
   22.710    5.9505
   22.740    5.8662
   22.770    5.6977
   22.800    5.6451
   22.830    5.3818
   22.860    5.3712
   22.890    5.7083
   22.920    6.0137
   22.950    6.3191
   22.980    6.0453
   23.010    5.8031
   23.040    5.7925
   23.070    5.9189
   23.100    5.2343
   23.130    5.3712
   23.160    4.9921
   23.190    5.4766
   23.220    5.4028
   23.250    5.4555
   23.280    5.3081
   23.310    5.2449
   23.340    5.4134
   23.370    5.3607
   23.400    5.0974
   23.430    4.9605
   23.460    5.2975
   23.490    5.3712
   23.520    4.9184
   23.550    5.3397
   23.580    5.0448
   23.610    5.0553
   23.640    5.0448
   23.670    5.2659
   23.700    5.1185
   23.730    4.9710
   23.760    4.8552
   23.790    5.0764
   23.820    5.0132
   23.850    5.4450
   23.880    5.1080
   23.910    4.6551
   23.940    4.9078
   23.970    5.3818
   24.000    5.1395
   24.030    5.0448
   24.060    5.3291
   24.090    4.8868
   24.120    4.8131
   24.150    5.0974
   24.180    5.1501
   24.210    4.8447
   24.240    4.7604
   24.270    4.9921
   24.300    5.0974
   24.330    5.1395
   24.360    4.8657
   24.390    5.0448
   24.420    4.9816
   24.450    5.0974
   24.480    4.7183
   24.510    5.2870
   24.540    5.0658
   24.570    4.7604
   24.600    5.1080
   24.630    4.9710
   24.660    5.1290
   24.690    4.8657
   24.720    5.0026
   24.750    5.2343
   24.780    4.9394
   24.810    5.0342
   24.840    4.9500
   24.870    5.1922
   24.900    5.4134
   24.930    5.0869
   24.960    5.1290
   24.990    5.1817
   25.020    4.7920
   25.050    5.0553
   25.080    5.2449
   25.110    5.1395
   25.140    5.0237
   25.170    4.8236
   25.200    4.8236
   25.230    4.6551
   25.260    4.8973
   25.290    4.9078
   25.320    4.9394
   25.350    5.1817
   25.380    4.8131
   25.410    5.3397
   25.440    4.8763
   25.470    4.5392
   25.500    4.5182
   25.530    4.6551
   25.560    5.0026
   25.590    4.8868
   25.620    5.0026
   25.650    4.8763
   25.680    4.5392
   25.710    4.7499
   25.740    4.9921
   25.770    4.8763
   25.800    4.8552
   25.830    4.9289
   25.860    5.3502
   25.890    5.2343
   25.920    5.3712
   25.950    5.2449
   25.980    5.3081
   26.010    4.7393
   26.040    4.9184
   26.070    4.7604
   26.100    4.8131
   26.130    4.9500
   26.160    4.8341
   26.190    4.5603
   26.220    4.4128
   26.250    4.6867
   26.280    4.6551
   26.310    4.5498
   26.340    4.8447
   26.370    4.6551
   26.400    5.0026
   26.430    4.5814
   26.460    4.8973
   26.490    4.8447
   26.520    4.7393
   26.550    4.6130
   26.580    4.9816
   26.610    4.6656
   26.640    5.0764
   26.670    4.7709
   26.700    4.7393
   26.730    4.6024
   26.760    4.5287
   26.790    4.5182
   26.820    4.9605
   26.850    4.6867
   26.880    4.8657
   26.910    4.4760
   26.940    4.7709
   26.970    4.5708
   27.000    4.5708
   27.030    4.6130
   27.060    5.1711
   27.090    4.7604
   27.120    4.8131
   27.150    4.4866
   27.180    4.9921
   27.210    4.5498
   27.240    4.6867
   27.270    4.3391
   27.300    4.8341
   27.330    4.1706
   27.360    4.6761
   27.390    4.5392
   27.420    4.5814
   27.450    4.6024
   27.480    4.6972
   27.510    4.4023
   27.540    4.5498
   27.570    4.5392
   27.600    4.6656
   27.630    4.4234
   27.660    4.6024
   27.690    4.2338
   27.720    4.6130
   27.750    4.6761
   27.780    4.4128
   27.810    4.4866
   27.840    4.5708
   27.870    4.6656
   27.900    4.1074
   27.930    4.6445
   27.960    4.4234
   27.990    4.5287
   28.020    4.4866
   28.050    4.5814
   28.080    4.4971
   28.110    4.5919
   28.140    4.6867
   28.170    4.6340
   28.200    4.6972
   28.230    4.5182
   28.260    4.7604
   28.290    4.7604
   28.320    4.7920
   28.350    4.5498
   28.380    4.8025
   28.410    4.4128
   28.440    4.2654
   28.470    4.5076
   28.500    4.4444
   28.530    4.7077
   28.560    4.5603
   28.590    4.5814
   28.620    4.7709
   28.650    4.4444
   28.680    4.6761
   28.710    4.6024
   28.740    4.1917
   28.770    4.2549
   28.800    4.2865
   28.830    4.2233
   28.860    4.0864
   28.890    4.2443
   28.920    4.2233
   28.950    4.3813
   28.980    4.1496
   29.010    4.3707
   29.040    4.4760
   29.070    4.2759
   29.100    4.2970
   29.130    4.0864
   29.160    4.2970
   29.190    4.5919
   29.220    4.5182
   29.250    4.1811
   29.280    4.4971
   29.310    4.1601
   29.340    4.2443
   29.370    4.3391
   29.400    4.4655
   29.430    4.4866
   29.460    4.5814
   29.490    4.2759
   29.520    4.2654
   29.550    4.3813
   29.580    4.4128
   29.610    4.1811
   29.640    4.3707
   29.670    4.4023
   29.700    4.4760
   29.730    4.1285
   29.760    4.5392
   29.790    4.1496
   29.820    4.2338
   29.850    4.2865
   29.880    4.3497
   29.910    4.4339
   29.940    4.0442
   29.970    4.2759
   30.000    4.4023
   30.030    4.2443
   30.060    4.4339
   30.090    4.0021
   30.120    4.0442
   30.150    4.2443
   30.180    4.0758
   30.210    4.3181
   30.240    4.4550
   30.270    4.5392
   30.300    4.1390
   30.330    3.9073
   30.360    4.0758
   30.390    4.2865
   30.420    4.3602
   30.450    4.1601
   30.480    4.2022
   30.510    4.0758
   30.540    3.9494
   30.570    4.4023
   30.600    4.2233
   30.630    4.1285
   30.660    3.7704
   30.690    4.3918
   30.720    4.4760
   30.750    4.1074
   30.780    4.0232
   30.810    4.1706
   30.840    4.0232
   30.870    4.2443
   30.900    4.2865
   30.930    4.2127
   30.960    4.2443
   30.990    4.3181
   31.020    3.6651
   31.050    4.2654
   31.080    4.1917
   31.110    3.9284
   31.140    4.0864
   31.170    3.9916
   31.200    4.1074
   31.230    4.0442
   31.260    3.9600
   31.290    3.7388
   31.320    4.0442
   31.350    4.1917
   31.380    4.5182
   31.410    3.6651
   31.440    4.1285
   31.470    4.2970
   31.500    3.8863
   31.530    4.5498
   31.560    3.9389
   31.590    4.1074
   31.620    3.9179
   31.650    3.9073
   31.680    4.0548
   31.710    4.0758
   31.740    3.9600
   31.770    3.8020
   31.800    3.7915
   31.830    3.8231
   31.860    3.9284
   31.890    3.8757
   31.920    4.1601
   31.950    3.9810
   31.980    3.9494
   32.010    4.0758
   32.040    3.9810
   32.070    4.0864
   32.100    3.8231
   32.130    3.4439
   32.160    4.0758
   32.190    3.7915
   32.220    3.8968
   32.250    3.9600
   32.280    4.0232
   32.310    3.6967
   32.340    3.9179
   32.370    3.9810
   32.400    3.8652
   32.430    3.6967
   32.460    4.0653
   32.490    3.6440
   32.520    3.7493
   32.550    3.9810
   32.580    3.5914
   32.610    3.7072
   32.640    3.7283
   32.670    3.7388
   32.700    4.1601
   32.730    3.8125
   32.760    3.8020
   32.790    4.1390
   32.820    3.6019
   32.850    4.0126
   32.880    3.5808
   32.910    3.5598
   32.940    3.6967
   32.970    3.8441
   33.000    3.8968
   33.030    3.7809
   33.060    3.8020
   33.090    3.2859
   33.120    3.8231
   33.150    3.8441
   33.180    3.8125
   33.210    3.8125
   33.240    3.3281
   33.270    3.7388
   33.300    3.7283
   33.330    3.5282
   33.360    3.6546
   33.390    3.9284
   33.420    3.8020
   33.450    3.4755
   33.480    3.8020
   33.510    3.4439
   33.540    3.5071
   33.570    3.5071
   33.600    3.7704
   33.630    3.7283
   33.660    3.4229
   33.690    3.4229
   33.720    3.5808
   33.750    3.6230
   33.780    3.8441
   33.810    3.4966
   33.840    3.5914
   33.870    3.9389
   33.900    3.3913
   33.930    3.7072
   33.960    3.8125
   33.990    3.8863
   34.020    3.5914
   34.050    3.7915
   34.080    3.6124
   34.110    3.6124
   34.140    3.6019
   34.170    3.5808
   34.200    3.6230
   34.230    3.6651
   34.260    3.5387
   34.290    3.6230
   34.320    3.5914
   34.350    3.4439
   34.380    3.7704
   34.410    3.6546
   34.440    3.4544
   34.470    3.1280
   34.500    3.4123
   34.530    3.7915
   34.560    3.4966
   34.590    3.5387
   34.620    3.6967
   34.650    3.3386
   34.680    3.4439
   34.710    3.3702
   34.740    3.3807
   34.770    3.6756
   34.800    3.4966
   34.830    3.3913
   34.860    3.4755
   34.890    3.3597
   34.920    3.6019
   34.950    3.2227
   34.980    3.5387
   35.010    3.4334
   35.040    3.4544
   35.070    3.4650
   35.100    3.5598
   35.130    3.5703
   35.160    3.5176
   35.190    3.4018
   35.220    3.5176
   35.250    3.1806
   35.280    3.2754
   35.310    3.3386
   35.340    3.2754
   35.370    3.1596
   35.400    3.3070
   35.430    3.3597
   35.460    3.5282
   35.490    3.2333
   35.520    3.3491
   35.550    3.4650
   35.580    3.7072
   35.610    3.2754
   35.640    3.5914
   35.670    3.2227
   35.700    3.4229
   35.730    3.3070
   35.760    3.1806
   35.790    3.1385
   35.820    3.3175
   35.850    3.1069
   35.880    3.1912
   35.910    2.9279
   35.940    3.3913
   35.970    3.3070
   36.000    3.2122
   36.030    3.5703
   36.060    3.3491
   36.090    3.3913
   36.120    3.0648
   36.150    2.9279
   36.180    3.5282
   36.210    3.1174
   36.240    3.2649
   36.270    3.2543
   36.300    3.3175
   36.330    3.2859
   36.360    3.4439
   36.390    3.3913
   36.420    3.2543
   36.450    3.4229
   36.480    3.0542
   36.510    3.0753
   36.540    2.8963
   36.570    3.2438
   36.600    3.0753
   36.630    3.5808
   36.660    3.2754
   36.690    2.8857
   36.720    3.4018
   36.750    3.2227
   36.780    3.2965
   36.810    3.2122
   36.840    3.1596
   36.870    3.2859
   36.900    3.2438
   36.930    3.1490
   36.960    3.0858
   36.990    3.1806
   37.020    3.2227
   37.050    3.0542
   37.080    3.1280
   37.110    3.3281
   37.140    3.2017
   37.170    3.1806
   37.200    3.2333
   37.230    3.0226
   37.260    3.1806
   37.290    3.1174
   37.320    3.1912
   37.350    3.2965
   37.380    3.0964
   37.410    3.0753
   37.440    3.0858
   37.470    3.2438
   37.500    2.9910
   37.530    3.0648
   37.560    3.1596
   37.590    3.1596
   37.620    3.3491
   37.650    3.3597
   37.680    3.0964
   37.710    3.3070
   37.740    3.0648
   37.770    3.0753
   37.800    2.8752
   37.830    3.1385
   37.860    3.2017
   37.890    3.1174
   37.920    3.2859
   37.950    3.0858
   37.980    3.1701
   38.010    2.7067
   38.040    2.7804
   38.070    3.1912
   38.100    3.0226
   38.130    3.2227
   38.160    2.9595
   38.190    2.9173
   38.220    3.0016
   38.250    2.9279
   38.280    3.0332
   38.310    3.2649
   38.340    2.6962
   38.370    3.0542
   38.400    3.1069
   38.430    3.0542
   38.460    3.3386
   38.490    2.7699
   38.520    2.7909
   38.550    2.9279
   38.580    3.1806
   38.610    3.2859
   38.640    3.0648
   38.670    2.8225
   38.700    3.2227
   38.730    2.9279
   38.760    3.1385
   38.790    3.0648
   38.820    3.0542
   38.850    3.2017
   38.880    3.1385
   38.910    2.8436
   38.940    3.0332
   38.970    3.3281
   39.000    3.0121
   39.030    3.0753
   39.060    3.0121
   39.090    2.9805
   39.120    3.1596
   39.150    3.0226
   39.180    3.1385
   39.210    2.8963
   39.240    2.9595
   39.270    2.9805
   39.300    3.2543
   39.330    3.0437
   39.360    2.8436
   39.390    3.3175
   39.420    3.1174
   39.450    3.1069
   39.480    3.1806
   39.510    2.9068
   39.540    3.4650
   39.570    2.9279
   39.600    2.9489
   39.630    2.9595
   39.660    3.1385
   39.690    3.1806
   39.720    2.9700
   39.750    2.8963
   39.780    3.0437
   39.810    3.2649
   39.840    2.9279
   39.870    2.9700
   39.900    2.9595
   39.930    2.9068
   39.960    3.3070
   39.990    2.9068