File: data/PXRD/PXRD_KE-162_Cu-Ka1_capillary-1mm_5s-deg.xyd
    1.500   29.8999
    1.530   29.0153
    1.560   28.7730
    1.590   27.4566
    1.620   26.2138
    1.650   24.5708
    1.680   24.3391
    1.710   23.3491
    1.740   23.1490
    1.770   23.0437
    1.800   21.3060
    1.830   21.9379
    1.860   20.5055
    1.890   20.7478
    1.920   19.1575
    1.950   19.6103
    1.980   19.6525
    2.010   18.3570
    2.040   18.8731
    2.070   18.1359
    2.100   17.6725
    2.130   17.5987
    2.160   17.1037
    2.190   16.8088
    2.220   16.0506
    2.250   17.3144
    2.280   15.3660
    2.310   15.8189
    2.340   15.5661
    2.370   15.6609
    2.400   14.6919
    2.430   16.2401
    2.460   15.2080
    2.490   15.2185
    2.520   15.7451
    2.550   15.5450
    2.580   15.8083
    2.610   15.6293
    2.640   15.7030
    2.670   15.9347
    2.700   16.1348
    2.730   15.5345
    2.760   15.9452
    2.790   16.8404
    2.820   16.7562
    2.850   16.7246
    2.880   17.0511
    2.910   17.0511
    2.940   17.7778
    2.970   18.0832
    3.000   18.7151
    3.030   19.0732
    3.060   19.5050
    3.090   20.4739
    3.120   21.3270
    3.150   22.8752
    3.180   23.7704
    3.210   24.3602
    3.240   25.9189
    3.270   28.3518
    3.300   30.5424
    3.330   32.8805
    3.360   34.6919
    3.390   38.3886
    3.420   42.7909
    3.450   43.7599
    3.480   43.2965
    3.510   39.5050
    3.540   32.6698
    3.570   28.2675
    3.600   25.6767
    3.630   24.8341
    3.660   24.7920
    3.690   24.5708
    3.720   25.8557
    3.750   28.2991
    3.780   30.6477
    3.810   34.2285
    3.840   40.5161
    3.870   43.8441
    3.900   40.3581
    3.930   27.4355
    3.960   21.3902
    3.990   21.7378
    4.020   20.3265
    4.050   20.0211
    4.080   19.6840
    4.110   18.2622
    4.140   17.7778
    4.170   16.5034
    4.200   15.1659
    4.230   14.1969
    4.260   13.5545
    4.290   12.4908
    4.320   11.7641
    4.350   11.5113
    4.380   10.6688
    4.410   10.7636
    4.440   10.2580
    4.470    9.8999
    4.500    9.3312
    4.530    8.9100
    4.560    8.5624
    4.590    8.9205
    4.620    8.6467
    4.650    9.0890
    4.680    8.3096
    4.710    8.4781
    4.740    8.3728
    4.770    8.7941
    4.800    8.0358
    4.830    8.7309
    4.860    7.8041
    4.890    8.5835
    4.920    8.4255
    4.950    7.7304
    4.980    8.5940
    5.010    8.0885
    5.040    8.0779
    5.070    8.4255
    5.100    7.8884
    5.130    8.4887
    5.160    7.9937
    5.190    8.6045
    5.220    9.1732
    5.250    8.5519
    5.280    8.8046
    5.310    8.7204
    5.340    9.7630
    5.370    9.4576
    5.400   10.3844
    5.430   11.0269
    5.460   13.1543
    5.490   15.1553
    5.520   12.7646
    5.550    9.0258
    5.580    8.3412
    5.610    7.5935
    5.640    7.5197
    5.670    7.4882
    5.700    7.5303
    5.730    7.4250
    5.760    7.4776
    5.790    6.9405
    5.820    6.9826
    5.850    7.5935
    5.880    7.6988
    5.910    7.2143
    5.940    7.6988
    5.970    7.4144
    6.000    7.6040
    6.030    7.0563
    6.060    7.3196
    6.090    7.5829
    6.120    7.5829
    6.150    7.5619
    6.180    7.2038
    6.210    7.1090
    6.240    7.3091
    6.270    7.2249
    6.300    7.9726
    6.330    7.6356
    6.360    7.4039
    6.390    7.3196
    6.420    7.9831
    6.450    7.5935
    6.480    8.0990
    6.510    8.0042
    6.540    7.7409
    6.570    8.2254
    6.600    8.3939
    6.630    8.6677
    6.660    9.1627
    6.690    9.2259
    6.720    9.9526
    6.750    9.8262
    6.780    9.4681
    6.810    8.6888
    6.840    8.9415
    6.870    9.4681
    6.900   10.4265
    6.930   10.2896
    6.960   10.5740
    6.990   10.2264
    7.020   10.0474
    7.050    8.5519
    7.080    8.7098
    7.110    8.4992
    7.140    7.8778
    7.170    7.7409
    7.200    7.7304
    7.230    7.8778
    7.260    7.9937
    7.290    7.7725
    7.320    7.8884
    7.350    7.8778
    7.380    7.6461
    7.410    7.7620
    7.440    7.8252
    7.470    7.9726
    7.500    7.9621
    7.530    8.0253
    7.560    7.9831
    7.590    8.1517
    7.620    8.0463
    7.650    8.0569
    7.680    8.6677
    7.710    8.7941
    7.740    9.1943
    7.770    9.1627
    7.800    9.4260
    7.830    9.2259
    7.860    8.3728
    7.890    8.5940
    7.920    8.3412
    7.950    8.3096
    7.980    8.4887
    8.010    8.1833
    8.040    8.6045
    8.070    8.2991
    8.100    8.0147
    8.130    8.5203
    8.160    8.3518
    8.190    8.6677
    8.220    8.5624
    8.250    8.2464
    8.280    8.6677
    8.310    7.8884
    8.340    7.9410
    8.370    8.4255
    8.400    8.3834
    8.430    8.0463
    8.460    7.7725
    8.490    8.6888
    8.520    7.5935
    8.550    7.8357
    8.580    7.7514
    8.610    7.6777
    8.640    7.8884
    8.670    8.2359
    8.700    8.2991
    8.730    8.0253
    8.760    7.4987
    8.790    7.6988
    8.820    7.7199
    8.850    7.6145
    8.880    7.5303
    8.910    7.9516
    8.940    8.1622
    8.970    7.3407
    9.000    7.5408
    9.030    7.6777
    9.060    7.5619
    9.090    7.7620
    9.120    7.7725
    9.150    7.5935
    9.180    7.8462
    9.210    7.6356
    9.240    7.5935
    9.270    7.3828
    9.300    7.4882
    9.330    7.8462
    9.360    7.5408
    9.390    7.7725
    9.420    8.4781
    9.450    8.3728
    9.480    8.7520
    9.510    9.4471
    9.540    9.6893
    9.570   10.0579
    9.600    8.4150
    9.630    7.9305
    9.660    7.4671
    9.690    7.6145
    9.720    7.1722
    9.750    7.8989
    9.780    7.4250
    9.810    7.5197
    9.840    7.1511
    9.870    7.2143
    9.900    7.6567
    9.930    7.4460
    9.960    7.9094
    9.990    7.3302
   10.020    7.2143
   10.050    7.6777
   10.080    7.3407
   10.110    7.4144
   10.140    7.4460
   10.170    8.0990
   10.200    7.8673
   10.230    7.8778
   10.260    7.7620
   10.290    8.1833
   10.320    8.5413
   10.350    8.4571
   10.380    7.7409
   10.410    8.0147
   10.440    7.9200
   10.470    7.7620
   10.500    7.2143
   10.530    7.7725
   10.560    7.4671
   10.590    7.7093
   10.620    7.3302
   10.650    6.8984
   10.680    7.3828
   10.710    6.9194
   10.740    7.0458
   10.770    7.8673
   10.800    7.1827
   10.830    7.3618
   10.860    7.6040
   10.890    7.2775
   10.920    7.0669
   10.950    7.8146
   10.980    7.8041
   11.010    8.0674
   11.040    7.8989
   11.070    7.9726
   11.100    7.3723
   11.130    7.6777
   11.160    7.8252
   11.190    7.4144
   11.220    7.2775
   11.250    7.5197
   11.280    7.5829
   11.310    7.4039
   11.340    7.1617
   11.370    7.4250
   11.400    7.3723
   11.430    7.2565
   11.460    7.2565
   11.490    6.8773
   11.520    7.3091
   11.550    7.6040
   11.580    7.1511
   11.610    7.2459
   11.640    7.2775
   11.670    7.7304
   11.700    8.2675
   11.730    7.7620
   11.760    7.9305
   11.790    7.4250
   11.820    6.9721
   11.850    6.7299
   11.880    7.5724
   11.910    7.0774
   11.940    7.3302
   11.970    7.2565
   12.000    7.3302
   12.030    7.0142
   12.060    7.4250
   12.090    6.9826
   12.120    7.0879
   12.150    7.3512
   12.180    7.2670
   12.210    7.4039
   12.240    7.4355
   12.270    7.1933
   12.300    7.2775
   12.330    7.2354
   12.360    7.5829
   12.390    7.0248
   12.420    6.7720
   12.450    6.8562
   12.480    7.2143
   12.510    7.3196
   12.540    7.3091
   12.570    7.2459
   12.600    7.1722
   12.630    7.3934
   12.660    7.2986
   12.690    6.6877
   12.720    7.2670
   12.750    7.1933
   12.780    7.1301
   12.810    7.5619
   12.840    7.2038
   12.870    7.2354
   12.900    7.5092
   12.930    7.8041
   12.960    7.5092
   12.990    7.4460
   13.020    7.4250
   13.050    6.8036
   13.080    7.1090
   13.110    7.2565
   13.140    7.2249
   13.170    7.5619
   13.200    6.9300
   13.230    7.2143
   13.260    7.0669
   13.290    7.2986
   13.320    7.4355
   13.350    6.7299
   13.380    6.7825
   13.410    6.8984
   13.440    7.0669
   13.470    7.1301
   13.500    7.2565
   13.530    6.8668
   13.560    6.7930
   13.590    7.1090
   13.620    7.1722
   13.650    6.6140
   13.680    6.7509
   13.710    7.1511
   13.740    6.8562
   13.770    6.7404
   13.800    7.4355
   13.830    6.7509
   13.860    7.1195
   13.890    6.9826
   13.920    6.9510
   13.950    7.2143
   13.980    6.8878
   14.010    7.2249
   14.040    7.5408
   14.070    7.4566
   14.100    7.3091
   14.130    7.3407
   14.160    6.9300
   14.190    6.6456
   14.220    7.2670
   14.250    6.8352
   14.280    6.9194
   14.310    6.8036
   14.340    7.0353
   14.370    6.6456
   14.400    6.5403
   14.430    7.0774
   14.460    7.1406
   14.490    6.6667
   14.520    6.5719
   14.550    7.3723
   14.580    6.9932
   14.610    6.6351
   14.640    6.8773
   14.670    7.0985
   14.700    7.1090
   14.730    7.3512
   14.760    6.9089
   14.790    6.5298
   14.820    6.8878
   14.850    7.0563
   14.880    6.9932
   14.910    7.0142
   14.940    7.2986
   14.970    6.6351
   15.000    6.9300
   15.030    6.6772
   15.060    6.7404
   15.090    6.7088
   15.120    6.7615
   15.150    7.1090
   15.180    7.2249
   15.210    6.3928
   15.240    7.1195
   15.270    6.9405
   15.300    7.1827
   15.330    6.5613
   15.360    7.1933
   15.390    6.9932
   15.420    6.9405
   15.450    6.8352
   15.480    6.9510
   15.510    6.9721
   15.540    7.0563
   15.570    6.4876
   15.600    7.0563
   15.630    6.7193
   15.660    6.9510
   15.690    7.1301
   15.720    7.1722
   15.750    7.0563
   15.780    6.6877
   15.810    7.0985
   15.840    7.0458
   15.870    7.2249
   15.900    7.1722
   15.930    7.6145
   15.960    7.4776
   15.990    7.4355
   16.020    7.7409
   16.050    7.3618
   16.080    7.9831
   16.110    7.8462
   16.140    8.2886
   16.170    7.3302
   16.200    7.5513
   16.230    7.4566
   16.260    7.3302
   16.290    7.1827
   16.320    7.3512
   16.350    7.3723
   16.380    6.7930
   16.410    7.1933
   16.440    7.3302
   16.470    7.1406
   16.500    6.8773
   16.530    6.8984
   16.560    7.0353
   16.590    6.8457
   16.620    7.0248
   16.650    7.2249
   16.680    6.9932
   16.710    7.0563
   16.740    6.9932
   16.770    7.0458
   16.800    6.6983
   16.830    7.0879
   16.860    6.8457
   16.890    7.1511
   16.920    7.1406
   16.950    7.4460
   16.980    7.0879
   17.010    6.9721
   17.040    6.9826
   17.070    7.5197
   17.100    7.1933
   17.130    7.1301
   17.160    7.0142
   17.190    6.9932
   17.220    7.0563
   17.250    6.9932
   17.280    6.4666
   17.310    7.1722
   17.340    7.0985
   17.370    6.7299
   17.400    7.1722
   17.430    7.2459
   17.460    6.9721
   17.490    6.6140
   17.520    6.8668
   17.550    7.1722
   17.580    6.6456
   17.610    7.0774
   17.640    6.9194
   17.670    6.5929
   17.700    6.8773
   17.730    6.9194
   17.760    7.1195
   17.790    7.0037
   17.820    7.0353
   17.850    6.9721
   17.880    7.1090
   17.910    7.0669
   17.940    7.1722
   17.970    6.7825
   18.000    6.8562
   18.030    7.0563
   18.060    6.7299
   18.090    7.1090
   18.120    6.8773
   18.150    7.0985
   18.180    6.7404
   18.210    6.8773
   18.240    6.6983
   18.270    6.9510
   18.300    6.8141
   18.330    6.8773
   18.360    6.2454
   18.390    6.7404
   18.420    6.7299
   18.450    7.0985
   18.480    6.5508
   18.510    6.8141
   18.540    6.7930
   18.570    7.4355
   18.600    6.7193
   18.630    7.2038
   18.660    6.8141
   18.690    7.2354
   18.720    7.0142
   18.750    6.8878
   18.780    7.1195
   18.810    7.0669
   18.840    6.7825
   18.870    7.2038
   18.900    7.2249
   18.930    6.9616
   18.960    7.4671
   18.990    7.4671
   19.020    7.5724
   19.050    7.5513
   19.080    7.1301
   19.110    6.8457
   19.140    7.1301
   19.170    6.9089
   19.200    7.0248
   19.230    7.2038
   19.260    6.8668
   19.290    6.7509
   19.320    7.2143
   19.350    6.7825
   19.380    7.3512
   19.410    7.1722
   19.440    6.6667
   19.470    7.4250
   19.500    6.8457
   19.530    6.7299
   19.560    6.7825
   19.590    6.9932
   19.620    6.9932
   19.650    7.1933
   19.680    6.7720
   19.710    6.9826
   19.740    7.2880
   19.770    6.9510
   19.800    6.9405
   19.830    6.8036
   19.860    7.0879
   19.890    7.1195
   19.920    7.0563
   19.950    7.2459
   19.980    7.7936
   20.010    7.1406
   20.040    7.0142
   20.070    7.1090
   20.100    7.0248
   20.130    7.1090
   20.160    6.6983
   20.190    6.5719
   20.220    7.2775
   20.250    7.0879
   20.280    7.0774
   20.310    7.0563
   20.340    7.6251
   20.370    7.1195
   20.400    7.2038
   20.430    7.4776
   20.460    6.9194
   20.490    7.2459
   20.520    7.0879
   20.550    6.9300
   20.580    7.2880
   20.610    7.3196
   20.640    6.9405
   20.670    7.2880
   20.700    7.5935
   20.730    7.0669
   20.760    7.0669
   20.790    7.1406
   20.820    7.0037
   20.850    7.6777
   20.880    7.6251
   20.910    6.8878
   20.940    7.1511
   20.970    6.9932
   21.000    6.8457
   21.030    7.2459
   21.060    7.4776
   21.090    7.3407
   21.120    7.0037
   21.150    7.1827
   21.180    6.6561
   21.210    7.0774
   21.240    7.2459
   21.270    7.0563
   21.300    6.8036
   21.330    7.5303
   21.360    7.1301
   21.390    7.4566
   21.420    7.2249
   21.450    7.0142
   21.480    7.3512
   21.510    7.2670
   21.540    7.4566
   21.570    7.2038
   21.600    7.2143
   21.630    6.8246
   21.660    6.7720
   21.690    7.0353
   21.720    7.3828
   21.750    7.5303
   21.780    7.1301
   21.810    7.1090
   21.840    7.3512
   21.870    7.1511
   21.900    6.9721
   21.930    6.9932
   21.960    7.3091
   21.990    7.1090
   22.020    7.0248
   22.050    7.3618
   22.080    7.0458
   22.110    6.8773
   22.140    6.9300
   22.170    7.3512
   22.200    6.8773
   22.230    6.9826
   22.260    7.3828
   22.290    7.3828
   22.320    6.8562
   22.350    6.9194
   22.380    7.0774
   22.410    6.6351
   22.440    7.2880
   22.470    7.3196
   22.500    7.4987
   22.530    7.0248
   22.560    8.0358
   22.590    7.0458
   22.620    7.1827
   22.650    7.1933
   22.680    6.9616
   22.710    7.0142
   22.740    7.1617
   22.770    7.0669
   22.800    7.2354
   22.830    7.4039
   22.860    7.0669
   22.890    7.5513
   22.920    7.9410
   22.950    7.2459
   22.980    7.3828
   23.010    7.0879
   23.040    7.5829
   23.070    7.4250
   23.100    7.1090
   23.130    7.0563
   23.160    7.4039
   23.190    7.0669
   23.220    7.4776
   23.250    7.4987
   23.280    6.9721
   23.310    7.2038
   23.340    7.5829
   23.370    7.1933
   23.400    7.1617
   23.430    7.1617
   23.460    7.1090
   23.490    7.4566
   23.520    7.0142
   23.550    7.1617
   23.580    6.5613
   23.610    7.2038
   23.640    7.6461
   23.670    7.1933
   23.700    6.9300
   23.730    7.0142
   23.760    7.0563
   23.790    6.8457
   23.820    7.3618
   23.850    6.8668
   23.880    7.0142
   23.910    6.8878
   23.940    7.2670
   23.970    7.2249
   24.000    7.1827
   24.030    6.9510
   24.060    7.1722
   24.090    7.4460
   24.120    7.0563
   24.150    7.3196
   24.180    6.8246
   24.210    7.0142
   24.240    7.1511
   24.270    6.7193
   24.300    6.8457
   24.330    6.9089
   24.360    6.7088
   24.390    6.6351
   24.420    6.9932
   24.450    7.2670
   24.480    6.6772
   24.510    6.6772
   24.540    6.9300
   24.570    6.9826
   24.600    7.1511
   24.630    6.9616
   24.660    6.9932
   24.690    6.8562
   24.720    7.1090
   24.750    6.8246
   24.780    6.9300
   24.810    7.3196
   24.840    6.9616
   24.870    7.4460
   24.900    7.1090
   24.930    6.8562
   24.960    6.6877
   24.990    7.0879
   25.020    6.8036
   25.050    6.8246
   25.080    7.0669
   25.110    7.1195
   25.140    6.8036
   25.170    7.1090
   25.200    7.0037
   25.230    7.0563
   25.260    6.8036
   25.290    7.0248
   25.320    7.4460
   25.350    6.7193
   25.380    6.7720
   25.410    6.8246
   25.440    6.8141
   25.470    7.1722
   25.500    6.9510
   25.530    6.9826
   25.560    6.4982
   25.590    6.9194
   25.620    6.0874
   25.650    6.6877
   25.680    6.7615
   25.710    7.0458
   25.740    6.5508
   25.770    6.6140
   25.800    7.1722
   25.830    6.6667
   25.860    6.8773
   25.890    6.9510
   25.920    7.0353
   25.950    6.7825
   25.980    6.8457
   26.010    6.7825
   26.040    6.8352
   26.070    6.6561
   26.100    6.3086
   26.130    6.7720
   26.160    6.7299
   26.190    6.9721
   26.220    6.4455
   26.250    6.4244
   26.280    6.6456
   26.310    6.5403
   26.340    6.8773
   26.370    6.2243
   26.400    6.7509
   26.430    6.6561
   26.460    6.7299
   26.490    6.7615
   26.520    6.5403
   26.550    6.7720
   26.580    6.0348
   26.610    6.8562
   26.640    6.8036
   26.670    6.4034
   26.700    6.6772
   26.730    6.6772
   26.760    6.6140
   26.790    6.3823
   26.820    6.7299
   26.850    6.6140
   26.880    6.6351
   26.910    6.6561
   26.940    6.5929
   26.970    6.9300
   27.000    7.2670
   27.030    6.3296
   27.060    7.0669
   27.090    6.3928
   27.120    6.3928
   27.150    6.5192
   27.180    6.8036
   27.210    6.0558
   27.240    6.6245
   27.270    6.3191
   27.300    6.2243
   27.330    6.7299
   27.360    6.5613
   27.390    6.5298
   27.420    6.5824
   27.450    7.0669
   27.480    6.5508
   27.510    6.3928
   27.540    6.2665
   27.570    6.9405
   27.600    6.5192
   27.630    6.5613
   27.660    6.5929
   27.690    6.7825
   27.720    6.6351
   27.750    6.3928
   27.780    7.1827
   27.810    6.6983
   27.840    6.5929
   27.870    6.2770
   27.900    6.4771
   27.930    6.8246
   27.960    6.7825
   27.990    7.1933
   28.020    6.4876
   28.050    7.1301
   28.080    6.8141
   28.110    7.1722
   28.140    6.8562
   28.170    6.6140
   28.200    6.6456
   28.230    6.8141
   28.260    6.6456
   28.290    6.7825
   28.320    6.2349
   28.350    6.6772
   28.380    6.6245
   28.410    6.2981
   28.440    6.7825
   28.470    6.0032
   28.500    6.4666
   28.530    6.7930
   28.560    6.2770
   28.590    6.5824
   28.620    6.4139
   28.650    6.7193
   28.680    6.3086
   28.710    6.4455
   28.740    6.1085
   28.770    6.7299
   28.800    6.3296
   28.830    6.8878
   28.860    6.4244
   28.890    6.2981
   28.920    6.1927
   28.950    6.6245
   28.980    6.7615
   29.010    6.8141
   29.040    6.7404
   29.070    6.3612
   29.100    6.7825
   29.130    6.6772
   29.160    6.5824
   29.190    6.5192
   29.220    6.3823
   29.250    6.3402
   29.280    6.5824
   29.310    6.3402
   29.340    6.2665
   29.370    6.2138
   29.400    6.6245
   29.430    6.2981
   29.460    6.2454
   29.490    6.1927
   29.520    6.6351
   29.550    6.4139
   29.580    6.2770
   29.610    6.1717
   29.640    6.2770
   29.670    6.4350
   29.700    6.6351
   29.730    6.4876
   29.760    6.1927
   29.790    6.1401
   29.820    6.6772
   29.850    6.3507
   29.880    6.1401
   29.910    6.4350
   29.940    5.9084
   29.970    6.7193
   30.000    6.2243
   30.030    6.2875
   30.060    6.1085
   30.090    6.6772
   30.120    6.0769
   30.150    6.4771
   30.180    6.5298
   30.210    6.3507
   30.240    6.1190
   30.270    6.3191
   30.300    5.8241
   30.330    6.0137
   30.360    6.3823
   30.390    6.4876
   30.420    6.5192
   30.450    5.9716
   30.480    6.3718
   30.510    6.1611
   30.540    6.2875
   30.570    6.2875
   30.600    6.2559
   30.630    6.2349
   30.660    6.4455
   30.690    6.3402
   30.720    6.4455
   30.750    6.5824
   30.780    6.0032
   30.810    6.3191
   30.840    5.9821
   30.870    6.0453
   30.900    6.1611
   30.930    6.5824
   30.960    6.2349
   30.990    6.2349
   31.020    6.7088
   31.050    6.3718
   31.080    6.2559
   31.110    6.0348
   31.140    5.7925
   31.170    6.3718
   31.200    6.4666
   31.230    6.5298
   31.260    6.1611
   31.290    6.3507
   31.320    6.0979
   31.350    6.2243
   31.380    5.9821
   31.410    6.5403
   31.440    6.2349
   31.470    6.2454
   31.500    6.5929
   31.530    6.3296
   31.560    6.0348
   31.590    6.4139
   31.620    6.0348
   31.650    6.5719
   31.680    6.8246
   31.710    6.5824
   31.740    6.1611
   31.770    6.3823
   31.800    6.9405
   31.830    6.0874
   31.860    6.3928
   31.890    6.6140
   31.920    6.8036
   31.950    6.4982
   31.980    6.4666
   32.010    7.1722
   32.040    6.9194
   32.070    7.1195
   32.100    7.5724
   32.130    6.9826
   32.160    6.8352
   32.190    6.8141
   32.220    6.2454
   32.250    6.6667
   32.280    6.3823
   32.310    6.5613
   32.340    6.1506
   32.370    5.8978
   32.400    6.3928
   32.430    6.1611
   32.460    6.5508
   32.490    6.3191
   32.520    5.9716
   32.550    6.4034
   32.580    5.8136
   32.610    5.9926
   32.640    5.7083
   32.670    5.7293
   32.700    5.6556
   32.730    6.4455
   32.760    6.1190
   32.790    5.8873
   32.820    6.3507
   32.850    6.2770
   32.880    6.0032
   32.910    6.4350
   32.940    6.0874
   32.970    5.9294
   33.000    6.0242
   33.030    5.8662
   33.060    6.1611
   33.090    6.0769
   33.120    6.3928
   33.150    5.6872
   33.180    6.0769
   33.210    5.7609
   33.240    6.0453
   33.270    5.7188
   33.300    6.0242
   33.330    5.7083
   33.360    5.9400
   33.390    5.7820
   33.420    6.0979
   33.450    5.9084
   33.480    6.0874
   33.510    6.2665
   33.540    5.8662
   33.570    6.0453
   33.600    5.5714
   33.630    5.7083
   33.660    5.9926
   33.690    6.3718
   33.720    5.5924
   33.750    6.0453
   33.780    6.0137
   33.810    6.3191
   33.840    6.5719
   33.870    6.1085
   33.900    5.6661
   33.930    6.4034
   33.960    5.9610
   33.990    6.1717
   34.020    5.8978
   34.050    5.7820
   34.080    5.5819
   34.110    5.6767
   34.140    5.6977
   34.170    6.0032
   34.200    6.0032
   34.230    5.9926
   34.260    5.5398
   34.290    5.6029
   34.320    5.8347
   34.350    5.8452
   34.380    5.8662
   34.410    5.7399
   34.440    5.9400
   34.470    5.5503
   34.500    5.7609
   34.530    5.8978
   34.560    5.8873
   34.590    5.8662
   34.620    5.7188
   34.650    5.5819
   34.680    5.4239
   34.710    5.8136
   34.740    5.9294
   34.770    5.6135
   34.800    5.5503
   34.830    5.7925
   34.860    5.4344
   34.890    5.6240
   34.920    5.5398
   34.950    6.1822
   34.980    5.7399
   35.010    5.6135
   35.040    5.9400
   35.070    5.8768
   35.100    5.3712
   35.130    5.6977
   35.160    5.6661
   35.190    5.8452
   35.220    5.6135
   35.250    5.6135
   35.280    5.8031
   35.310    5.5924
   35.340    5.9084
   35.370    5.9294
   35.400    5.8031
   35.430    5.4976
   35.460    5.0974
   35.490    5.7083
   35.520    5.4450
   35.550    5.5714
   35.580    5.4976
   35.610    5.4766
   35.640    5.5924
   35.670    5.5187
   35.700    5.4871
   35.730    5.6451
   35.760    5.5714
   35.790    5.9294
   35.820    5.3081
   35.850    5.6661
   35.880    5.6135
   35.910    5.2554
   35.940    5.4976
   35.970    5.4766
   36.000    5.3186
   36.030    5.7504
   36.060    5.6135
   36.090    5.7504
   36.120    5.9189
   36.150    5.5292
   36.180    5.4555
   36.210    5.6240
   36.240    5.8241
   36.270    5.5608
   36.300    5.7188
   36.330    5.4976
   36.360    5.6029
   36.390    5.4555
   36.420    5.6345
   36.450    5.6135
   36.480    5.5082
   36.510    5.5398
   36.540    5.7083
   36.570    5.6556
   36.600    5.5819
   36.630    5.4766
   36.660    5.5187
   36.690    5.6556
   36.720    5.5292
   36.750    5.5398
   36.780    5.7609
   36.810    5.4660
   36.840    5.6345
   36.870    5.8557
   36.900    6.0032
   36.930    5.5819
   36.960    5.5714
   36.990    5.2449
   37.020    5.6240
   37.050    5.7609
   37.080    5.7609
   37.110    5.6451
   37.140    5.6029
   37.170    5.4660
   37.200    5.4134
   37.230    5.5187
   37.260    5.7188
   37.290    5.9926
   37.320    5.7820
   37.350    5.5924
   37.380    5.4134
   37.410    5.6872
   37.440    5.5398
   37.470    5.5819
   37.500    5.4344
   37.530    5.2975
   37.560    5.6135
   37.590    5.2765
   37.620    5.7925
   37.650    5.6872
   37.680    5.5608
   37.710    5.2554
   37.740    5.6240
   37.770    5.5924
   37.800    5.5819
   37.830    5.9400
   37.860    5.6345
   37.890    5.3502
   37.920    5.7609
   37.950    5.3186
   37.980    5.8978
   38.010    5.3818
   38.040    5.3502
   38.070    5.3818
   38.100    5.4450
   38.130    5.6556
   38.160    5.4239
   38.190    5.6240
   38.220    6.0137
   38.250    5.6135
   38.280    5.6345
   38.310    5.5503
   38.340    5.4871
   38.370    5.3607
   38.400    5.4555
   38.430    5.5924
   38.460    5.4134
   38.490    5.7609
   38.520    6.1822
   38.550    5.7399
   38.580    5.7609
   38.610    5.3291
   38.640    6.0558
   38.670    6.0348
   38.700    5.4976
   38.730    5.4976
   38.760    5.6977
   38.790    5.6767
   38.820    5.8136
   38.850    5.8557
   38.880    5.8557
   38.910    5.7925
   38.940    6.3823
   38.970    5.6135
   39.000    5.6977
   39.030    5.9400
   39.060    5.9189
   39.090    6.3507
   39.120    5.6767
   39.150    5.8873
   39.180    5.8557
   39.210    6.1190
   39.240    5.9189
   39.270    5.9189
   39.300    5.6135
   39.330    5.5924
   39.360    5.8557
   39.390    5.8031
   39.420    6.0137
   39.450    5.7925
   39.480    5.9821
   39.510    5.4239
   39.540    6.0242
   39.570    5.4766
   39.600    5.3081
   39.630    5.3186
   39.660    5.8873
   39.690    5.3712
   39.720    5.4239
   39.750    5.5082
   39.780    5.3818
   39.810    5.5398
   39.840    5.6135
   39.870    5.4871
   39.900    5.5503
   39.930    5.6345
   39.960    5.3397
   39.990    5.6451