File: data/PXRD/PXRD_KE-150_Cu-Ka1_capillary-1mm_5s-deg.xyd
    1.500   10.9321
    1.530   10.5740
    1.560   10.4265
    1.590   10.4687
    1.620   10.4687
    1.650   10.0263
    1.680    9.2154
    1.710    9.2786
    1.740    9.2680
    1.770    9.0363
    1.800    8.3834
    1.830    8.5940
    1.860    8.7520
    1.890    7.9621
    1.920    8.0463
    1.950    7.7620
    1.980    8.3518
    2.010    7.7409
    2.040    7.7304
    2.070    7.4671
    2.100    7.4355
    2.130    7.2565
    2.160    7.2143
    2.190    7.1090
    2.220    7.0774
    2.250    6.6877
    2.280    6.8457
    2.310    6.6140
    2.340    6.7088
    2.370    6.6877
    2.400    6.5719
    2.430    6.8878
    2.460    6.4876
    2.490    6.5929
    2.520    6.5508
    2.550    6.4982
    2.580    6.2138
    2.610    6.2243
    2.640    6.3191
    2.670    6.4350
    2.700    6.3402
    2.730    6.1822
    2.760    6.6983
    2.790    6.3296
    2.820    6.0558
    2.850    6.2454
    2.880    5.8347
    2.910    5.8347
    2.940    6.0874
    2.970    5.5503
    3.000    5.9821
    3.030    5.9926
    3.060    6.0137
    3.090    6.2559
    3.120    5.9505
    3.150    6.0453
    3.180    5.9821
    3.210    5.6451
    3.240    5.8557
    3.270    5.7083
    3.300    5.4239
    3.330    5.9294
    3.360    6.2875
    3.390    5.6451
    3.420    6.3612
    3.450    5.7820
    3.480    5.6135
    3.510    6.1190
    3.540    5.9505
    3.570    5.7083
    3.600    5.9926
    3.630    6.0242
    3.660    5.8662
    3.690    5.9610
    3.720    6.0664
    3.750    5.9294
    3.780    6.0348
    3.810    5.7293
    3.840    6.1085
    3.870    5.4239
    3.900    5.7820
    3.930    5.7188
    3.960    5.4871
    3.990    5.7925
    4.020    6.1506
    4.050    5.8768
    4.080    6.0664
    4.110    5.9084
    4.140    5.6556
    4.170    5.6977
    4.200    5.7925
    4.230    5.8347
    4.260    5.9716
    4.290    5.9189
    4.320    5.9189
    4.350    6.0032
    4.380    5.8662
    4.410    5.5398
    4.440    5.9400
    4.470    5.7188
    4.500    5.8662
    4.530    5.0764
    4.560    5.8347
    4.590    5.6661
    4.620    6.0558
    4.650    5.7504
    4.680    5.7293
    4.710    5.9400
    4.740    5.8662
    4.770    5.7083
    4.800    5.8347
    4.830    5.5398
    4.860    5.7399
    4.890    6.0242
    4.920    5.9400
    4.950    6.1401
    4.980    5.5187
    5.010    5.8768
    5.040    5.8136
    5.070    5.8978
    5.100    5.8873
    5.130    5.7820
    5.160    6.1506
    5.190    5.9294
    5.220    6.1822
    5.250    5.2238
    5.280    6.0137
    5.310    5.9294
    5.340    5.6661
    5.370    5.4871
    5.400    5.7820
    5.430    6.0242
    5.460    5.4766
    5.490    5.5608
    5.520    5.7820
    5.550    6.1506
    5.580    6.0874
    5.610    5.7609
    5.640    5.6240
    5.670    5.6872
    5.700    6.2138
    5.730    5.5819
    5.760    6.2243
    5.790    5.7504
    5.820    5.7609
    5.850    5.6977
    5.880    5.7609
    5.910    5.8347
    5.940    5.6977
    5.970    5.7609
    6.000    6.1295
    6.030    5.8452
    6.060    6.0874
    6.090    5.7293
    6.120    5.8452
    6.150    5.9610
    6.180    5.6661
    6.210    5.7399
    6.240    5.8241
    6.270    5.4344
    6.300    5.7083
    6.330    5.8452
    6.360    5.9716
    6.390    5.8031
    6.420    5.6661
    6.450    6.2559
    6.480    6.0137
    6.510    5.4871
    6.540    6.0769
    6.570    5.7925
    6.600    5.7293
    6.630    5.4239
    6.660    5.7188
    6.690    6.0558
    6.720    5.8768
    6.750    5.7504
    6.780    5.3397
    6.810    5.2238
    6.840    5.8031
    6.870    6.3612
    6.900    6.1401
    6.930    5.9084
    6.960    5.8136
    6.990    5.9505
    7.020    5.8347
    7.050    5.8557
    7.080    5.6767
    7.110    5.5187
    7.140    6.1085
    7.170    5.9610
    7.200    6.3823
    7.230    5.5714
    7.260    5.8031
    7.290    5.7399
    7.320    6.1717
    7.350    5.9400
    7.380    6.0348
    7.410    5.8873
    7.440    5.8873
    7.470    5.6872
    7.500    5.7925
    7.530    6.1401
    7.560    5.6556
    7.590    6.2770
    7.620    6.0664
    7.650    5.6451
    7.680    5.8978
    7.710    6.0769
    7.740    6.1295
    7.770    6.1401
    7.800    5.7609
    7.830    6.2243
    7.860    6.2875
    7.890    5.9189
    7.920    6.2349
    7.950    6.1085
    7.980    6.2454
    8.010    6.0979
    8.040    6.0348
    8.070    6.1927
    8.100    6.1085
    8.130    6.0769
    8.160    6.0769
    8.190    6.1611
    8.220    6.2033
    8.250    6.0348
    8.280    6.2033
    8.310    6.3507
    8.340    6.1927
    8.370    6.1822
    8.400    6.5192
    8.430    6.3507
    8.460    6.0137
    8.490    6.0664
    8.520    6.6351
    8.550    6.4455
    8.580    6.0453
    8.610    6.1927
    8.640    6.1295
    8.670    6.2665
    8.700    6.3823
    8.730    6.3296
    8.760    6.4982
    8.790    6.3718
    8.820    6.0558
    8.850    6.2559
    8.880    6.4350
    8.910    6.2770
    8.940    6.2770
    8.970    6.3507
    9.000    6.0242
    9.030    6.8036
    9.060    6.1085
    9.090    6.9300
    9.120    6.3402
    9.150    6.5824
    9.180    6.1506
    9.210    6.0664
    9.240    6.4876
    9.270    6.4455
    9.300    6.3402
    9.330    6.8878
    9.360    6.5192
    9.390    6.7299
    9.420    7.0248
    9.450    6.6245
    9.480    6.9089
    9.510    7.0037
    9.540    6.6667
    9.570    6.2138
    9.600    6.9405
    9.630    6.4350
    9.660    6.7509
    9.690    6.3086
    9.720    6.5719
    9.750    6.7404
    9.780    6.5087
    9.810    6.6772
    9.840    6.8984
    9.870    6.5298
    9.900    7.0563
    9.930    6.8457
    9.960    6.3402
    9.990    7.0669
   10.020    6.7299
   10.050    6.8036
   10.080    6.9510
   10.110    6.4560
   10.140    6.9089
   10.170    6.9721
   10.200    6.6351
   10.230    6.8246
   10.260    6.7509
   10.290    6.8036
   10.320    6.5298
   10.350    6.6667
   10.380    6.5403
   10.410    7.2038
   10.440    6.7088
   10.470    6.4244
   10.500    6.6667
   10.530    6.8773
   10.560    6.5087
   10.590    6.4139
   10.620    6.6351
   10.650    6.7509
   10.680    6.5719
   10.710    6.5508
   10.740    6.4982
   10.770    6.7615
   10.800    6.5613
   10.830    6.4244
   10.860    6.6667
   10.890    6.4244
   10.920    6.6035
   10.950    6.4560
   10.980    6.4876
   11.010    6.4350
   11.040    6.4350
   11.070    5.9610
   11.100    6.2875
   11.130    6.3718
   11.160    6.1822
   11.190    6.2138
   11.220    6.6983
   11.250    6.3086
   11.280    5.9716
   11.310    6.4139
   11.340    6.3191
   11.370    6.4560
   11.400    6.4560
   11.430    6.2559
   11.460    6.1506
   11.490    6.1611
   11.520    6.0664
   11.550    5.8557
   11.580    6.2770
   11.610    5.9084
   11.640    5.6872
   11.670    6.3296
   11.700    6.1295
   11.730    6.1190
   11.760    5.8347
   11.790    5.9716
   11.820    6.0242
   11.850    6.0558
   11.880    6.1401
   11.910    5.9716
   11.940    5.5292
   11.970    6.0558
   12.000    5.8557
   12.030    5.6135
   12.060    5.9716
   12.090    5.9084
   12.120    5.5503
   12.150    5.6661
   12.180    5.6345
   12.210    5.9294
   12.240    5.9189
   12.270    6.0664
   12.300    5.5292
   12.330    5.5714
   12.360    5.6345
   12.390    5.3923
   12.420    5.6767
   12.450    5.7820
   12.480    5.6767
   12.510    5.8873
   12.540    5.5503
   12.570    5.6135
   12.600    5.7399
   12.630    5.6240
   12.660    5.3607
   12.690    5.7504
   12.720    5.2765
   12.750    5.2554
   12.780    5.5714
   12.810    5.5292
   12.840    5.8031
   12.870    5.1711
   12.900    5.2975
   12.930    5.4450
   12.960    5.2343
   12.990    5.7188
   13.020    5.9716
   13.050    5.3607
   13.080    5.2765
   13.110    5.4450
   13.140    5.6556
   13.170    5.5292
   13.200    5.6135
   13.230    5.3923
   13.260    5.1185
   13.290    5.3712
   13.320    5.1080
   13.350    5.5187
   13.380    5.2554
   13.410    5.0132
   13.440    5.4134
   13.470    5.2554
   13.500    5.5398
   13.530    5.2554
   13.560    5.5819
   13.590    5.3502
   13.620    5.4239
   13.650    5.0342
   13.680    5.3502
   13.710    5.5187
   13.740    5.0974
   13.770    5.2975
   13.800    5.1501
   13.830    5.0342
   13.860    5.2027
   13.890    5.0764
   13.920    5.2133
   13.950    5.1080
   13.980    5.3397
   14.010    5.4766
   14.040    5.3502
   14.070    5.2027
   14.100    5.3081
   14.130    5.3291
   14.160    5.3923
   14.190    5.2133
   14.220    5.0342
   14.250    5.3397
   14.280    5.3607
   14.310    5.1080
   14.340    5.0869
   14.370    5.1185
   14.400    5.0342
   14.430    5.2343
   14.460    5.1606
   14.490    5.3291
   14.520    5.3186
   14.550    5.0869
   14.580    5.4871
   14.610    5.1606
   14.640    5.2659
   14.670    5.2238
   14.700    5.3502
   14.730    5.5398
   14.760    5.3818
   14.790    4.9710
   14.820    4.9605
   14.850    4.9078
   14.880    5.5819
   14.910    5.2659
   14.940    5.3923
   14.970    5.1922
   15.000    5.2449
   15.030    5.1395
   15.060    5.3712
   15.090    5.9821
   15.120    5.2449
   15.150    5.1080
   15.180    5.0237
   15.210    5.4766
   15.240    5.3607
   15.270    5.3607
   15.300    4.9816
   15.330    5.2870
   15.360    5.7293
   15.390    5.6240
   15.420    5.2027
   15.450    4.9500
   15.480    5.1395
   15.510    5.6451
   15.540    5.1922
   15.570    5.2870
   15.600    5.2449
   15.630    5.2659
   15.660    5.3081
   15.690    5.1080
   15.720    5.2975
   15.750    4.9184
   15.780    5.5819
   15.810    5.3397
   15.840    5.4766
   15.870    5.4028
   15.900    5.4344
   15.930    4.9500
   15.960    5.0658
   15.990    5.4239
   16.020    5.4239
   16.050    4.9710
   16.080    5.3818
   16.110    5.5292
   16.140    5.1395
   16.170    5.4028
   16.200    5.2238
   16.230    5.2870
   16.260    5.0553
   16.290    5.1080
   16.320    5.2027
   16.350    5.3397
   16.380    4.9710
   16.410    5.4555
   16.440    5.2975
   16.470    5.1395
   16.500    5.6556
   16.530    5.2870
   16.560    5.3291
   16.590    5.1711
   16.620    4.9289
   16.650    5.2238
   16.680    5.8662
   16.710    5.7293
   16.740    5.4344
   16.770    5.3502
   16.800    5.2765
   16.830    5.3923
   16.860    5.2975
   16.890    5.2659
   16.920    5.1290
   16.950    5.2133
   16.980    5.0869
   17.010    5.3502
   17.040    5.3923
   17.070    5.2765
   17.100    5.4028
   17.130    5.5292
   17.160    4.9816
   17.190    5.2659
   17.220    5.4344
   17.250    5.4660
   17.280    4.9500
   17.310    5.2870
   17.340    5.5924
   17.370    5.0132
   17.400    5.1606
   17.430    5.6135
   17.460    5.4871
   17.490    5.3712
   17.520    5.3291
   17.550    4.9394
   17.580    5.2975
   17.610    5.1711
   17.640    5.6345
   17.670    5.1606
   17.700    5.1080
   17.730    5.5082
   17.760    4.8657
   17.790    5.4555
   17.820    5.6240
   17.850    5.5714
   17.880    5.3291
   17.910    5.1185
   17.940    5.3607
   17.970    5.3291
   18.000    5.2659
   18.030    5.6451
   18.060    5.5398
   18.090    5.1817
   18.120    5.5082
   18.150    5.2975
   18.180    5.4766
   18.210    5.5503
   18.240    5.4976
   18.270    5.1080
   18.300    5.8452
   18.330    5.3081
   18.360    5.2449
   18.390    5.2027
   18.420    5.5714
   18.450    5.3186
   18.480    5.0132
   18.510    5.4028
   18.540    5.6135
   18.570    5.3712
   18.600    5.3712
   18.630    5.4344
   18.660    5.3923
   18.690    5.2133
   18.720    5.3923
   18.750    5.6029
   18.780    5.5503
   18.810    5.8452
   18.840    5.2238
   18.870    5.2659
   18.900    5.3291
   18.930    5.3712
   18.960    5.7820
   18.990    6.0348
   19.020    5.6767
   19.050    5.8347
   19.080    5.8241
   19.110    5.2659
   19.140    5.1080
   19.170    5.5292
   19.200    5.3081
   19.230    5.5398
   19.260    5.3712
   19.290    5.4450
   19.320    5.2975
   19.350    5.5187
   19.380    5.2554
   19.410    5.1501
   19.440    5.6240
   19.470    5.3186
   19.500    5.0764
   19.530    5.7399
   19.560    5.3186
   19.590    5.3607
   19.620    5.4555
   19.650    5.5924
   19.680    5.5187
   19.710    5.3712
   19.740    5.8978
   19.770    5.2659
   19.800    5.2238
   19.830    5.4555
   19.860    5.4976
   19.890    5.3291
   19.920    5.6451
   19.950    5.3186
   19.980    5.5714
   20.010    5.5187
   20.040    5.3607
   20.070    5.7504
   20.100    5.7083
   20.130    5.5608
   20.160    5.5292
   20.190    5.5187
   20.220    5.4555
   20.250    5.8031
   20.280    5.6767
   20.310    5.5503
   20.340    5.3081
   20.370    5.4239
   20.400    5.6029
   20.430    5.8031
   20.460    5.7083
   20.490    5.6451
   20.520    5.5187
   20.550    5.6977
   20.580    5.4028
   20.610    6.0453
   20.640    5.6661
   20.670    5.7820
   20.700    5.7504
   20.730    5.7083
   20.760    5.4134
   20.790    5.7083
   20.820    5.4871
   20.850    5.5608
   20.880    5.5292
   20.910    5.7188
   20.940    5.6977
   20.970    6.0769
   21.000    5.5082
   21.030    5.5819
   21.060    5.9926
   21.090    5.4344
   21.120    5.6872
   21.150    5.8241
   21.180    5.7925
   21.210    5.8662
   21.240    5.9084
   21.270    5.6135
   21.300    5.8662
   21.330    5.8031
   21.360    5.4976
   21.390    5.8136
   21.420    5.7293
   21.450    5.4555
   21.480    5.6135
   21.510    5.9821
   21.540    6.0979
   21.570    6.0453
   21.600    5.8452
   21.630    5.4134
   21.660    6.0348
   21.690    5.8873
   21.720    5.7609
   21.750    5.8557
   21.780    5.4660
   21.810    5.6661
   21.840    5.5503
   21.870    5.8978
   21.900    5.6451
   21.930    5.7715
   21.960    5.7504
   21.990    5.8768
   22.020    5.6451
   22.050    5.8452
   22.080    5.6240
   22.110    5.8978
   22.140    5.8768
   22.170    5.8347
   22.200    5.7820
   22.230    5.6767
   22.260    5.7083
   22.290    5.7609
   22.320    5.6451
   22.350    6.2349
   22.380    5.6029
   22.410    5.8873
   22.440    6.1506
   22.470    5.9189
   22.500    5.8873
   22.530    5.5924
   22.560    6.0558
   22.590    6.0032
   22.620    5.9821
   22.650    5.6767
   22.680    5.6029
   22.710    5.6767
   22.740    6.2033
   22.770    6.1717
   22.800    6.1927
   22.830    6.0137
   22.860    6.1506
   22.890    5.8768
   22.920    6.0979
   22.950    5.9400
   22.980    5.6872
   23.010    6.1085
   23.040    5.7083
   23.070    5.8978
   23.100    5.5187
   23.130    5.8557
   23.160    5.8978
   23.190    5.6977
   23.220    5.9400
   23.250    6.1190
   23.280    5.5398
   23.310    6.2454
   23.340    5.7609
   23.370    5.5398
   23.400    5.8136
   23.430    5.8136
   23.460    5.7083
   23.490    5.8662
   23.520    6.0664
   23.550    5.8452
   23.580    5.9084
   23.610    5.6977
   23.640    6.1085
   23.670    6.0453
   23.700    5.9294
   23.730    5.7820
   23.760    5.6240
   23.790    5.8662
   23.820    5.8136
   23.850    5.9505
   23.880    5.9926
   23.910    5.6451
   23.940    6.0032
   23.970    5.9821
   24.000    6.1295
   24.030    6.0558
   24.060    5.8136
   24.090    5.7083
   24.120    6.0769
   24.150    6.0664
   24.180    5.7399
   24.210    6.0348
   24.240    5.5503
   24.270    6.1506
   24.300    5.9189
   24.330    5.9400
   24.360    5.7083
   24.390    5.8662
   24.420    5.7715
   24.450    5.4344
   24.480    5.5924
   24.510    5.7188
   24.540    5.6556
   24.570    6.1085
   24.600    5.6661
   24.630    5.8031
   24.660    5.3712
   24.690    6.0242
   24.720    5.6767
   24.750    5.6977
   24.780    5.8662
   24.810    5.4766
   24.840    5.6977
   24.870    5.7820
   24.900    5.6872
   24.930    5.9084
   24.960    5.8347
   24.990    5.6767
   25.020    5.8978
   25.050    5.4028
   25.080    5.8557
   25.110    5.5292
   25.140    5.9294
   25.170    5.9189
   25.200    5.5819
   25.230    5.7715
   25.260    5.6556
   25.290    5.7399
   25.320    5.7083
   25.350    5.3081
   25.380    5.6135
   25.410    5.9610
   25.440    5.7925
   25.470    5.5187
   25.500    6.0137
   25.530    5.6661
   25.560    5.5819
   25.590    5.2659
   25.620    5.2449
   25.650    5.6661
   25.680    5.5187
   25.710    5.4871
   25.740    5.6767
   25.770    5.6240
   25.800    5.8662
   25.830    5.9821
   25.860    5.9505
   25.890    5.3186
   25.920    5.4134
   25.950    5.4134
   25.980    5.5819
   26.010    5.5292
   26.040    5.7083
   26.070    5.2975
   26.100    5.7715
   26.130    5.4660
   26.160    5.5082
   26.190    5.8241
   26.220    5.5924
   26.250    5.3397
   26.280    5.6451
   26.310    5.4976
   26.340    5.0974
   26.370    5.7083
   26.400    5.7083
   26.430    5.9610
   26.460    5.7083
   26.490    5.9716
   26.520    5.4660
   26.550    5.5398
   26.580    5.3712
   26.610    5.4450
   26.640    5.6135
   26.670    5.6661
   26.700    5.5082
   26.730    5.4555
   26.760    5.7188
   26.790    5.2343
   26.820    5.4239
   26.850    5.2659
   26.880    5.6345
   26.910    5.3397
   26.940    5.2975
   26.970    5.4134
   27.000    5.8136
   27.030    5.5292
   27.060    5.4450
   27.090    5.4450
   27.120    5.6451
   27.150    5.4871
   27.180    5.4239
   27.210    5.1080
   27.240    5.1501
   27.270    5.0342
   27.300    5.4239
   27.330    5.0342
   27.360    5.0658
   27.390    5.5398
   27.420    5.3397
   27.450    5.3712
   27.480    5.3607
   27.510    5.2133
   27.540    5.3186
   27.570    5.6135
   27.600    5.1817
   27.630    5.2659
   27.660    5.6556
   27.690    5.3397
   27.720    5.2343
   27.750    5.2238
   27.780    5.2975
   27.810    5.5292
   27.840    5.6240
   27.870    5.5924
   27.900    5.2765
   27.930    5.3397
   27.960    5.3923
   27.990    5.3818
   28.020    5.4976
   28.050    5.3923
   28.080    5.3081
   28.110    5.2554
   28.140    5.4871
   28.170    5.3818
   28.200    5.1080
   28.230    5.0764
   28.260    5.3712
   28.290    4.8868
   28.320    5.0974
   28.350    5.3186
   28.380    5.2975
   28.410    5.4344
   28.440    5.0553
   28.470    4.9816
   28.500    5.4028
   28.530    5.2449
   28.560    5.3712
   28.590    5.3186
   28.620    5.7609
   28.650    4.9078
   28.680    4.9500
   28.710    4.9710
   28.740    5.2659
   28.770    5.4134
   28.800    4.8973
   28.830    4.9816
   28.860    4.6340
   28.890    5.2343
   28.920    5.4344
   28.950    5.2343
   28.980    5.1290
   29.010    5.4028
   29.040    4.8341
   29.070    5.1606
   29.100    5.0132
   29.130    4.9500
   29.160    5.1395
   29.190    5.0237
   29.220    4.8447
   29.250    4.8763
   29.280    4.8236
   29.310    5.2975
   29.340    4.8236
   29.370    5.0553
   29.400    5.0974
   29.430    5.1711
   29.460    4.9078
   29.490    4.8236
   29.520    5.2765
   29.550    5.0026
   29.580    4.8447
   29.610    5.0132
   29.640    4.7393
   29.670    4.9816
   29.700    4.6761
   29.730    4.7709
   29.760    5.0658
   29.790    5.1922
   29.820    4.8341
   29.850    4.7920
   29.880    5.1922
   29.910    4.7499
   29.940    5.0658
   29.970    4.8552
   30.000    4.9710
   30.030    4.6551
   30.060    5.0026
   30.090    5.0448
   30.120    4.8657
   30.150    4.3286
   30.180    4.5919
   30.210    4.8657
   30.240    5.0132
   30.270    4.2970
   30.300    4.5919
   30.330    4.7920
   30.360    4.5814
   30.390    4.6340
   30.420    4.9710
   30.450    4.5919
   30.480    5.2238
   30.510    4.6024
   30.540    4.7709
   30.570    5.0553
   30.600    4.8131
   30.630    4.9184
   30.660    4.3497
   30.690    4.6972
   30.720    5.2975
   30.750    4.5919
   30.780    4.7288
   30.810    4.8973
   30.840    4.6130
   30.870    4.9184
   30.900    4.8447
   30.930    4.9605
   30.960    4.7077
   30.990    4.8236
   31.020    4.7499
   31.050    4.4444
   31.080    4.7393
   31.110    4.6551
   31.140    4.6235
   31.170    4.9394
   31.200    4.7709
   31.230    4.8025
   31.260    4.5708
   31.290    4.7393
   31.320    4.4866
   31.350    4.5603
   31.380    5.1185
   31.410    4.6867
   31.440    4.5076
   31.470    4.7604
   31.500    4.7604
   31.530    4.6656
   31.560    4.9078
   31.590    4.4234
   31.620    4.6340
   31.650    4.7183
   31.680    4.4971
   31.710    4.7604
   31.740    4.6656
   31.770    4.6551
   31.800    4.3813
   31.830    4.4655
   31.860    4.6761
   31.890    4.7815
   31.920    4.6761
   31.950    4.6024
   31.980    4.6130
   32.010    4.5708
   32.040    4.7288
   32.070    4.7815
   32.100    4.9816
   32.130    4.9710
   32.160    4.8447
   32.190    4.9500
   32.220    4.4023
   32.250    4.7183
   32.280    4.4339
   32.310    4.4023
   32.340    4.4760
   32.370    4.3918
   32.400    4.4550
   32.430    4.2127
   32.460    4.2865
   32.490    4.7077
   32.520    4.8552
   32.550    4.5392
   32.580    4.5287
   32.610    4.2022
   32.640    4.6972
   32.670    4.4128
   32.700    4.3707
   32.730    4.2127
   32.760    4.1706
   32.790    4.6340
   32.820    4.3602
   32.850    4.1811
   32.880    4.1811
   32.910    4.4128
   32.940    4.4866
   32.970    4.3707
   33.000    4.4971
   33.030    4.3918
   33.060    4.4444
   33.090    4.3075
   33.120    4.1811
   33.150    4.4339
   33.180    4.4128
   33.210    4.4760
   33.240    4.2443
   33.270    4.0864
   33.300    4.1390
   33.330    4.4550
   33.360    4.5287
   33.390    4.2970
   33.420    4.2865
   33.450    4.2022
   33.480    4.0021
   33.510    4.1496
   33.540    4.5182
   33.570    4.0758
   33.600    4.3181
   33.630    4.5076
   33.660    4.3286
   33.690    3.9389
   33.720    4.1496
   33.750    4.1496
   33.780    4.2443
   33.810    4.4444
   33.840    4.5076
   33.870    4.4655
   33.900    4.4128
   33.930    4.5498
   33.960    4.1390
   33.990    4.3918
   34.020    4.4234
   34.050    4.3391
   34.080    4.2233
   34.110    3.8968
   34.140    4.4760
   34.170    4.1074
   34.200    4.3391
   34.230    4.4760
   34.260    4.2759
   34.290    4.4234
   34.320    4.4866
   34.350    4.1074
   34.380    4.4444
   34.410    3.8757
   34.440    4.1706
   34.470    4.2338
   34.500    4.0969
   34.530    4.5498
   34.560    4.2549
   34.590    4.0653
   34.620    4.4023
   34.650    4.0969
   34.680    4.3181
   34.710    4.0126
   34.740    4.2443
   34.770    4.2759
   34.800    4.2022
   34.830    3.9389
   34.860    4.2759
   34.890    4.1180
   34.920    4.0021
   34.950    4.2970
   34.980    4.3075
   35.010    4.3181
   35.040    4.1811
   35.070    4.0864
   35.100    4.3286
   35.130    3.8652
   35.160    3.9494
   35.190    4.2233
   35.220    3.8863
   35.250    4.1917
   35.280    4.1811
   35.310    4.3602
   35.340    3.9284
   35.370    4.0337
   35.400    4.0653
   35.430    3.9705
   35.460    4.3918
   35.490    4.2549
   35.520    4.2443
   35.550    4.2233
   35.580    3.9284
   35.610    3.7704
   35.640    4.0232
   35.670    3.8757
   35.700    4.0864
   35.730    3.8125
   35.760    3.8652
   35.790    3.8652
   35.820    4.1917
   35.850    4.0126
   35.880    4.1180
   35.910    4.4234
   35.940    4.0021
   35.970    3.7809
   36.000    3.9389
   36.030    4.0864
   36.060    4.2022
   36.090    4.0969
   36.120    4.0232
   36.150    3.7809
   36.180    3.5598
   36.210    4.0653
   36.240    3.8547
   36.270    4.0864
   36.300    3.8125
   36.330    3.7493
   36.360    3.6967
   36.390    3.7493
   36.420    3.7388
   36.450    3.8441
   36.480    3.8547
   36.510    3.9284
   36.540    3.6862
   36.570    3.7177
   36.600    3.9284
   36.630    4.2443
   36.660    3.9916
   36.690    3.9073
   36.720    3.8336
   36.750    3.8125
   36.780    4.1074
   36.810    3.7493
   36.840    4.0126
   36.870    3.9600
   36.900    3.9179
   36.930    4.1811
   36.960    3.9179
   36.990    4.0337
   37.020    4.0969
   37.050    4.1390
   37.080    3.9494
   37.110    3.9810
   37.140    3.7809
   37.170    3.7493
   37.200    3.6756
   37.230    3.9284
   37.260    4.0442
   37.290    4.2233
   37.320    3.7704
   37.350    4.0126
   37.380    3.8968
   37.410    3.8968
   37.440    3.7493
   37.470    3.8968
   37.500    3.8547
   37.530    3.9389
   37.560    3.8968
   37.590    4.2022
   37.620    3.8125
   37.650    4.0758
   37.680    3.9073
   37.710    3.9810
   37.740    3.8652
   37.770    3.4966
   37.800    3.5176
   37.830    3.7915
   37.860    4.0653
   37.890    3.5808
   37.920    3.8652
   37.950    3.6124
   37.980    3.9073
   38.010    3.9284
   38.040    3.8336
   38.070    4.1601
   38.100    3.9179
   38.130    3.6019
   38.160    4.3181
   38.190    4.0337
   38.220    3.6335
   38.250    3.8652
   38.280    3.9389
   38.310    3.5387
   38.340    3.7599
   38.370    3.6756
   38.400    3.4439
   38.430    3.6862
   38.460    3.9284
   38.490    4.0232
   38.520    4.0969
   38.550    3.9600
   38.580    3.9073
   38.610    3.8231
   38.640    3.8968
   38.670    3.8020
   38.700    3.5387
   38.730    3.9916
   38.760    3.5703
   38.790    4.0653
   38.820    3.8652
   38.850    3.6335
   38.880    3.8757
   38.910    3.6335
   38.940    3.6967
   38.970    3.9916
   39.000    3.7599
   39.030    4.0548
   39.060    3.9389
   39.090    3.9494
   39.120    3.7704
   39.150    3.9389
   39.180    3.5071
   39.210    3.4334
   39.240    3.7704
   39.270    3.7704
   39.300    3.8547
   39.330    3.4755
   39.360    3.6440
   39.390    3.8441
   39.420    3.7493
   39.450    3.8441
   39.480    3.8547
   39.510    3.6335
   39.540    3.7599
   39.570    3.6230
   39.600    4.0758
   39.630    3.6230
   39.660    3.6335
   39.690    3.9284
   39.720    3.7599
   39.750    3.4229
   39.780    3.7388
   39.810    3.8547
   39.840    3.6651
   39.870    3.8441
   39.900    3.6862
   39.930    3.4018
   39.960    3.5598
   39.990    3.8968