File: data/PXRD/PXRD_KE-224_Co-Ka1_film-3mm_5s-deg.xyd
    1.500    4.9973
    1.530    5.0294
    1.560    4.6442
    1.590    4.6228
    1.620    4.5158
    1.650    3.9058
    1.680    4.0021
    1.710    3.8951
    1.740    3.7132
    1.770    3.6597
    1.800    3.4992
    1.830    3.3601
    1.860    3.5206
    1.890    3.2638
    1.920    3.0391
    1.950    3.3815
    1.980    3.0284
    2.010    3.1247
    2.040    3.0819
    2.070    3.0605
    2.100    3.1140
    2.130    2.9106
    2.160    2.8250
    2.190    2.6645
    2.220    2.5361
    2.250    2.7929
    2.280    2.8143
    2.310    2.3542
    2.340    2.6859
    2.370    2.5361
    2.400    2.7180
    2.430    2.1509
    2.460    2.3756
    2.490    2.2151
    2.520    2.0332
    2.550    2.5361
    2.580    2.2151
    2.610    2.2579
    2.640    2.2151
    2.670    2.1188
    2.700    2.0974
    2.730    2.1723
    2.760    2.1723
    2.790    2.2793
    2.820    1.7978
    2.850    1.9262
    2.880    1.8941
    2.910    2.1188
    2.940    2.0439
    2.970    1.8513
    3.000    1.7764
    3.030    1.9476
    3.060    1.6907
    3.090    1.7764
    3.120    2.3649
    3.150    1.7871
    3.180    2.0439
    3.210    1.9583
    3.240    1.5409
    3.270    1.7657
    3.300    1.9690
    3.330    1.8620
    3.360    1.7657
    3.390    1.5730
    3.420    1.8085
    3.450    1.7549
    3.480    1.8834
    3.510    1.7871
    3.540    1.8406
    3.570    1.7657
    3.600    1.6372
    3.630    1.7764
    3.660    1.6265
    3.690    1.8620
    3.720    1.5195
    3.750    1.8299
    3.780    1.9155
    3.810    1.8299
    3.840    1.8406
    3.870    1.7121
    3.900    1.7335
    3.930    1.9583
    3.960    1.6158
    3.990    1.8620
    4.020    2.0760
    4.050    1.9690
    4.080    2.1188
    4.110    1.8192
    4.140    2.0332
    4.170    1.9583
    4.200    1.8727
    4.230    2.0118
    4.260    1.6051
    4.290    1.6907
    4.320    1.5837
    4.350    1.5837
    4.380    1.6479
    4.410    1.6693
    4.440    1.8406
    4.470    1.8620
    4.500    1.6265
    4.530    1.7871
    4.560    1.7549
    4.590    1.7335
    4.620    1.7871
    4.650    1.6907
    4.680    1.7335
    4.710    1.5195
    4.740    1.8620
    4.770    1.7228
    4.800    1.5837
    4.830    1.7549
    4.860    1.7228
    4.890    1.8513
    4.920    1.8085
    4.950    1.8727
    4.980    1.8620
    5.010    1.7978
    5.040    1.6693
    5.070    2.0118
    5.100    1.8513
    5.130    1.6693
    5.160    1.8085
    5.190    1.8192
    5.220    1.6479
    5.250    1.7657
    5.280    1.7335
    5.310    1.4981
    5.340    1.6265
    5.370    1.5837
    5.400    1.7657
    5.430    1.6372
    5.460    1.7228
    5.490    1.4232
    5.520    1.7871
    5.550    1.6907
    5.580    1.6586
    5.610    1.4018
    5.640    1.4874
    5.670    1.4981
    5.700    1.7228
    5.730    1.4981
    5.760    1.5516
    5.790    1.7014
    5.820    1.6051
    5.850    1.7014
    5.880    1.7335
    5.910    1.6265
    5.940    1.7442
    5.970    1.7121
    6.000    1.7121
    6.030    1.8406
    6.060    1.8513
    6.090    1.5302
    6.120    1.7228
    6.150    1.9048
    6.180    1.7657
    6.210    1.8192
    6.240    1.9369
    6.270    2.1081
    6.300    1.9048
    6.330    1.7871
    6.360    2.0118
    6.390    2.0760
    6.420    1.9797
    6.450    2.1188
    6.480    1.9369
    6.510    2.0332
    6.540    2.0118
    6.570    2.0332
    6.600    1.8192
    6.630    1.9476
    6.660    1.8513
    6.690    1.8834
    6.720    1.9797
    6.750    1.8192
    6.780    1.7549
    6.810    1.8620
    6.840    1.8192
    6.870    1.7335
    6.900    1.4767
    6.930    1.5944
    6.960    1.5944
    6.990    1.4874
    7.020    1.6372
    7.050    1.4446
    7.080    1.6051
    7.110    1.4660
    7.140    1.5730
    7.170    1.3697
    7.200    1.6800
    7.230    1.5195
    7.260    1.4446
    7.290    1.5088
    7.320    1.5730
    7.350    1.5409
    7.380    1.3483
    7.410    1.5302
    7.440    1.4660
    7.470    1.4339
    7.500    1.3483
    7.530    1.2734
    7.560    1.1450
    7.590    1.4339
    7.620    1.5623
    7.650    1.7121
    7.680    1.5944
    7.710    1.3804
    7.740    1.3590
    7.770    1.4232
    7.800    1.2841
    7.830    1.3162
    7.860    1.3055
    7.890    1.2199
    7.920    1.3697
    7.950    1.4553
    7.980    1.3269
    8.010    1.2948
    8.040    1.4232
    8.070    1.4018
    8.100    1.4125
    8.130    1.4339
    8.160    1.3269
    8.190    1.2841
    8.220    1.1771
    8.250    1.2520
    8.280    1.2627
    8.310    1.0808
    8.340    1.4339
    8.370    1.3697
    8.400    1.2841
    8.430    1.2413
    8.460    1.3055
    8.490    1.1878
    8.520    1.2948
    8.550    1.1343
    8.580    1.2306
    8.610    1.2520
    8.640    1.0594
    8.670    1.3376
    8.700    1.2734
    8.730    1.0380
    8.760    1.1450
    8.790    1.1878
    8.820    1.1450
    8.850    1.0701
    8.880    1.0808
    8.910    1.0915
    8.940    1.1343
    8.970    0.9631
    9.000    1.1343
    9.030    0.9952
    9.060    1.2413
    9.090    1.2627
    9.120    1.1557
    9.150    1.0594
    9.180    0.9738
    9.210    1.1450
    9.240    0.9096
    9.270    1.0594
    9.300    1.1771
    9.330    1.0380
    9.360    1.0487
    9.390    0.9738
    9.420    1.1450
    9.450    1.0487
    9.480    1.1129
    9.510    1.0166
    9.540    1.0059
    9.570    1.1664
    9.600    1.0808
    9.630    1.0915
    9.660    1.0594
    9.690    0.9524
    9.720    0.9738
    9.750    1.2199
    9.780    1.1343
    9.810    1.0594
    9.840    1.1236
    9.870    1.0059
    9.900    1.1343
    9.930    0.9738
    9.960    1.0487
    9.990    1.0594
   10.020    0.9631
   10.050    1.1557
   10.080    1.0273
   10.110    0.9952
   10.140    0.9524
   10.170    0.8882
   10.200    1.0166
   10.230    1.1343
   10.260    1.0380
   10.290    0.9631
   10.320    0.9631
   10.350    0.9524
   10.380    1.0380
   10.410    1.1985
   10.440    1.0487
   10.470    1.0273
   10.500    0.8454
   10.530    0.9845
   10.560    0.7384
   10.590    0.9310
   10.620    1.0487
   10.650    0.7705
   10.680    0.8882
   10.710    1.0059
   10.740    1.0166
   10.770    1.2306
   10.800    0.9203
   10.830    1.1343
   10.860    0.9203
   10.890    0.9738
   10.920    0.9845
   10.950    0.8882
   10.980    0.9203
   11.010    1.0059
   11.040    1.0915
   11.070    0.9952
   11.100    0.9203
   11.130    1.0380
   11.160    0.9096
   11.190    0.9524
   11.220    1.1664
   11.250    1.0808
   11.280    0.9631
   11.310    0.8989
   11.340    0.9738
   11.370    1.0701
   11.400    0.9096
   11.430    1.0059
   11.460    1.0380
   11.490    0.9524
   11.520    0.8989
   11.550    0.8561
   11.580    1.0487
   11.610    0.9310
   11.640    0.9310
   11.670    0.8133
   11.700    1.0594
   11.730    0.9203
   11.760    1.0059
   11.790    0.9952
   11.820    1.2092
   11.850    0.9738
   11.880    0.8882
   11.910    0.8775
   11.940    1.1129
   11.970    0.8775
   12.000    0.9738
   12.030    0.9738
   12.060    1.1022
   12.090    1.1664
   12.120    1.1129
   12.150    0.8561
   12.180    1.1129
   12.210    0.9631
   12.240    1.0166
   12.270    0.9738
   12.300    0.9417
   12.330    0.9524
   12.360    1.1022
   12.390    1.0273
   12.420    0.9845
   12.450    0.8561
   12.480    0.7491
   12.510    1.1557
   12.540    0.9417
   12.570    1.0059
   12.600    0.9631
   12.630    1.0487
   12.660    1.0059
   12.690    0.9524
   12.720    0.8454
   12.750    0.8882
   12.780    1.0059
   12.810    0.8133
   12.840    1.0166
   12.870    1.1664
   12.900    1.1022
   12.930    0.9738
   12.960    1.1022
   12.990    1.1236
   13.020    1.0166
   13.050    1.0701
   13.080    0.9631
   13.110    0.8775
   13.140    1.0487
   13.170    0.8668
   13.200    0.9203
   13.230    0.9310
   13.260    0.9845
   13.290    0.9952
   13.320    0.9845
   13.350    1.0487
   13.380    0.9631
   13.410    1.1022
   13.440    1.0273
   13.470    0.9310
   13.500    1.0059
   13.530    0.8882
   13.560    0.9952
   13.590    0.8026
   13.620    1.0701
   13.650    1.0166
   13.680    0.9524
   13.710    1.0808
   13.740    0.9524
   13.770    0.9096
   13.800    1.0808
   13.830    0.9845
   13.860    0.9631
   13.890    1.0273
   13.920    1.0380
   13.950    0.8775
   13.980    0.9845
   14.010    0.8989
   14.040    0.9310
   14.070    0.9952
   14.100    0.9310
   14.130    0.8989
   14.160    1.0059
   14.190    1.0059
   14.220    0.9631
   14.250    0.8561
   14.280    1.0487
   14.310    0.8347
   14.340    0.9310
   14.370    0.8026
   14.400    1.0059
   14.430    0.9203
   14.460    0.9524
   14.490    0.9096
   14.520    0.9524
   14.550    0.8668
   14.580    0.8882
   14.610    0.8561
   14.640    0.8668
   14.670    0.9096
   14.700    0.8347
   14.730    0.9310
   14.760    0.8775
   14.790    0.7919
   14.820    0.9203
   14.850    0.8026
   14.880    0.8989
   14.910    0.8026
   14.940    0.8240
   14.970    0.7919
   15.000    0.8240
   15.030    0.9631
   15.060    0.9417
   15.090    0.7705
   15.120    0.8775
   15.150    0.8454
   15.180    0.8454
   15.210    0.7277
   15.240    0.7277
   15.270    0.9096
   15.300    0.9310
   15.330    0.8240
   15.360    0.9203
   15.390    0.8668
   15.420    0.7919
   15.450    0.9738
   15.480    0.8668
   15.510    0.9096
   15.540    0.8454
   15.570    0.8026
   15.600    0.8454
   15.630    0.8240
   15.660    0.8240
   15.690    0.9524
   15.720    0.7598
   15.750    0.8668
   15.780    0.8882
   15.810    0.7598
   15.840    0.8668
   15.870    0.8561
   15.900    0.8026
   15.930    0.8347
   15.960    0.8561
   15.990    0.7598
   16.020    0.6528
   16.050    0.8133
   16.080    0.8882
   16.110    0.9203
   16.140    0.8454
   16.170    0.8882
   16.200    1.0915
   16.230    0.9417
   16.260    1.1985
   16.290    1.0059
   16.320    0.9524
   16.350    0.8240
   16.380    0.9845
   16.410    1.0487
   16.440    0.8561
   16.470    0.9096
   16.500    0.9096
   16.530    0.7919
   16.560    0.8347
   16.590    0.9310
   16.620    0.9952
   16.650    0.9417
   16.680    1.0594
   16.710    1.0915
   16.740    1.0273
   16.770    0.9310
   16.800    0.9203
   16.830    0.9310
   16.860    0.9203
   16.890    0.8882
   16.920    1.1236
   16.950    1.1664
   16.980    0.9952
   17.010    0.9310
   17.040    1.0701
   17.070    0.8347
   17.100    1.0273
   17.130    0.9952
   17.160    1.0701
   17.190    0.7384
   17.220    0.8454
   17.250    0.8668
   17.280    0.9203
   17.310    1.0059
   17.340    0.9631
   17.370    0.7384
   17.400    0.9203
   17.430    0.9203
   17.460    0.8026
   17.490    0.8882
   17.520    0.9631
   17.550    0.8668
   17.580    0.8240
   17.610    1.0059
   17.640    0.8775
   17.670    0.9096
   17.700    0.8454
   17.730    0.9203
   17.760    0.7598
   17.790    0.7063
   17.820    0.8882
   17.850    0.9524
   17.880    0.9631
   17.910    0.9203
   17.940    0.7919
   17.970    0.8240
   18.000    0.8989
   18.030    1.0701
   18.060    0.8240
   18.090    0.7705
   18.120    0.7919
   18.150    0.8133
   18.180    0.7919
   18.210    0.9845
   18.240    0.8989
   18.270    0.7812
   18.300    0.8454
   18.330    0.7919
   18.360    0.8133
   18.390    0.8775
   18.420    0.7919
   18.450    0.7598
   18.480    0.9845
   18.510    0.7491
   18.540    0.8775
   18.570    0.7384
   18.600    0.8882
   18.630    0.8561
   18.660    0.6635
   18.690    0.9203
   18.720    0.8668
   18.750    0.8026
   18.780    0.9524
   18.810    0.8240
   18.840    0.9096
   18.870    0.8454
   18.900    0.9738
   18.930    0.9417
   18.960    0.8240
   18.990    1.0059
   19.020    0.9096
   19.050    0.9952
   19.080    0.8775
   19.110    0.7705
   19.140    0.8775
   19.170    0.9631
   19.200    0.8133
   19.230    0.8561
   19.260    0.9417
   19.290    0.7812
   19.320    0.8026
   19.350    0.9524
   19.380    0.8561
   19.410    0.8026
   19.440    0.8775
   19.470    0.9096
   19.500    0.8454
   19.530    0.7705
   19.560    0.9738
   19.590    0.7277
   19.620    0.8347
   19.650    0.8561
   19.680    1.0059
   19.710    0.7919
   19.740    0.9417
   19.770    0.8668
   19.800    0.8668
   19.830    0.8775
   19.860    0.6742
   19.890    0.8133
   19.920    0.7812
   19.950    0.8026
   19.980    0.8882
   20.010    0.8668
   20.040    0.8133
   20.070    0.8775
   20.100    0.7919
   20.130    0.8561
   20.160    0.8347
   20.190    0.8133
   20.220    0.8775
   20.250    0.7812
   20.280    0.6956
   20.310    0.7491
   20.340    0.8882
   20.370    0.8026
   20.400    0.9096
   20.430    0.7598
   20.460    0.9631
   20.490    0.9417
   20.520    0.6956
   20.550    0.7170
   20.580    0.7277
   20.610    0.9203
   20.640    0.8561
   20.670    0.9738
   20.700    0.7598
   20.730    0.8454
   20.760    0.8347
   20.790    0.7598
   20.820    0.7170
   20.850    0.8668
   20.880    0.7812
   20.910    0.9631
   20.940    0.8882
   20.970    0.9524
   21.000    0.7705
   21.030    0.9096
   21.060    0.8240
   21.090    0.8668
   21.120    0.9738
   21.150    0.8026
   21.180    0.7384
   21.210    0.8454
   21.240    0.7277
   21.270    0.8561
   21.300    0.6956
   21.330    0.8347
   21.360    0.7384
   21.390    0.7384
   21.420    0.7919
   21.450    0.6956
   21.480    0.6849
   21.510    0.8882
   21.540    0.8240
   21.570    0.7170
   21.600    0.7705
   21.630    0.8240
   21.660    0.6849
   21.690    0.8882
   21.720    0.9738
   21.750    0.8882
   21.780    0.7812
   21.810    0.8240
   21.840    0.7705
   21.870    0.7384
   21.900    0.7812
   21.930    0.8133
   21.960    0.7812
   21.990    0.7812
   22.020    0.7384
   22.050    0.7170
   22.080    0.9952
   22.110    0.8454
   22.140    0.8133
   22.170    0.8989
   22.200    0.7812
   22.230    0.8347
   22.260    0.8561
   22.290    0.8240
   22.320    0.9310
   22.350    0.8240
   22.380    0.9096
   22.410    0.6207
   22.440    0.8240
   22.470    0.8775
   22.500    0.7598
   22.530    0.9417
   22.560    0.7277
   22.590    0.8989
   22.620    0.7491
   22.650    0.7170
   22.680    0.8882
   22.710    0.9203
   22.740    0.8133
   22.770    0.7491
   22.800    0.8133
   22.830    0.7919
   22.860    0.7919
   22.890    0.7277
   22.920    0.8347
   22.950    0.7919
   22.980    0.7384
   23.010    0.6956
   23.040    0.7705
   23.070    0.7919
   23.100    0.7063
   23.130    0.8026
   23.160    0.8775
   23.190    0.7384
   23.220    0.8347
   23.250    0.8561
   23.280    0.8989
   23.310    0.8561
   23.340    0.6956
   23.370    0.7063
   23.400    0.6742
   23.430    0.7812
   23.460    0.6635
   23.490    0.6528
   23.520    0.7063
   23.550    0.7598
   23.580    0.7491
   23.610    0.7063
   23.640    0.8240
   23.670    0.6956
   23.700    0.7919
   23.730    0.6635
   23.760    0.7491
   23.790    0.7598
   23.820    0.6742
   23.850    0.9096
   23.880    0.7812
   23.910    0.7812
   23.940    0.7598
   23.970    0.6635
   24.000    0.7705
   24.030    0.7491
   24.060    0.7491
   24.090    0.7277
   24.120    0.7919
   24.150    0.7491
   24.180    0.8026
   24.210    0.6956
   24.240    0.7491
   24.270    0.5671
   24.300    0.7812
   24.330    0.6849
   24.360    0.8454
   24.390    0.8989
   24.420    0.8561
   24.450    0.9203
   24.480    0.9631
   24.510    0.6849
   24.540    0.7170
   24.570    0.6956
   24.600    0.7598
   24.630    0.6314
   24.660    0.7705
   24.690    0.5886
   24.720    0.7170
   24.750    0.8133
   24.780    0.8347
   24.810    0.6956
   24.840    0.6635
   24.870    0.6742
   24.900    0.6849
   24.930    0.8347
   24.960    0.6742
   24.990    0.7705
   25.020    0.8240
   25.050    0.7384
   25.080    0.8240
   25.110    0.8026
   25.140    0.5886
   25.170    0.8240
   25.200    0.9096
   25.230    1.0808
   25.260    0.7491
   25.290    0.7170
   25.320    0.6528
   25.350    0.7277
   25.380    0.6635
   25.410    0.5671
   25.440    0.6528
   25.470    0.6849
   25.500    0.7384
   25.530    0.7384
   25.560    0.7919
   25.590    0.6528
   25.620    0.7384
   25.650    0.8561
   25.680    0.6635
   25.710    0.5993
   25.740    0.7063
   25.770    0.5993
   25.800    0.7491
   25.830    0.7705
   25.860    0.8561
   25.890    0.7277
   25.920    0.7491
   25.950    0.6314
   25.980    0.7812
   26.010    0.6314
   26.040    0.6314
   26.070    0.8240
   26.100    0.7491
   26.130    0.6421
   26.160    0.6849
   26.190    0.7170
   26.220    0.7384
   26.250    0.6207
   26.280    0.7063
   26.310    0.7491
   26.340    0.7277
   26.370    0.7598
   26.400    0.6528
   26.430    0.6314
   26.460    0.5993
   26.490    0.6849
   26.520    0.7919
   26.550    0.6207
   26.580    0.7277
   26.610    0.7598
   26.640    0.7705
   26.670    0.7063
   26.700    0.5778
   26.730    0.7812
   26.760    0.6849
   26.790    0.7170
   26.820    0.6100
   26.850    0.7919
   26.880    0.7063
   26.910    0.7170
   26.940    0.6421
   26.970    0.7491
   27.000    0.6849
   27.030    0.5778
   27.060    0.7170
   27.090    0.8240
   27.120    0.7277
   27.150    0.5778
   27.180    0.6635
   27.210    0.6956
   27.240    0.6314
   27.270    0.7063
   27.300    0.6421
   27.330    0.7063
   27.360    0.5671
   27.390    0.7491
   27.420    0.7277
   27.450    0.6528
   27.480    0.7170
   27.510    0.7063
   27.540    0.6742
   27.570    0.6100
   27.600    0.8133
   27.630    0.6314
   27.660    0.6421
   27.690    0.5778
   27.720    0.7277
   27.750    0.6635
   27.780    0.6100
   27.810    0.6207
   27.840    0.6421
   27.870    0.6528
   27.900    0.6849
   27.930    0.5671
   27.960    0.5243
   27.990    0.6528
   28.020    0.6635
   28.050    0.7063
   28.080    0.5886
   28.110    0.6528
   28.140    0.7170
   28.170    0.5457
   28.200    0.7063
   28.230    0.5886
   28.260    0.5564
   28.290    0.5778
   28.320    0.7063
   28.350    0.6207
   28.380    0.6528
   28.410    0.6207
   28.440    0.5671
   28.470    0.6956
   28.500    0.6849
   28.530    0.5778
   28.560    0.7598
   28.590    0.6635
   28.620    0.6207
   28.650    0.6207
   28.680    0.6314
   28.710    0.6742
   28.740    0.6635
   28.770    0.5350
   28.800    0.7384
   28.830    0.7063
   28.860    0.6314
   28.890    0.6956
   28.920    0.5564
   28.950    0.6528
   28.980    0.7063
   29.010    0.4708
   29.040    0.5778
   29.070    0.5778
   29.100    0.5886
   29.130    0.4922
   29.160    0.6849
   29.190    0.6742
   29.220    0.5350
   29.250    0.5029
   29.280    0.3424
   29.310    0.5993
   29.340    0.4922
   29.370    0.5993
   29.400    0.6635
   29.430    0.5993
   29.460    0.6207
   29.490    0.6100
   29.520    0.6635
   29.550    0.7598
   29.580    0.5350
   29.610    0.6314
   29.640    0.5886
   29.670    0.5993
   29.700    0.7063
   29.730    0.5350
   29.760    0.4708
   29.790    0.6207
   29.820    0.6207
   29.850    0.4815
   29.880    0.6421
   29.910    0.6849
   29.940    0.5671
   29.970    0.5671
   30.000    0.5671
   30.030    0.7277
   30.060    0.4922
   30.090    0.7277
   30.120    0.5778
   30.150    0.5993
   30.180    0.5778
   30.210    0.5457
   30.240    0.5029
   30.270    0.5886
   30.300    0.6100
   30.330    0.7277
   30.360    0.5671
   30.390    0.4708
   30.420    0.4173
   30.450    0.6421
   30.480    0.5457
   30.510    0.4815
   30.540    0.5564
   30.570    0.5243
   30.600    0.5243
   30.630    0.5671
   30.660    0.4494
   30.690    0.6421
   30.720    0.6100
   30.750    0.6421
   30.780    0.5778
   30.810    0.5457
   30.840    0.5457
   30.870    0.5886
   30.900    0.5778
   30.930    0.5136
   30.960    0.5243
   30.990    0.6528
   31.020    0.4494
   31.050    0.5243
   31.080    0.5564
   31.110    0.7063
   31.140    0.4280
   31.170    0.6742
   31.200    0.5564
   31.230    0.4815
   31.260    0.5243
   31.290    0.6314
   31.320    0.5564
   31.350    0.5886
   31.380    0.5886
   31.410    0.5564
   31.440    0.5243
   31.470    0.5457
   31.500    0.4815
   31.530    0.4815
   31.560    0.4815
   31.590    0.4708
   31.620    0.5993
   31.650    0.5886
   31.680    0.5778
   31.710    0.4280
   31.740    0.4173
   31.770    0.4494
   31.800    0.5029
   31.830    0.5778
   31.860    0.5886
   31.890    0.5029
   31.920    0.4922
   31.950    0.4387
   31.980    0.5564
   32.010    0.5457
   32.040    0.5029
   32.070    0.4601
   32.100    0.4494
   32.130    0.4922
   32.160    0.4708
   32.190    0.4708
   32.220    0.5671
   32.250    0.4815
   32.280    0.6314
   32.310    0.6207
   32.340    0.5778
   32.370    0.6421
   32.400    0.4387
   32.430    0.4922
   32.460    0.4173
   32.490    0.5993
   32.520    0.4387
   32.550    0.4494
   32.580    0.4494
   32.610    0.5350
   32.640    0.4708
   32.670    0.5136
   32.700    0.3959
   32.730    0.4494
   32.760    0.4708
   32.790    0.4601
   32.820    0.4922
   32.850    0.5029
   32.880    0.4494
   32.910    0.5136
   32.940    0.4494
   32.970    0.4815
   33.000    0.4387
   33.030    0.5671
   33.060    0.4387
   33.090    0.4708
   33.120    0.5564
   33.150    0.4815
   33.180    0.5029
   33.210    0.4173
   33.240    0.5886
   33.270    0.6314
   33.300    0.4173
   33.330    0.4173
   33.360    0.5136
   33.390    0.5136
   33.420    0.5886
   33.450    0.5029
   33.480    0.4601
   33.510    0.5671
   33.540    0.5029
   33.570    0.4280
   33.600    0.5350
   33.630    0.5243
   33.660    0.5029
   33.690    0.4922
   33.720    0.5243
   33.750    0.5993
   33.780    0.5993
   33.810    0.4922
   33.840    0.5243
   33.870    0.5671
   33.900    0.3531
   33.930    0.5350
   33.960    0.4494
   33.990    0.5886
   34.020    0.5778
   34.050    0.5564
   34.080    0.4494
   34.110    0.5457
   34.140    0.4494
   34.170    0.4387
   34.200    0.4708
   34.230    0.4173
   34.260    0.4280
   34.290    0.6742
   34.320    0.4601
   34.350    0.4387
   34.380    0.2996
   34.410    0.4173
   34.440    0.4173
   34.470    0.4387
   34.500    0.5029
   34.530    0.5136
   34.560    0.3531
   34.590    0.4387
   34.620    0.4387
   34.650    0.3745
   34.680    0.4066
   34.710    0.3852
   34.740    0.3103
   34.770    0.4280
   34.800    0.4601
   34.830    0.3959
   34.860    0.3638
   34.890    0.3745
   34.920    0.3852
   34.950    0.3103
   34.980    0.3745
   35.010    0.3959
   35.040    0.3745
   35.070    0.4494
   35.100    0.3210
   35.130    0.3745
   35.160    0.3959
   35.190    0.4280
   35.220    0.3638
   35.250    0.3638
   35.280    0.3317
   35.310    0.3424
   35.340    0.4173
   35.370    0.3210
   35.400    0.5671
   35.430    0.5029
   35.460    0.3959
   35.490    0.3745
   35.520    0.3745
   35.550    0.3210
   35.580    0.3959
   35.610    0.2889
   35.640    0.2889
   35.670    0.4815
   35.700    0.4066
   35.730    0.3103
   35.760    0.4922
   35.790    0.4066
   35.820    0.3638
   35.850    0.2996
   35.880    0.4815
   35.910    0.3424
   35.940    0.3531
   35.970    0.4066
   36.000    0.3745
   36.030    0.3210
   36.060    0.3103
   36.090    0.4173
   36.120    0.4708
   36.150    0.4066
   36.180    0.4601
   36.210    0.2996
   36.240    0.2889
   36.270    0.3531
   36.300    0.3424
   36.330    0.3103
   36.360    0.2675
   36.390    0.3317
   36.420    0.3317
   36.450    0.4494
   36.480    0.3317
   36.510    0.2996
   36.540    0.3638
   36.570    0.3210
   36.600    0.3317
   36.630    0.3103
   36.660    0.3852
   36.690    0.3745
   36.720    0.3103
   36.750    0.3317
   36.780    0.3531
   36.810    0.2889
   36.840    0.3317
   36.870    0.3317
   36.900    0.3317
   36.930    0.3638
   36.960    0.3531
   36.990    0.3959
   37.020    0.3317
   37.050    0.3638
   37.080    0.3745
   37.110    0.3210
   37.140    0.3317
   37.170    0.3745
   37.200    0.3959
   37.230    0.3745
   37.260    0.3424
   37.290    0.3103
   37.320    0.2675
   37.350    0.3317
   37.380    0.3638
   37.410    0.4280
   37.440    0.3424
   37.470    0.2354
   37.500    0.3424
   37.530    0.3210
   37.560    0.4173
   37.590    0.2889
   37.620    0.3424
   37.650    0.2889
   37.680    0.3210
   37.710    0.3103
   37.740    0.3531
   37.770    0.3638
   37.800    0.2675
   37.830    0.2675
   37.860    0.2782
   37.890    0.2996
   37.920    0.3103
   37.950    0.3424
   37.980    0.2568
   38.010    0.2782
   38.040    0.3959
   38.070    0.3531
   38.100    0.3210
   38.130    0.2996
   38.160    0.3103
   38.190    0.2889
   38.220    0.3745
   38.250    0.3317
   38.280    0.2675
   38.310    0.2889
   38.340    0.3317
   38.370    0.3103
   38.400    0.3210
   38.430    0.4066
   38.460    0.3424
   38.490    0.3531
   38.520    0.3424
   38.550    0.3424
   38.580    0.3103
   38.610    0.2996
   38.640    0.3210
   38.670    0.2675
   38.700    0.3103
   38.730    0.2247
   38.760    0.2782
   38.790    0.2568
   38.820    0.2996
   38.850    0.2354
   38.880    0.3317
   38.910    0.2782
   38.940    0.2140
   38.970    0.2996
   39.000    0.2247
   39.030    0.3424
   39.060    0.2568
   39.090    0.3638
   39.120    0.1819
   39.150    0.2889
   39.180    0.3103
   39.210    0.2782
   39.240    0.3210
   39.270    0.3210
   39.300    0.3210
   39.330    0.2354
   39.360    0.2889
   39.390    0.2782
   39.420    0.2461
   39.450    0.2568
   39.480    0.2461
   39.510    0.2033
   39.540    0.2675
   39.570    0.2568
   39.600    0.3317
   39.630    0.2996
   39.660    0.2889
   39.690    0.3103
   39.720    0.3210
   39.750    0.3210
   39.780    0.2675
   39.810    0.2033
   39.840    0.3317
   39.870    0.2461
   39.900    0.3210
   39.930    0.2033
   39.960    0.2247
   39.990    0.2889