File: data/PXRD/PXRD_KE-080_Cu-Ka1_film-3mm_5s-deg.xyd
    1.500    8.6151
    1.530    8.5308
    1.560    8.2780
    1.590    8.1938
    1.620    8.1938
    1.650    8.2254
    1.680    8.0569
    1.710    7.8041
    1.740    7.7830
    1.770    7.6251
    1.800    7.9200
    1.830    7.3723
    1.860    7.6040
    1.890    7.3196
    1.920    6.9089
    1.950    7.2354
    1.980    7.3302
    2.010    7.2354
    2.040    6.9616
    2.070    6.5613
    2.100    7.2038
    2.130    6.8457
    2.160    6.7825
    2.190    6.4139
    2.220    6.6351
    2.250    6.5719
    2.280    6.4244
    2.310    6.4244
    2.340    6.4876
    2.370    6.5508
    2.400    6.2138
    2.430    6.4139
    2.460    6.5929
    2.490    6.1190
    2.520    6.2454
    2.550    6.2665
    2.580    6.0348
    2.610    5.9189
    2.640    6.3507
    2.670    5.7715
    2.700    6.0979
    2.730    5.9505
    2.760    5.8768
    2.790    5.8347
    2.820    5.5819
    2.850    5.7188
    2.880    5.7820
    2.910    5.7820
    2.940    5.8031
    2.970    5.6345
    3.000    5.2554
    3.030    5.6556
    3.060    5.4871
    3.090    5.6029
    3.120    5.3818
    3.150    5.5503
    3.180    5.4239
    3.210    5.5608
    3.240    5.3818
    3.270    5.6345
    3.300    5.3923
    3.330    5.2870
    3.360    5.6767
    3.390    5.4239
    3.420    5.2870
    3.450    5.4976
    3.480    5.4239
    3.510    5.6767
    3.540    5.4239
    3.570    5.4976
    3.600    5.2449
    3.630    5.4766
    3.660    5.2765
    3.690    5.6135
    3.720    4.6130
    3.750    5.2554
    3.780    5.4871
    3.810    5.8241
    3.840    5.6872
    3.870    5.5398
    3.900    4.9289
    3.930    5.5187
    3.960    5.6661
    3.990    5.2238
    4.020    5.4660
    4.050    5.6767
    4.080    5.4976
    4.110    4.9184
    4.140    5.7504
    4.170    5.5714
    4.200    5.3923
    4.230    5.9084
    4.260    5.2343
    4.290    5.4660
    4.320    5.7083
    4.350    5.6451
    4.380    5.6872
    4.410    5.5714
    4.440    5.7715
    4.470    5.8031
    4.500    5.7188
    4.530    5.5503
    4.560    5.5187
    4.590    5.6345
    4.620    5.5503
    4.650    5.5503
    4.680    5.6029
    4.710    5.6240
    4.740    5.3818
    4.770    5.5819
    4.800    5.7504
    4.830    5.6767
    4.860    5.8978
    4.890    6.1822
    4.920    6.1085
    4.950    5.8031
    4.980    6.0348
    5.010    5.8873
    5.040    6.0137
    5.070    6.4455
    5.100    5.7715
    5.130    6.2981
    5.160    6.2665
    5.190    6.7720
    5.220    6.8352
    5.250    6.8668
    5.280    7.0248
    5.310    6.9932
    5.340    7.2565
    5.370    6.8878
    5.400    7.7199
    5.430    7.3196
    5.460    7.4144
    5.490    7.6040
    5.520    7.6251
    5.550    7.5408
    5.580    7.1301
    5.610    7.3302
    5.640    7.4776
    5.670    7.3302
    5.700    7.6461
    5.730    7.1195
    5.760    7.1406
    5.790    7.0458
    5.820    6.7299
    5.850    6.3823
    5.880    6.2033
    5.910    6.0348
    5.940    6.3507
    5.970    6.3086
    6.000    6.2665
    6.030    5.4555
    6.060    6.1085
    6.090    5.9716
    6.120    5.5398
    6.150    5.3712
    6.180    5.6872
    6.210    5.4344
    6.240    4.9710
    6.270    5.3186
    6.300    5.3291
    6.330    5.3712
    6.360    5.2765
    6.390    4.9921
    6.420    5.2238
    6.450    5.1395
    6.480    4.9816
    6.510    5.2449
    6.540    4.7920
    6.570    4.8025
    6.600    5.0974
    6.630    4.9394
    6.660    4.9184
    6.690    4.9394
    6.720    4.8131
    6.750    5.0237
    6.780    4.5603
    6.810    5.0448
    6.840    4.6024
    6.870    4.6024
    6.900    4.8657
    6.930    4.3813
    6.960    4.9500
    6.990    4.7077
    7.020    4.4550
    7.050    4.6340
    7.080    4.3602
    7.110    4.2759
    7.140    4.2338
    7.170    4.4760
    7.200    4.4023
    7.230    4.2127
    7.260    4.4023
    7.290    3.9494
    7.320    4.0021
    7.350    4.2233
    7.380    4.0969
    7.410    3.9284
    7.440    4.3918
    7.470    4.3286
    7.500    3.6335
    7.530    4.1390
    7.560    3.6335
    7.590    3.8968
    7.620    3.9916
    7.650    3.8231
    7.680    4.2654
    7.710    3.6862
    7.740    3.8336
    7.770    3.8547
    7.800    3.9389
    7.830    3.5598
    7.860    3.8547
    7.890    3.6335
    7.920    3.5808
    7.950    3.6651
    7.980    3.6862
    8.010    3.2543
    8.040    3.6756
    8.070    3.7072
    8.100    3.4966
    8.130    3.6019
    8.160    3.6019
    8.190    3.5598
    8.220    3.3070
    8.250    3.6019
    8.280    3.5808
    8.310    3.4755
    8.340    3.6967
    8.370    3.2649
    8.400    3.1280
    8.430    3.2438
    8.460    3.4966
    8.490    3.2859
    8.520    3.8020
    8.550    3.7493
    8.580    3.6756
    8.610    3.1280
    8.640    3.5808
    8.670    3.3702
    8.700    3.1069
    8.730    3.3491
    8.760    3.5808
    8.790    3.3070
    8.820    3.3491
    8.850    3.2965
    8.880    3.2017
    8.910    3.2333
    8.940    3.4755
    8.970    3.2754
    9.000    3.2438
    9.030    3.0648
    9.060    3.2333
    9.090    3.3913
    9.120    3.1490
    9.150    3.3491
    9.180    3.4123
    9.210    2.8857
    9.240    3.3491
    9.270    3.3070
    9.300    3.2122
    9.330    2.9595
    9.360    3.3597
    9.390    3.1806
    9.420    3.1806
    9.450    3.2754
    9.480    3.0016
    9.510    3.0542
    9.540    3.2754
    9.570    3.3175
    9.600    2.8857
    9.630    2.8436
    9.660    3.0648
    9.690    3.4439
    9.720    3.3281
    9.750    3.3702
    9.780    3.3175
    9.810    3.2965
    9.840    3.3281
    9.870    3.3386
    9.900    3.2754
    9.930    3.0542
    9.960    3.1069
    9.990    3.2227
   10.020    3.0016
   10.050    3.1490
   10.080    3.0437
   10.110    3.2649
   10.140    2.9700
   10.170    3.2649
   10.200    3.2543
   10.230    3.1701
   10.260    3.4018
   10.290    3.4334
   10.320    2.9805
   10.350    3.4334
   10.380    3.2017
   10.410    3.2017
   10.440    3.1596
   10.470    3.5282
   10.500    3.4334
   10.530    3.4334
   10.560    3.3491
   10.590    3.2227
   10.620    3.2965
   10.650    3.2543
   10.680    3.2227
   10.710    3.1912
   10.740    3.4544
   10.770    3.2754
   10.800    3.3913
   10.830    3.6124
   10.860    3.6967
   10.890    3.4018
   10.920    3.4650
   10.950    3.6335
   10.980    3.3070
   11.010    3.5703
   11.040    3.0753
   11.070    3.4860
   11.100    3.3281
   11.130    3.3807
   11.160    3.3597
   11.190    3.2017
   11.220    3.5071
   11.250    3.6440
   11.280    3.3702
   11.310    3.8020
   11.340    3.5492
   11.370    3.3491
   11.400    3.6546
   11.430    3.7493
   11.460    3.3281
   11.490    3.2965
   11.520    3.3597
   11.550    3.2438
   11.580    3.5598
   11.610    3.5387
   11.640    3.4966
   11.670    3.3491
   11.700    3.3070
   11.730    3.3386
   11.760    3.5071
   11.790    3.3913
   11.820    3.3807
   11.850    3.3597
   11.880    3.2543
   11.910    3.4334
   11.940    3.1596
   11.970    3.5598
   12.000    3.3913
   12.030    3.4650
   12.060    3.2543
   12.090    3.4860
   12.120    3.3175
   12.150    3.4544
   12.180    3.4123
   12.210    3.2543
   12.240    3.4439
   12.270    3.6440
   12.300    3.3281
   12.330    3.2859
   12.360    3.1701
   12.390    3.4755
   12.420    3.0753
   12.450    3.4966
   12.480    3.1385
   12.510    3.4439
   12.540    3.8231
   12.570    3.2543
   12.600    3.2965
   12.630    2.9700
   12.660    3.5914
   12.690    3.1069
   12.720    2.8963
   12.750    3.1174
   12.780    3.2754
   12.810    3.0858
   12.840    3.6124
   12.870    3.0121
   12.900    3.0964
   12.930    3.1385
   12.960    3.3175
   12.990    3.1701
   13.020    3.2122
   13.050    3.3281
   13.080    3.4018
   13.110    3.3386
   13.140    3.3807
   13.170    3.3070
   13.200    3.2649
   13.230    3.0648
   13.260    3.2859
   13.290    3.3807
   13.320    3.1490
   13.350    3.0121
   13.380    3.1701
   13.410    2.9805
   13.440    3.0858
   13.470    3.1596
   13.500    3.0542
   13.530    2.8963
   13.560    3.4860
   13.590    3.2649
   13.620    3.1596
   13.650    3.0332
   13.680    3.2017
   13.710    3.3491
   13.740    3.4229
   13.770    3.3281
   13.800    3.0858
   13.830    3.3702
   13.860    2.9805
   13.890    3.5492
   13.920    3.1701
   13.950    3.1174
   13.980    3.5598
   14.010    3.4123
   14.040    3.4650
   14.070    3.2859
   14.100    3.6440
   14.130    3.4860
   14.160    3.4544
   14.190    3.4229
   14.220    3.2227
   14.250    3.4334
   14.280    3.4966
   14.310    3.3913
   14.340    3.3281
   14.370    3.7704
   14.400    3.7388
   14.430    3.8757
   14.460    3.7072
   14.490    3.6230
   14.520    3.5176
   14.550    3.7704
   14.580    3.4439
   14.610    3.7177
   14.640    3.5808
   14.670    3.6124
   14.700    3.5176
   14.730    3.6124
   14.760    3.6019
   14.790    3.6967
   14.820    3.2017
   14.850    3.6967
   14.880    3.5492
   14.910    3.2965
   14.940    3.2227
   14.970    3.1806
   15.000    3.4439
   15.030    3.3702
   15.060    3.3175
   15.090    3.4544
   15.120    3.2438
   15.150    3.2227
   15.180    3.4860
   15.210    3.4018
   15.240    2.9489
   15.270    3.2017
   15.300    3.2333
   15.330    3.3070
   15.360    3.3386
   15.390    3.4544
   15.420    3.1596
   15.450    3.0016
   15.480    3.1912
   15.510    3.4544
   15.540    3.1596
   15.570    2.9700
   15.600    3.5492
   15.630    3.5387
   15.660    3.2017
   15.690    3.1596
   15.720    3.2017
   15.750    3.4966
   15.780    3.3175
   15.810    3.6756
   15.840    3.3070
   15.870    3.7177
   15.900    3.2859
   15.930    3.3070
   15.960    3.4334
   15.990    3.2754
   16.020    3.2649
   16.050    3.2438
   16.080    3.4229
   16.110    3.4229
   16.140    3.0964
   16.170    3.1912
   16.200    3.4018
   16.230    3.4229
   16.260    3.3702
   16.290    3.2227
   16.320    3.2649
   16.350    3.5176
   16.380    3.3913
   16.410    3.2438
   16.440    3.4018
   16.470    3.3386
   16.500    3.3070
   16.530    3.3386
   16.560    3.3175
   16.590    3.3070
   16.620    2.9279
   16.650    3.2859
   16.680    3.3597
   16.710    3.4966
   16.740    3.3491
   16.770    3.5282
   16.800    3.2859
   16.830    3.2333
   16.860    3.2017
   16.890    3.4755
   16.920    3.2227
   16.950    3.1596
   16.980    3.1174
   17.010    3.4860
   17.040    3.5703
   17.070    3.2859
   17.100    3.2859
   17.130    3.5071
   17.160    3.7599
   17.190    3.4018
   17.220    3.4123
   17.250    3.3702
   17.280    3.2543
   17.310    3.1806
   17.340    3.4439
   17.370    3.1596
   17.400    3.4755
   17.430    3.4018
   17.460    3.4860
   17.490    3.2649
   17.520    3.1490
   17.550    3.3913
   17.580    2.9700
   17.610    3.0648
   17.640    3.1701
   17.670    3.1912
   17.700    3.1280
   17.730    3.3281
   17.760    3.4229
   17.790    3.4544
   17.820    3.2859
   17.850    3.4439
   17.880    3.2438
   17.910    3.1912
   17.940    3.2438
   17.970    3.3070
   18.000    3.3491
   18.030    3.1701
   18.060    3.4650
   18.090    3.2965
   18.120    3.4439
   18.150    3.4229
   18.180    3.0753
   18.210    3.3175
   18.240    3.4544
   18.270    2.9700
   18.300    3.0648
   18.330    3.2017
   18.360    3.4334
   18.390    3.2438
   18.420    3.3597
   18.450    3.3281
   18.480    3.3597
   18.510    2.9595
   18.540    3.4860
   18.570    3.2543
   18.600    3.1701
   18.630    3.2227
   18.660    2.9700
   18.690    3.4755
   18.720    3.3386
   18.750    3.1701
   18.780    3.4755
   18.810    3.0121
   18.840    3.3175
   18.870    3.0753
   18.900    3.2859
   18.930    3.0858
   18.960    3.1912
   18.990    3.1280
   19.020    3.2859
   19.050    3.0964
   19.080    3.2122
   19.110    3.4755
   19.140    3.1596
   19.170    3.5598
   19.200    3.0437
   19.230    3.2649
   19.260    3.2649
   19.290    3.3175
   19.320    3.1280
   19.350    3.3702
   19.380    2.9700
   19.410    3.1912
   19.440    3.3070
   19.470    3.1385
   19.500    3.2227
   19.530    3.1596
   19.560    3.1701
   19.590    3.1912
   19.620    3.0437
   19.650    2.9595
   19.680    3.1490
   19.710    3.2859
   19.740    3.2122
   19.770    3.4018
   19.800    3.2122
   19.830    3.0332
   19.860    3.1069
   19.890    3.1385
   19.920    3.2754
   19.950    2.9173
   19.980    3.2543
   20.010    3.0332
   20.040    2.8752
   20.070    2.9700
   20.100    3.0858
   20.130    2.8857
   20.160    2.9910
   20.190    2.7488
   20.220    3.0226
   20.250    3.0226
   20.280    3.0964
   20.310    3.1385
   20.340    2.9384
   20.370    2.8647
   20.400    3.1385
   20.430    2.9805
   20.460    2.9068
   20.490    2.8647
   20.520    2.9173
   20.550    3.2965
   20.580    2.8541
   20.610    3.0858
   20.640    3.2438
   20.670    2.9595
   20.700    3.1280
   20.730    3.0437
   20.760    3.0016
   20.790    2.8436
   20.820    3.0753
   20.850    3.2017
   20.880    2.5066
   20.910    3.0226
   20.940    2.9384
   20.970    3.1912
   21.000    3.2438
   21.030    3.1701
   21.060    2.8331
   21.090    3.0437
   21.120    2.9068
   21.150    2.8015
   21.180    2.9805
   21.210    2.7067
   21.240    2.8120
   21.270    3.1806
   21.300    2.8541
   21.330    2.8857
   21.360    2.7593
   21.390    2.8331
   21.420    2.8331
   21.450    3.0226
   21.480    2.8331
   21.510    2.9489
   21.540    2.9068
   21.570    2.9384
   21.600    2.9068
   21.630    2.8120
   21.660    3.0226
   21.690    2.9173
   21.720    2.6646
   21.750    2.7067
   21.780    2.8120
   21.810    2.8331
   21.840    2.8436
   21.870    2.9279
   21.900    2.7383
   21.930    2.6856
   21.960    2.7593
   21.990    3.0016
   22.020    2.6856
   22.050    2.8963
   22.080    2.7909
   22.110    2.7278
   22.140    2.6330
   22.170    2.6330
   22.200    2.7804
   22.230    2.7488
   22.260    2.7593
   22.290    2.6224
   22.320    2.7593
   22.350    2.6330
   22.380    2.7172
   22.410    2.8225
   22.440    2.9910
   22.470    2.4645
   22.500    2.5803
   22.530    2.7488
   22.560    3.0437
   22.590    2.8015
   22.620    2.6646
   22.650    2.6435
   22.680    2.8015
   22.710    2.6962
   22.740    2.7804
   22.770    2.4329
   22.800    2.4750
   22.830    2.4750
   22.860    2.7804
   22.890    2.5171
   22.920    2.5803
   22.950    2.6224
   22.980    2.5698
   23.010    2.5171
   23.040    2.4013
   23.070    2.8541
   23.100    2.5171
   23.130    2.4961
   23.160    2.5171
   23.190    2.5908
   23.220    2.6119
   23.250    2.5908
   23.280    2.7278
   23.310    2.4645
   23.340    2.6119
   23.370    2.4013
   23.400    2.5382
   23.430    2.5592
   23.460    2.3591
   23.490    2.4645
   23.520    2.7804
   23.550    2.8963
   23.580    2.9068
   23.610    2.7909
   23.640    2.4118
   23.670    2.4855
   23.700    2.7067
   23.730    2.4645
   23.760    2.1274
   23.790    2.6962
   23.820    2.5382
   23.850    2.6224
   23.880    2.4645
   23.910    2.1590
   23.940    2.5276
   23.970    2.2959
   24.000    2.4013
   24.030    2.5803
   24.060    2.4645
   24.090    2.2959
   24.120    2.4013
   24.150    2.4329
   24.180    2.4329
   24.210    2.2117
   24.240    2.4118
   24.270    2.5487
   24.300    2.3907
   24.330    2.3802
   24.360    2.3170
   24.390    2.2749
   24.420    2.4645
   24.450    2.1380
   24.480    2.4013
   24.510    2.5382
   24.540    2.3907
   24.570    2.3697
   24.600    2.5276
   24.630    2.3907
   24.660    2.3381
   24.690    2.1169
   24.720    2.3486
   24.750    2.1801
   24.780    2.4329
   24.810    2.3697
   24.840    2.1906
   24.870    2.2328
   24.900    2.4329
   24.930    2.2433
   24.960    2.2433
   24.990    2.3486
   25.020    2.4118
   25.050    2.4013
   25.080    2.2643
   25.110    2.0853
   25.140    2.2433
   25.170    2.2959
   25.200    2.2749
   25.230    2.3381
   25.260    2.3170
   25.290    2.2749
   25.320    2.3275
   25.350    2.1590
   25.380    2.3381
   25.410    2.2749
   25.440    2.3170
   25.470    2.2749
   25.500    2.2643
   25.530    2.1590
   25.560    2.5171
   25.590    2.1696
   25.620    2.4434
   25.650    2.3065
   25.680    2.2117
   25.710    2.2854
   25.740    2.1274
   25.770    2.3486
   25.800    2.1801
   25.830    1.9484
   25.860    2.3275
   25.890    2.1380
   25.920    2.1696
   25.950    2.0221
   25.980    2.0326
   26.010    2.1906
   26.040    2.1380
   26.070    2.2012
   26.100    2.1274
   26.130    2.3065
   26.160    2.2222
   26.190    1.9379
   26.220    2.2854
   26.250    2.1169
   26.280    2.2222
   26.310    1.9905
   26.340    2.2012
   26.370    2.0853
   26.400    2.0221
   26.430    1.9484
   26.460    2.0958
   26.490    2.1380
   26.520    2.0326
   26.550    2.1590
   26.580    1.9484
   26.610    2.0432
   26.640    2.1906
   26.670    2.0221
   26.700    2.0537
   26.730    1.8852
   26.760    2.0853
   26.790    1.9695
   26.820    1.9379
   26.850    2.2222
   26.880    1.9484
   26.910    2.0958
   26.940    1.9168
   26.970    1.9379
   27.000    1.8852
   27.030    2.2012
   27.060    2.0011
   27.090    2.1274
   27.120    1.9800
   27.150    2.0537
   27.180    2.1801
   27.210    1.8115
   27.240    1.9484
   27.270    2.0221
   27.300    2.1485
   27.330    2.0853
   27.360    2.1485
   27.390    1.8536
   27.420    1.9168
   27.450    1.8747
   27.480    1.6956
   27.510    2.0326
   27.540    1.7904
   27.570    1.8115
   27.600    1.9800
   27.630    1.6219
   27.660    1.9905
   27.690    1.7799
   27.720    1.9695
   27.750    1.8431
   27.780    1.6324
   27.810    2.0326
   27.840    1.8220
   27.870    1.6746
   27.900    1.6324
   27.930    1.6851
   27.960    1.7272
   27.990    1.8431
   28.020    1.7167
   28.050    1.6219
   28.080    1.9379
   28.110    1.8009
   28.140    1.7799
   28.170    1.6851
   28.200    1.8957
   28.230    1.8009
   28.260    1.6746
   28.290    1.5798
   28.320    1.6008
   28.350    1.5798
   28.380    1.7167
   28.410    1.8536
   28.440    1.7904
   28.470    1.5482
   28.500    1.6746
   28.530    1.8115
   28.560    1.9379
   28.590    1.7904
   28.620    1.8957
   28.650    1.8536
   28.680    1.7483
   28.710    1.7588
   28.740    1.7378
   28.770    1.7483
   28.800    1.7272
   28.830    1.9273
   28.860    1.8536
   28.890    1.8852
   28.920    1.7167
   28.950    1.6219
   28.980    1.7378
   29.010    1.7588
   29.040    1.7483
   29.070    1.7062
   29.100    1.7167
   29.130    1.7694
   29.160    1.7378
   29.190    1.7694
   29.220    1.7378
   29.250    1.8325
   29.280    1.5482
   29.310    1.7167
   29.340    1.5692
   29.370    1.5903
   29.400    1.7272
   29.430    1.4850
   29.460    1.5271
   29.490    1.6640
   29.520    1.5166
   29.550    1.7378
   29.580    1.5166
   29.610    1.6640
   29.640    1.4745
   29.670    1.6114
   29.700    1.6008
   29.730    1.5377
   29.760    1.6008
   29.790    1.5482
   29.820    1.5377
   29.850    1.7272
   29.880    1.4429
   29.910    1.5061
   29.940    1.5587
   29.970    1.7062
   30.000    1.6324
   30.030    1.6008
   30.060    1.4955
   30.090    1.5166
   30.120    1.6956
   30.150    1.2849
   30.180    1.4850
   30.210    1.4429
   30.240    1.5903
   30.270    1.4850
   30.300    1.4639
   30.330    1.5587
   30.360    1.4955
   30.390    1.4639
   30.420    1.3902
   30.450    1.4534
   30.480    1.2322
   30.510    1.6430
   30.540    1.2849
   30.570    1.4639
   30.600    1.5166
   30.630    1.4534
   30.660    1.3481
   30.690    1.4218
   30.720    1.4323
   30.750    1.4113
   30.780    1.4113
   30.810    1.5482
   30.840    1.3165
   30.870    1.4955
   30.900    1.3270
   30.930    1.3797
   30.960    1.4955
   30.990    1.3375
   31.020    1.2849
   31.050    1.4534
   31.080    1.6114
   31.110    1.3375
   31.140    1.1585
   31.170    1.3270
   31.200    1.3691
   31.230    1.3902
   31.260    1.2112
   31.290    1.2533
   31.320    1.1901
   31.350    1.4745
   31.380    1.4218
   31.410    1.1480
   31.440    1.3270
   31.470    1.2954
   31.500    1.1690
   31.530    1.1269
   31.560    1.2322
   31.590    1.3060
   31.620    1.4007
   31.650    1.3060
   31.680    1.3060
   31.710    1.1585
   31.740    1.3691
   31.770    1.3481
   31.800    1.5271
   31.830    1.3481
   31.860    1.1901
   31.890    1.3060
   31.920    1.3060
   31.950    1.3375
   31.980    1.2217
   32.010    1.2954
   32.040    1.2112
   32.070    1.2744
   32.100    1.2954
   32.130    1.2638
   32.160    1.1374
   32.190    1.1585
   32.220    1.2638
   32.250    1.2954
   32.280    1.1480
   32.310    1.1796
   32.340    1.2112
   32.370    1.3586
   32.400    1.0742
   32.430    1.1164
   32.460    1.2428
   32.490    1.1374
   32.520    1.1901
   32.550    1.2849
   32.580    1.2849
   32.610    1.2217
   32.640    1.4218
   32.670    1.0427
   32.700    1.0321
   32.730    1.3270
   32.760    1.2112
   32.790    1.1058
   32.820    1.1269
   32.850    1.2849
   32.880    1.1374
   32.910    1.3691
   32.940    1.0321
   32.970    1.0427
   33.000    1.1901
   33.030    1.1374
   33.060    1.1164
   33.090    1.1901
   33.120    1.2849
   33.150    1.2428
   33.180    1.1585
   33.210    1.1164
   33.240    1.3691
   33.270    1.1269
   33.300    1.1901
   33.330    1.2638
   33.360    1.1269
   33.390    1.2112
   33.420    1.0005
   33.450    1.1901
   33.480    1.2006
   33.510    1.1585
   33.540    1.1901
   33.570    1.0427
   33.600    1.2006
   33.630    1.1374
   33.660    0.9479
   33.690    1.1796
   33.720    0.9163
   33.750    1.1901
   33.780    1.2638
   33.810    1.1058
   33.840    1.1796
   33.870    1.0427
   33.900    1.2428
   33.930    1.2322
   33.960    1.2112
   33.990    1.2428
   34.020    1.0953
   34.050    1.2217
   34.080    1.1058
   34.110    1.0005
   34.140    1.0637
   34.170    1.2006
   34.200    0.9268
   34.230    1.2428
   34.260    0.9373
   34.290    1.1374
   34.320    1.0953
   34.350    1.1796
   34.380    1.0953
   34.410    1.1374
   34.440    1.0532
   34.470    1.0216
   34.500    1.1269
   34.530    1.1480
   34.560    1.0848
   34.590    1.0111
   34.620    0.9689
   34.650    0.9163
   34.680    1.0216
   34.710    1.2006
   34.740    0.9689
   34.770    1.0111
   34.800    1.1901
   34.830    1.1269
   34.860    1.0216
   34.890    0.9900
   34.920    1.2322
   34.950    1.2638
   34.980    1.0005
   35.010    0.9900
   35.040    1.2533
   35.070    1.0742
   35.100    0.9057
   35.130    0.9479
   35.160    1.1269
   35.190    0.9900
   35.220    1.2638
   35.250    1.2638
   35.280    1.0216
   35.310    0.9584
   35.340    1.0005
   35.370    1.0321
   35.400    1.0742
   35.430    1.1374
   35.460    0.9584
   35.490    0.9900
   35.520    0.9479
   35.550    1.0427
   35.580    1.2428
   35.610    0.9900
   35.640    1.0637
   35.670    0.9795
   35.700    1.0216
   35.730    1.1901
   35.760    1.1690
   35.790    0.9268
   35.820    0.8636
   35.850    1.1058
   35.880    1.1690
   35.910    1.1901
   35.940    1.0111
   35.970    1.0111
   36.000    1.0321
   36.030    1.0005
   36.060    1.0216
   36.090    0.9163
   36.120    1.0216
   36.150    1.0742
   36.180    0.9900
   36.210    0.9268
   36.240    1.0427
   36.270    1.0953
   36.300    1.0111
   36.330    1.0953
   36.360    1.0742
   36.390    1.0532
   36.420    0.9479
   36.450    1.1374
   36.480    0.8741
   36.510    0.8741
   36.540    1.0848
   36.570    0.9584
   36.600    0.8847
   36.630    0.8952
   36.660    1.0321
   36.690    0.9795
   36.720    0.8531
   36.750    1.1164
   36.780    1.0427
   36.810    1.0532
   36.840    0.9163
   36.870    0.9795
   36.900    0.9795
   36.930    1.0532
   36.960    1.1058
   36.990    0.9584
   37.020    0.9584
   37.050    0.9268
   37.080    0.9268
   37.110    0.9584
   37.140    1.0216
   37.170    0.9163
   37.200    0.8320
   37.230    0.9479
   37.260    0.9689
   37.290    0.9900
   37.320    0.9373
   37.350    1.0111
   37.380    1.0637
   37.410    1.0637
   37.440    1.0742
   37.470    0.9795
   37.500    1.0111
   37.530    0.8952
   37.560    0.8531
   37.590    0.8110
   37.620    1.1480
   37.650    0.9689
   37.680    1.0321
   37.710    1.0005
   37.740    0.9584
   37.770    1.0321
   37.800    0.8952
   37.830    0.8425
   37.860    0.9584
   37.890    1.0637
   37.920    0.9268
   37.950    0.8531
   37.980    0.9584
   38.010    0.8320
   38.040    0.9268
   38.070    0.9057
   38.100    1.0005
   38.130    0.8636
   38.160    0.9479
   38.190    0.9900
   38.220    0.7899
   38.250    1.0427
   38.280    1.0742
   38.310    0.9163
   38.340    0.8425
   38.370    0.8636
   38.400    0.8531
   38.430    0.9584
   38.460    1.0321
   38.490    1.0532
   38.520    1.0953
   38.550    0.9795
   38.580    0.9163
   38.610    0.9163
   38.640    0.9268
   38.670    0.9900
   38.700    0.8531
   38.730    1.0321
   38.760    0.9900
   38.790    0.9584
   38.820    0.8531
   38.850    1.0216
   38.880    1.0321
   38.910    0.8425
   38.940    1.0111
   38.970    0.8952
   39.000    1.0427
   39.030    0.8847
   39.060    0.8636
   39.090    0.9057
   39.120    0.9373
   39.150    0.8531
   39.180    0.8741
   39.210    0.9584
   39.240    0.9057
   39.270    0.8741
   39.300    0.8215
   39.330    0.9057
   39.360    0.9268
   39.390    0.9584
   39.420    0.9900
   39.450    0.8636
   39.480    0.8847
   39.510    0.8531
   39.540    0.8215
   39.570    0.8847
   39.600    0.9057
   39.630    1.0848
   39.660    0.8110
   39.690    0.9268
   39.720    0.8531
   39.750    0.8636
   39.780    0.8004
   39.810    0.8320
   39.840    0.7056
   39.870    0.9795
   39.900    0.9057
   39.930    1.0742
   39.960    0.9373
   39.990    1.0532