File: data/PXRD/PXRD_KE-088_Cu-Ka1_film-3mm_5s-deg.xyd
    1.500   21.4218
    1.530   21.2533
    1.560   19.3154
    1.590   18.5045
    1.620   18.0832
    1.650   16.9879
    1.680   16.7035
    1.710   15.8083
    1.740   15.5872
    1.770   14.7341
    1.800   13.8915
    1.830   13.7546
    1.860   12.9331
    1.890   12.0169
    1.920   12.2801
    1.950   11.7430
    1.980   12.1748
    2.010   11.2375
    2.040   11.0795
    2.070   10.9742
    2.100   10.3002
    2.130    9.9842
    2.160    9.5419
    2.190    9.7630
    2.220    9.7841
    2.250    9.2259
    2.280    9.0890
    2.310    8.8152
    2.340    8.4255
    2.370    8.6151
    2.400    8.3939
    2.430    8.7625
    2.460    7.8462
    2.490    8.0885
    2.520    7.8989
    2.550    7.9410
    2.580    7.5303
    2.610    7.5619
    2.640    7.4039
    2.670    7.2880
    2.700    7.0142
    2.730    7.4987
    2.760    7.0248
    2.790    7.2880
    2.820    6.7299
    2.850    7.0669
    2.880    6.6140
    2.910    6.3612
    2.940    6.7615
    2.970    6.5824
    3.000    6.0348
    3.030    6.3823
    3.060    6.1506
    3.090    6.2349
    3.120    6.3086
    3.150    6.2138
    3.180    5.8768
    3.210    6.1401
    3.240    6.0664
    3.270    5.8873
    3.300    6.1611
    3.330    6.2243
    3.360    6.0348
    3.390    5.8768
    3.420    5.8031
    3.450    6.3296
    3.480    5.4660
    3.510    5.5924
    3.540    5.6661
    3.570    6.0348
    3.600    5.9084
    3.630    5.5819
    3.660    5.3502
    3.690    5.8347
    3.720    5.9821
    3.750    5.5292
    3.780    5.9926
    3.810    5.6767
    3.840    5.4344
    3.870    5.6345
    3.900    5.7293
    3.930    5.6872
    3.960    5.5924
    3.990    5.8136
    4.020    5.7188
    4.050    5.6345
    4.080    6.1506
    4.110    5.6345
    4.140    6.0874
    4.170    5.6661
    4.200    5.8662
    4.230    5.6345
    4.260    5.4344
    4.290    5.5082
    4.320    5.7820
    4.350    5.9084
    4.380    5.4450
    4.410    5.7715
    4.440    5.3818
    4.470    5.6135
    4.500    5.8031
    4.530    5.9610
    4.560    6.0348
    4.590    5.6345
    4.620    5.7399
    4.650    5.5503
    4.680    5.9610
    4.710    5.7188
    4.740    5.8557
    4.770    5.4660
    4.800    5.6872
    4.830    5.8347
    4.860    6.0558
    4.890    6.0453
    4.920    6.1295
    4.950    6.2770
    4.980    6.1085
    5.010    5.9716
    5.040    6.3507
    5.070    6.2875
    5.100    6.3612
    5.130    6.8141
    5.160    6.5613
    5.190    6.6877
    5.220    6.7720
    5.250    6.8878
    5.280    6.9194
    5.310    7.0879
    5.340    7.0774
    5.370    7.4987
    5.400    7.2880
    5.430    7.9726
    5.460    7.6251
    5.490    7.2565
    5.520    7.6567
    5.550    7.6145
    5.580    7.1827
    5.610    7.8462
    5.640    7.2565
    5.670    7.8462
    5.700    7.4882
    5.730    7.2143
    5.760    6.9089
    5.790    7.2038
    5.820    6.7299
    5.850    6.8457
    5.880    6.4666
    5.910    5.9821
    5.940    6.5824
    5.970    6.0242
    6.000    6.1611
    6.030    5.8136
    6.060    5.6135
    6.090    5.6977
    6.120    5.7293
    6.150    6.0979
    6.180    5.6135
    6.210    5.5398
    6.240    5.6135
    6.270    5.3397
    6.300    5.5924
    6.330    5.3502
    6.360    5.3818
    6.390    5.5187
    6.420    4.9816
    6.450    5.2133
    6.480    5.1606
    6.510    5.1711
    6.540    5.1395
    6.570    5.0026
    6.600    4.9078
    6.630    5.1290
    6.660    5.2765
    6.690    4.6130
    6.720    5.0869
    6.750    4.7183
    6.780    5.0658
    6.810    4.8341
    6.840    5.1395
    6.870    4.8763
    6.900    4.8236
    6.930    4.6656
    6.960    4.6130
    6.990    4.6656
    7.020    4.4550
    7.050    4.5498
    7.080    4.7288
    7.110    4.5287
    7.140    4.2233
    7.170    4.3391
    7.200    4.4971
    7.230    4.2443
    7.260    4.3602
    7.290    4.5919
    7.320    4.4444
    7.350    4.1180
    7.380    4.1811
    7.410    4.1496
    7.440    4.3813
    7.470    4.0864
    7.500    4.3602
    7.530    4.3707
    7.560    4.0021
    7.590    4.2443
    7.620    4.0337
    7.650    4.0442
    7.680    4.3813
    7.710    4.0021
    7.740    4.0232
    7.770    3.9389
    7.800    3.8547
    7.830    3.7809
    7.860    4.0548
    7.890    3.8757
    7.920    3.8968
    7.950    4.0442
    7.980    3.5598
    8.010    3.6230
    8.040    3.6335
    8.070    3.7283
    8.100    3.8336
    8.130    3.6967
    8.160    3.5492
    8.190    3.8441
    8.220    3.7809
    8.250    3.9494
    8.280    3.3175
    8.310    3.5176
    8.340    3.6335
    8.370    3.6124
    8.400    3.6967
    8.430    3.4650
    8.460    3.4123
    8.490    3.6440
    8.520    3.4439
    8.550    3.3807
    8.580    3.6651
    8.610    3.6019
    8.640    3.3913
    8.670    3.6651
    8.700    3.5071
    8.730    3.1280
    8.760    3.5282
    8.790    3.4439
    8.820    3.4439
    8.850    3.5492
    8.880    3.5071
    8.910    3.3807
    8.940    3.3807
    8.970    3.1806
    9.000    3.2754
    9.030    3.2965
    9.060    3.2333
    9.090    3.4229
    9.120    3.4229
    9.150    3.3175
    9.180    3.2965
    9.210    3.1490
    9.240    3.4966
    9.270    3.3070
    9.300    3.1596
    9.330    3.4439
    9.360    3.1701
    9.390    3.3913
    9.420    3.2438
    9.450    3.2227
    9.480    3.0858
    9.510    3.3913
    9.540    2.9384
    9.570    3.0437
    9.600    3.3386
    9.630    3.2965
    9.660    3.2754
    9.690    3.2122
    9.720    3.3702
    9.750    3.2227
    9.780    3.2333
    9.810    3.2122
    9.840    3.0858
    9.870    3.2017
    9.900    3.4755
    9.930    3.2543
    9.960    3.1701
    9.990    3.3807
   10.020    3.3070
   10.050    3.2438
   10.080    3.3386
   10.110    3.3597
   10.140    3.2859
   10.170    3.4755
   10.200    3.1596
   10.230    3.2438
   10.260    3.2649
   10.290    3.5387
   10.320    3.3175
   10.350    3.3281
   10.380    3.5387
   10.410    3.1385
   10.440    3.3597
   10.470    3.3702
   10.500    3.2227
   10.530    3.3281
   10.560    3.3491
   10.590    3.4334
   10.620    3.3070
   10.650    3.5176
   10.680    3.4229
   10.710    3.3807
   10.740    3.2543
   10.770    3.5492
   10.800    3.2649
   10.830    3.4650
   10.860    3.8757
   10.890    3.5703
   10.920    3.6335
   10.950    3.5071
   10.980    3.6651
   11.010    3.6862
   11.040    3.5071
   11.070    3.6230
   11.100    3.6440
   11.130    3.6124
   11.160    3.5914
   11.190    3.6651
   11.220    3.4544
   11.250    3.5703
   11.280    3.4860
   11.310    3.5598
   11.340    3.6862
   11.370    3.3491
   11.400    3.5282
   11.430    3.2333
   11.460    3.3281
   11.490    3.4229
   11.520    3.3386
   11.550    3.7283
   11.580    3.7177
   11.610    3.4334
   11.640    3.4334
   11.670    3.4229
   11.700    3.6651
   11.730    3.3807
   11.760    3.3386
   11.790    3.4334
   11.820    3.4650
   11.850    3.3281
   11.880    3.2649
   11.910    3.2122
   11.940    3.4123
   11.970    3.4650
   12.000    3.4018
   12.030    3.7493
   12.060    3.4334
   12.090    3.4966
   12.120    3.4018
   12.150    3.4334
   12.180    3.3702
   12.210    3.7072
   12.240    3.6019
   12.270    3.4439
   12.300    3.5387
   12.330    3.6967
   12.360    3.2543
   12.390    3.3175
   12.420    3.1596
   12.450    3.3597
   12.480    3.5282
   12.510    3.2333
   12.540    3.4860
   12.570    3.2965
   12.600    3.3175
   12.630    3.5808
   12.660    3.7493
   12.690    3.2227
   12.720    3.5176
   12.750    3.3281
   12.780    3.4544
   12.810    3.3386
   12.840    3.5703
   12.870    3.1701
   12.900    3.4755
   12.930    3.0964
   12.960    3.2333
   12.990    3.5703
   13.020    3.1596
   13.050    3.3491
   13.080    3.3491
   13.110    3.3386
   13.140    3.3070
   13.170    3.2227
   13.200    3.2754
   13.230    3.3702
   13.260    3.2438
   13.290    3.3175
   13.320    3.2227
   13.350    3.2965
   13.380    3.1596
   13.410    3.4650
   13.440    3.5492
   13.470    3.5492
   13.500    3.3491
   13.530    3.5282
   13.560    3.2754
   13.590    3.4123
   13.620    3.4439
   13.650    3.6124
   13.680    3.6335
   13.710    3.3386
   13.740    3.6124
   13.770    3.3597
   13.800    3.3386
   13.830    3.6335
   13.860    3.5492
   13.890    3.6230
   13.920    3.3807
   13.950    3.3597
   13.980    3.5282
   14.010    3.4755
   14.040    3.6230
   14.070    4.0021
   14.100    3.7072
   14.130    3.6335
   14.160    3.8020
   14.190    4.0021
   14.220    3.9073
   14.250    3.6546
   14.280    3.6756
   14.310    3.7915
   14.340    3.7177
   14.370    3.7072
   14.400    3.8441
   14.430    4.0442
   14.460    3.6440
   14.490    4.0021
   14.520    4.0337
   14.550    4.0232
   14.580    3.7704
   14.610    3.8125
   14.640    3.8336
   14.670    4.0337
   14.700    3.9494
   14.730    3.7072
   14.760    3.6546
   14.790    3.6019
   14.820    3.6967
   14.850    3.6124
   14.880    3.7599
   14.910    3.4334
   14.940    3.4123
   14.970    3.9284
   15.000    3.4755
   15.030    3.7599
   15.060    3.5914
   15.090    3.7388
   15.120    3.5071
   15.150    3.5808
   15.180    3.6651
   15.210    3.4650
   15.240    3.5914
   15.270    3.5071
   15.300    3.4860
   15.330    3.6019
   15.360    3.3913
   15.390    3.5598
   15.420    3.7072
   15.450    3.3175
   15.480    3.5387
   15.510    3.5282
   15.540    3.5914
   15.570    3.5387
   15.600    3.5703
   15.630    3.5914
   15.660    3.7072
   15.690    3.5914
   15.720    3.3702
   15.750    3.6335
   15.780    3.6335
   15.810    3.3597
   15.840    3.7493
   15.870    3.8231
   15.900    3.6862
   15.930    3.7177
   15.960    3.3281
   15.990    3.5703
   16.020    3.7283
   16.050    3.8968
   16.080    3.6019
   16.110    3.6651
   16.140    3.4018
   16.170    3.6546
   16.200    3.5914
   16.230    3.4860
   16.260    3.9389
   16.290    3.5071
   16.320    3.8652
   16.350    3.3070
   16.380    3.4650
   16.410    3.4650
   16.440    3.7599
   16.470    3.6230
   16.500    3.5387
   16.530    3.8441
   16.560    3.7809
   16.590    3.6756
   16.620    3.4650
   16.650    3.6756
   16.680    3.4123
   16.710    3.6335
   16.740    3.7493
   16.770    3.2543
   16.800    3.6019
   16.830    3.4860
   16.860    3.7283
   16.890    3.6230
   16.920    3.5387
   16.950    3.4544
   16.980    3.4334
   17.010    3.4123
   17.040    3.9073
   17.070    3.7177
   17.100    3.2859
   17.130    3.2965
   17.160    3.4966
   17.190    3.5914
   17.220    3.5703
   17.250    3.6862
   17.280    3.8336
   17.310    3.5387
   17.340    3.7283
   17.370    3.4966
   17.400    3.7493
   17.430    3.6862
   17.460    3.5282
   17.490    3.7177
   17.520    3.5071
   17.550    3.2965
   17.580    3.4860
   17.610    3.8336
   17.640    3.4229
   17.670    3.7177
   17.700    3.4966
   17.730    3.5808
   17.760    3.6651
   17.790    3.7704
   17.820    3.5387
   17.850    3.6230
   17.880    3.4860
   17.910    3.5387
   17.940    3.6230
   17.970    3.5071
   18.000    3.5703
   18.030    3.7072
   18.060    3.4650
   18.090    3.6230
   18.120    3.6124
   18.150    3.5808
   18.180    3.6019
   18.210    3.8231
   18.240    3.4123
   18.270    3.5492
   18.300    3.4755
   18.330    3.7915
   18.360    3.4439
   18.390    3.5387
   18.420    3.3807
   18.450    3.7493
   18.480    3.5808
   18.510    3.8547
   18.540    3.5598
   18.570    3.5176
   18.600    4.0021
   18.630    3.5598
   18.660    3.6440
   18.690    3.7915
   18.720    3.7704
   18.750    3.7388
   18.780    3.7388
   18.810    3.4966
   18.840    3.7493
   18.870    3.5387
   18.900    3.6862
   18.930    3.4229
   18.960    3.4439
   18.990    3.5598
   19.020    3.5492
   19.050    3.3702
   19.080    3.5282
   19.110    3.4123
   19.140    3.7388
   19.170    3.6230
   19.200    3.8441
   19.230    3.6967
   19.260    3.4860
   19.290    3.4334
   19.320    3.6651
   19.350    3.8020
   19.380    3.8231
   19.410    3.1912
   19.440    3.8231
   19.470    3.4966
   19.500    3.4966
   19.530    3.3807
   19.560    3.7599
   19.590    3.8547
   19.620    3.5598
   19.650    3.4334
   19.680    3.3491
   19.710    3.2859
   19.740    3.7809
   19.770    3.4755
   19.800    3.6862
   19.830    3.3597
   19.860    3.5387
   19.890    3.4439
   19.920    3.4650
   19.950    3.4755
   19.980    3.5808
   20.010    3.5703
   20.040    3.3913
   20.070    3.3491
   20.100    3.4123
   20.130    3.7493
   20.160    3.3807
   20.190    3.4755
   20.220    3.5808
   20.250    3.3702
   20.280    3.4650
   20.310    3.4860
   20.340    3.3913
   20.370    3.5387
   20.400    3.5492
   20.430    3.1490
   20.460    3.3807
   20.490    3.3491
   20.520    3.4966
   20.550    3.4755
   20.580    3.6019
   20.610    3.3281
   20.640    3.2754
   20.670    3.3281
   20.700    3.3175
   20.730    3.3491
   20.760    3.2227
   20.790    3.3175
   20.820    3.3807
   20.850    3.4229
   20.880    3.5282
   20.910    3.4229
   20.940    3.1280
   20.970    3.2649
   21.000    3.1806
   21.030    3.3070
   21.060    3.4123
   21.090    3.4018
   21.120    3.1701
   21.150    3.3386
   21.180    3.3491
   21.210    3.2754
   21.240    3.3070
   21.270    3.2017
   21.300    3.6124
   21.330    3.1596
   21.360    3.3597
   21.390    3.2227
   21.420    3.3175
   21.450    3.4123
   21.480    3.2227
   21.510    3.1596
   21.540    3.4018
   21.570    3.3175
   21.600    3.3281
   21.630    3.4123
   21.660    3.2754
   21.690    3.1069
   21.720    3.2649
   21.750    3.3281
   21.780    3.3913
   21.810    3.0964
   21.840    3.1596
   21.870    3.2227
   21.900    3.2122
   21.930    3.3913
   21.960    3.0437
   21.990    3.2438
   22.020    3.2543
   22.050    3.2438
   22.080    3.2333
   22.110    2.9700
   22.140    3.0121
   22.170    3.1069
   22.200    3.1490
   22.230    2.9700
   22.260    3.1596
   22.290    2.8120
   22.320    2.9173
   22.350    2.7909
   22.380    2.8647
   22.410    3.1490
   22.440    3.2333
   22.470    2.9489
   22.500    2.9595
   22.530    3.3702
   22.560    3.2649
   22.590    3.5282
   22.620    3.3070
   22.650    3.0964
   22.680    3.0121
   22.710    3.0437
   22.740    3.0437
   22.770    3.0121
   22.800    3.0753
   22.830    3.1701
   22.860    2.9384
   22.890    2.6856
   22.920    2.8963
   22.950    2.8541
   22.980    3.0016
   23.010    2.8752
   23.040    3.1280
   23.070    2.7172
   23.100    2.9384
   23.130    3.2649
   23.160    2.9279
   23.190    2.8647
   23.220    2.9068
   23.250    2.8752
   23.280    2.7699
   23.310    2.8225
   23.340    2.7172
   23.370    2.7383
   23.400    2.6330
   23.430    2.8015
   23.460    2.6435
   23.490    2.8647
   23.520    3.0648
   23.550    3.3281
   23.580    3.4334
   23.610    2.7909
   23.640    2.6751
   23.670    2.7699
   23.700    2.5803
   23.730    3.1280
   23.760    2.6646
   23.790    2.7172
   23.820    3.1701
   23.850    2.6119
   23.880    2.7172
   23.910    2.6751
   23.940    2.5803
   23.970    2.6435
   24.000    2.6224
   24.030    2.5171
   24.060    2.8752
   24.090    2.6224
   24.120    2.5592
   24.150    2.6435
   24.180    2.5276
   24.210    2.6646
   24.240    2.6014
   24.270    2.6435
   24.300    2.8015
   24.330    2.6224
   24.360    2.6962
   24.390    2.4750
   24.420    2.6330
   24.450    2.7067
   24.480    2.6119
   24.510    2.3802
   24.540    2.6540
   24.570    2.6224
   24.600    2.5803
   24.630    2.7067
   24.660    2.4329
   24.690    2.7383
   24.720    2.2538
   24.750    2.5592
   24.780    2.5908
   24.810    2.6540
   24.840    2.4855
   24.870    2.5592
   24.900    2.6435
   24.930    2.5487
   24.960    2.5171
   24.990    2.4223
   25.020    2.4329
   25.050    2.7593
   25.080    2.3065
   25.110    2.3486
   25.140    2.1801
   25.170    2.4434
   25.200    2.3486
   25.230    2.4855
   25.260    2.5698
   25.290    2.5698
   25.320    2.3697
   25.350    2.4434
   25.380    2.3907
   25.410    2.6540
   25.440    2.6751
   25.470    3.7072
   25.500    4.5287
   25.530    3.4123
   25.560    2.6014
   25.590    2.3591
   25.620    2.4223
   25.650    2.6435
   25.680    2.3381
   25.710    2.4645
   25.740    2.3065
   25.770    2.4434
   25.800    2.5592
   25.830    2.6014
   25.860    2.3591
   25.890    2.4645
   25.920    2.5276
   25.950    2.5803
   25.980    2.4223
   26.010    2.3170
   26.040    2.2959
   26.070    2.3802
   26.100    2.3170
   26.130    2.3065
   26.160    2.4118
   26.190    2.4329
   26.220    2.4961
   26.250    2.4855
   26.280    2.1696
   26.310    2.4223
   26.340    2.5276
   26.370    2.3065
   26.400    2.2012
   26.430    2.4750
   26.460    2.3486
   26.490    2.1906
   26.520    2.2643
   26.550    2.1485
   26.580    2.3591
   26.610    2.4645
   26.640    2.0853
   26.670    2.2643
   26.700    2.3275
   26.730    2.6330
   26.760    2.0853
   26.790    2.3381
   26.820    2.0958
   26.850    2.1696
   26.880    2.2749
   26.910    2.1274
   26.940    2.0537
   26.970    2.3802
   27.000    2.1801
   27.030    2.1485
   27.060    2.1696
   27.090    2.1906
   27.120    2.1380
   27.150    2.1906
   27.180    2.0853
   27.210    2.0642
   27.240    2.1274
   27.270    2.0432
   27.300    2.0326
   27.330    2.1590
   27.360    2.0537
   27.390    1.9905
   27.420    1.9589
   27.450    2.0326
   27.480    2.0326
   27.510    2.1801
   27.540    2.2749
   27.570    2.0748
   27.600    2.2959
   27.630    2.2117
   27.660    1.9905
   27.690    1.9589
   27.720    2.2643
   27.750    2.0116
   27.780    2.0853
   27.810    2.0748
   27.840    2.0116
   27.870    2.2012
   27.900    1.9589
   27.930    2.0853
   27.960    2.0432
   27.990    1.9484
   28.020    1.8325
   28.050    1.9379
   28.080    2.0958
   28.110    2.0432
   28.140    1.8431
   28.170    2.0011
   28.200    1.9379
   28.230    1.9905
   28.260    2.1485
   28.290    2.0221
   28.320    1.8431
   28.350    1.8325
   28.380    1.9484
   28.410    1.9589
   28.440    1.9273
   28.470    2.0326
   28.500    1.9063
   28.530    1.8641
   28.560    2.1590
   28.590    2.1169
   28.620    1.9589
   28.650    1.9800
   28.680    1.9379
   28.710    2.0326
   28.740    2.2117
   28.770    2.0326
   28.800    2.0432
   28.830    2.0853
   28.860    2.0221
   28.890    1.7694
   28.920    1.9273
   28.950    1.8747
   28.980    1.9589
   29.010    1.9063
   29.040    2.0011
   29.070    1.7062
   29.100    1.9589
   29.130    1.8747
   29.160    1.8747
   29.190    1.9273
   29.220    1.7062
   29.250    1.8747
   29.280    1.9800
   29.310    1.9800
   29.340    1.7588
   29.370    1.6956
   29.400    1.6851
   29.430    1.6324
   29.460    1.6640
   29.490    1.6640
   29.520    1.9168
   29.550    1.6008
   29.580    1.7062
   29.610    1.7167
   29.640    1.8852
   29.670    1.7588
   29.700    1.9484
   29.730    1.7272
   29.760    1.6746
   29.790    1.5587
   29.820    1.7694
   29.850    1.5692
   29.880    1.5798
   29.910    1.6430
   29.940    1.6008
   29.970    1.7483
   30.000    1.6219
   30.030    1.6430
   30.060    1.5798
   30.090    1.6746
   30.120    1.6851
   30.150    1.7483
   30.180    1.6640
   30.210    1.5166
   30.240    1.6956
   30.270    1.6219
   30.300    1.6114
   30.330    1.7167
   30.360    1.5061
   30.390    1.6535
   30.420    1.5692
   30.450    1.3375
   30.480    1.5587
   30.510    1.3691
   30.540    1.5271
   30.570    1.6008
   30.600    1.5587
   30.630    1.4429
   30.660    1.7694
   30.690    1.3797
   30.720    1.6114
   30.750    1.4534
   30.780    1.4745
   30.810    1.4534
   30.840    1.7062
   30.870    1.5692
   30.900    1.6008
   30.930    1.2322
   30.960    1.4429
   30.990    1.6640
   31.020    1.6851
   31.050    1.5061
   31.080    1.5903
   31.110    1.5692
   31.140    1.7062
   31.170    1.5798
   31.200    1.4639
   31.230    1.3375
   31.260    1.5587
   31.290    1.4429
   31.320    1.4323
   31.350    1.5587
   31.380    1.3270
   31.410    1.5903
   31.440    1.5482
   31.470    1.5061
   31.500    1.4113
   31.530    1.3165
   31.560    1.5166
   31.590    1.5903
   31.620    1.3691
   31.650    1.3797
   31.680    1.4955
   31.710    1.5482
   31.740    2.4750
   31.770    2.9910
   31.800    2.3170
   31.830    1.5377
   31.860    1.5271
   31.890    1.4745
   31.920    1.2954
   31.950    1.3691
   31.980    1.4218
   32.010    1.4534
   32.040    1.3797
   32.070    1.2954
   32.100    1.4429
   32.130    1.3165
   32.160    1.3586
   32.190    1.2744
   32.220    1.3165
   32.250    1.3902
   32.280    1.4113
   32.310    1.3902
   32.340    1.3586
   32.370    1.4639
   32.400    1.3375
   32.430    1.3586
   32.460    1.3375
   32.490    1.2428
   32.520    1.4113
   32.550    1.2112
   32.580    1.1480
   32.610    1.4429
   32.640    1.1690
   32.670    1.2954
   32.700    1.5271
   32.730    1.3060
   32.760    1.2954
   32.790    1.3481
   32.820    1.2217
   32.850    1.2112
   32.880    1.3586
   32.910    1.1480
   32.940    1.2428
   32.970    1.2638
   33.000    1.2849
   33.030    1.2954
   33.060    1.2533
   33.090    1.2744
   33.120    1.2849
   33.150    1.1901
   33.180    1.3691
   33.210    1.2006
   33.240    1.3691
   33.270    1.0427
   33.300    1.1058
   33.330    1.5587
   33.360    1.1901
   33.390    1.2217
   33.420    1.1058
   33.450    1.3586
   33.480    1.3165
   33.510    1.3060
   33.540    1.4323
   33.570    1.2217
   33.600    1.4639
   33.630    1.2428
   33.660    1.1901
   33.690    1.1796
   33.720    1.2533
   33.750    1.3375
   33.780    1.1796
   33.810    1.0637
   33.840    1.2006
   33.870    1.2428
   33.900    1.3586
   33.930    1.7272
   33.960    1.7062
   33.990    1.4218
   34.020    1.4007
   34.050    1.2006
   34.080    1.1269
   34.110    1.0427
   34.140    1.1690
   34.170    1.1058
   34.200    1.2849
   34.230    1.1480
   34.260    1.3481
   34.290    1.2428
   34.320    0.9479
   34.350    1.0216
   34.380    1.2428
   34.410    1.1585
   34.440    1.1901
   34.470    1.2112
   34.500    1.1796
   34.530    1.3481
   34.560    1.2638
   34.590    1.2744
   34.620    1.0321
   34.650    1.2428
   34.680    0.9900
   34.710    1.0637
   34.740    1.2954
   34.770    1.0216
   34.800    1.2428
   34.830    1.1269
   34.860    1.1374
   34.890    1.1269
   34.920    0.9689
   34.950    1.2112
   34.980    1.2954
   35.010    1.0637
   35.040    1.1058
   35.070    0.9057
   35.100    1.0848
   35.130    1.1164
   35.160    1.1796
   35.190    1.0427
   35.220    1.0742
   35.250    1.1269
   35.280    1.2744
   35.310    1.1480
   35.340    1.1164
   35.370    1.1901
   35.400    1.0427
   35.430    1.2954
   35.460    1.1480
   35.490    1.2849
   35.520    1.1901
   35.550    1.1269
   35.580    1.2428
   35.610    1.0321
   35.640    1.1901
   35.670    0.9795
   35.700    1.3165
   35.730    1.0953
   35.760    1.0111
   35.790    1.1269
   35.820    1.1164
   35.850    1.0953
   35.880    1.1058
   35.910    1.0637
   35.940    1.2428
   35.970    1.2428
   36.000    1.2112
   36.030    1.0742
   36.060    1.1480
   36.090    1.1164
   36.120    1.0216
   36.150    1.0848
   36.180    1.0953
   36.210    1.0532
   36.240    1.1796
   36.270    1.1690
   36.300    1.1164
   36.330    1.0321
   36.360    1.1690
   36.390    1.1058
   36.420    1.0216
   36.450    1.1690
   36.480    1.3060
   36.510    1.2638
   36.540    1.1164
   36.570    1.2638
   36.600    1.1058
   36.630    1.2006
   36.660    1.1480
   36.690    1.2322
   36.720    1.1480
   36.750    1.0848
   36.780    1.0216
   36.810    1.1901
   36.840    1.0111
   36.870    1.0321
   36.900    1.0953
   36.930    1.1690
   36.960    1.1269
   36.990    1.0637
   37.020    1.1585
   37.050    0.9900
   37.080    1.1164
   37.110    0.9795
   37.140    1.0321
   37.170    1.0953
   37.200    0.9795
   37.230    1.0216
   37.260    1.1164
   37.290    1.2006
   37.320    1.0111
   37.350    1.0111
   37.380    1.0742
   37.410    1.0005
   37.440    1.1374
   37.470    1.1901
   37.500    1.0742
   37.530    0.9479
   37.560    1.2217
   37.590    1.0427
   37.620    0.9479
   37.650    1.0216
   37.680    1.0742
   37.710    1.0427
   37.740    1.1269
   37.770    1.1690
   37.800    1.1690
   37.830    1.0742
   37.860    1.0111
   37.890    0.9479
   37.920    1.1374
   37.950    1.0953
   37.980    0.9479
   38.010    1.1058
   38.040    1.0742
   38.070    1.0427
   38.100    1.1058
   38.130    0.9479
   38.160    1.0953
   38.190    1.1374
   38.220    1.0005
   38.250    1.0742
   38.280    0.9689
   38.310    1.1374
   38.340    1.0637
   38.370    1.0848
   38.400    1.0321
   38.430    1.1374
   38.460    0.8741
   38.490    1.2322
   38.520    1.1374
   38.550    1.0848
   38.580    1.0532
   38.610    1.1058
   38.640    0.9584
   38.670    1.0637
   38.700    1.0532
   38.730    1.0953
   38.760    0.8531
   38.790    0.9479
   38.820    1.0532
   38.850    1.0216
   38.880    1.0427
   38.910    1.0953
   38.940    0.9479
   38.970    0.8636
   39.000    1.0953
   39.030    1.0953
   39.060    0.9900
   39.090    1.0532
   39.120    0.8320
   39.150    0.9795
   39.180    0.8636
   39.210    0.9584
   39.240    1.0427
   39.270    1.0111
   39.300    0.9584
   39.330    0.8425
   39.360    1.0111
   39.390    1.0637
   39.420    0.9900
   39.450    0.9057
   39.480    0.9900
   39.510    0.9689
   39.540    0.9268
   39.570    1.0321
   39.600    0.9584
   39.630    1.1374
   39.660    1.0953
   39.690    0.9795
   39.720    0.9268
   39.750    1.0532
   39.780    0.8741
   39.810    1.0742
   39.840    1.0111
   39.870    1.0321
   39.900    1.1058
   39.930    0.9268
   39.960    1.0532
   39.990    0.8847