File: data/PXRD/PXRD_KE-305-2D_Cu-Ka1_capillary-1mm_3s-deg.xyd
    1.500   21.2217
    1.530   21.3446
    1.560   19.8701
    1.590   19.6244
    1.620   18.2552
    1.650   18.2903
    1.680   18.1850
    1.710   16.9036
    1.740   17.5882
    1.770   17.1669
    1.800   15.9031
    1.830   16.2366
    1.860   14.9728
    1.890   16.2717
    1.920   14.4989
    1.950   14.5691
    1.980   14.8675
    2.010   13.7616
    2.040   14.2005
    2.070   13.6739
    2.100   13.6388
    2.130   13.7967
    2.160   13.2877
    2.190   13.6212
    2.220   13.0244
    2.250   12.7611
    2.280   12.4978
    2.310   13.1297
    2.340   12.4978
    2.370   13.0771
    2.400   13.3228
    2.430   13.1473
    2.460   13.6388
    2.490   12.8489
    2.520   13.5334
    2.550   13.1122
    2.580   12.8664
    2.610   14.5691
    2.640   13.0068
    2.670   13.9372
    2.700   14.3233
    2.730   14.0249
    2.760   14.8324
    2.790   14.4989
    2.820   14.8148
    2.850   15.6574
    2.880   15.5696
    2.910   15.4292
    2.940   16.9914
    2.970   17.4829
    3.000   18.7994
    3.030   19.1153
    3.060   19.1329
    3.090   19.6595
    3.120   20.8531
    3.150   22.2047
    3.180   22.0116
    3.210   23.4685
    3.240   24.5743
    3.270   26.2945
    3.300   27.2951
    3.330   29.2435
    3.360   30.7706
    3.390   33.0700
    3.420   34.7551
    3.450   37.0546
    3.480   39.9860
    3.510   42.9700
    3.540   46.2875
    3.570   51.0444
    3.600   54.1162
    3.630   61.6816
    3.660   68.6502
    3.690   77.9182
    3.720   88.9942
    3.750  105.1957
    3.780  130.4195
    3.810  176.6368
    3.840  204.5112
    3.870  161.0672
    3.900   74.3198
    3.930   23.2052
    3.960   12.7962
    3.990   10.0228
    4.020    9.7244
    4.050    8.5133
    4.080    7.7409
    4.110    8.0920
    4.140    7.7409
    4.170    7.7058
    4.200    7.4074
    4.230    7.7760
    4.260    6.4771
    4.290    7.0212
    4.320    7.4952
    4.350    7.2670
    4.380    6.8106
    4.410    7.4601
    4.440    6.9159
    4.470    6.6877
    4.500    7.1441
    4.530    6.9335
    4.560    7.0388
    4.590    6.6877
    4.620    7.1090
    4.650    6.8457
    4.680    7.1968
    4.710    6.7755
    4.740    7.4425
    4.770    7.3372
    4.800    7.2494
    4.830    7.2670
    4.860    7.4776
    4.890    8.1446
    4.920    7.7936
    4.950    8.0744
    4.980    8.0218
    5.010    8.6712
    5.040    8.4957
    5.070    9.0750
    5.100    9.0223
    5.130    9.7420
    5.160   10.1281
    5.190   10.7074
    5.220   12.0590
    5.250   12.0239
    5.280   12.8840
    5.310   14.0600
    5.340   15.5520
    5.370   17.4302
    5.400   21.0286
    5.430   27.9621
    5.460   32.1924
    5.490   27.2424
    5.520   16.3244
    5.550    8.7063
    5.580    6.7228
    5.610    6.5298
    5.640    5.9505
    5.670    5.7574
    5.700    6.2665
    5.730    5.4766
    5.760    5.8101
    5.790    5.8627
    5.820    6.4946
    5.850    6.1436
    5.880    6.1085
    5.910    6.1085
    5.940    5.8452
    5.970    6.0032
    6.000    5.9856
    6.030    5.5819
    6.060    6.0383
    6.090    5.9681
    6.120    5.7574
    6.150    6.6526
    6.180    5.5819
    6.210    6.1436
    6.240    6.3718
    6.270    6.9335
    6.300    6.0734
    6.330    6.3016
    6.360    5.8627
    6.390    6.6877
    6.420    6.4069
    6.450    6.9510
    6.480    6.8984
    6.510    6.9686
    6.540    6.9159
    6.570    8.1446
    6.600    7.7760
    6.630    8.4255
    6.660   10.0404
    6.690   11.5324
    6.720   10.5319
    6.750    9.3207
    6.780    6.8457
    6.810    5.8276
    6.840    5.8452
    6.870    5.9856
    6.900    6.0383
    6.930    5.6872
    6.960    6.0909
    6.990    5.8101
    7.020    6.2665
    7.050    6.1260
    7.080    5.7750
    7.110    6.1436
    7.140    6.0207
    7.170    6.3367
    7.200    5.5292
    7.230    5.7223
    7.260    5.8101
    7.290    6.1085
    7.320    6.3016
    7.350    6.4595
    7.380    5.7750
    7.410    6.0032
    7.440    6.1260
    7.470    5.8803
    7.500    6.6877
    7.530    6.6702
    7.560    6.9510
    7.590    7.3372
    7.620    7.6532
    7.650    7.6707
    7.680    9.5664
    7.710   10.3563
    7.740   12.4627
    7.770   12.7260
    7.800   10.3212
    7.830    7.6532
    7.860    5.8452
    7.890    5.5292
    7.920    5.4941
    7.950    5.8452
    7.980    5.8452
    8.010    5.5117
    8.040    5.5468
    8.070    5.5468
    8.100    5.5117
    8.130    5.7750
    8.160    5.0904
    8.190    5.5117
    8.220    5.6697
    8.250    5.5468
    8.280    5.1782
    8.310    5.4239
    8.340    5.7750
    8.370    5.3888
    8.400    5.4941
    8.430    5.5292
    8.460    5.9681
    8.490    6.4069
    8.520    6.0558
    8.550    6.4244
    8.580    5.6170
    8.610    6.0734
    8.640    6.1260
    8.670    6.4069
    8.700    6.6175
    8.730    6.1787
    8.760    6.1260
    8.790    5.4415
    8.820    5.6521
    8.850    6.0032
    8.880    5.5994
    8.910    5.7048
    8.940    5.3888
    8.970    5.7399
    9.000    6.0558
    9.030    5.7048
    9.060    6.2313
    9.090    6.2665
    9.120    6.2489
    9.150    6.3542
    9.180    6.5824
    9.210    6.8808
    9.240    7.6707
    9.270    6.6702
    9.300    7.5478
    9.330    8.9872
    9.360    9.6015
    9.390   10.6372
    9.420   12.7787
    9.450   14.8850
    9.480   19.5893
    9.510   24.1531
    9.540   22.5908
    9.570   16.8861
    9.600    9.1627
    9.630    6.3893
    9.660    6.1787
    9.690    5.7399
    9.720    5.7048
    9.750    5.6170
    9.780    5.5117
    9.810    5.6170
    9.840    5.4766
    9.870    5.7399
    9.900    5.5117
    9.930    5.9505
    9.960    5.8101
    9.990    6.0909
   10.020    6.1260
   10.050    5.9154
   10.080    6.7404
   10.110    7.2670
   10.140    7.1792
   10.170    7.3196
   10.200    8.4430
   10.230    9.6015
   10.260   11.9537
   10.290   13.4457
   10.320   11.8659
   10.350    8.2851
   10.380    6.7228
   10.410    5.8803
   10.440    5.4415
   10.470    5.3712
   10.500    5.6872
   10.530    5.8101
   10.560    5.3361
   10.590    5.0377
   10.620    5.3361
   10.650    5.6170
   10.680    5.7048
   10.710    5.8627
   10.740    5.5994
   10.770    6.1260
   10.800    5.5468
   10.830    6.0032
   10.860    6.7404
   10.890    7.0388
   10.920    7.4952
   10.950    8.4255
   10.980    9.5840
   11.010   11.3042
   11.040   10.5319
   11.070    7.7936
   11.100    6.3542
   11.130    5.6697
   11.160    5.3712
   11.190    5.3361
   11.220    5.4590
   11.250    4.9149
   11.280    5.2484
   11.310    5.3888
   11.340    5.6697
   11.370    4.8973
   11.400    5.2659
   11.430    5.7223
   11.460    5.4239
   11.490    6.1436
   11.520    6.4595
   11.550    7.1617
   11.580    7.6180
   11.610    8.5484
   11.640    9.4787
   11.670   11.1462
   11.700   11.6553
   11.730    9.1627
   11.760    7.5829
   11.790    5.6872
   11.820    5.4766
   11.850    5.2835
   11.880    4.7920
   11.910    5.1782
   11.940    5.2308
   11.970    5.5117
   12.000    5.0728
   12.030    5.1255
   12.060    5.0026
   12.090    5.2308
   12.120    5.3712
   12.150    4.8271
   12.180    5.1255
   12.210    5.4941
   12.240    5.6697
   12.270    5.8803
   12.300    5.7048
   12.330    6.0909
   12.360    5.6170
   12.390    5.3361
   12.420    5.4941
   12.450    5.1782
   12.480    5.2484
   12.510    5.4239
   12.540    5.1080
   12.570    5.4941
   12.600    5.5643
   12.630    5.3186
   12.660    5.4415
   12.690    5.9329
   12.720    5.5117
   12.750    6.1962
   12.780    6.8106
   12.810    6.6351
   12.840    7.2494
   12.870    7.5654
   12.900    9.9877
   12.930   10.8654
   12.960    9.3382
   12.990    7.9691
   13.020    6.1611
   13.050    6.0207
   13.080    5.1255
   13.110    5.0728
   13.140    4.7393
   13.170    5.2835
   13.200    5.1431
   13.230    5.3712
   13.260    5.1782
   13.290    5.4766
   13.320    5.5819
   13.350    5.3537
   13.380    5.9681
   13.410    5.7574
   13.440    6.0383
   13.470    7.3372
   13.500    7.8813
   13.530    7.3196
   13.560    6.7404
   13.590    6.0558
   13.620    5.1080
   13.650    5.0553
   13.680    5.2835
   13.710    4.9675
   13.740    4.9675
   13.770    5.1782
   13.800    4.9675
   13.830    5.5292
   13.860    5.2484
   13.890    5.4415
   13.920    5.7223
   13.950    6.2489
   13.980    6.1611
   14.010    6.6702
   14.040    7.5127
   14.070    8.4430
   14.100    7.8111
   14.130    6.8984
   14.160    5.6170
   14.190    5.1957
   14.220    5.0553
   14.250    5.3888
   14.280    5.3361
   14.310    4.9675
   14.340    4.9675
   14.370    5.6345
   14.400    4.5638
   14.430    4.6340
   14.460    4.6691
   14.490    5.2484
   14.520    5.1080
   14.550    5.2308
   14.580    5.2484
   14.610    4.9500
   14.640    5.7399
   14.670    4.8973
   14.700    5.0904
   14.730    4.7920
   14.760    5.1255
   14.790    5.1431
   14.820    5.2133
   14.850    5.0026
   14.880    5.4064
   14.910    5.0202
   14.940    5.4239
   14.970    5.4590
   15.000    5.2659
   15.030    5.6345
   15.060    5.5643
   15.090    5.5468
   15.120    6.3893
   15.150    6.1611
   15.180    5.7574
   15.210    5.3537
   15.240    4.9675
   15.270    5.6170
   15.300    4.9675
   15.330    5.1431
   15.360    4.8271
   15.390    5.1080
   15.420    4.8798
   15.450    5.0377
   15.480    4.9851
   15.510    5.2835
   15.540    5.0377
   15.570    4.9851
   15.600    5.1606
   15.630    5.2659
   15.660    5.0728
   15.690    5.2659
   15.720    4.5638
   15.750    5.3888
   15.780    5.0202
   15.810    4.9851
   15.840    5.3010
   15.870    4.5287
   15.900    5.0202
   15.930    5.1782
   15.960    4.9324
   15.990    5.5994
   16.020    5.8276
   16.050    5.3888
   16.080    6.4244
   16.110    6.9861
   16.140    6.3718
   16.170    5.5994
   16.200    5.5292
   16.230    5.4415
   16.260    5.4064
   16.290    5.5468
   16.320    5.3186
   16.350    5.0553
   16.380    5.4590
   16.410    5.5468
   16.440    5.5643
   16.470    5.4064
   16.500    6.1787
   16.530    6.7404
   16.560    6.7228
   16.590    7.3899
   16.620    6.6702
   16.650    6.1085
   16.680    5.4064
   16.710    5.1782
   16.740    5.3010
   16.770    5.2133
   16.800    5.5292
   16.830    5.6170
   16.860    5.4766
   16.890    5.9505
   16.920    5.6697
   16.950    6.4595
   16.980    7.0915
   17.010    8.7239
   17.040    9.0047
   17.070    8.6537
   17.100    7.5478
   17.130    6.1260
   17.160    5.2659
   17.190    5.4766
   17.220    5.3010
   17.250    5.1782
   17.280    5.3186
   17.310    5.2484
   17.340    5.3712
   17.370    4.9149
   17.400    5.9505
   17.430    5.9154
   17.460    4.8973
   17.490    5.2659
   17.520    6.1436
   17.550    5.3537
   17.580    4.8271
   17.610    5.1957
   17.640    5.4239
   17.670    5.8627
   17.700    4.8271
   17.730    5.1080
   17.760    5.3537
   17.790    5.7574
   17.820    5.3888
   17.850    5.1957
   17.880    5.5994
   17.910    6.3191
   17.940    6.5122
   17.970    5.6521
   18.000    5.6345
   18.030    5.8627
   18.060    5.1957
   18.090    4.9149
   18.120    5.2484
   18.150    5.6697
   18.180    6.0032
   18.210    5.4239
   18.240    5.3361
   18.270    5.5468
   18.300    6.0207
   18.330    6.6175
   18.360    6.6351
   18.390    5.9856
   18.420    5.9681
   18.450    6.0558
   18.480    5.4064
   18.510    5.4239
   18.540    5.1957
   18.570    5.4766
   18.600    5.4766
   18.630    5.1957
   18.660    5.1606
   18.690    5.5292
   18.720    5.5643
   18.750    5.2133
   18.780    5.4239
   18.810    6.0032
   18.840    5.7048
   18.870    5.2484
   18.900    5.1782
   18.930    5.1957
   18.960    5.2659
   18.990    5.4064
   19.020    5.5468
   19.050    5.3186
   19.080    5.6697
   19.110    6.1962
   19.140    5.5468
   19.170    6.1085
   19.200    5.7574
   19.230    6.1611
   19.260    6.0734
   19.290    5.4064
   19.320    5.8803
   19.350    5.5292
   19.380    4.8798
   19.410    6.0032
   19.440    5.6697
   19.470    5.6872
   19.500    5.9329
   19.530    6.3542
   19.560    6.7053
   19.590    7.4425
   19.620    7.0915
   19.650    6.3893
   19.680    6.0909
   19.710    5.1255
   19.740    5.5819
   19.770    5.1957
   19.800    5.4766
   19.830    5.1255
   19.860    5.3888
   19.890    5.5292
   19.920    5.3186
   19.950    5.8452
   19.980    5.3537
   20.010    5.4766
   20.040    5.9505
   20.070    5.6345
   20.100    6.0207
   20.130    5.7750
   20.160    5.3537
   20.190    5.2835
   20.220    5.7048
   20.250    5.8627
   20.280    6.7930
   20.310    7.3547
   20.340    7.7058
   20.370    8.5133
   20.400    8.4255
   20.430    6.6877
   20.460    6.3016
   20.490    5.7574
   20.520    5.5994
   20.550    5.8803
   20.580    5.3537
   20.610    5.8276
   20.640    5.6170
   20.670    5.5819
   20.700    5.2308
   20.730    6.4069
   20.760    5.2835
   20.790    5.4766
   20.820    5.5643
   20.850    5.2308
   20.880    5.4415
   20.910    5.7574
   20.940    5.3010
   20.970    5.7750
   21.000    5.9154
   21.030    5.4239
   21.060    5.0904
   21.090    5.2835
   21.120    5.7925
   21.150    5.5819
   21.180    5.1957
   21.210    5.3010
   21.240    5.6521
   21.270    6.0032
   21.300    5.3010
   21.330    5.2835
   21.360    5.5643
   21.390    5.1255
   21.420    5.3712
   21.450    5.6345
   21.480    5.6697
   21.510    6.1085
   21.540    5.7925
   21.570    5.3888
   21.600    5.4239
   21.630    5.9681
   21.660    5.5468
   21.690    5.8452
   21.720    5.7750
   21.750    6.1611
   21.780    6.8282
   21.810    6.8808
   21.840    6.8282
   21.870    7.1441
   21.900    6.4595
   21.930    5.9505
   21.960    5.6521
   21.990    5.4590
   22.020    5.4590
   22.050    5.6872
   22.080    6.2489
   22.110    6.3016
   22.140    6.2840
   22.170    6.5473
   22.200    6.7930
   22.230    6.5473
   22.260    6.0383
   22.290    6.1436
   22.320    6.0383
   22.350    5.9856
   22.380    5.9856
   22.410    6.0909
   22.440    6.5298
   22.470    7.2143
   22.500    8.2851
   22.530    9.4611
   22.560    9.5313
   22.590    9.2505
   22.620    7.7409
   22.650    6.5298
   22.680    6.1085
   22.710    6.2138
   22.740    5.8627
   22.770    6.2489
   22.800    6.7404
   22.830    7.5654
   22.860    8.7765
   22.890    9.9351
   22.920    9.4787
   22.950    8.3202
   22.980    7.3723
   23.010    6.5473
   23.040    6.2665
   23.070    5.5994
   23.100    6.1787
   23.130    6.1787
   23.160    6.0558
   23.190    6.4069
   23.220    7.1266
   23.250    7.1090
   23.280    6.8808
   23.310    5.7750
   23.340    5.9329
   23.370    5.7750
   23.400    6.0383
   23.430    5.7223
   23.460    5.9505
   23.490    6.3542
   23.520    5.7574
   23.550    6.0032
   23.580    5.7223
   23.610    5.7574
   23.640    5.8276
   23.670    5.2308
   23.700    5.7048
   23.730    5.8978
   23.760    5.5819
   23.790    5.6170
   23.820    5.7925
   23.850    6.6877
   23.880    7.2143
   23.910    7.3021
   23.940    6.5649
   23.970    6.5298
   24.000    5.8978
   24.030    5.4766
   24.060    5.4239
   24.090    5.7223
   24.120    5.8803
   24.150    5.6521
   24.180    5.5468
   24.210    5.5819
   24.240    5.8978
   24.270    5.5643
   24.300    5.8276
   24.330    5.4064
   24.360    5.5117
   24.390    6.4595
   24.420    6.0032
   24.450    6.1085
   24.480    5.3888
   24.510    5.6872
   24.540    5.9856
   24.570    5.4415
   24.600    5.6697
   24.630    5.5994
   24.660    5.9329
   24.690    5.5643
   24.720    5.2133
   24.750    5.8101
   24.780    5.7925
   24.810    5.5819
   24.840    5.8276
   24.870    5.3010
   24.900    6.1787
   24.930    5.6872
   24.960    5.7925
   24.990    5.4239
   25.020    5.7750
   25.050    5.7574
   25.080    5.7399
   25.110    5.9329
   25.140    5.9329
   25.170    6.2840
   25.200    6.3367
   25.230    5.8803
   25.260    6.2665
   25.290    5.6170
   25.320    5.5994
   25.350    5.5819
   25.380    5.9681
   25.410    5.8276
   25.440    6.0734
   25.470    5.6521
   25.500    6.6175
   25.530    6.1787
   25.560    5.3537
   25.590    6.4595
   25.620    6.2665
   25.650    6.2138
   25.680    5.6697
   25.710    6.9510
   25.740    7.4601
   25.770    8.4781
   25.800    8.8994
   25.830    7.7936
   25.860    8.1095
   25.890    6.7579
   25.920    6.0558
   25.950    5.7925
   25.980    5.3888
   26.010    5.4590
   26.040    5.8101
   26.070    5.6697
   26.100    5.9154
   26.130    5.3888
   26.160    5.4941
   26.190    5.4064
   26.220    5.5643
   26.250    5.7574
   26.280    5.3010
   26.310    5.8452
   26.340    6.0734
   26.370    5.7223
   26.400    6.6702
   26.430    6.6000
   26.460    6.2489
   26.490    5.8978
   26.520    5.7925
   26.550    5.4766
   26.580    5.1782
   26.610    5.2659
   26.640    5.1080
   26.670    5.1606
   26.700    5.9505
   26.730    5.5819
   26.760    5.0904
   26.790    5.3186
   26.820    5.8978
   26.850    5.1255
   26.880    5.3010
   26.910    5.7048
   26.940    6.3367
   26.970    7.1090
   27.000    6.9861
   27.030    6.6351
   27.060    6.6526
   27.090    6.2489
   27.120    5.5643
   27.150    5.2659
   27.180    5.6521
   27.210    5.5117
   27.240    5.7223
   27.270    5.6697
   27.300    5.2484
   27.330    5.6345
   27.360    5.4590
   27.390    5.3712
   27.420    5.3537
   27.450    5.4064
   27.480    5.6170
   27.510    6.0032
   27.540    6.5298
   27.570    6.0207
   27.600    6.1436
   27.630    5.6697
   27.660    5.9681
   27.690    5.3010
   27.720    5.4064
   27.750    5.6345
   27.780    5.5819
   27.810    5.6521
   27.840    5.8803
   27.870    6.3367
   27.900    6.3016
   27.930    5.6697
   27.960    5.4239
   27.990    5.8276
   28.020    5.4766
   28.050    5.3361
   28.080    5.5994
   28.110    6.6351
   28.140    6.6175
   28.170    6.6175
   28.200    6.4244
   28.230    6.5298
   28.260    5.7223
   28.290    5.2308
   28.320    5.0202
   28.350    5.6697
   28.380    6.0558
   28.410    6.0207
   28.440    6.2138
   28.470    6.1962
   28.500    6.0032
   28.530    5.8978
   28.560    5.4064
   28.590    5.4415
   28.620    5.0202
   28.650    5.7399
   28.680    5.2835
   28.710    4.9149
   28.740    5.4415
   28.770    5.0553
   28.800    4.9500
   28.830    5.2133
   28.860    5.0904
   28.890    5.4415
   28.920    4.8095
   28.950    4.9324
   28.980    5.3186
   29.010    5.4941
   29.040    5.8101
   29.070    5.1957
   29.100    5.3537
   29.130    5.3361
   29.160    5.6170
   29.190    5.4239
   29.220    5.9154
   29.250    6.2313
   29.280    6.1962
   29.310    5.7223
   29.340    5.6345
   29.370    5.0904
   29.400    5.1606
   29.430    5.1255
   29.460    4.7042
   29.490    4.9500
   29.520    5.0553
   29.550    5.1431
   29.580    4.8447
   29.610    5.1782
   29.640    4.7744
   29.670    5.0553
   29.700    5.0377
   29.730    4.9851
   29.760    5.3361
   29.790    5.7048
   29.820    5.7399
   29.850    4.7042
   29.880    4.9675
   29.910    4.7920
   29.940    5.0904
   29.970    5.1255
   30.000    5.0728
   30.030    4.8271
   30.060    5.4239
   30.090    4.6340
   30.120    4.8798
   30.150    4.7393
   30.180    4.5638
   30.210    5.1606
   30.240    4.6867
   30.270    5.1255
   30.300    5.1606
   30.330    5.0553
   30.360    5.0377
   30.390    5.1782
   30.420    5.1782
   30.450    4.4760
   30.480    4.4936
   30.510    4.9675
   30.540    5.1431
   30.570    5.1606
   30.600    5.4766
   30.630    5.0904
   30.660    5.0377
   30.690    5.1431
   30.720    4.8798
   30.750    5.2308
   30.780    4.7042
   30.810    4.6340
   30.840    5.2308
   30.870    4.8622
   30.900    4.5287
   30.930    4.6340
   30.960    5.1957
   30.990    4.5463
   31.020    4.8798
   31.050    5.0553
   31.080    4.6165
   31.110    4.6516
   31.140    4.5814
   31.170    4.3181
   31.200    5.0377
   31.230    4.7042
   31.260    4.6340
   31.290    4.8271
   31.320    4.8622
   31.350    5.0904
   31.380    5.3361
   31.410    4.8798
   31.440    5.0728
   31.470    4.8095
   31.500    4.7218
   31.530    4.9500
   31.560    5.0202
   31.590    4.5638
   31.620    4.9324
   31.650    4.9675
   31.680    4.8973
   31.710    4.7042
   31.740    4.8271
   31.770    5.2484
   31.800    4.9149
   31.830    5.1606
   31.860    5.0026
   31.890    5.1957
   31.920    4.7393
   31.950    4.8622
   31.980    4.8622
   32.010    4.7920
   32.040    4.8622
   32.070    4.8798
   32.100    4.6340
   32.130    4.8095
   32.160    4.6340
   32.190    4.6340
   32.220    4.5814
   32.250    4.4585
   32.280    4.4585
   32.310    4.0723
   32.340    4.8973
   32.370    4.7569
   32.400    4.7393
   32.430    4.8447
   32.460    4.4760
   32.490    4.1952
   32.520    4.6516
   32.550    4.4058
   32.580    4.3005
   32.610    4.1250
   32.640    4.2478
   32.670    4.2127
   32.700    4.4058
   32.730    4.3532
   32.760    4.7218
   32.790    4.7218
   32.820    4.8095
   32.850    4.6165
   32.880    4.7218
   32.910    4.9149
   32.940    4.9500
   32.970    4.4058
   33.000    4.3356
   33.030    4.6340
   33.060    4.6691
   33.090    4.1601
   33.120    4.3707
   33.150    4.4936
   33.180    4.5638
   33.210    4.0548
   33.240    4.3532
   33.270    4.2654
   33.300    4.5463
   33.330    4.6165
   33.360    4.4234
   33.390    4.2478
   33.420    3.9846
   33.450    4.6340
   33.480    4.3532
   33.510    4.4058
   33.540    4.3005
   33.570    4.5989
   33.600    4.0021
   33.630    4.5287
   33.660    4.7393
   33.690    4.7042
   33.720    4.1776
   33.750    4.5287
   33.780    4.7393
   33.810    4.5814
   33.840    4.5989
   33.870    4.8798
   33.900    4.9851
   33.930    4.7218
   33.960    4.8447
   33.990    4.7920
   34.020    4.2830
   34.050    4.8271
   34.080    4.8447
   34.110    4.2303
   34.140    4.0899
   34.170    4.3707
   34.200    4.2127
   34.230    4.7218
   34.260    4.0548
   34.290    4.2478
   34.320    4.0548
   34.350    4.5638
   34.380    4.2303
   34.410    4.0372
   34.440    3.9319
   34.470    4.0548
   34.500    4.0372
   34.530    4.2127
   34.560    4.0723
   34.590    4.2127
   34.620    4.3181
   34.650    3.8968
   34.680    4.3356
   34.710    3.8266
   34.740    4.1952
   34.770    4.5989
   34.800    4.4409
   34.830    4.0372
   34.860    4.7042
   34.890    4.5287
   34.920    3.9143
   34.950    4.2830
   34.980    4.0372
   35.010    4.2830
   35.040    4.2654
   35.070    4.1952
   35.100    3.7564
   35.130    4.0021
   35.160    4.2303
   35.190    3.8792
   35.220    4.6340
   35.250    4.6165
   35.280    4.1074
   35.310    3.7915
   35.340    4.0548
   35.370    3.7915
   35.400    4.2478
   35.430    4.4409
   35.460    3.9494
   35.490    4.1601
   35.520    3.9494
   35.550    3.7388
   35.580    3.8792
   35.610    3.7739
   35.640    3.9319
   35.670    4.4234
   35.700    4.1601
   35.730    4.0372
   35.760    3.8617
   35.790    3.9494
   35.820    4.4058
   35.850    4.1776
   35.880    4.1250
   35.910    3.6335
   35.940    4.4760
   35.970    4.1952
   36.000    3.9846
   36.030    3.7915
   36.060    4.1952
   36.090    4.4585
   36.120    4.0021
   36.150    4.5111
   36.180    3.7739
   36.210    3.7037
   36.240    3.9319
   36.270    4.0372
   36.300    4.0548
   36.330    3.7564
   36.360    3.9670
   36.390    4.1074
   36.420    4.3532
   36.450    4.1601
   36.480    4.3005
   36.510    4.1952
   36.540    4.0021
   36.570    4.0021
   36.600    4.0021
   36.630    4.4058
   36.660    4.7042
   36.690    4.0372
   36.720    4.5111
   36.750    4.4585
   36.780    4.1601
   36.810    3.5282
   36.840    3.6862
   36.870    3.7915
   36.900    3.9670
   36.930    3.5633
   36.960    3.6510
   36.990    4.1601
   37.020    4.1074
   37.050    4.2830
   37.080    4.3532
   37.110    4.1425
   37.140    4.2127
   37.170    4.3356
   37.200    4.1601
   37.230    3.9670
   37.260    4.1250
   37.290    3.7213
   37.320    3.6862
   37.350    3.6510
   37.380    3.5808
   37.410    3.8617
   37.440    4.0548
   37.470    3.8792
   37.500    4.1776
   37.530    4.0021
   37.560    4.0021
   37.590    3.7739
   37.620    3.5808
   37.650    3.6335
   37.680    3.6862
   37.710    3.9143
   37.740    3.9319
   37.770    3.7037
   37.800    3.8792
   37.830    4.0197
   37.860    3.8968
   37.890    4.1074
   37.920    4.4760
   37.950    4.0021
   37.980    3.9670
   38.010    4.0372
   38.040    3.3175
   38.070    3.9670
   38.100    3.9143
   38.130    3.5808
   38.160    3.8090
   38.190    4.0197
   38.220    3.8266
   38.250    3.5457
   38.280    3.5984
   38.310    4.0548
   38.340    3.4755
   38.370    4.0197
   38.400    3.8266
   38.430    4.2478
   38.460    3.8441
   38.490    3.5633
   38.520    3.1947
   38.550    3.8441
   38.580    3.8792
   38.610    3.8441
   38.640    3.5457
   38.670    3.6159
   38.700    3.9846
   38.730    3.6862
   38.760    3.7213
   38.790    4.0197
   38.820    3.9143
   38.850    3.7388
   38.880    3.7037
   38.910    3.9494
   38.940    3.5457
   38.970    3.5282
   39.000    3.7564
   39.030    3.7037
   39.060    4.1601
   39.090    3.5808
   39.120    4.1074
   39.150    3.4931
   39.180    3.6510
   39.210    4.1425
   39.240    4.0021
   39.270    4.0548
   39.300    4.0372
   39.330    3.5633
   39.360    3.6159
   39.390    3.5457
   39.420    3.4931
   39.450    3.9319
   39.480    3.5106
   39.510    3.6335
   39.540    3.9143
   39.570    3.7564
   39.600    3.5106
   39.630    3.4229
   39.660    3.9143
   39.690    3.7915
   39.720    3.7388
   39.750    3.6862
   39.780    4.0548
   39.810    3.4755
   39.840    3.5633
   39.870    3.9670
   39.900    3.8266
   39.930    3.7739
   39.960    3.7564
   39.990    3.4053