File: data/PXRD/PXRD_KE-298_Cu-Ka1_film-3mm_3s-deg.xyd
    1.500   11.2866
    1.530   11.6904
    1.560   11.1111
    1.590   10.6021
    1.620   10.6196
    1.650   10.9180
    1.680   10.1457
    1.710    9.8999
    1.740   10.2510
    1.770   10.2686
    1.800   10.1457
    1.830    9.6191
    1.860    9.6191
    1.890    9.0574
    1.920    8.6712
    1.950   10.0228
    1.980    9.2680
    2.010    8.4781
    2.040    9.1452
    2.070    9.1627
    2.100    8.9170
    2.130    8.5133
    2.160    8.3202
    2.190    8.9521
    2.220    8.8643
    2.250    7.9867
    2.280    8.2851
    2.310    8.7414
    2.340    8.4079
    2.370    8.6186
    2.400    7.9164
    2.430    8.7239
    2.460    8.3904
    2.490    7.8462
    2.520    8.1095
    2.550    8.0744
    2.580    7.9691
    2.610    7.7936
    2.640    8.1271
    2.670    7.6356
    2.700    8.3377
    2.730    7.7409
    2.760    7.4776
    2.790    8.0218
    2.820    7.4074
    2.850    8.1446
    2.880    7.5478
    2.910    7.4250
    2.940    8.2149
    2.970    7.8287
    3.000    7.3196
    3.030    7.5478
    3.060    7.1441
    3.090    7.4601
    3.120    7.8287
    3.150    7.4425
    3.180    7.4425
    3.210    6.8984
    3.240    7.4425
    3.270    7.8111
    3.300    6.8633
    3.330    7.7058
    3.360    6.9861
    3.390    7.4776
    3.420    7.5303
    3.450    6.9335
    3.480    7.5478
    3.510    7.3899
    3.540    7.2845
    3.570    7.7058
    3.600    7.8111
    3.630    7.4425
    3.660    7.1968
    3.690    7.3547
    3.720    7.7936
    3.750    7.3547
    3.780    7.2494
    3.810    7.8287
    3.840    7.3547
    3.870    8.1797
    3.900    7.3723
    3.930    6.9510
    3.960    7.3899
    3.990    7.1266
    4.020    7.2143
    4.050    7.6356
    4.080    7.0563
    4.110    7.4074
    4.140    7.1090
    4.170    7.4601
    4.200    7.1968
    4.230    7.0739
    4.260    7.6005
    4.290    7.6707
    4.320    7.4425
    4.350    7.4074
    4.380    7.7760
    4.410    6.9335
    4.440    7.0915
    4.470    7.2319
    4.500    8.0569
    4.530    7.3723
    4.560    7.5654
    4.590    7.9340
    4.620    7.6005
    4.650    7.5303
    4.680    7.4601
    4.710    7.6356
    4.740    7.9340
    4.770    7.7234
    4.800    7.2143
    4.830    8.3202
    4.860    7.7585
    4.890    8.1271
    4.920    8.1095
    4.950    8.0569
    4.980    8.2851
    5.010    8.0569
    5.040    8.3904
    5.070    8.2149
    5.100    8.4430
    5.130    8.8292
    5.160    8.9872
    5.190    9.5840
    5.220    9.0223
    5.250    9.1978
    5.280    9.0574
    5.310    8.8117
    5.340    9.5664
    5.370    9.8473
    5.400    9.4787
    5.430    9.8648
    5.460   10.0755
    5.490    9.6367
    5.520   10.4090
    5.550   10.4441
    5.580    9.7771
    5.610   10.1983
    5.640    9.1803
    5.670    9.4260
    5.700    8.9872
    5.730   10.0579
    5.760    9.7771
    5.790    9.3909
    5.820    8.9872
    5.850    8.9696
    5.880    8.4957
    5.910    7.7936
    5.940    8.7063
    5.970    8.6712
    6.000    8.1973
    6.030    7.5478
    6.060    7.7760
    6.090    7.4601
    6.120    7.1792
    6.150    7.4776
    6.180    6.9159
    6.210    7.5829
    6.240    7.5303
    6.270    7.3547
    6.300    7.2494
    6.330    7.1792
    6.360    6.7228
    6.390    6.9335
    6.420    7.1090
    6.450    6.7228
    6.480    6.9159
    6.510    6.8984
    6.540    6.7930
    6.570    6.4069
    6.600    6.8984
    6.630    7.1441
    6.660    6.2489
    6.690    6.9861
    6.720    6.8282
    6.750    6.7579
    6.780    6.9861
    6.810    6.5122
    6.840    6.2665
    6.870    6.3016
    6.900    6.7404
    6.930    6.6526
    6.960    6.3718
    6.990    6.3367
    7.020    6.5298
    7.050    6.3893
    7.080    6.3718
    7.110    6.4946
    7.140    6.4069
    7.170    6.0032
    7.200    6.0734
    7.230    6.3893
    7.260    5.7750
    7.290    5.6697
    7.320    6.1085
    7.350    6.0558
    7.380    6.0909
    7.410    5.5994
    7.440    6.3367
    7.470    5.6170
    7.500    5.0026
    7.530    5.6872
    7.560    6.0032
    7.590    5.5117
    7.620    6.0734
    7.650    5.9681
    7.680    5.5468
    7.710    5.3010
    7.740    6.1085
    7.770    5.5994
    7.800    5.4766
    7.830    5.4239
    7.860    5.7048
    7.890    5.7399
    7.920    5.3186
    7.950    5.2484
    7.980    5.1957
    8.010    5.4941
    8.040    5.0728
    8.070    5.7574
    8.100    5.0904
    8.130    5.6170
    8.160    5.6345
    8.190    4.7744
    8.220    5.0377
    8.250    5.2835
    8.280    5.4415
    8.310    5.2133
    8.340    5.2308
    8.370    5.2484
    8.400    5.2133
    8.430    4.9324
    8.460    4.8798
    8.490    4.6691
    8.520    5.0904
    8.550    5.5819
    8.580    4.7218
    8.610    4.8447
    8.640    5.0377
    8.670    5.0553
    8.700    5.0904
    8.730    4.8271
    8.760    5.1080
    8.790    5.2133
    8.820    4.7218
    8.850    5.1782
    8.880    4.9149
    8.910    4.5989
    8.940    5.3888
    8.970    5.6697
    9.000    4.8798
    9.030    4.8095
    9.060    5.2835
    9.090    5.0553
    9.120    4.9675
    9.150    4.9149
    9.180    4.8447
    9.210    5.2835
    9.240    4.6516
    9.270    5.1606
    9.300    4.8271
    9.330    5.3010
    9.360    5.2484
    9.390    5.0553
    9.420    4.9500
    9.450    4.8973
    9.480    5.0202
    9.510    4.9851
    9.540    4.9675
    9.570    4.8973
    9.600    5.2835
    9.630    4.8447
    9.660    4.9500
    9.690    4.8271
    9.720    4.9149
    9.750    5.0026
    9.780    5.1957
    9.810    5.0377
    9.840    5.0553
    9.870    4.7393
    9.900    5.0377
    9.930    5.3010
    9.960    5.7574
    9.990    4.7393
   10.020    4.8622
   10.050    5.1957
   10.080    5.5468
   10.110    5.3537
   10.140    4.8973
   10.170    4.9149
   10.200    4.5989
   10.230    4.6340
   10.260    5.1080
   10.290    4.9324
   10.320    5.3712
   10.350    5.0904
   10.380    5.2308
   10.410    5.6521
   10.440    5.2659
   10.470    5.2835
   10.500    5.3186
   10.530    4.9500
   10.560    5.3186
   10.590    4.9324
   10.620    5.7574
   10.650    5.5994
   10.680    5.1080
   10.710    4.8973
   10.740    5.2659
   10.770    4.3883
   10.800    5.5292
   10.830    5.3010
   10.860    5.4941
   10.890    5.2659
   10.920    5.2659
   10.950    5.4064
   10.980    5.3537
   11.010    5.1431
   11.040    5.5468
   11.070    4.7569
   11.100    5.3010
   11.130    5.1957
   11.160    5.3537
   11.190    5.8101
   11.220    5.5819
   11.250    5.0728
   11.280    5.2659
   11.310    4.8973
   11.340    5.3010
   11.370    5.3537
   11.400    4.6165
   11.430    5.4941
   11.460    5.0026
   11.490    5.3888
   11.520    5.0026
   11.550    5.3186
   11.580    4.8622
   11.610    5.0377
   11.640    5.0026
   11.670    4.8095
   11.700    5.1255
   11.730    5.2308
   11.760    4.8973
   11.790    4.9675
   11.820    5.3888
   11.850    5.5643
   11.880    4.7218
   11.910    5.0553
   11.940    4.5638
   11.970    4.8973
   12.000    4.7218
   12.030    5.2659
   12.060    4.7569
   12.090    5.0728
   12.120    4.7569
   12.150    5.1606
   12.180    4.6340
   12.210    4.9851
   12.240    4.8798
   12.270    4.5814
   12.300    5.1255
   12.330    5.1080
   12.360    5.1431
   12.390    5.1255
   12.420    4.5463
   12.450    4.9851
   12.480    5.1255
   12.510    4.5989
   12.540    4.9851
   12.570    4.5287
   12.600    4.4585
   12.630    5.0026
   12.660    4.6340
   12.690    4.5111
   12.720    4.7218
   12.750    5.1431
   12.780    4.9149
   12.810    4.7920
   12.840    4.6691
   12.870    5.1606
   12.900    4.7569
   12.930    4.7569
   12.960    4.5638
   12.990    4.1425
   13.020    4.3707
   13.050    5.0377
   13.080    4.5814
   13.110    4.5989
   13.140    4.5287
   13.170    4.5989
   13.200    4.8447
   13.230    4.7042
   13.260    4.5989
   13.290    5.1080
   13.320    4.4058
   13.350    4.7744
   13.380    5.0026
   13.410    4.6867
   13.440    4.2830
   13.470    5.0026
   13.500    4.7920
   13.530    4.6340
   13.560    4.5989
   13.590    5.1782
   13.620    4.7920
   13.650    4.9324
   13.680    5.0026
   13.710    4.5463
   13.740    4.7569
   13.770    4.7569
   13.800    4.8622
   13.830    4.6340
   13.860    4.3883
   13.890    4.8271
   13.920    4.6691
   13.950    5.1957
   13.980    5.0026
   14.010    4.9324
   14.040    4.7042
   14.070    5.3537
   14.100    4.5989
   14.130    5.0904
   14.160    4.9324
   14.190    4.8095
   14.220    4.8447
   14.250    4.8973
   14.280    5.2484
   14.310    5.3888
   14.340    5.4239
   14.370    4.9851
   14.400    4.7569
   14.430    5.2133
   14.460    5.0904
   14.490    5.1606
   14.520    4.7393
   14.550    5.4415
   14.580    4.7744
   14.610    5.0377
   14.640    4.8271
   14.670    4.8271
   14.700    5.1255
   14.730    5.0553
   14.760    4.7920
   14.790    4.8798
   14.820    4.8973
   14.850    5.1606
   14.880    5.1606
   14.910    4.9149
   14.940    5.1431
   14.970    5.0202
   15.000    4.9851
   15.030    4.7744
   15.060    4.8973
   15.090    4.6867
   15.120    4.4585
   15.150    4.9324
   15.180    4.5638
   15.210    4.4585
   15.240    4.4760
   15.270    4.8271
   15.300    4.3883
   15.330    4.4936
   15.360    4.6867
   15.390    5.0026
   15.420    4.4409
   15.450    4.6691
   15.480    4.4760
   15.510    4.7920
   15.540    4.5287
   15.570    4.8095
   15.600    4.5111
   15.630    4.5989
   15.660    4.4585
   15.690    4.8622
   15.720    4.5287
   15.750    4.2830
   15.780    4.6867
   15.810    4.5111
   15.840    4.7393
   15.870    4.7042
   15.900    4.7569
   15.930    4.1425
   15.960    4.7218
   15.990    4.6165
   16.020    4.3181
   16.050    4.6165
   16.080    4.9500
   16.110    4.8798
   16.140    4.7744
   16.170    4.7042
   16.200    4.4585
   16.230    4.8447
   16.260    4.7920
   16.290    4.6867
   16.320    4.3707
   16.350    4.4760
   16.380    4.6340
   16.410    4.4585
   16.440    4.8447
   16.470    4.9851
   16.500    4.8798
   16.530    4.4936
   16.560    4.4058
   16.590    4.7744
   16.620    5.0026
   16.650    4.8973
   16.680    4.4760
   16.710    4.8095
   16.740    4.7393
   16.770    4.8622
   16.800    4.7569
   16.830    4.7042
   16.860    4.7042
   16.890    4.4234
   16.920    4.3532
   16.950    4.3883
   16.980    4.4760
   17.010    4.4058
   17.040    4.3883
   17.070    4.7218
   17.100    4.2830
   17.130    4.3707
   17.160    4.7569
   17.190    4.7569
   17.220    4.5463
   17.250    4.2830
   17.280    4.3883
   17.310    4.2127
   17.340    4.3005
   17.370    4.4585
   17.400    4.7042
   17.430    4.2830
   17.460    4.2303
   17.490    4.2303
   17.520    4.3707
   17.550    4.0723
   17.580    4.9149
   17.610    5.0904
   17.640    4.3005
   17.670    4.3181
   17.700    4.5287
   17.730    4.4760
   17.760    4.4234
   17.790    4.0372
   17.820    4.1601
   17.850    4.4936
   17.880    4.4936
   17.910    4.8798
   17.940    4.8973
   17.970    4.5111
   18.000    4.5463
   18.030    4.7744
   18.060    4.4760
   18.090    4.6691
   18.120    4.4585
   18.150    4.4234
   18.180    4.4409
   18.210    4.9149
   18.240    4.1776
   18.270    4.5638
   18.300    4.1074
   18.330    4.8271
   18.360    4.5111
   18.390    4.2303
   18.420    4.2654
   18.450    4.5989
   18.480    4.3883
   18.510    4.0899
   18.540    4.4409
   18.570    4.3883
   18.600    4.4234
   18.630    4.2303
   18.660    4.8447
   18.690    4.2303
   18.720    4.2830
   18.750    4.7569
   18.780    4.3883
   18.810    4.4234
   18.840    4.6516
   18.870    4.7569
   18.900    4.7393
   18.930    5.0728
   18.960    5.2133
   18.990    5.8978
   19.020    4.6340
   19.050    4.9149
   19.080    4.6165
   19.110    4.2654
   19.140    4.2654
   19.170    4.2654
   19.200    4.0899
   19.230    4.1952
   19.260    4.3707
   19.290    4.7042
   19.320    4.1250
   19.350    4.4234
   19.380    4.3181
   19.410    4.0548
   19.440    4.2303
   19.470    4.9675
   19.500    4.5989
   19.530    4.4936
   19.560    4.3005
   19.590    4.8271
   19.620    4.0899
   19.650    4.5463
   19.680    4.3707
   19.710    3.9143
   19.740    4.4409
   19.770    4.4058
   19.800    4.2127
   19.830    4.0899
   19.860    4.4936
   19.890    4.2830
   19.920    4.5111
   19.950    4.5287
   19.980    4.2478
   20.010    3.9846
   20.040    4.2830
   20.070    4.3181
   20.100    4.4058
   20.130    4.1425
   20.160    4.3181
   20.190    4.0723
   20.220    4.4409
   20.250    4.0372
   20.280    4.3005
   20.310    4.3005
   20.340    3.8792
   20.370    4.2478
   20.400    4.2478
   20.430    4.0197
   20.460    4.0899
   20.490    3.9494
   20.520    3.9143
   20.550    4.1601
   20.580    4.1425
   20.610    4.1952
   20.640    4.0197
   20.670    4.3883
   20.700    3.7037
   20.730    4.0548
   20.760    4.0723
   20.790    3.9494
   20.820    3.8792
   20.850    4.0197
   20.880    4.3356
   20.910    4.0372
   20.940    4.1250
   20.970    4.6691
   21.000    3.8266
   21.030    4.3005
   21.060    4.7218
   21.090    4.2478
   21.120    4.1601
   21.150    4.0197
   21.180    3.7213
   21.210    4.1250
   21.240    4.1776
   21.270    4.1074
   21.300    4.0723
   21.330    4.0548
   21.360    3.8792
   21.390    4.0197
   21.420    3.9846
   21.450    3.7915
   21.480    4.1250
   21.510    3.7915
   21.540    4.4234
   21.570    3.9846
   21.600    4.0548
   21.630    4.4409
   21.660    4.2127
   21.690    4.2830
   21.720    3.9143
   21.750    4.1425
   21.780    4.0723
   21.810    3.9670
   21.840    3.8441
   21.870    4.0723
   21.900    4.0197
   21.930    4.0548
   21.960    3.7915
   21.990    3.8792
   22.020    3.7739
   22.050    3.9846
   22.080    3.8617
   22.110    4.1425
   22.140    3.7213
   22.170    3.7388
   22.200    4.0723
   22.230    3.7213
   22.260    3.9670
   22.290    3.7037
   22.320    3.9143
   22.350    4.0548
   22.380    3.7739
   22.410    4.0548
   22.440    3.8617
   22.470    3.8968
   22.500    4.1074
   22.530    3.8968
   22.560    4.1776
   22.590    3.6862
   22.620    3.9670
   22.650    3.4580
   22.680    3.9494
   22.710    3.6686
   22.740    3.7037
   22.770    3.7739
   22.800    3.5106
   22.830    4.0021
   22.860    4.0372
   22.890    3.8266
   22.920    4.0372
   22.950    4.0723
   22.980    3.9143
   23.010    3.5984
   23.040    3.7564
   23.070    4.1601
   23.100    4.3356
   23.130    3.4931
   23.160    3.9494
   23.190    3.5808
   23.220    3.8090
   23.250    3.7037
   23.280    3.6862
   23.310    3.7213
   23.340    3.7915
   23.370    3.7915
   23.400    3.7037
   23.430    3.8792
   23.460    3.7037
   23.490    3.6862
   23.520    3.7564
   23.550    3.8441
   23.580    3.6335
   23.610    3.7739
   23.640    3.8266
   23.670    3.5457
   23.700    3.0893
   23.730    3.5282
   23.760    3.9494
   23.790    3.8617
   23.820    3.5457
   23.850    3.7213
   23.880    3.8266
   23.910    3.6686
   23.940    3.9494
   23.970    3.4229
   24.000    3.1245
   24.030    4.0723
   24.060    3.9319
   24.090    3.3877
   24.120    3.5984
   24.150    3.4229
   24.180    3.5106
   24.210    3.4931
   24.240    3.6335
   24.270    3.7564
   24.300    3.7213
   24.330    3.8090
   24.360    3.4053
   24.390    3.8266
   24.420    3.2473
   24.450    3.5984
   24.480    3.6335
   24.510    3.0542
   24.540    3.2473
   24.570    3.9846
   24.600    3.4404
   24.630    3.7213
   24.660    3.3877
   24.690    3.4755
   24.720    3.5633
   24.750    3.6510
   24.780    3.3526
   24.810    3.3526
   24.840    3.1420
   24.870    3.4580
   24.900    3.8792
   24.930    3.6159
   24.960    3.5282
   24.990    3.6159
   25.020    3.9846
   25.050    3.4931
   25.080    3.8792
   25.110    3.4580
   25.140    3.5106
   25.170    3.6159
   25.200    3.2122
   25.230    3.3526
   25.260    3.7037
   25.290    3.1947
   25.320    3.4755
   25.350    3.4404
   25.380    3.5808
   25.410    3.4053
   25.440    3.4931
   25.470    3.5106
   25.500    4.2127
   25.530    3.4580
   25.560    3.4404
   25.590    3.4931
   25.620    3.5106
   25.650    3.4931
   25.680    3.4229
   25.710    3.7915
   25.740    3.4755
   25.770    3.5633
   25.800    3.4053
   25.830    3.3702
   25.860    3.5808
   25.890    3.1596
   25.920    3.5633
   25.950    3.7037
   25.980    3.2298
   26.010    3.4580
   26.040    3.3000
   26.070    3.3351
   26.100    3.6335
   26.130    3.2649
   26.160    3.2649
   26.190    3.4229
   26.220    3.5282
   26.250    3.1245
   26.280    3.4931
   26.310    3.4931
   26.340    3.4931
   26.370    3.6686
   26.400    3.3000
   26.430    3.3000
   26.460    3.3526
   26.490    3.1069
   26.520    3.6159
   26.550    3.6159
   26.580    3.3877
   26.610    3.6159
   26.640    2.9138
   26.670    3.2824
   26.700    3.3877
   26.730    3.2298
   26.760    3.0367
   26.790    3.3175
   26.820    3.8441
   26.850    3.0893
   26.880    3.2824
   26.910    3.1596
   26.940    3.1420
   26.970    3.4580
   27.000    3.2824
   27.030    3.2824
   27.060    3.1245
   27.090    3.1947
   27.120    3.0893
   27.150    3.1069
   27.180    3.1596
   27.210    3.1420
   27.240    3.3526
   27.270    3.0542
   27.300    3.3351
   27.330    3.0367
   27.360    2.9138
   27.390    3.2298
   27.420    2.8612
   27.450    3.2122
   27.480    2.8436
   27.510    2.8787
   27.540    2.9314
   27.570    3.0191
   27.600    3.3000
   27.630    2.9665
   27.660    2.9314
   27.690    3.1245
   27.720    3.0191
   27.750    2.9138
   27.780    3.2824
   27.810    3.0893
   27.840    2.5452
   27.870    2.7032
   27.900    3.3351
   27.930    3.0542
   27.960    3.6159
   27.990    3.8090
   28.020    3.7388
   28.050    3.6335
   28.080    2.9840
   28.110    3.1420
   28.140    2.9314
   28.170    2.7383
   28.200    2.9138
   28.230    2.6154
   28.260    2.8085
   28.290    2.8787
   28.320    2.9138
   28.350    3.0191
   28.380    2.9665
   28.410    2.9314
   28.440    3.1069
   28.470    2.9489
   28.500    2.8963
   28.530    3.1420
   28.560    2.6505
   28.590    3.1245
   28.620    2.9489
   28.650    2.9840
   28.680    2.7558
   28.710    3.0718
   28.740    2.8085
   28.770    2.8963
   28.800    2.8787
   28.830    2.6154
   28.860    2.9665
   28.890    3.1420
   28.920    3.2122
   28.950    4.1601
   28.980    3.9143
   29.010    3.4931
   29.040    3.2298
   29.070    2.8260
   29.100    3.2473
   29.130    2.8436
   29.160    2.7558
   29.190    3.2298
   29.220    2.9840
   29.250    2.9314
   29.280    2.7558
   29.310    2.8260
   29.340    2.8612
   29.370    3.1771
   29.400    2.7558
   29.430    2.7734
   29.460    3.0191
   29.490    2.5628
   29.520    2.8612
   29.550    2.8787
   29.580    2.1941
   29.610    2.7032
   29.640    2.6154
   29.670    2.7558
   29.700    2.6505
   29.730    2.8260
   29.760    2.6681
   29.790    2.5803
   29.820    2.6681
   29.850    2.6681
   29.880    2.9138
   29.910    2.7909
   29.940    3.0191
   29.970    2.8612
   30.000    3.0367
   30.030    2.8260
   30.060    2.6154
   30.090    2.7909
   30.120    2.6681
   30.150    2.4223
   30.180    2.7207
   30.210    2.5979
   30.240    2.7207
   30.270    2.7558
   30.300    2.5101
   30.330    2.6330
   30.360    2.5803
   30.390    2.4574
   30.420    2.4574
   30.450    2.7558
   30.480    2.6154
   30.510    2.6505
   30.540    2.6505
   30.570    2.4574
   30.600    2.6330
   30.630    2.5979
   30.660    2.3346
   30.690    2.2643
   30.720    2.5803
   30.750    2.7909
   30.780    2.5628
   30.810    2.7558
   30.840    2.7207
   30.870    2.6505
   30.900    2.6681
   30.930    2.5979
   30.960    2.5101
   30.990    2.5276
   31.020    2.5628
   31.050    2.6856
   31.080    2.7032
   31.110    2.6154
   31.140    2.5452
   31.170    2.3697
   31.200    2.4750
   31.230    2.2468
   31.260    2.4399
   31.290    2.4750
   31.320    2.5628
   31.350    2.2643
   31.380    2.2117
   31.410    2.0713
   31.440    2.4223
   31.470    2.4399
   31.500    1.9835
   31.530    2.4399
   31.560    2.2819
   31.590    2.4399
   31.620    2.3170
   31.650    2.4048
   31.680    2.6154
   31.710    2.2819
   31.740    2.5803
   31.770    2.7032
   31.800    2.6330
   31.830    2.5101
   31.860    2.5101
   31.890    2.4223
   31.920    2.2292
   31.950    2.4223
   31.980    2.5101
   32.010    2.4750
   32.040    2.8787
   32.070    3.9494
   32.100    4.4936
   32.130    3.3877
   32.160    2.6154
   32.190    2.5452
   32.220    2.2468
   32.250    2.1064
   32.280    2.3697
   32.310    2.5628
   32.340    2.3170
   32.370    2.0888
   32.400    2.2995
   32.430    2.2819
   32.460    2.4399
   32.490    2.2468
   32.520    2.1766
   32.550    2.1064
   32.580    2.1766
   32.610    2.0888
   32.640    1.9659
   32.670    2.2995
   32.700    1.9659
   32.730    2.3170
   32.760    2.2292
   32.790    2.1766
   32.820    2.0186
   32.850    2.1239
   32.880    2.2819
   32.910    2.0362
   32.940    2.2643
   32.970    2.4574
   33.000    2.1590
   33.030    2.1766
   33.060    2.2995
   33.090    2.1766
   33.120    2.0888
   33.150    1.9835
   33.180    2.1239
   33.210    2.2117
   33.240    1.9835
   33.270    2.0186
   33.300    2.2468
   33.330    1.9133
   33.360    2.2468
   33.390    2.1941
   33.420    2.0186
   33.450    2.0537
   33.480    1.9659
   33.510    1.9484
   33.540    1.9835
   33.570    2.2117
   33.600    2.2995
   33.630    2.0362
   33.660    2.0186
   33.690    2.1590
   33.720    2.2468
   33.750    2.2643
   33.780    2.4750
   33.810    2.7383
   33.840    2.7734
   33.870    2.4574
   33.900    2.3521
   33.930    2.0537
   33.960    2.5803
   33.990    2.5979
   34.020    2.2643
   34.050    2.2292
   34.080    1.9659
   34.110    2.2995
   34.140    1.8080
   34.170    2.1941
   34.200    2.1941
   34.230    2.6330
   34.260    2.0011
   34.290    2.0888
   34.320    2.1064
   34.350    2.1941
   34.380    1.7904
   34.410    2.2643
   34.440    2.0186
   34.470    1.8606
   34.500    2.2819
   34.530    2.1239
   34.560    1.9133
   34.590    1.9835
   34.620    1.9835
   34.650    2.1415
   34.680    1.9484
   34.710    2.1415
   34.740    2.0011
   34.770    2.1590
   34.800    2.1064
   34.830    2.0713
   34.860    2.2468
   34.890    1.8782
   34.920    2.3697
   34.950    2.1941
   34.980    2.1590
   35.010    2.3697
   35.040    2.6681
   35.070    2.0011
   35.100    2.0537
   35.130    2.2643
   35.160    2.2292
   35.190    2.2643
   35.220    2.1590
   35.250    2.0888
   35.280    2.2819
   35.310    1.8782
   35.340    2.0011
   35.370    2.2819
   35.400    2.2117
   35.430    1.9133
   35.460    1.7378
   35.490    2.0362
   35.520    1.9659
   35.550    2.0537
   35.580    1.9484
   35.610    2.0537
   35.640    2.1766
   35.670    2.0011
   35.700    2.1766
   35.730    2.1590
   35.760    2.1239
   35.790    1.8606
   35.820    1.9484
   35.850    2.0011
   35.880    2.0011
   35.910    1.9659
   35.940    2.0186
   35.970    2.0713
   36.000    2.0186
   36.030    2.2643
   36.060    2.1239
   36.090    2.0713
   36.120    2.0362
   36.150    2.1766
   36.180    1.8782
   36.210    2.0888
   36.240    2.0362
   36.270    2.3521
   36.300    1.7553
   36.330    1.8255
   36.360    2.3346
   36.390    2.2117
   36.420    1.8431
   36.450    1.9835
   36.480    2.2819
   36.510    2.1064
   36.540    2.0537
   36.570    2.1941
   36.600    2.1239
   36.630    2.0186
   36.660    2.1064
   36.690    2.2117
   36.720    1.5973
   36.750    2.0186
   36.780    2.0713
   36.810    2.0362
   36.840    1.9133
   36.870    2.0537
   36.900    1.8782
   36.930    1.8606
   36.960    1.7904
   36.990    2.0011
   37.020    2.0011
   37.050    1.6851
   37.080    1.9659
   37.110    1.8782
   37.140    1.8782
   37.170    1.8080
   37.200    1.8431
   37.230    2.0362
   37.260    1.8431
   37.290    2.0186
   37.320    2.0362
   37.350    1.8606
   37.380    2.1239
   37.410    2.2468
   37.440    1.8606
   37.470    1.8606
   37.500    2.1941
   37.530    1.7378
   37.560    2.0537
   37.590    2.0362
   37.620    2.2117
   37.650    2.0186
   37.680    2.3170
   37.710    2.0537
   37.740    1.9308
   37.770    2.2468
   37.800    2.0713
   37.830    1.9484
   37.860    1.9133
   37.890    2.1590
   37.920    1.8606
   37.950    1.8255
   37.980    2.1064
   38.010    2.3521
   38.040    1.8080
   38.070    1.7904
   38.100    1.7904
   38.130    1.8080
   38.160    1.8255
   38.190    1.8606
   38.220    1.7378
   38.250    1.8782
   38.280    2.1239
   38.310    2.2292
   38.340    2.0362
   38.370    2.1590
   38.400    2.2819
   38.430    1.9308
   38.460    1.9835
   38.490    2.1941
   38.520    2.1064
   38.550    1.9308
   38.580    2.3170
   38.610    2.5979
   38.640    2.0537
   38.670    1.8782
   38.700    1.7378
   38.730    1.7202
   38.760    1.9484
   38.790    2.2819
   38.820    1.9835
   38.850    1.7027
   38.880    1.7202
   38.910    1.9484
   38.940    2.1941
   38.970    1.7904
   39.000    2.1415
   39.030    1.8782
   39.060    1.7904
   39.090    1.9308
   39.120    1.9308
   39.150    1.8431
   39.180    2.0537
   39.210    1.8431
   39.240    1.9659
   39.270    1.8782
   39.300    1.9308
   39.330    1.7904
   39.360    1.9484
   39.390    1.5447
   39.420    1.7202
   39.450    1.8606
   39.480    1.8957
   39.510    2.1239
   39.540    1.8606
   39.570    1.9308
   39.600    1.8606
   39.630    1.9659
   39.660    2.0362
   39.690    1.5447
   39.720    2.0186
   39.750    1.7729
   39.780    1.8431
   39.810    1.5973
   39.840    1.8606
   39.870    1.9133
   39.900    1.9835
   39.930    1.9133
   39.960    1.6324
   39.990    2.1590