File: data/PXRD/PXRD_KE-092_Cu-Ka1_capillary-1mm_5s-deg.xyd
    1.500   18.8836
    1.530   18.2517
    1.560   18.7467
    1.590   17.9674
    1.620   17.9358
    1.650   18.3360
    1.680   17.3986
    1.710   16.8615
    1.740   17.5987
    1.770   16.9563
    1.800   16.5771
    1.830   16.5982
    1.860   15.7557
    1.890   16.5771
    1.920   15.9347
    1.950   16.4297
    1.980   16.4192
    2.010   15.6609
    2.040   16.0295
    2.070   15.3870
    2.100   15.9768
    2.130   16.3349
    2.160   16.3033
    2.190   16.1348
    2.220   16.5666
    2.250   16.1137
    2.280   16.3139
    2.310   17.1037
    2.340   16.9247
    2.370   16.9142
    2.400   17.1143
    2.430   17.9252
    2.460   17.7041
    2.490   18.1359
    2.520   18.4729
    2.550   18.9258
    2.580   19.5471
    2.610   19.9895
    2.640   20.3581
    2.670   20.3265
    2.700   21.4955
    2.730   22.7383
    2.760   23.0121
    2.790   23.2543
    2.820   24.9816
    2.850   24.6024
    2.880   26.6035
    2.910   28.0674
    2.940   29.5945
    2.970   30.4581
    3.000   32.1748
    3.030   33.7757
    3.060   35.0606
    3.090   37.9252
    3.120   40.6319
    3.150   42.0853
    3.180   45.8873
    3.210   49.3734
    3.240   52.9542
    3.270   57.6303
    3.300   63.0753
    3.330   70.5845
    3.360   77.1353
    3.390   84.3813
    3.420   94.5129
    3.450  100.3160
    3.480   97.9252
    3.510   85.7820
    3.540   69.2259
    3.570   54.7762
    3.600   46.8668
    3.630   42.3170
    3.660   40.1580
    3.690   39.6840
    3.720   40.1685
    3.750   41.0532
    3.780   41.7694
    3.810   43.6019
    3.840   46.7615
    3.870   48.6045
    3.900   48.1833
    3.930   45.3818
    3.960   43.6546
    3.990   43.0753
    4.020   40.9268
    4.050   39.2101
    4.080   36.1769
    4.110   34.7341
    4.140   30.7320
    4.170   28.3202
    4.200   25.1395
    4.230   23.2122
    4.260   20.7688
    4.290   18.9152
    4.320   17.0511
    4.350   15.1764
    4.380   14.0706
    4.410   12.9437
    4.440   11.8167
    4.470   11.5534
    4.500   10.8268
    4.530    9.4787
    4.560    9.7209
    4.590    8.8257
    4.620    9.0785
    4.650    8.2570
    4.680    8.7309
    4.710    8.6467
    4.740    8.0463
    4.770    7.9937
    4.800    7.5513
    4.830    7.7199
    4.860    7.7199
    4.890    7.0985
    4.920    7.1301
    4.950    6.8141
    4.980    7.3512
    5.010    6.8352
    5.040    6.9826
    5.070    6.8668
    5.100    6.8773
    5.130    6.6245
    5.160    7.2038
    5.190    6.9194
    5.220    6.9194
    5.250    6.8984
    5.280    6.9721
    5.310    6.5613
    5.340    6.6772
    5.370    7.3934
    5.400    7.7620
    5.430    7.8462
    5.460    8.1833
    5.490    9.0574
    5.520    7.7725
    5.550    6.7825
    5.580    6.0348
    5.610    5.8873
    5.640    5.5082
    5.670    5.6872
    5.700    5.7293
    5.730    5.7925
    5.760    5.6661
    5.790    6.1085
    5.820    5.4766
    5.850    5.7293
    5.880    6.2138
    5.910    5.6135
    5.940    6.0453
    5.970    5.6661
    6.000    5.9189
    6.030    6.1506
    6.060    5.7504
    6.090    5.7609
    6.120    5.6240
    6.150    5.7820
    6.180    5.8136
    6.210    5.8241
    6.240    5.9610
    6.270    5.8662
    6.300    6.0664
    6.330    6.1927
    6.360    6.0242
    6.390    6.5087
    6.420    6.6035
    6.450    6.4982
    6.480    6.3296
    6.510    6.5403
    6.540    6.4666
    6.570    7.0248
    6.600    7.5829
    6.630    7.3618
    6.660    7.6883
    6.690    8.5729
    6.720    8.8994
    6.750    9.5313
    6.780    9.3207
    6.810    9.6051
    6.840   10.8162
    6.870   11.1532
    6.900   12.3433
    6.930   12.7962
    6.960   13.6177
    6.990   13.5018
    7.020   12.2907
    7.050   10.3633
    7.080    9.0574
    7.110    8.2886
    7.140    7.4355
    7.170    7.4671
    7.200    7.2354
    7.230    6.8457
    7.260    6.5613
    7.290    6.4666
    7.320    6.4244
    7.350    6.7088
    7.380    6.7930
    7.410    6.4244
    7.440    6.2981
    7.470    6.5719
    7.500    6.6983
    7.530    6.5192
    7.560    6.9405
    7.590    6.5719
    7.620    6.8984
    7.650    7.1090
    7.680    7.1722
    7.710    7.1617
    7.740    7.6672
    7.770    7.7514
    7.800    7.8146
    7.830    7.9305
    7.860    8.0147
    7.890    7.8989
    7.920    7.9094
    7.950    8.0569
    7.980    8.2149
    8.010    8.3728
    8.040    8.2359
    8.070    7.9200
    8.100    8.3939
    8.130    7.8989
    8.160    8.0042
    8.190    8.1411
    8.220    7.3407
    8.250    7.7620
    8.280    7.5197
    8.310    7.2459
    8.340    7.7514
    8.370    7.2459
    8.400    7.0353
    8.430    7.0669
    8.460    7.1511
    8.490    6.7509
    8.520    6.6561
    8.550    6.7088
    8.580    6.5087
    8.610    6.1506
    8.640    6.3507
    8.670    6.2033
    8.700    6.3612
    8.730    5.9400
    8.760    5.9821
    8.790    5.6556
    8.820    5.4976
    8.850    5.7504
    8.880    6.0137
    8.910    5.9294
    8.940    5.5714
    8.970    5.3291
    9.000    5.4555
    9.030    5.6977
    9.060    5.6767
    9.090    5.5503
    9.120    5.4450
    9.150    5.5608
    9.180    5.8768
    9.210    5.4344
    9.240    5.5503
    9.270    5.4871
    9.300    5.3397
    9.330    5.2133
    9.360    6.0348
    9.390    5.7609
    9.420    5.6345
    9.450    5.5503
    9.480    5.9505
    9.510    6.1190
    9.540    6.2665
    9.570    5.8873
    9.600    5.5503
    9.630    5.6661
    9.660    5.1817
    9.690    5.2659
    9.720    5.3291
    9.750    4.6972
    9.780    5.3502
    9.810    5.1290
    9.840    5.0764
    9.870    5.2027
    9.900    5.0869
    9.930    4.9394
    9.960    4.7709
    9.990    4.9605
   10.020    5.1290
   10.050    5.0658
   10.080    5.0764
   10.110    4.8973
   10.140    5.0132
   10.170    5.2870
   10.200    5.0553
   10.230    5.3186
   10.260    5.6977
   10.290    5.5924
   10.320    5.6977
   10.350    5.2238
   10.380    5.8347
   10.410    5.5187
   10.440    5.7820
   10.470    5.5608
   10.500    5.8241
   10.530    5.7293
   10.560    5.5503
   10.590    5.4028
   10.620    5.2133
   10.650    5.1501
   10.680    5.0132
   10.710    5.4028
   10.740    5.3818
   10.770    5.0764
   10.800    5.3186
   10.830    5.2133
   10.860    4.9078
   10.890    5.0448
   10.920    5.4766
   10.950    5.2238
   10.980    5.3502
   11.010    5.3502
   11.040    5.3502
   11.070    5.2554
   11.100    5.0132
   11.130    4.6340
   11.160    4.8973
   11.190    5.1501
   11.220    5.2449
   11.250    5.0026
   11.280    5.5187
   11.310    5.1290
   11.340    5.2343
   11.370    4.9500
   11.400    5.2238
   11.430    4.9710
   11.460    5.1080
   11.490    5.3186
   11.520    5.3502
   11.550    5.3186
   11.580    5.3291
   11.610    5.0237
   11.640    5.4660
   11.670    5.4450
   11.700    5.4344
   11.730    5.2659
   11.760    5.2027
   11.790    5.4344
   11.820    5.3607
   11.850    5.2343
   11.880    5.3712
   11.910    5.2238
   11.940    5.0869
   11.970    5.0764
   12.000    5.3818
   12.030    5.3186
   12.060    5.3081
   12.090    5.4871
   12.120    5.4134
   12.150    5.1711
   12.180    5.4555
   12.210    5.2765
   12.240    5.2238
   12.270    5.4660
   12.300    4.9605
   12.330    5.3818
   12.360    5.4134
   12.390    4.9921
   12.420    5.3291
   12.450    5.4239
   12.480    5.4344
   12.510    5.2343
   12.540    5.3186
   12.570    5.0764
   12.600    5.4555
   12.630    5.5503
   12.660    5.2027
   12.690    5.1080
   12.720    5.2554
   12.750    5.2027
   12.780    5.7609
   12.810    5.1395
   12.840    5.1606
   12.870    5.2765
   12.900    5.6029
   12.930    5.6345
   12.960    5.3923
   12.990    5.3397
   13.020    4.9816
   13.050    4.9500
   13.080    5.1080
   13.110    5.3081
   13.140    5.2975
   13.170    5.0342
   13.200    5.0132
   13.230    5.1711
   13.260    5.0448
   13.290    5.3291
   13.320    5.4976
   13.350    5.0658
   13.380    4.9710
   13.410    5.3923
   13.440    5.5187
   13.470    5.0553
   13.500    5.1922
   13.530    4.9710
   13.560    4.8973
   13.590    4.9078
   13.620    4.8973
   13.650    5.1395
   13.680    4.8763
   13.710    5.4450
   13.740    5.3818
   13.770    4.9710
   13.800    4.9816
   13.830    4.8341
   13.860    5.4450
   13.890    5.2659
   13.920    5.0132
   13.950    5.2133
   13.980    4.8973
   14.010    4.9605
   14.040    5.2343
   14.070    5.0869
   14.100    4.9394
   14.130    4.7815
   14.160    4.8552
   14.190    4.9710
   14.220    4.7288
   14.250    4.9289
   14.280    5.0132
   14.310    4.5919
   14.340    5.3397
   14.370    4.6445
   14.400    4.7815
   14.430    5.1501
   14.460    4.8341
   14.490    5.1080
   14.520    4.7499
   14.550    4.7499
   14.580    4.9816
   14.610    4.8341
   14.640    4.6656
   14.670    5.1290
   14.700    4.6867
   14.730    4.9394
   14.760    4.7183
   14.790    4.7920
   14.820    4.8763
   14.850    4.8552
   14.880    4.7183
   14.910    4.7920
   14.940    4.8341
   14.970    4.5182
   15.000    4.5498
   15.030    4.6024
   15.060    4.9710
   15.090    4.7709
   15.120    4.4550
   15.150    5.1080
   15.180    4.8341
   15.210    4.9605
   15.240    5.1711
   15.270    4.9500
   15.300    4.9816
   15.330    4.8868
   15.360    4.8025
   15.390    5.0448
   15.420    4.6445
   15.450    4.8552
   15.480    4.9710
   15.510    5.0448
   15.540    4.8973
   15.570    4.7183
   15.600    5.0658
   15.630    4.6972
   15.660    4.7288
   15.690    4.9605
   15.720    4.9500
   15.750    4.8341
   15.780    4.8657
   15.810    5.0869
   15.840    4.8552
   15.870    4.3813
   15.900    5.1922
   15.930    4.6340
   15.960    5.0026
   15.990    5.2238
   16.020    4.9500
   16.050    4.7604
   16.080    4.9289
   16.110    4.8657
   16.140    4.7920
   16.170    5.1395
   16.200    4.9500
   16.230    4.9394
   16.260    4.7920
   16.290    4.9500
   16.320    5.0448
   16.350    5.0764
   16.380    4.6761
   16.410    5.0553
   16.440    5.0448
   16.470    4.9289
   16.500    4.8868
   16.530    4.5603
   16.560    4.7183
   16.590    4.9921
   16.620    4.8552
   16.650    4.8341
   16.680    4.8973
   16.710    4.5287
   16.740    4.7709
   16.770    4.6551
   16.800    4.6445
   16.830    4.8341
   16.860    4.7183
   16.890    5.0553
   16.920    4.6024
   16.950    5.0132
   16.980    5.3712
   17.010    5.0869
   17.040    4.9500
   17.070    4.9921
   17.100    4.9921
   17.130    4.9605
   17.160    4.6445
   17.190    4.7815
   17.220    4.6867
   17.250    4.7393
   17.280    4.9394
   17.310    4.4760
   17.340    4.6656
   17.370    4.9710
   17.400    5.0132
   17.430    5.0658
   17.460    4.6551
   17.490    4.8868
   17.520    4.8552
   17.550    5.0658
   17.580    4.8657
   17.610    4.8868
   17.640    4.8341
   17.670    5.0132
   17.700    4.9184
   17.730    4.7920
   17.760    4.7393
   17.790    4.8447
   17.820    4.8341
   17.850    5.0026
   17.880    4.9078
   17.910    4.9605
   17.940    4.7499
   17.970    5.0237
   18.000    5.0974
   18.030    5.1185
   18.060    4.4971
   18.090    4.4760
   18.120    4.8868
   18.150    4.8657
   18.180    5.0132
   18.210    4.6445
   18.240    4.6656
   18.270    5.0974
   18.300    5.0448
   18.330    4.9921
   18.360    4.9289
   18.390    4.7920
   18.420    4.9816
   18.450    4.8552
   18.480    5.0237
   18.510    5.0553
   18.540    4.9184
   18.570    4.9394
   18.600    4.7499
   18.630    4.9921
   18.660    4.9921
   18.690    4.6867
   18.720    5.1290
   18.750    4.8025
   18.780    4.7499
   18.810    4.7288
   18.840    4.8447
   18.870    4.9289
   18.900    5.2343
   18.930    5.0974
   18.960    5.3923
   18.990    4.9078
   19.020    5.2238
   19.050    5.3081
   19.080    5.0448
   19.110    5.0869
   19.140    5.1395
   19.170    4.9605
   19.200    5.5503
   19.230    5.0764
   19.260    4.9921
   19.290    5.3502
   19.320    4.9605
   19.350    5.0448
   19.380    5.1080
   19.410    4.9816
   19.440    5.0764
   19.470    4.9184
   19.500    5.0342
   19.530    5.7504
   19.560    5.0974
   19.590    5.2238
   19.620    5.2659
   19.650    5.2870
   19.680    4.8973
   19.710    5.1501
   19.740    5.3291
   19.770    5.1501
   19.800    5.0448
   19.830    5.1501
   19.860    5.0026
   19.890    5.2343
   19.920    5.5819
   19.950    5.3923
   19.980    5.1395
   20.010    5.4134
   20.040    5.1501
   20.070    5.1290
   20.100    5.5082
   20.130    5.4344
   20.160    5.3502
   20.190    4.8868
   20.220    5.1922
   20.250    5.2975
   20.280    5.4344
   20.310    5.1080
   20.340    5.4239
   20.370    5.4028
   20.400    5.6451
   20.430    5.4239
   20.460    5.6556
   20.490    5.4450
   20.520    5.1922
   20.550    5.3081
   20.580    5.3397
   20.610    5.4660
   20.640    4.8447
   20.670    5.1290
   20.700    5.6977
   20.730    5.0658
   20.760    5.0869
   20.790    5.1711
   20.820    5.6767
   20.850    5.0553
   20.880    5.7293
   20.910    5.1922
   20.940    5.2554
   20.970    5.2343
   21.000    5.3712
   21.030    5.4660
   21.060    5.1922
   21.090    5.1922
   21.120    5.4555
   21.150    5.4976
   21.180    5.4766
   21.210    5.2133
   21.240    5.5398
   21.270    5.4766
   21.300    5.4134
   21.330    5.3397
   21.360    5.2449
   21.390    5.3081
   21.420    5.2449
   21.450    5.1606
   21.480    5.8978
   21.510    5.2027
   21.540    5.3291
   21.570    5.3607
   21.600    5.0974
   21.630    5.1185
   21.660    5.6977
   21.690    5.4239
   21.720    5.2975
   21.750    5.2765
   21.780    5.2343
   21.810    5.5819
   21.840    5.0764
   21.870    5.0869
   21.900    5.4555
   21.930    5.6135
   21.960    5.4450
   21.990    5.4028
   22.020    5.0869
   22.050    5.1395
   22.080    5.3186
   22.110    5.3712
   22.140    5.4871
   22.170    5.1185
   22.200    5.4134
   22.230    5.0869
   22.260    4.9184
   22.290    5.0342
   22.320    5.4134
   22.350    5.5819
   22.380    4.8973
   22.410    5.0869
   22.440    5.6451
   22.470    5.3818
   22.500    5.3923
   22.530    5.3712
   22.560    5.2659
   22.590    5.5187
   22.620    5.4028
   22.650    5.3607
   22.680    5.0869
   22.710    5.5292
   22.740    5.3923
   22.770    5.4344
   22.800    5.3923
   22.830    5.4450
   22.860    5.0342
   22.890    5.2659
   22.920    5.3923
   22.950    5.3607
   22.980    5.0974
   23.010    5.3607
   23.040    5.1185
   23.070    5.3081
   23.100    5.2027
   23.130    5.0764
   23.160    5.4239
   23.190    5.5714
   23.220    5.1711
   23.250    5.2343
   23.280    5.1290
   23.310    5.3712
   23.340    5.6767
   23.370    4.8973
   23.400    5.1395
   23.430    5.4766
   23.460    5.3712
   23.490    5.4450
   23.520    5.4239
   23.550    5.1922
   23.580    5.3712
   23.610    5.4555
   23.640    5.2238
   23.670    5.0132
   23.700    5.4028
   23.730    5.0132
   23.760    5.1290
   23.790    5.0553
   23.820    4.9184
   23.850    5.0448
   23.880    4.8763
   23.910    5.0132
   23.940    5.3081
   23.970    5.3291
   24.000    5.2659
   24.030    5.0448
   24.060    5.1290
   24.090    5.0869
   24.120    5.2238
   24.150    5.0974
   24.180    5.2554
   24.210    5.1501
   24.240    4.8447
   24.270    4.9921
   24.300    5.1290
   24.330    5.1922
   24.360    4.6551
   24.390    5.0553
   24.420    4.8657
   24.450    4.9816
   24.480    5.0869
   24.510    5.4976
   24.540    5.1711
   24.570    4.9710
   24.600    5.1185
   24.630    4.6972
   24.660    5.2133
   24.690    5.0448
   24.720    4.9289
   24.750    5.0448
   24.780    4.8973
   24.810    4.8973
   24.840    5.0132
   24.870    5.0448
   24.900    4.8341
   24.930    4.8025
   24.960    5.3081
   24.990    5.0026
   25.020    4.9710
   25.050    4.8552
   25.080    5.1606
   25.110    4.8763
   25.140    5.0342
   25.170    5.2027
   25.200    4.6445
   25.230    5.0974
   25.260    4.6445
   25.290    4.8236
   25.320    4.5392
   25.350    4.9816
   25.380    5.0448
   25.410    4.7183
   25.440    4.8131
   25.470    4.6551
   25.500    4.8236
   25.530    4.6867
   25.560    4.7077
   25.590    5.2765
   25.620    4.6340
   25.650    4.6340
   25.680    4.7709
   25.710    4.5708
   25.740    4.7077
   25.770    4.8447
   25.800    4.6551
   25.830    4.7077
   25.860    4.7709
   25.890    4.4866
   25.920    4.7393
   25.950    4.9816
   25.980    4.8131
   26.010    5.1817
   26.040    4.7709
   26.070    4.4655
   26.100    4.7183
   26.130    4.4128
   26.160    4.7288
   26.190    4.8025
   26.220    4.7920
   26.250    4.5708
   26.280    4.4760
   26.310    4.7077
   26.340    4.8868
   26.370    4.4550
   26.400    4.4550
   26.430    4.4971
   26.460    4.6761
   26.490    4.7499
   26.520    4.9078
   26.550    4.6867
   26.580    4.6130
   26.610    4.7815
   26.640    4.3391
   26.670    4.5708
   26.700    4.5814
   26.730    4.5498
   26.760    4.6235
   26.790    4.5603
   26.820    4.6445
   26.850    4.5076
   26.880    4.7604
   26.910    4.2443
   26.940    4.6340
   26.970    4.7604
   27.000    4.5603
   27.030    4.4023
   27.060    4.6656
   27.090    4.4444
   27.120    4.6551
   27.150    4.8025
   27.180    4.5919
   27.210    4.6130
   27.240    4.4023
   27.270    4.4128
   27.300    4.4023
   27.330    4.7815
   27.360    4.5919
   27.390    4.5076
   27.420    4.4550
   27.450    4.2443
   27.480    4.3391
   27.510    4.3813
   27.540    4.2970
   27.570    4.3391
   27.600    4.5603
   27.630    4.1496
   27.660    4.4234
   27.690    4.6445
   27.720    4.3918
   27.750    4.6024
   27.780    4.8341
   27.810    4.2443
   27.840    4.5814
   27.870    4.4234
   27.900    4.5603
   27.930    4.3286
   27.960    4.4023
   27.990    4.4866
   28.020    4.8447
   28.050    4.2865
   28.080    4.5603
   28.110    4.5182
   28.140    4.7077
   28.170    4.2233
   28.200    4.6972
   28.230    4.5498
   28.260    4.5498
   28.290    4.4234
   28.320    4.3075
   28.350    4.6445
   28.380    4.6656
   28.410    4.5182
   28.440    4.3075
   28.470    4.7288
   28.500    4.3602
   28.530    4.3286
   28.560    4.4550
   28.590    4.4655
   28.620    4.3602
   28.650    4.7183
   28.680    4.3286
   28.710    4.5919
   28.740    4.1074
   28.770    4.1390
   28.800    4.2654
   28.830    4.0758
   28.860    4.1811
   28.890    4.6130
   28.920    4.2865
   28.950    4.4971
   28.980    4.5392
   29.010    4.2549
   29.040    4.2865
   29.070    4.5076
   29.100    4.3497
   29.130    4.4023
   29.160    4.4550
   29.190    4.1917
   29.220    4.3602
   29.250    4.2970
   29.280    4.5708
   29.310    4.2338
   29.340    4.5708
   29.370    4.3918
   29.400    4.2654
   29.430    4.2865
   29.460    4.2443
   29.490    4.4655
   29.520    4.3181
   29.550    4.2549
   29.580    4.0337
   29.610    4.1496
   29.640    4.4023
   29.670    4.1917
   29.700    4.3075
   29.730    4.1811
   29.760    4.3286
   29.790    4.4866
   29.820    3.9916
   29.850    4.2022
   29.880    4.1074
   29.910    4.1811
   29.940    4.2127
   29.970    4.0864
   30.000    4.0758
   30.030    4.4760
   30.060    3.8231
   30.090    4.6656
   30.120    4.0232
   30.150    4.2970
   30.180    4.0232
   30.210    4.3918
   30.240    4.5919
   30.270    4.4444
   30.300    4.1917
   30.330    4.0653
   30.360    3.9810
   30.390    4.0337
   30.420    4.5182
   30.450    4.2338
   30.480    4.2127
   30.510    4.2970
   30.540    4.0442
   30.570    4.2759
   30.600    4.2127
   30.630    4.2443
   30.660    4.0548
   30.690    4.0653
   30.720    4.4128
   30.750    4.2549
   30.780    4.1496
   30.810    4.1390
   30.840    4.0758
   30.870    4.1496
   30.900    4.2443
   30.930    3.8863
   30.960    4.2022
   30.990    3.8863
   31.020    4.0021
   31.050    4.1496
   31.080    4.4023
   31.110    3.9494
   31.140    4.2127
   31.170    3.9284
   31.200    3.7809
   31.230    4.0758
   31.260    4.0653
   31.290    4.2549
   31.320    4.2443
   31.350    3.9389
   31.380    3.8757
   31.410    3.8652
   31.440    4.0126
   31.470    4.0864
   31.500    3.8336
   31.530    3.9916
   31.560    4.0653
   31.590    4.2654
   31.620    4.1496
   31.650    3.9073
   31.680    4.1074
   31.710    4.2549
   31.740    4.2338
   31.770    4.1180
   31.800    4.3391
   31.830    4.2549
   31.860    4.0969
   31.890    4.1706
   31.920    4.2759
   31.950    4.2443
   31.980    4.4971
   32.010    4.6340
   32.040    4.8341
   32.070    4.7288
   32.100    4.3602
   32.130    4.7077
   32.160    4.3707
   32.190    4.4339
   32.220    4.2022
   32.250    3.9073
   32.280    3.9179
   32.310    4.0758
   32.340    3.8020
   32.370    3.7493
   32.400    3.9073
   32.430    3.9705
   32.460    3.8125
   32.490    3.9916
   32.520    3.9073
   32.550    3.6756
   32.580    4.0653
   32.610    3.8020
   32.640    3.5176
   32.670    3.7388
   32.700    3.7388
   32.730    3.8968
   32.760    3.9073
   32.790    3.9073
   32.820    3.7809
   32.850    3.6230
   32.880    3.6546
   32.910    3.6756
   32.940    4.2022
   32.970    4.0442
   33.000    3.7388
   33.030    3.7704
   33.060    3.9284
   33.090    3.9179
   33.120    3.8020
   33.150    3.5282
   33.180    3.6756
   33.210    3.7072
   33.240    3.6756
   33.270    3.8652
   33.300    3.5071
   33.330    3.8441
   33.360    3.9179
   33.390    3.3702
   33.420    3.3281
   33.450    4.0653
   33.480    3.4966
   33.510    3.7704
   33.540    3.7283
   33.570    4.0653
   33.600    3.7177
   33.630    3.8652
   33.660    3.5914
   33.690    3.9389
   33.720    4.0442
   33.750    3.8231
   33.780    3.5176
   33.810    3.7388
   33.840    3.6651
   33.870    3.7915
   33.900    3.4966
   33.930    3.7599
   33.960    3.5914
   33.990    3.6967
   34.020    3.6335
   34.050    3.6967
   34.080    3.9073
   34.110    3.4966
   34.140    3.5387
   34.170    3.4966
   34.200    3.5914
   34.230    3.5282
   34.260    3.8652
   34.290    3.6124
   34.320    3.6967
   34.350    3.5282
   34.380    3.3807
   34.410    3.5492
   34.440    3.5598
   34.470    3.8547
   34.500    3.6756
   34.530    3.2649
   34.560    3.4439
   34.590    3.5071
   34.620    3.7177
   34.650    3.6967
   34.680    3.4860
   34.710    3.4229
   34.740    3.7072
   34.770    3.6124
   34.800    3.6230
   34.830    3.5387
   34.860    3.4439
   34.890    3.5071
   34.920    3.7704
   34.950    3.5282
   34.980    3.3491
   35.010    3.4966
   35.040    3.4755
   35.070    3.4966
   35.100    3.2965
   35.130    3.4439
   35.160    3.7177
   35.190    3.5176
   35.220    3.6019
   35.250    3.3913
   35.280    3.7704
   35.310    3.3070
   35.340    3.6124
   35.370    3.3913
   35.400    3.8547
   35.430    3.4544
   35.460    3.4966
   35.490    3.7704
   35.520    3.7388
   35.550    3.2227
   35.580    3.8441
   35.610    3.6756
   35.640    3.2859
   35.670    3.4544
   35.700    3.0437
   35.730    3.5387
   35.760    3.0542
   35.790    3.4018
   35.820    3.4439
   35.850    3.5598
   35.880    3.3597
   35.910    3.1490
   35.940    3.5176
   35.970    3.2649
   36.000    3.3597
   36.030    3.5598
   36.060    3.3702
   36.090    3.5282
   36.120    3.4650
   36.150    3.3175
   36.180    3.6862
   36.210    3.3070
   36.240    3.1701
   36.270    3.3175
   36.300    3.4439
   36.330    3.5176
   36.360    3.2965
   36.390    3.4229
   36.420    3.1701
   36.450    3.4334
   36.480    3.3175
   36.510    3.3070
   36.540    3.4650
   36.570    3.2543
   36.600    3.4860
   36.630    3.2859
   36.660    3.2017
   36.690    3.3807
   36.720    3.6967
   36.750    3.2333
   36.780    3.3807
   36.810    3.1385
   36.840    3.2122
   36.870    3.3281
   36.900    3.2017
   36.930    3.2965
   36.960    3.3070
   36.990    3.4860
   37.020    3.4123
   37.050    3.3281
   37.080    3.6124
   37.110    3.2333
   37.140    3.4334
   37.170    3.3913
   37.200    3.1069
   37.230    3.2122
   37.260    3.5914
   37.290    3.7072
   37.320    3.1806
   37.350    3.2227
   37.380    3.2859
   37.410    3.0964
   37.440    3.0437
   37.470    3.2965
   37.500    3.2333
   37.530    3.2227
   37.560    3.0542
   37.590    3.5282
   37.620    3.3702
   37.650    3.3175
   37.680    3.1174
   37.710    3.3913
   37.740    2.8647
   37.770    3.2649
   37.800    3.2333
   37.830    3.0332
   37.860    3.4123
   37.890    3.3702
   37.920    3.3597
   37.950    3.2649
   37.980    3.0226
   38.010    3.1701
   38.040    3.2965
   38.070    3.3175
   38.100    3.0542
   38.130    3.3702
   38.160    3.1280
   38.190    3.3281
   38.220    3.1385
   38.250    3.2754
   38.280    3.2543
   38.310    3.3386
   38.340    3.3281
   38.370    2.9595
   38.400    2.9173
   38.430    2.9700
   38.460    3.0858
   38.490    3.0121
   38.520    3.1280
   38.550    3.2333
   38.580    3.0121
   38.610    3.2543
   38.640    3.2017
   38.670    3.1069
   38.700    3.3281
   38.730    3.5282
   38.760    3.2227
   38.790    3.2017
   38.820    3.0753
   38.850    3.0226
   38.880    3.0964
   38.910    3.2965
   38.940    3.0964
   38.970    2.9384
   39.000    3.2017
   39.030    3.2017
   39.060    3.5387
   39.090    3.4650
   39.120    3.3913
   39.150    3.0753
   39.180    3.2438
   39.210    2.8647
   39.240    3.2122
   39.270    3.2333
   39.300    3.2543
   39.330    3.1701
   39.360    3.3913
   39.390    3.2122
   39.420    3.2438
   39.450    3.0964
   39.480    3.2438
   39.510    3.1280
   39.540    2.9595
   39.570    3.3807
   39.600    3.0016
   39.630    3.0016
   39.660    3.3807
   39.690    3.0964
   39.720    2.9279
   39.750    3.2227
   39.780    3.1069
   39.810    3.2017
   39.840    3.0964
   39.870    3.0753
   39.900    3.0332
   39.930    3.1280
   39.960    3.0753
   39.990    2.9279