File: data/PXRD/PXRD_KE-309_Cu-Ka1_capillary-1mm_3s-deg.xyd
    1.500   10.0228
    1.530    9.7595
    1.560    9.6893
    1.590    9.1101
    1.620    9.2329
    1.650    8.9872
    1.680    9.1627
    1.710    8.9170
    1.740    9.0223
    1.770    8.1622
    1.800    7.6883
    1.830    7.5654
    1.860    7.2319
    1.890    7.7936
    1.920    6.6702
    1.950    7.4250
    1.980    6.9861
    2.010    7.0915
    2.040    6.8457
    2.070    7.4074
    2.100    6.8106
    2.130    6.6175
    2.160    6.8106
    2.190    6.7053
    2.220    6.3367
    2.250    6.5649
    2.280    6.2665
    2.310    5.9681
    2.340    6.3542
    2.370    6.2489
    2.400    6.2840
    2.430    5.8803
    2.460    5.8627
    2.490    5.4415
    2.520    5.7750
    2.550    5.5292
    2.580    5.7750
    2.610    5.5117
    2.640    6.1085
    2.670    5.9154
    2.700    5.7048
    2.730    5.4239
    2.760    5.7048
    2.790    5.7399
    2.820    5.5819
    2.850    5.9329
    2.880    5.6345
    2.910    5.7048
    2.940    6.1260
    2.970    5.8276
    3.000    6.4420
    3.030    7.0388
    3.060    6.5824
    3.090    7.0563
    3.120    8.1095
    3.150    7.6180
    3.180    8.2675
    3.210    8.9872
    3.240    8.8994
    3.270   10.9531
    3.300   11.7079
    3.330   12.8138
    3.360   13.6739
    3.390   15.8856
    3.420   17.0441
    3.450   19.7999
    3.480   22.6786
    3.510   24.3988
    3.540   28.1552
    3.570   33.1929
    3.600   37.6338
    3.630   45.4450
    3.660   51.1673
    3.690   61.3656
    3.720   73.3544
    3.750   90.4336
    3.780  120.9935
    3.810  171.1778
    3.840  212.4803
    3.870  161.2428
    3.900   74.5831
    3.930   19.8350
    3.960    8.6888
    3.990    6.5473
    4.020    6.1787
    4.050    5.8803
    4.080    4.5638
    4.110    4.8798
    4.140    4.7920
    4.170    4.3707
    4.200    4.8622
    4.230    4.4409
    4.260    4.2303
    4.290    4.3181
    4.320    4.3005
    4.350    4.3005
    4.380    4.3005
    4.410    3.7388
    4.440    4.1952
    4.470    4.3532
    4.500    4.1425
    4.530    4.2478
    4.560    4.1425
    4.590    3.7037
    4.620    4.1425
    4.650    4.2303
    4.680    3.4755
    4.710    3.9143
    4.740    4.2303
    4.770    3.4931
    4.800    3.8266
    4.830    3.7915
    4.860    3.6159
    4.890    4.1425
    4.920    4.1601
    4.950    4.2127
    4.980    4.4058
    5.010    4.9500
    5.040    4.7744
    5.070    5.2835
    5.100    5.1431
    5.130    5.6345
    5.160    6.1085
    5.190    6.4595
    5.220    7.6883
    5.250    8.8292
    5.280    9.4611
    5.310   11.4271
    5.340   12.9893
    5.370   16.9738
    5.400   22.2573
    5.430   31.2621
    5.460   40.3897
    5.490   33.1403
    5.520   18.3605
    5.550    7.2494
    5.580    4.9149
    5.610    4.1952
    5.640    3.9846
    5.670    3.8968
    5.700    3.7388
    5.730    3.5282
    5.760    3.7388
    5.790    3.6159
    5.820    3.6335
    5.850    3.1947
    5.880    3.2649
    5.910    3.5633
    5.940    3.5808
    5.970    3.5106
    6.000    3.4053
    6.030    3.3175
    6.060    3.1069
    6.090    3.2298
    6.120    4.0197
    6.150    3.1420
    6.180    3.6335
    6.210    3.3000
    6.240    3.5457
    6.270    3.7739
    6.300    3.4931
    6.330    3.6159
    6.360    3.4404
    6.390    3.4053
    6.420    3.5984
    6.450    3.7037
    6.480    3.9670
    6.510    3.8441
    6.540    3.9670
    6.570    4.1776
    6.600    4.7218
    6.630    5.8803
    6.660    6.9861
    6.690    8.2675
    6.720    8.9872
    6.750    6.8282
    6.780    4.5638
    6.810    3.5984
    6.840    3.4053
    6.870    3.6686
    6.900    3.3000
    6.930    3.1420
    6.960    3.2473
    6.990    3.1771
    7.020    3.2473
    7.050    3.2473
    7.080    3.2649
    7.110    3.1771
    7.140    3.3351
    7.170    2.7909
    7.200    2.9489
    7.230    3.1069
    7.260    3.2298
    7.290    3.3702
    7.320    2.8085
    7.350    3.2649
    7.380    3.1596
    7.410    3.1245
    7.440    3.5984
    7.470    3.4580
    7.500    3.5984
    7.530    3.7915
    7.560    3.9143
    7.590    4.2478
    7.620    5.3712
    7.650    5.7399
    7.680    6.5122
    7.710    8.5659
    7.740   12.1643
    7.770   13.1648
    7.800    9.6542
    7.830    5.9329
    7.860    3.6159
    7.890    3.7213
    7.920    3.3702
    7.950    3.1947
    7.980    3.0016
    8.010    3.0542
    8.040    3.5808
    8.070    3.5282
    8.100    3.0893
    8.130    3.2473
    8.160    3.0893
    8.190    3.2298
    8.220    3.1947
    8.250    2.9840
    8.280    2.8787
    8.310    3.0542
    8.340    3.0718
    8.370    2.9489
    8.400    3.1771
    8.430    2.9138
    8.460    3.1771
    8.490    3.0718
    8.520    2.9314
    8.550    3.0191
    8.580    3.2649
    8.610    3.2298
    8.640    3.5106
    8.670    4.1074
    8.700    3.9670
    8.730    3.3877
    8.760    3.5633
    8.790    2.8436
    8.820    2.9840
    8.850    2.9489
    8.880    3.0718
    8.910    3.6159
    8.940    2.7558
    8.970    3.0893
    9.000    2.8085
    9.030    2.8963
    9.060    3.3000
    9.090    2.8787
    9.120    2.9314
    9.150    3.0367
    9.180    2.8963
    9.210    2.7909
    9.240    2.7032
    9.270    3.4053
    9.300    3.3351
    9.330    3.4931
    9.360    4.2830
    9.390    4.9851
    9.420    6.6702
    9.450    9.1803
    9.480   11.2340
    9.510   16.7457
    9.540   17.1143
    9.570   12.4276
    9.600    6.1260
    9.630    3.5808
    9.660    3.0718
    9.690    3.1069
    9.720    2.7909
    9.750    2.6681
    9.780    2.9489
    9.810    3.0542
    9.840    2.7383
    9.870    2.5979
    9.900    2.5276
    9.930    2.8612
    9.960    2.9138
    9.990    3.0542
   10.020    2.9489
   10.050    3.2824
   10.080    2.9665
   10.110    3.2122
   10.140    3.4053
   10.170    3.5457
   10.200    4.0723
   10.230    4.7920
   10.260    6.1260
   10.290    7.8989
   10.320    7.6356
   10.350    5.0202
   10.380    3.4053
   10.410    2.9314
   10.440    2.9138
   10.470    3.0016
   10.500    2.9138
   10.530    3.0893
   10.560    2.8436
   10.590    2.9489
   10.620    2.6681
   10.650    2.9489
   10.680    2.7207
   10.710    2.7383
   10.740    2.9314
   10.770    3.0367
   10.800    3.0718
   10.830    3.1069
   10.860    2.9665
   10.890    3.4404
   10.920    3.9494
   10.950    5.3537
   10.980    6.4946
   11.010    8.0393
   11.040    6.9335
   11.070    5.3361
   11.100    3.4580
   11.130    2.8963
   11.160    2.8436
   11.190    2.6856
   11.220    2.6856
   11.250    2.7383
   11.280    2.3872
   11.310    2.8963
   11.340    2.9665
   11.370    2.5276
   11.400    2.5276
   11.430    2.4750
   11.460    2.7558
   11.490    3.2824
   11.520    3.3877
   11.550    3.1420
   11.580    3.4931
   11.610    4.3181
   11.640    5.1255
   11.670    7.4601
   11.700    8.0218
   11.730    6.4069
   11.760    4.4585
   11.790    3.1245
   11.820    2.8085
   11.850    2.8260
   11.880    2.6505
   11.910    2.6154
   11.940    2.4574
   11.970    2.4750
   12.000    2.9489
   12.030    2.8085
   12.060    2.2819
   12.090    2.9314
   12.120    2.9489
   12.150    2.5979
   12.180    2.8963
   12.210    2.8787
   12.240    2.9489
   12.270    3.0191
   12.300    3.7739
   12.330    3.7915
   12.360    3.7739
   12.390    3.3702
   12.420    2.6505
   12.450    3.0367
   12.480    2.9314
   12.510    2.8436
   12.540    2.7558
   12.570    2.8436
   12.600    2.8085
   12.630    2.6681
   12.660    2.6505
   12.690    2.9840
   12.720    2.6330
   12.750    2.6681
   12.780    3.1069
   12.810    3.1245
   12.840    3.5633
   12.870    4.5463
   12.900    5.7574
   12.930    6.6000
   12.960    6.1611
   12.990    5.0026
   13.020    3.4053
   13.050    2.7032
   13.080    2.7383
   13.110    2.6681
   13.140    2.3872
   13.170    2.6856
   13.200    2.7734
   13.230    2.9489
   13.260    2.7032
   13.290    2.7734
   13.320    2.8260
   13.350    2.4750
   13.380    2.9314
   13.410    2.6505
   13.440    3.6686
   13.470    3.5808
   13.500    4.4585
   13.530    5.1255
   13.560    4.1425
   13.590    3.5282
   13.620    2.8260
   13.650    2.7207
   13.680    2.4925
   13.710    2.5101
   13.740    2.7383
   13.770    2.6154
   13.800    2.8612
   13.830    2.9840
   13.860    2.7734
   13.890    2.6154
   13.920    2.4399
   13.950    3.0367
   13.980    3.0718
   14.010    3.9319
   14.040    4.5814
   14.070    5.6521
   14.100    5.3888
   14.130    4.1776
   14.160    3.2824
   14.190    2.7734
   14.220    2.6154
   14.250    3.2122
   14.280    2.6330
   14.310    2.4574
   14.340    2.6505
   14.370    2.6154
   14.400    2.8436
   14.430    2.2468
   14.460    2.7734
   14.490    2.8436
   14.520    2.7032
   14.550    2.8085
   14.580    2.5803
   14.610    2.7032
   14.640    2.5452
   14.670    2.5628
   14.700    2.5628
   14.730    2.6856
   14.760    2.9665
   14.790    2.4399
   14.820    2.3346
   14.850    2.5276
   14.880    2.4574
   14.910    2.8963
   14.940    2.6505
   14.970    2.7207
   15.000    2.3170
   15.030    2.5979
   15.060    3.0542
   15.090    2.8787
   15.120    2.9840
   15.150    2.8436
   15.180    2.9840
   15.210    2.8436
   15.240    2.7558
   15.270    2.7734
   15.300    2.5276
   15.330    2.6330
   15.360    2.7558
   15.390    2.6505
   15.420    2.5803
   15.450    3.0367
   15.480    2.3872
   15.510    2.2643
   15.540    2.5628
   15.570    2.7909
   15.600    2.5452
   15.630    2.6505
   15.660    2.3872
   15.690    2.6681
   15.720    2.6681
   15.750    2.5979
   15.780    2.5452
   15.810    2.4750
   15.840    2.7558
   15.870    2.4399
   15.900    2.5803
   15.930    2.5979
   15.960    2.7909
   15.990    2.9314
   16.020    2.6681
   16.050    2.8963
   16.080    3.1947
   16.110    3.5633
   16.140    3.4931
   16.170    3.0016
   16.200    2.8612
   16.230    2.8612
   16.260    2.4574
   16.290    2.3872
   16.320    2.7032
   16.350    2.7734
   16.380    2.2117
   16.410    2.6856
   16.440    2.7909
   16.470    2.6330
   16.500    2.9138
   16.530    2.7207
   16.560    3.2298
   16.590    3.5457
   16.620    3.2649
   16.650    3.0893
   16.680    2.6681
   16.710    2.9665
   16.740    2.6154
   16.770    2.5979
   16.800    2.4750
   16.830    2.8612
   16.860    2.5101
   16.890    2.6154
   16.920    3.0016
   16.950    2.7207
   16.980    3.7564
   17.010    4.5463
   17.040    5.4766
   17.070    5.4239
   17.100    4.5463
   17.130    3.8792
   17.160    3.0191
   17.190    2.3872
   17.220    2.7207
   17.250    2.3346
   17.280    2.6505
   17.310    2.4574
   17.340    2.6681
   17.370    2.8260
   17.400    2.9138
   17.430    3.1420
   17.460    2.8787
   17.490    2.8612
   17.520    2.7558
   17.550    3.1947
   17.580    2.7909
   17.610    2.8085
   17.640    2.5452
   17.670    2.8963
   17.700    2.4750
   17.730    2.7207
   17.760    2.3346
   17.790    2.9840
   17.820    2.7383
   17.850    2.8085
   17.880    3.1596
   17.910    3.1596
   17.940    3.3702
   17.970    3.2298
   18.000    2.9665
   18.030    3.0016
   18.060    2.4574
   18.090    2.5979
   18.120    2.5101
   18.150    2.7207
   18.180    2.7734
   18.210    2.8085
   18.240    2.9314
   18.270    2.6681
   18.300    3.2649
   18.330    3.2473
   18.360    3.4229
   18.390    3.1596
   18.420    3.3175
   18.450    3.1947
   18.480    2.4223
   18.510    2.9314
   18.540    2.8085
   18.570    2.8787
   18.600    2.7383
   18.630    2.5979
   18.660    2.5628
   18.690    2.7207
   18.720    2.6505
   18.750    2.6681
   18.780    3.2824
   18.810    3.0016
   18.840    3.1947
   18.870    2.8436
   18.900    2.7383
   18.930    2.7909
   18.960    2.5803
   18.990    2.6681
   19.020    2.8963
   19.050    2.5452
   19.080    2.5803
   19.110    2.7032
   19.140    2.5803
   19.170    2.0888
   19.200    2.5803
   19.230    2.5276
   19.260    2.7909
   19.290    2.7558
   19.320    2.5803
   19.350    2.4574
   19.380    2.6154
   19.410    2.4925
   19.440    2.6856
   19.470    3.0191
   19.500    2.9489
   19.530    3.0191
   19.560    3.5633
   19.590    3.4755
   19.620    3.2824
   19.650    2.9489
   19.680    2.9314
   19.710    2.6681
   19.740    2.3170
   19.770    2.2819
   19.800    2.9489
   19.830    2.6856
   19.860    2.8085
   19.890    2.4750
   19.920    2.5979
   19.950    2.8436
   19.980    2.6856
   20.010    2.8612
   20.040    2.7207
   20.070    2.9314
   20.100    2.7383
   20.130    2.7909
   20.160    2.7909
   20.190    2.8963
   20.220    2.7032
   20.250    3.0367
   20.280    2.9138
   20.310    3.2473
   20.340    4.3883
   20.370    4.6867
   20.400    4.8271
   20.430    4.1250
   20.460    3.3702
   20.490    2.8963
   20.520    2.9489
   20.550    2.8436
   20.580    2.8085
   20.610    2.6330
   20.640    2.5452
   20.670    2.5276
   20.700    2.7207
   20.730    2.6330
   20.760    2.8436
   20.790    2.9489
   20.820    2.5452
   20.850    2.8612
   20.880    2.4750
   20.910    3.0542
   20.940    2.6505
   20.970    2.5101
   21.000    2.4223
   21.030    2.6681
   21.060    2.5452
   21.090    2.3170
   21.120    2.6154
   21.150    2.6154
   21.180    2.8787
   21.210    2.4048
   21.240    2.5276
   21.270    2.4048
   21.300    2.4574
   21.330    2.5803
   21.360    2.7734
   21.390    2.4223
   21.420    2.8787
   21.450    2.9665
   21.480    2.6330
   21.510    2.5628
   21.540    2.8436
   21.570    2.6330
   21.600    2.6330
   21.630    3.0367
   21.660    2.9489
   21.690    2.6154
   21.720    2.7909
   21.750    2.4750
   21.780    3.3175
   21.810    3.3175
   21.840    3.4580
   21.870    3.6862
   21.900    3.3351
   21.930    3.1771
   21.960    3.0893
   21.990    3.0718
   22.020    2.8963
   22.050    2.5628
   22.080    2.7734
   22.110    2.5276
   22.140    2.8612
   22.170    2.9314
   22.200    3.3702
   22.230    3.4404
   22.260    2.8260
   22.290    2.9489
   22.320    2.6681
   22.350    2.6505
   22.380    3.0718
   22.410    2.6505
   22.440    2.6856
   22.470    2.8787
   22.500    3.7739
   22.530    4.4234
   22.560    4.9675
   22.590    4.4234
   22.620    4.0197
   22.650    3.2824
   22.680    2.9138
   22.710    2.9840
   22.740    2.6505
   22.770    2.7734
   22.800    3.3175
   22.830    3.2298
   22.860    4.1601
   22.890    4.8798
   22.920    5.3010
   22.950    4.5989
   22.980    4.2654
   23.010    3.2298
   23.040    3.0893
   23.070    2.9314
   23.100    2.5452
   23.130    2.8260
   23.160    2.7383
   23.190    2.8612
   23.220    3.7037
   23.250    3.5282
   23.280    3.0893
   23.310    2.9489
   23.340    3.0367
   23.370    2.5628
   23.400    2.8612
   23.430    2.7207
   23.460    2.6856
   23.490    2.4223
   23.520    2.5276
   23.550    2.6154
   23.580    3.0016
   23.610    2.6856
   23.640    3.0893
   23.670    2.4399
   23.700    2.4750
   23.730    2.5276
   23.760    2.4925
   23.790    2.4574
   23.820    2.8436
   23.850    2.9314
   23.880    3.4580
   23.910    3.2824
   23.940    3.7388
   23.970    3.2473
   24.000    2.8787
   24.030    2.7734
   24.060    2.8260
   24.090    2.5628
   24.120    2.5803
   24.150    2.4574
   24.180    2.8963
   24.210    2.6681
   24.240    2.5979
   24.270    2.5628
   24.300    2.5101
   24.330    2.6681
   24.360    2.7207
   24.390    2.4223
   24.420    2.6505
   24.450    2.5276
   24.480    2.4750
   24.510    2.7734
   24.540    2.7383
   24.570    3.1245
   24.600    2.7032
   24.630    2.8963
   24.660    2.7558
   24.690    2.5628
   24.720    2.6154
   24.750    2.7734
   24.780    2.5452
   24.810    2.4399
   24.840    2.7734
   24.870    3.0016
   24.900    2.6154
   24.930    2.7558
   24.960    2.8612
   24.990    2.5452
   25.020    2.6681
   25.050    2.6154
   25.080    2.5452
   25.110    2.7383
   25.140    2.8260
   25.170    2.7207
   25.200    2.8436
   25.230    3.0016
   25.260    2.8787
   25.290    2.5276
   25.320    2.7734
   25.350    2.5979
   25.380    2.8612
   25.410    3.0191
   25.440    2.6681
   25.470    2.9138
   25.500    2.8612
   25.530    2.7207
   25.560    2.7734
   25.590    2.8436
   25.620    2.7383
   25.650    2.6154
   25.680    2.6330
   25.710    2.5979
   25.740    2.9489
   25.770    3.4931
   25.800    4.3883
   25.830    4.3532
   25.860    3.9319
   25.890    3.0893
   25.920    2.8963
   25.950    2.5101
   25.980    2.7383
   26.010    2.7734
   26.040    2.4048
   26.070    2.7032
   26.100    2.7383
   26.130    2.9665
   26.160    2.8963
   26.190    2.5803
   26.220    2.7207
   26.250    2.6154
   26.280    2.5452
   26.310    2.6681
   26.340    2.5803
   26.370    3.2298
   26.400    2.8612
   26.430    2.6856
   26.460    2.9840
   26.490    3.0542
   26.520    2.7383
   26.550    2.5628
   26.580    2.6505
   26.610    2.7558
   26.640    2.6681
   26.670    2.3346
   26.700    2.7909
   26.730    2.4925
   26.760    2.7207
   26.790    2.3170
   26.820    2.5628
   26.850    2.4048
   26.880    2.1941
   26.910    2.2819
   26.940    2.9138
   26.970    2.7909
   27.000    3.2473
   27.030    3.1771
   27.060    3.5457
   27.090    2.7383
   27.120    2.8085
   27.150    2.9840
   27.180    2.5803
   27.210    2.4223
   27.240    2.8787
   27.270    2.7032
   27.300    2.4750
   27.330    2.4399
   27.360    2.2819
   27.390    2.6330
   27.420    2.4750
   27.450    2.5276
   27.480    2.3697
   27.510    2.5628
   27.540    2.6505
   27.570    2.5803
   27.600    2.8085
   27.630    2.8612
   27.660    2.7909
   27.690    2.6681
   27.720    2.6330
   27.750    2.3697
   27.780    2.3346
   27.810    2.7207
   27.840    2.6856
   27.870    2.8963
   27.900    2.2995
   27.930    2.4750
   27.960    2.5979
   27.990    2.5979
   28.020    2.6505
   28.050    2.5276
   28.080    2.5628
   28.110    2.9489
   28.140    2.9665
   28.170    3.4755
   28.200    3.2649
   28.230    2.8963
   28.260    2.8963
   28.290    2.5452
   28.320    2.4925
   28.350    2.1941
   28.380    2.7909
   28.410    3.2824
   28.440    2.8612
   28.470    2.8436
   28.500    3.5106
   28.530    2.2995
   28.560    2.4750
   28.590    2.6330
   28.620    2.4925
   28.650    2.4048
   28.680    2.6505
   28.710    2.4399
   28.740    2.4574
   28.770    2.4048
   28.800    2.4925
   28.830    2.4048
   28.860    2.5803
   28.890    2.6505
   28.920    2.3872
   28.950    2.4048
   28.980    2.7207
   29.010    2.4750
   29.040    2.6505
   29.070    2.2995
   29.100    2.5101
   29.130    2.4925
   29.160    2.3170
   29.190    2.4925
   29.220    2.4223
   29.250    2.8436
   29.280    3.0893
   29.310    3.0893
   29.340    2.8612
   29.370    2.3521
   29.400    2.4925
   29.430    2.1766
   29.460    2.0537
   29.490    2.2643
   29.520    2.6505
   29.550    2.2117
   29.580    2.4925
   29.610    2.0888
   29.640    2.7207
   29.670    2.2468
   29.700    2.2819
   29.730    2.2643
   29.760    2.3697
   29.790    2.4925
   29.820    2.6505
   29.850    2.6681
   29.880    2.4574
   29.910    2.2292
   29.940    2.1064
   29.970    2.5803
   30.000    2.6330
   30.030    2.4925
   30.060    2.6330
   30.090    2.4048
   30.120    2.5803
   30.150    2.3170
   30.180    2.6505
   30.210    2.7909
   30.240    2.6856
   30.270    2.5101
   30.300    2.3872
   30.330    2.3872
   30.360    2.3521
   30.390    2.2643
   30.420    2.4925
   30.450    2.4223
   30.480    2.3872
   30.510    2.0888
   30.540    2.7383
   30.570    2.7032
   30.600    2.3170
   30.630    2.5979
   30.660    2.4223
   30.690    2.2117
   30.720    2.4048
   30.750    2.4399
   30.780    2.3697
   30.810    2.3521
   30.840    2.5452
   30.870    2.5101
   30.900    2.2995
   30.930    2.1239
   30.960    2.5979
   30.990    1.9659
   31.020    2.5276
   31.050    2.0537
   31.080    2.4750
   31.110    2.2468
   31.140    2.2468
   31.170    2.0888
   31.200    2.0186
   31.230    2.0888
   31.260    2.3170
   31.290    2.2995
   31.320    2.3521
   31.350    2.5101
   31.380    2.4750
   31.410    2.2643
   31.440    2.5628
   31.470    2.4048
   31.500    2.2468
   31.530    2.4223
   31.560    2.2643
   31.590    2.2117
   31.620    2.1941
   31.650    2.3872
   31.680    2.5979
   31.710    2.3872
   31.740    2.3346
   31.770    2.1415
   31.800    1.9484
   31.830    2.6330
   31.860    2.6154
   31.890    2.4750
   31.920    2.5276
   31.950    2.2995
   31.980    1.9835
   32.010    2.1064
   32.040    2.3170
   32.070    2.4223
   32.100    2.0186
   32.130    2.1239
   32.160    2.2995
   32.190    2.4399
   32.220    2.4399
   32.250    2.0713
   32.280    2.2117
   32.310    2.3872
   32.340    2.2117
   32.370    2.2117
   32.400    2.2292
   32.430    2.2292
   32.460    1.9835
   32.490    2.1941
   32.520    2.3697
   32.550    2.4750
   32.580    2.1064
   32.610    2.3521
   32.640    2.0713
   32.670    2.2995
   32.700    2.1239
   32.730    2.1941
   32.760    2.3697
   32.790    2.4574
   32.820    2.4048
   32.850    2.1239
   32.880    2.3697
   32.910    2.4925
   32.940    2.4574
   32.970    2.4750
   33.000    2.2468
   33.030    2.2643
   33.060    2.0888
   33.090    2.3170
   33.120    2.2117
   33.150    2.2292
   33.180    2.1590
   33.210    2.0186
   33.240    2.4048
   33.270    1.9484
   33.300    2.0537
   33.330    1.9659
   33.360    2.0888
   33.390    2.2117
   33.420    2.0537
   33.450    2.1941
   33.480    2.0713
   33.510    2.3170
   33.540    2.3170
   33.570    1.9659
   33.600    2.2117
   33.630    2.0713
   33.660    2.3170
   33.690    2.3697
   33.720    2.0713
   33.750    2.0186
   33.780    2.2292
   33.810    2.2819
   33.840    2.1590
   33.870    2.4750
   33.900    2.5979
   33.930    2.3170
   33.960    2.2468
   33.990    2.1941
   34.020    2.1590
   34.050    1.9835
   34.080    2.1415
   34.110    1.9308
   34.140    2.0186
   34.170    2.3346
   34.200    2.0537
   34.230    2.2468
   34.260    1.8957
   34.290    1.9659
   34.320    2.2468
   34.350    2.2643
   34.380    2.1064
   34.410    2.0537
   34.440    2.1590
   34.470    2.0537
   34.500    1.7378
   34.530    2.1766
   34.560    2.1064
   34.590    1.7729
   34.620    1.9835
   34.650    2.3697
   34.680    2.0888
   34.710    2.1239
   34.740    1.8782
   34.770    1.9484
   34.800    2.4223
   34.830    2.2117
   34.860    2.1590
   34.890    2.2117
   34.920    2.0888
   34.950    2.1941
   34.980    1.6675
   35.010    1.7904
   35.040    2.2117
   35.070    2.0362
   35.100    2.0362
   35.130    2.0713
   35.160    1.9133
   35.190    2.0713
   35.220    2.2468
   35.250    1.9308
   35.280    1.9659
   35.310    2.1590
   35.340    1.9835
   35.370    1.9659
   35.400    1.8782
   35.430    1.8255
   35.460    1.7904
   35.490    1.8606
   35.520    1.9133
   35.550    2.3346
   35.580    2.1766
   35.610    2.0362
   35.640    1.9484
   35.670    2.1415
   35.700    1.8957
   35.730    2.1590
   35.760    1.8431
   35.790    2.3346
   35.820    1.8782
   35.850    1.8080
   35.880    2.2643
   35.910    2.0713
   35.940    2.3872
   35.970    2.3697
   36.000    2.0713
   36.030    2.2292
   36.060    1.9659
   36.090    1.9659
   36.120    1.9308
   36.150    2.3521
   36.180    1.7027
   36.210    1.8255
   36.240    2.1941
   36.270    1.6324
   36.300    1.8606
   36.330    1.7729
   36.360    2.3697
   36.390    2.1239
   36.420    1.7202
   36.450    1.9484
   36.480    1.7729
   36.510    1.7729
   36.540    2.0537
   36.570    1.7904
   36.600    1.9133
   36.630    1.9308
   36.660    2.1064
   36.690    2.0888
   36.720    2.1941
   36.750    2.1064
   36.780    2.0888
   36.810    1.8782
   36.840    1.8957
   36.870    2.0186
   36.900    1.8957
   36.930    1.6851
   36.960    1.9484
   36.990    1.9659
   37.020    2.0186
   37.050    2.0186
   37.080    2.2819
   37.110    2.2117
   37.140    2.1766
   37.170    2.1239
   37.200    2.0888
   37.230    1.7904
   37.260    2.1064
   37.290    1.7904
   37.320    1.9308
   37.350    1.7202
   37.380    1.9133
   37.410    1.7202
   37.440    1.8606
   37.470    1.9835
   37.500    1.8957
   37.530    2.1590
   37.560    1.9308
   37.590    1.7904
   37.620    1.9835
   37.650    1.9659
   37.680    1.8255
   37.710    1.9659
   37.740    1.8606
   37.770    1.8957
   37.800    2.0713
   37.830    1.7378
   37.860    1.9484
   37.890    2.0537
   37.920    2.1766
   37.950    2.0362
   37.980    1.9484
   38.010    2.1064
   38.040    2.1239
   38.070    1.8606
   38.100    1.9308
   38.130    1.7904
   38.160    2.0011
   38.190    2.0186
   38.220    2.0011
   38.250    2.0011
   38.280    1.7202
   38.310    2.0713
   38.340    2.0011
   38.370    2.1064
   38.400    1.9308
   38.430    2.0362
   38.460    2.0537
   38.490    1.7904
   38.520    2.1590
   38.550    1.8080
   38.580    1.6851
   38.610    2.0186
   38.640    2.0011
   38.670    2.0713
   38.700    1.8431
   38.730    1.7553
   38.760    1.8957
   38.790    1.7378
   38.820    1.9308
   38.850    2.0362
   38.880    1.8957
   38.910    1.8255
   38.940    1.7202
   38.970    1.8782
   39.000    1.7202
   39.030    1.7729
   39.060    1.8782
   39.090    1.8080
   39.120    2.1239
   39.150    1.7553
   39.180    2.0713
   39.210    1.7553
   39.240    1.8606
   39.270    1.9133
   39.300    1.7729
   39.330    2.0537
   39.360    1.6500
   39.390    2.1064
   39.420    1.8782
   39.450    1.8606
   39.480    1.9835
   39.510    1.9835
   39.540    1.6851
   39.570    1.9308
   39.600    1.7904
   39.630    2.0713
   39.660    1.7202
   39.690    1.8606
   39.720    1.8606
   39.750    2.0537
   39.780    1.7027
   39.810    1.9308
   39.840    1.9133
   39.870    1.7729
   39.900    1.9308
   39.930    2.0362
   39.960    1.8782
   39.990    2.0362