File: data/PXRD/PXRD_KE-151_Cu-Ka1_capillary-1mm_5s-deg.xyd
    1.500   25.8241
    1.530   25.1080
    1.560   23.6967
    1.590   23.2333
    1.620   22.7488
    1.650   20.6003
    1.680   19.9895
    1.710   19.6525
    1.740   19.5682
    1.770   18.0727
    1.800   17.4513
    1.830   17.5566
    1.860   16.8194
    1.890   16.6614
    1.920   15.8189
    1.950   16.0295
    1.980   15.3870
    2.010   14.5129
    2.040   14.5445
    2.070   14.2391
    2.100   13.7335
    2.130   13.5756
    2.160   13.3860
    2.190   13.9547
    2.220   12.7330
    2.250   12.7014
    2.280   12.3539
    2.310   12.3960
    2.340   12.5961
    2.370   11.9642
    2.400   11.9431
    2.430   11.4481
    2.460   11.6166
    2.490   11.2691
    2.520   11.7220
    2.550   11.6061
    2.580   11.3323
    2.610   10.8899
    2.640   10.8899
    2.670   11.0690
    2.700   11.0269
    2.730    9.8473
    2.760   10.3844
    2.790   10.6898
    2.820   10.7320
    2.850   10.3949
    2.880   10.3633
    2.910   10.4476
    2.940   10.0158
    2.970   10.0579
    3.000   10.4055
    3.030   10.0579
    3.060   10.1422
    3.090    9.4576
    3.120   10.0579
    3.150    9.8578
    3.180   10.3002
    3.210    9.6156
    3.240    9.7209
    3.270   10.3318
    3.300   10.1422
    3.330   10.0895
    3.360   10.3739
    3.390   10.7846
    3.420   10.8583
    3.450   10.4160
    3.480   10.6898
    3.510   10.8794
    3.540   11.0269
    3.570   11.1638
    3.600   11.4692
    3.630   11.5008
    3.660   11.9010
    3.690   11.9115
    3.720   12.7120
    3.750   13.7967
    3.780   14.5656
    3.810   15.4924
    3.840   18.6730
    3.870   19.5577
    3.900   17.3249
    3.930   12.6488
    3.960    9.0047
    3.990    9.1206
    4.020    8.4360
    4.050    8.3623
    4.080    8.6572
    4.110    8.7836
    4.140    8.6467
    4.170    8.5203
    4.200    8.4255
    4.230    8.5835
    4.260    8.4255
    4.290    8.3728
    4.320    8.2570
    4.350    8.4360
    4.380    8.5940
    4.410    8.5940
    4.440    8.2149
    4.470    8.4360
    4.500    8.6677
    4.530    8.3834
    4.560    8.5624
    4.590    8.5203
    4.620    8.3412
    4.650    8.0042
    4.680    8.1833
    4.710    8.0990
    4.740    8.3412
    4.770    8.4571
    4.800    8.2570
    4.830    8.3096
    4.860    8.6256
    4.890    8.7309
    4.920    8.7309
    4.950    8.8152
    4.980    8.5413
    5.010    8.2780
    5.040    8.3202
    5.070    8.6888
    5.100    8.7098
    5.130    8.6256
    5.160    8.7941
    5.190    8.9415
    5.220    8.7941
    5.250    9.0679
    5.280    9.0363
    5.310    9.2996
    5.340    9.7420
    5.370   10.0263
    5.400   10.4371
    5.430   10.9215
    5.460   11.7430
    5.490   12.5013
    5.520   11.3428
    5.550    9.9315
    5.580    8.5835
    5.610    8.5203
    5.640    8.4360
    5.670    8.2464
    5.700    8.6467
    5.730    8.2780
    5.760    7.8357
    5.790    8.1411
    5.820    8.0042
    5.850    7.6356
    5.880    7.5829
    5.910    7.7199
    5.940    7.8989
    5.970    8.4781
    6.000    8.1411
    6.030    7.8778
    6.060    7.9410
    6.090    8.3623
    6.120    8.3939
    6.150    8.2675
    6.180    8.2886
    6.210    8.5413
    6.240    8.2464
    6.270    8.0358
    6.300    7.9621
    6.330    8.1411
    6.360    8.5097
    6.390    8.2043
    6.420    8.4676
    6.450    8.4992
    6.480    8.4466
    6.510    8.1727
    6.540    8.0779
    6.570    8.4044
    6.600    8.4044
    6.630    8.8046
    6.660    8.8152
    6.690    8.8362
    6.720    9.4260
    6.750    9.3312
    6.780    8.8784
    6.810    8.4571
    6.840    7.7199
    6.870    8.3412
    6.900    8.1517
    6.930    7.9516
    6.960    8.0358
    6.990    8.2991
    7.020    8.0569
    7.050    8.2780
    7.080    7.9200
    7.110    7.6777
    7.140    8.2675
    7.170    8.1517
    7.200    8.0569
    7.230    8.2675
    7.260    8.3623
    7.290    8.1411
    7.320    7.8041
    7.350    8.3307
    7.380    8.2570
    7.410    7.9305
    7.440    8.6467
    7.470    7.5829
    7.500    8.5413
    7.530    8.4571
    7.560    8.4992
    7.590    8.5308
    7.620    8.1517
    7.650    8.2675
    7.680    8.9100
    7.710    8.1306
    7.740    8.6677
    7.770    8.8046
    7.800    8.6888
    7.830    8.9310
    7.860    8.4150
    7.890    8.2149
    7.920    8.1938
    7.950    8.3412
    7.980    8.3623
    8.010    8.2043
    8.040    8.3623
    8.070    8.3096
    8.100    7.7409
    8.130    7.9726
    8.160    8.7414
    8.190    8.7414
    8.220    8.2991
    8.250    8.3834
    8.280    8.2043
    8.310    8.1201
    8.340    7.9937
    8.370    8.2464
    8.400    8.4781
    8.430    8.0463
    8.460    8.5835
    8.490    8.4150
    8.520    9.1417
    8.550    8.2570
    8.580    8.3728
    8.610    8.2149
    8.640    8.6361
    8.670    8.3096
    8.700    8.5519
    8.730    8.6151
    8.760    8.7520
    8.790    8.7414
    8.820    8.6151
    8.850    8.2464
    8.880    8.4571
    8.910    7.9726
    8.940    8.7414
    8.970    8.1411
    9.000    8.5308
    9.030    8.6151
    9.060    8.5835
    9.090    8.2570
    9.120    8.5203
    9.150    8.8784
    9.180    8.8468
    9.210    9.3102
    9.240    8.6045
    9.270    8.3939
    9.300    8.7520
    9.330    8.7836
    9.360    8.8889
    9.390    9.0785
    9.420    8.9942
    9.450    9.2891
    9.480    9.4260
    9.510    9.4787
    9.540   10.1738
    9.570    9.8157
    9.600    9.0679
    9.630    8.7836
    9.660    8.4044
    9.690    8.2886
    9.720    8.1201
    9.750    8.3728
    9.780    8.2991
    9.810    8.4676
    9.840    7.9937
    9.870    8.7941
    9.900    7.9621
    9.930    8.4466
    9.960    8.4255
    9.990    8.4150
   10.020    8.7204
   10.050    8.4676
   10.080    9.0047
   10.110    8.3202
   10.140    8.6045
   10.170    8.7730
   10.200    8.4255
   10.230    8.6467
   10.260    9.1311
   10.290    8.8784
   10.320    8.9837
   10.350    8.7836
   10.380    8.6677
   10.410    8.6783
   10.440    8.2886
   10.470    8.1833
   10.500    8.2886
   10.530    8.7098
   10.560    8.1938
   10.590    8.6045
   10.620    8.3834
   10.650    8.4150
   10.680    8.3202
   10.710    8.1411
   10.740    8.0569
   10.770    8.5519
   10.800    8.3939
   10.830    8.0569
   10.860    8.3728
   10.890    8.4781
   10.920    7.9726
   10.950    8.7309
   10.980    8.7098
   11.010    8.7941
   11.040    8.5624
   11.070    8.6993
   11.100    8.0569
   11.130    8.3202
   11.160    8.2043
   11.190    8.8362
   11.220    8.2886
   11.250    8.5203
   11.280    7.9621
   11.310    7.8252
   11.340    8.0779
   11.370    8.0885
   11.400    7.7093
   11.430    8.2359
   11.460    8.0674
   11.490    7.9937
   11.520    7.8146
   11.550    8.2991
   11.580    8.0463
   11.610    8.0779
   11.640    8.5413
   11.670    8.5624
   11.700    8.7520
   11.730    8.7836
   11.760    8.3834
   11.790    8.0885
   11.820    8.1201
   11.850    7.6988
   11.880    7.8357
   11.910    7.8146
   11.940    7.7093
   11.970    7.7409
   12.000    7.6777
   12.030    7.8041
   12.060    7.7936
   12.090    7.7830
   12.120    7.9831
   12.150    7.4987
   12.180    8.0990
   12.210    7.9305
   12.240    8.0463
   12.270    7.9621
   12.300    7.9200
   12.330    7.9937
   12.360    8.0990
   12.390    7.9726
   12.420    8.1517
   12.450    7.5619
   12.480    7.4250
   12.510    7.8357
   12.540    7.8041
   12.570    7.8673
   12.600    7.9200
   12.630    7.8252
   12.660    7.5619
   12.690    7.8778
   12.720    7.5724
   12.750    8.0253
   12.780    7.5303
   12.810    7.4460
   12.840    7.8884
   12.870    8.2149
   12.900    8.1517
   12.930    8.2464
   12.960    7.7409
   12.990    8.4044
   13.020    7.8041
   13.050    7.6988
   13.080    7.5408
   13.110    7.2986
   13.140    7.5829
   13.170    7.8041
   13.200    7.9937
   13.230    7.7725
   13.260    7.3828
   13.290    7.3302
   13.320    7.5303
   13.350    7.2775
   13.380    7.4460
   13.410    7.3618
   13.440    7.4987
   13.470    7.7936
   13.500    7.2986
   13.530    7.9410
   13.560    7.5513
   13.590    7.3618
   13.620    7.9621
   13.650    7.6777
   13.680    7.4566
   13.710    7.6356
   13.740    7.8673
   13.770    7.5197
   13.800    7.3407
   13.830    7.5619
   13.860    7.3407
   13.890    7.3512
   13.920    7.2986
   13.950    7.4039
   13.980    7.5408
   14.010    8.0147
   14.040    7.8989
   14.070    7.7830
   14.100    7.8041
   14.130    7.8989
   14.160    7.6567
   14.190    7.9094
   14.220    7.4776
   14.250    7.1090
   14.280    7.4566
   14.310    7.6777
   14.340    7.2986
   14.370    7.4566
   14.400    7.8989
   14.430    7.4250
   14.460    7.3196
   14.490    7.7093
   14.520    7.5092
   14.550    7.5724
   14.580    7.5408
   14.610    7.5092
   14.640    7.3934
   14.670    7.6988
   14.700    7.5513
   14.730    7.7304
   14.760    7.9831
   14.790    7.2775
   14.820    7.4039
   14.850    7.4355
   14.880    7.2143
   14.910    7.4144
   14.940    7.7304
   14.970    7.6251
   15.000    7.6145
   15.030    7.6777
   15.060    7.6883
   15.090    7.4460
   15.120    7.5829
   15.150    8.0463
   15.180    7.8357
   15.210    7.8357
   15.240    7.8041
   15.270    7.3934
   15.300    7.6988
   15.330    7.6672
   15.360    7.7409
   15.390    7.7409
   15.420    7.4671
   15.450    7.1090
   15.480    8.1517
   15.510    7.3618
   15.540    7.7093
   15.570    7.7725
   15.600    8.0779
   15.630    7.5408
   15.660    7.9305
   15.690    7.4566
   15.720    7.7830
   15.750    7.8041
   15.780    7.2986
   15.810    8.2149
   15.840    7.6040
   15.870    7.9937
   15.900    7.8252
   15.930    8.1411
   15.960    8.1517
   15.990    8.0674
   16.020    8.5097
   16.050    7.9200
   16.080    8.4676
   16.110    8.4992
   16.140    8.4466
   16.170    8.5519
   16.200    8.3518
   16.230    8.8257
   16.260    8.2780
   16.290    8.0990
   16.320    8.3939
   16.350    8.0990
   16.380    7.9726
   16.410    8.0463
   16.440    7.8252
   16.470    7.9621
   16.500    8.1938
   16.530    7.2459
   16.560    7.8041
   16.590    7.9516
   16.620    7.9937
   16.650    7.7620
   16.680    7.6145
   16.710    7.5829
   16.740    8.0674
   16.770    8.0569
   16.800    7.0563
   16.830    7.7304
   16.860    7.5513
   16.890    7.6356
   16.920    7.9200
   16.950    7.8568
   16.980    7.6461
   17.010    8.0147
   17.040    7.8673
   17.070    7.5513
   17.100    7.8568
   17.130    7.9726
   17.160    7.7830
   17.190    7.9200
   17.220    7.9726
   17.250    7.3723
   17.280    7.8989
   17.310    7.5408
   17.340    7.8357
   17.370    7.9516
   17.400    7.5619
   17.430    7.6251
   17.460    7.5513
   17.490    7.8673
   17.520    7.5408
   17.550    8.0042
   17.580    7.5829
   17.610    8.1517
   17.640    7.5303
   17.670    8.2675
   17.700    7.7199
   17.730    7.7409
   17.760    8.0885
   17.790    7.9094
   17.820    7.7304
   17.850    8.2570
   17.880    8.0253
   17.910    8.6361
   17.940    8.2464
   17.970    7.9621
   18.000    8.7730
   18.030    8.2675
   18.060    8.5097
   18.090    8.0885
   18.120    8.2464
   18.150    8.0463
   18.180    8.1517
   18.210    7.7199
   18.240    7.6883
   18.270    8.0253
   18.300    7.8989
   18.330    7.7093
   18.360    8.0463
   18.390    7.6777
   18.420    7.5935
   18.450    7.5829
   18.480    7.8041
   18.510    7.5513
   18.540    8.0990
   18.570    7.5408
   18.600    7.7409
   18.630    7.8357
   18.660    7.5829
   18.690    7.8884
   18.720    7.5513
   18.750    7.6461
   18.780    7.4882
   18.810    7.5619
   18.840    8.0463
   18.870    7.7620
   18.900    7.2880
   18.930    7.4250
   18.960    7.5724
   18.990    8.0463
   19.020    7.9516
   19.050    7.9410
   19.080    8.2991
   19.110    7.8146
   19.140    7.2986
   19.170    7.6883
   19.200    7.6251
   19.230    7.4882
   19.260    7.7409
   19.290    7.8252
   19.320    7.8778
   19.350    7.7514
   19.380    7.6356
   19.410    7.3618
   19.440    7.6567
   19.470    7.8146
   19.500    7.5935
   19.530    7.7936
   19.560    7.5935
   19.590    7.5513
   19.620    8.0358
   19.650    7.6672
   19.680    7.7199
   19.710    7.8462
   19.740    7.4039
   19.770    7.4671
   19.800    7.9200
   19.830    7.7936
   19.860    7.8041
   19.890    7.1406
   19.920    7.9516
   19.950    7.5724
   19.980    7.5935
   20.010    8.1411
   20.040    8.0358
   20.070    7.7304
   20.100    7.7304
   20.130    8.1727
   20.160    7.7620
   20.190    7.8146
   20.220    7.8778
   20.250    8.0147
   20.280    7.6777
   20.310    8.0674
   20.340    7.8884
   20.370    7.7093
   20.400    7.7936
   20.430    7.8462
   20.460    7.7830
   20.490    8.0885
   20.520    7.6567
   20.550    7.8041
   20.580    7.4250
   20.610    7.5829
   20.640    7.2249
   20.670    7.7514
   20.700    7.6567
   20.730    8.1517
   20.760    7.9831
   20.790    7.7409
   20.820    7.9305
   20.850    8.0885
   20.880    7.8673
   20.910    7.4776
   20.940    8.0253
   20.970    7.5092
   21.000    7.9305
   21.030    8.0147
   21.060    7.6040
   21.090    8.1517
   21.120    7.7304
   21.150    7.4987
   21.180    7.7936
   21.210    7.5935
   21.240    7.9937
   21.270    8.2149
   21.300    8.3202
   21.330    7.6567
   21.360    7.8568
   21.390    7.6883
   21.420    7.8778
   21.450    8.0990
   21.480    7.9726
   21.510    7.5513
   21.540    7.6567
   21.570    7.7830
   21.600    7.8778
   21.630    8.1411
   21.660    8.0147
   21.690    8.0042
   21.720    8.0147
   21.750    7.5092
   21.780    7.9410
   21.810    7.8673
   21.840    7.9094
   21.870    8.0990
   21.900    7.7936
   21.930    7.3091
   21.960    8.1411
   21.990    8.2254
   22.020    7.6988
   22.050    7.7409
   22.080    7.6145
   22.110    8.0358
   22.140    8.0990
   22.170    8.1938
   22.200    7.9726
   22.230    8.0674
   22.260    7.8778
   22.290    8.3096
   22.320    7.6988
   22.350    8.1938
   22.380    7.8462
   22.410    8.1095
   22.440    7.9831
   22.470    7.8884
   22.500    8.3834
   22.530    8.1833
   22.560    7.9831
   22.590    8.0569
   22.620    7.8884
   22.650    8.3202
   22.680    7.5935
   22.710    8.4887
   22.740    7.8357
   22.770    8.0674
   22.800    8.0569
   22.830    8.1938
   22.860    8.2886
   22.890    7.8989
   22.920    7.8146
   22.950    7.8357
   22.980    8.2149
   23.010    7.9831
   23.040    8.0569
   23.070    8.0674
   23.100    8.2991
   23.130    8.4466
   23.160    7.7093
   23.190    7.8462
   23.220    7.9831
   23.250    7.9937
   23.280    8.1622
   23.310    7.9937
   23.340    7.6883
   23.370    7.5724
   23.400    7.6672
   23.430    7.9200
   23.460    7.8146
   23.490    7.6356
   23.520    7.9200
   23.550    7.9410
   23.580    7.6251
   23.610    7.9305
   23.640    7.6145
   23.670    7.7199
   23.700    7.6672
   23.730    7.4882
   23.760    7.9200
   23.790    7.9621
   23.820    7.6777
   23.850    7.9831
   23.880    7.8778
   23.910    7.8041
   23.940    7.7725
   23.970    7.4566
   24.000    7.4987
   24.030    7.7409
   24.060    7.6883
   24.090    7.4250
   24.120    7.6883
   24.150    7.6883
   24.180    7.7936
   24.210    7.4987
   24.240    7.9937
   24.270    8.0990
   24.300    7.9410
   24.330    8.1622
   24.360    7.6777
   24.390    7.1301
   24.420    7.5513
   24.450    8.2149
   24.480    7.5303
   24.510    7.8462
   24.540    7.5935
   24.570    7.5619
   24.600    7.4882
   24.630    7.5513
   24.660    7.5724
   24.690    7.7514
   24.720    7.6040
   24.750    8.1517
   24.780    7.6040
   24.810    7.8357
   24.840    7.7514
   24.870    7.2143
   24.900    7.6988
   24.930    7.5724
   24.960    7.8778
   24.990    8.0674
   25.020    8.0358
   25.050    7.6777
   25.080    7.6988
   25.110    7.7620
   25.140    7.5303
   25.170    7.6040
   25.200    7.5935
   25.230    7.8041
   25.260    7.4039
   25.290    7.1933
   25.320    7.4460
   25.350    7.4776
   25.380    7.2249
   25.410    7.1827
   25.440    7.8462
   25.470    7.7304
   25.500    7.6672
   25.530    8.0779
   25.560    7.8357
   25.590    7.0458
   25.620    7.8673
   25.650    7.4882
   25.680    7.3091
   25.710    7.3723
   25.740    7.7725
   25.770    7.7936
   25.800    7.8252
   25.830    7.2986
   25.860    7.5197
   25.890    7.4566
   25.920    7.8673
   25.950    7.7093
   25.980    7.4671
   26.010    7.4987
   26.040    7.7304
   26.070    7.4776
   26.100    7.8568
   26.130    7.0879
   26.160    7.2986
   26.190    7.2249
   26.220    7.5303
   26.250    8.1306
   26.280    7.6040
   26.310    7.5935
   26.340    7.3196
   26.370    7.7936
   26.400    7.3934
   26.430    7.3618
   26.460    7.8462
   26.490    7.6777
   26.520    7.1301
   26.550    7.5408
   26.580    7.7936
   26.610    8.0885
   26.640    7.4566
   26.670    7.4882
   26.700    7.2249
   26.730    7.7304
   26.760    7.1722
   26.790    7.3618
   26.820    7.6672
   26.850    7.5724
   26.880    7.2459
   26.910    7.8989
   26.940    7.5408
   26.970    7.0985
   27.000    6.8352
   27.030    7.5197
   27.060    7.7725
   27.090    7.6672
   27.120    7.2249
   27.150    7.1301
   27.180    7.3512
   27.210    7.5303
   27.240    7.2670
   27.270    7.0774
   27.300    7.4776
   27.330    6.9932
   27.360    7.4671
   27.390    7.1827
   27.420    7.0669
   27.450    6.7615
   27.480    7.6145
   27.510    7.3407
   27.540    7.0458
   27.570    7.5092
   27.600    7.5092
   27.630    7.0563
   27.660    7.3723
   27.690    7.4776
   27.720    7.4987
   27.750    6.9721
   27.780    7.3196
   27.810    7.5303
   27.840    7.3091
   27.870    7.6251
   27.900    7.6356
   27.930    7.4144
   27.960    7.3934
   27.990    7.6567
   28.020    7.3407
   28.050    7.2670
   28.080    7.6777
   28.110    7.4250
   28.140    7.2670
   28.170    7.1195
   28.200    6.8773
   28.230    7.4566
   28.260    7.2354
   28.290    7.1722
   28.320    7.5513
   28.350    7.0037
   28.380    7.1195
   28.410    7.2143
   28.440    7.4039
   28.470    7.5197
   28.500    6.8562
   28.530    7.1722
   28.560    6.9300
   28.590    7.1195
   28.620    7.0353
   28.650    7.3196
   28.680    7.0563
   28.710    7.1301
   28.740    6.5824
   28.770    7.3512
   28.800    6.7615
   28.830    6.9616
   28.860    7.1617
   28.890    7.3302
   28.920    7.7199
   28.950    7.6567
   28.980    7.5303
   29.010    7.4144
   29.040    7.2565
   29.070    7.1827
   29.100    6.8457
   29.130    7.1617
   29.160    7.1933
   29.190    7.0248
   29.220    7.1090
   29.250    6.9405
   29.280    7.2354
   29.310    7.0985
   29.340    7.1090
   29.370    7.1090
   29.400    6.7825
   29.430    7.0458
   29.460    7.1511
   29.490    6.8878
   29.520    6.8246
   29.550    7.3828
   29.580    7.1617
   29.610    7.2143
   29.640    6.8352
   29.670    7.1301
   29.700    7.2565
   29.730    7.0774
   29.760    6.9089
   29.790    6.8878
   29.820    6.7930
   29.850    6.9300
   29.880    7.2670
   29.910    6.9510
   29.940    6.9510
   29.970    7.0879
   30.000    6.9932
   30.030    7.1933
   30.060    6.9616
   30.090    6.9826
   30.120    6.8246
   30.150    7.2038
   30.180    6.7299
   30.210    6.9616
   30.240    6.9616
   30.270    6.4771
   30.300    7.0563
   30.330    7.1933
   30.360    7.2143
   30.390    7.0458
   30.420    6.8878
   30.450    6.6456
   30.480    6.7615
   30.510    7.2670
   30.540    7.0774
   30.570    7.0879
   30.600    7.2775
   30.630    6.8562
   30.660    6.8457
   30.690    7.1617
   30.720    6.6877
   30.750    6.6351
   30.780    6.9510
   30.810    6.8773
   30.840    6.7930
   30.870    7.0037
   30.900    7.3091
   30.930    6.6667
   30.960    6.9089
   30.990    7.1406
   31.020    7.4882
   31.050    7.1090
   31.080    7.0458
   31.110    6.7615
   31.140    7.0879
   31.170    7.3828
   31.200    6.8246
   31.230    6.9721
   31.260    7.1195
   31.290    7.4039
   31.320    7.2354
   31.350    7.0669
   31.380    6.8984
   31.410    7.0458
   31.440    7.4460
   31.470    6.8562
   31.500    7.0248
   31.530    7.0353
   31.560    7.1301
   31.590    6.9194
   31.620    7.2354
   31.650    6.9089
   31.680    7.2354
   31.710    7.2670
   31.740    7.0248
   31.770    6.7930
   31.800    7.0985
   31.830    7.1195
   31.860    7.5408
   31.890    7.2459
   31.920    7.2880
   31.950    7.0669
   31.980    7.1933
   32.010    7.4882
   32.040    7.6356
   32.070    7.7620
   32.100    8.0463
   32.130    7.5513
   32.160    7.4250
   32.190    7.4144
   32.220    6.9300
   32.250    7.3407
   32.280    6.8141
   32.310    6.8036
   32.340    6.5087
   32.370    6.8984
   32.400    6.8036
   32.430    7.0669
   32.460    6.7193
   32.490    6.7404
   32.520    6.5192
   32.550    6.8352
   32.580    6.4982
   32.610    6.3086
   32.640    6.4139
   32.670    6.9194
   32.700    6.3928
   32.730    6.6140
   32.760    6.6772
   32.790    6.7825
   32.820    6.4034
   32.850    6.5508
   32.880    6.6877
   32.910    6.5192
   32.940    6.4666
   32.970    6.5192
   33.000    6.6456
   33.030    6.5298
   33.060    6.6456
   33.090    6.9194
   33.120    6.6035
   33.150    6.4560
   33.180    6.5719
   33.210    6.2454
   33.240    6.4350
   33.270    6.6351
   33.300    6.5929
   33.330    6.9616
   33.360    6.6140
   33.390    6.3086
   33.420    6.8562
   33.450    6.4771
   33.480    6.4876
   33.510    6.6140
   33.540    6.8773
   33.570    6.2665
   33.600    6.4666
   33.630    6.7509
   33.660    6.5087
   33.690    6.5508
   33.720    6.5929
   33.750    6.6667
   33.780    6.5508
   33.810    7.0037
   33.840    7.4566
   33.870    6.9089
   33.900    7.1722
   33.930    6.8878
   33.960    6.4139
   33.990    6.9510
   34.020    6.7615
   34.050    7.0774
   34.080    6.6245
   34.110    6.6456
   34.140    6.7299
   34.170    6.3928
   34.200    6.4666
   34.230    6.7509
   34.260    6.4139
   34.290    6.2665
   34.320    6.5824
   34.350    6.4244
   34.380    6.3823
   34.410    6.4244
   34.440    6.3191
   34.470    6.3086
   34.500    6.4244
   34.530    6.6140
   34.560    6.4139
   34.590    5.7820
   34.620    6.3402
   34.650    5.8557
   34.680    6.3296
   34.710    6.6351
   34.740    6.1611
   34.770    6.3296
   34.800    6.3296
   34.830    6.4034
   34.860    6.2454
   34.890    6.3086
   34.920    6.3191
   34.950    6.4455
   34.980    6.2138
   35.010    6.2349
   35.040    6.4455
   35.070    6.2875
   35.100    6.4560
   35.130    6.2875
   35.160    6.1927
   35.190    6.5192
   35.220    6.1085
   35.250    6.2981
   35.280    6.2981
   35.310    6.5508
   35.340    6.5613
   35.370    5.8873
   35.400    6.3718
   35.430    6.0664
   35.460    6.4666
   35.490    6.2243
   35.520    6.7088
   35.550    6.7193
   35.580    6.2559
   35.610    6.1401
   35.640    6.2665
   35.670    6.2559
   35.700    6.4771
   35.730    6.5298
   35.760    6.2981
   35.790    6.1085
   35.820    6.4034
   35.850    6.5087
   35.880    6.1927
   35.910    6.3507
   35.940    6.2981
   35.970    6.4139
   36.000    6.3296
   36.030    6.5298
   36.060    6.0664
   36.090    6.3612
   36.120    6.2559
   36.150    6.0137
   36.180    6.5192
   36.210    6.2454
   36.240    6.7088
   36.270    6.5192
   36.300    6.4034
   36.330    6.4455
   36.360    6.3086
   36.390    6.4560
   36.420    5.9610
   36.450    6.1717
   36.480    6.6667
   36.510    6.3823
   36.540    6.0558
   36.570    6.4560
   36.600    6.4982
   36.630    6.2138
   36.660    6.4771
   36.690    6.6456
   36.720    6.3718
   36.750    6.2875
   36.780    6.3191
   36.810    6.3507
   36.840    6.5192
   36.870    6.4350
   36.900    6.0453
   36.930    6.2770
   36.960    6.0032
   36.990    5.9821
   37.020    5.9189
   37.050    6.2454
   37.080    6.2875
   37.110    6.0664
   37.140    6.2454
   37.170    6.3191
   37.200    6.3296
   37.230    6.1506
   37.260    5.9610
   37.290    5.9716
   37.320    5.9400
   37.350    6.0032
   37.380    6.3612
   37.410    6.2138
   37.440    6.2981
   37.470    6.1717
   37.500    5.9189
   37.530    6.3507
   37.560    6.3507
   37.590    6.4034
   37.620    6.3507
   37.650    6.0348
   37.680    6.0979
   37.710    6.4455
   37.740    6.6561
   37.770    6.4771
   37.800    6.6877
   37.830    6.1295
   37.860    6.2033
   37.890    6.3402
   37.920    6.3507
   37.950    6.4034
   37.980    6.1190
   38.010    5.9926
   38.040    5.8452
   38.070    5.8452
   38.100    6.2033
   38.130    6.1822
   38.160    6.3402
   38.190    6.0979
   38.220    6.2138
   38.250    6.1822
   38.280    5.9926
   38.310    5.9821
   38.340    6.2033
   38.370    6.2665
   38.400    5.9294
   38.430    6.3296
   38.460    6.5929
   38.490    6.3191
   38.520    6.2138
   38.550    6.3612
   38.580    6.5824
   38.610    6.4350
   38.640    6.3402
   38.670    6.5087
   38.700    6.2665
   38.730    6.1611
   38.760    6.2033
   38.790    6.4034
   38.820    6.6561
   38.850    6.5613
   38.880    6.5192
   38.910    6.6035
   38.940    6.2349
   38.970    6.3823
   39.000    6.4876
   39.030    7.0458
   39.060    6.9089
   39.090    6.4350
   39.120    6.6351
   39.150    6.4982
   39.180    6.8036
   39.210    6.9405
   39.240    6.4771
   39.270    7.1511
   39.300    6.7615
   39.330    6.5403
   39.360    6.5613
   39.390    6.1822
   39.420    6.6983
   39.450    6.8773
   39.480    6.7720
   39.510    6.1717
   39.540    6.2770
   39.570    5.7504
   39.600    6.4455
   39.630    6.4350
   39.660    6.4876
   39.690    6.3823
   39.720    6.2559
   39.750    6.2981
   39.780    6.1295
   39.810    6.4560
   39.840    5.9716
   39.870    6.3718
   39.900    6.2770
   39.930    6.4666
   39.960    6.2559
   39.990    5.9926