File: data/PXRD/PXRD_KE-081_Cu-Ka1_film-3mm_5s-deg.xyd
    1.500   10.8268
    1.530   10.2791
    1.560   10.7530
    1.590    9.7314
    1.620    9.6472
    1.650    9.8052
    1.680    9.9421
    1.710    9.4787
    1.740    9.4155
    1.770    8.9731
    1.800    9.4260
    1.830    8.9205
    1.860    8.5413
    1.890    8.3202
    1.920    8.4676
    1.950    8.0990
    1.980    7.9305
    2.010    7.7304
    2.040    7.7093
    2.070    7.6777
    2.100    7.6988
    2.130    7.6251
    2.160    7.5619
    2.190    7.7409
    2.220    7.6461
    2.250    7.0458
    2.280    7.3407
    2.310    7.3196
    2.340    6.8878
    2.370    6.9405
    2.400    6.6561
    2.430    6.6035
    2.460    6.7825
    2.490    6.4560
    2.520    6.2349
    2.550    6.7088
    2.580    6.7720
    2.610    6.6351
    2.640    6.5298
    2.670    6.4666
    2.700    6.5508
    2.730    6.3718
    2.760    6.5613
    2.790    5.5819
    2.820    5.7715
    2.850    6.1295
    2.880    6.1822
    2.910    5.7820
    2.940    6.3928
    2.970    6.2770
    3.000    6.2349
    3.030    5.9189
    3.060    5.9084
    3.090    6.3718
    3.120    6.6877
    3.150    6.0558
    3.180    6.1717
    3.210    6.1401
    3.240    6.0558
    3.270    6.3507
    3.300    6.4244
    3.330    5.9189
    3.360    6.5298
    3.390    6.8773
    3.420    6.7088
    3.450    6.9510
    3.480    7.1511
    3.510    7.3934
    3.540    7.6777
    3.570    7.8357
    3.600    7.8989
    3.630    8.2570
    3.660    8.8468
    3.690    9.9210
    3.720   10.6266
    3.750   11.5429
    3.780   13.2596
    3.810   15.2817
    3.840   19.0311
    3.870   22.9805
    3.900   21.7378
    3.930   14.1443
    3.960    7.7830
    3.990    6.6983
    4.020    6.5613
    4.050    6.5403
    4.080    5.6240
    4.110    5.7715
    4.140    5.8873
    4.170    6.0664
    4.200    6.0664
    4.230    5.4239
    4.260    6.2981
    4.290    6.2559
    4.320    5.8768
    4.350    5.8873
    4.380    6.2243
    4.410    5.9294
    4.440    5.6767
    4.470    5.5187
    4.500    6.2981
    4.530    5.7188
    4.560    5.6872
    4.590    5.8031
    4.620    5.9610
    4.650    5.9821
    4.680    5.8347
    4.710    6.0979
    4.740    6.1401
    4.770    6.0137
    4.800    5.9400
    4.830    6.2349
    4.860    5.8452
    4.890    6.1401
    4.920    6.3086
    4.950    6.3402
    4.980    6.3612
    5.010    6.1085
    5.040    6.3086
    5.070    6.4560
    5.100    6.4876
    5.130    6.5719
    5.160    6.7299
    5.190    6.7720
    5.220    7.5408
    5.250    7.4250
    5.280    8.0358
    5.310    8.2570
    5.340    8.3939
    5.370    8.6993
    5.400    9.1206
    5.430   10.5108
    5.460   11.4165
    5.490   12.6172
    5.520   12.2275
    5.550   10.1527
    5.580    8.0779
    5.610    7.5513
    5.640    7.8146
    5.670    7.5513
    5.700    7.1090
    5.730    6.9826
    5.760    7.1827
    5.790    7.3723
    5.820    6.7299
    5.850    6.9089
    5.880    6.9932
    5.910    6.6035
    5.940    6.3086
    5.970    6.2875
    6.000    6.2033
    6.030    6.1506
    6.060    5.9926
    6.090    5.8241
    6.120    5.8241
    6.150    6.2665
    6.180    5.7399
    6.210    5.6977
    6.240    5.5503
    6.270    5.5608
    6.300    4.9710
    6.330    5.5503
    6.360    5.5292
    6.390    5.3923
    6.420    5.3186
    6.450    5.6767
    6.480    5.2659
    6.510    5.3712
    6.540    5.9926
    6.570    5.6451
    6.600    5.7715
    6.630    5.5924
    6.660    5.9400
    6.690    6.3191
    6.720    6.4560
    6.750    7.0037
    6.780    6.6035
    6.810    5.6240
    6.840    5.2765
    6.870    5.1711
    6.900    5.2027
    6.930    4.9500
    6.960    4.8657
    6.990    5.2975
    7.020    4.7815
    7.050    4.6867
    7.080    5.0026
    7.110    4.8763
    7.140    4.8973
    7.170    4.9921
    7.200    4.8868
    7.230    4.5392
    7.260    4.8025
    7.290    4.5392
    7.320    4.6656
    7.350    4.6867
    7.380    4.3075
    7.410    4.6024
    7.440    4.6130
    7.470    4.5603
    7.500    3.9494
    7.530    4.7920
    7.560    4.2127
    7.590    4.3181
    7.620    4.4971
    7.650    4.3391
    7.680    4.2338
    7.710    4.7604
    7.740    5.1395
    7.770    4.9078
    7.800    5.1501
    7.830    5.0658
    7.860    4.6340
    7.890    4.4444
    7.920    4.1074
    7.950    4.0337
    7.980    4.1180
    8.010    3.8231
    8.040    4.1180
    8.070    3.7704
    8.100    4.0758
    8.130    3.9284
    8.160    4.3391
    8.190    3.8968
    8.220    4.0126
    8.250    3.9284
    8.280    4.4339
    8.310    3.8863
    8.340    4.1285
    8.370    4.0548
    8.400    3.9179
    8.430    3.9600
    8.460    3.7493
    8.490    4.1706
    8.520    3.8336
    8.550    3.9810
    8.580    3.8336
    8.610    3.9916
    8.640    3.8020
    8.670    4.0864
    8.700    4.1811
    8.730    4.1390
    8.760    4.0758
    8.790    3.6230
    8.820    3.8231
    8.850    3.6440
    8.880    3.8231
    8.910    3.8336
    8.940    3.5914
    8.970    3.7177
    9.000    3.5282
    9.030    3.8441
    9.060    3.6862
    9.090    3.4544
    9.120    3.5282
    9.150    4.0232
    9.180    3.8547
    9.210    3.5914
    9.240    3.4650
    9.270    3.8968
    9.300    3.6862
    9.330    3.8547
    9.360    4.1917
    9.390    4.0653
    9.420    4.0653
    9.450    4.0337
    9.480    4.7815
    9.510    5.2027
    9.540    6.3086
    9.570    6.6035
    9.600    5.7820
    9.630    4.4550
    9.660    3.6335
    9.690    3.8441
    9.720    3.8231
    9.750    3.7704
    9.780    3.4650
    9.810    3.4229
    9.840    3.5703
    9.870    4.1285
    9.900    3.7072
    9.930    3.8020
    9.960    3.8441
    9.990    3.7809
   10.020    3.5914
   10.050    3.7809
   10.080    3.8231
   10.110    3.7388
   10.140    3.6862
   10.170    4.0021
   10.200    4.1285
   10.230    4.0548
   10.260    4.3918
   10.290    4.8236
   10.320    4.9710
   10.350    5.0974
   10.380    4.4866
   10.410    3.9810
   10.440    3.8231
   10.470    3.6546
   10.500    3.6335
   10.530    3.7809
   10.560    3.7704
   10.590    4.0548
   10.620    3.6862
   10.650    3.8757
   10.680    4.0126
   10.710    3.8231
   10.740    3.7388
   10.770    3.8968
   10.800    4.0548
   10.830    3.9284
   10.860    3.9073
   10.890    3.8652
   10.920    3.9284
   10.950    3.8547
   10.980    4.6235
   11.010    4.6235
   11.040    5.0974
   11.070    4.6761
   11.100    4.3813
   11.130    4.2654
   11.160    4.0337
   11.190    3.8863
   11.220    4.0337
   11.250    3.9916
   11.280    3.6967
   11.310    3.9494
   11.340    3.6967
   11.370    3.9284
   11.400    4.0969
   11.430    3.7177
   11.460    3.7177
   11.490    3.8652
   11.520    3.7388
   11.550    3.8757
   11.580    4.0758
   11.610    4.0337
   11.640    4.0337
   11.670    4.1496
   11.700    4.6445
   11.730    4.7920
   11.760    4.6445
   11.790    4.1917
   11.820    3.9600
   11.850    3.8652
   11.880    3.8125
   11.910    3.9073
   11.940    3.8020
   11.970    3.6230
   12.000    3.7915
   12.030    3.6230
   12.060    3.5598
   12.090    3.6967
   12.120    3.4439
   12.150    3.7072
   12.180    3.4755
   12.210    3.6967
   12.240    3.5071
   12.270    3.5808
   12.300    3.7809
   12.330    4.1390
   12.360    3.7283
   12.390    3.5808
   12.420    3.9284
   12.450    3.5808
   12.480    3.7388
   12.510    3.4860
   12.540    3.7915
   12.570    3.6440
   12.600    3.7072
   12.630    3.4229
   12.660    3.4966
   12.690    3.5071
   12.720    3.6440
   12.750    3.6335
   12.780    3.9916
   12.810    3.8020
   12.840    3.6019
   12.870    3.8125
   12.900    3.6756
   12.930    4.2233
   12.960    4.5182
   12.990    4.4128
   13.020    4.3181
   13.050    3.7072
   13.080    3.5387
   13.110    3.7072
   13.140    3.3913
   13.170    3.4544
   13.200    3.7599
   13.230    3.3702
   13.260    3.5282
   13.290    3.4229
   13.320    3.4334
   13.350    3.5808
   13.380    3.2649
   13.410    3.5598
   13.440    3.4439
   13.470    3.5176
   13.500    3.5703
   13.530    3.8547
   13.560    3.4018
   13.590    3.5914
   13.620    3.7704
   13.650    3.5598
   13.680    3.2649
   13.710    3.6230
   13.740    3.4860
   13.770    3.6440
   13.800    3.3491
   13.830    3.4123
   13.860    3.5914
   13.890    3.7493
   13.920    3.3807
   13.950    3.4650
   13.980    4.2338
   14.010    3.8547
   14.040    3.8757
   14.070    4.0126
   14.100    4.2022
   14.130    4.2970
   14.160    4.1390
   14.190    3.8863
   14.220    3.8968
   14.250    3.8231
   14.280    3.7915
   14.310    3.7388
   14.340    3.5176
   14.370    3.8336
   14.400    3.8863
   14.430    3.8336
   14.460    3.8125
   14.490    3.5598
   14.520    3.8968
   14.550    3.6335
   14.580    3.5492
   14.610    3.9494
   14.640    3.5914
   14.670    3.7177
   14.700    3.6546
   14.730    3.6862
   14.760    3.8020
   14.790    3.5914
   14.820    3.8125
   14.850    3.6440
   14.880    3.6967
   14.910    3.7599
   14.940    3.6862
   14.970    3.7599
   15.000    3.6230
   15.030    3.4229
   15.060    3.4755
   15.090    3.5703
   15.120    3.8441
   15.150    3.5914
   15.180    3.5914
   15.210    3.4334
   15.240    3.5176
   15.270    3.4650
   15.300    3.3386
   15.330    3.4334
   15.360    3.5282
   15.390    3.5808
   15.420    3.4334
   15.450    3.6335
   15.480    3.2859
   15.510    3.5071
   15.540    3.2227
   15.570    3.4755
   15.600    3.3702
   15.630    3.5914
   15.660    3.7704
   15.690    3.3491
   15.720    3.4650
   15.750    3.3175
   15.780    3.4860
   15.810    3.4966
   15.840    3.6335
   15.870    3.0648
   15.900    3.4334
   15.930    3.5598
   15.960    3.8020
   15.990    3.5492
   16.020    3.5492
   16.050    3.4439
   16.080    3.4966
   16.110    3.6440
   16.140    3.5176
   16.170    3.5176
   16.200    3.5808
   16.230    3.6230
   16.260    3.5071
   16.290    3.2965
   16.320    3.7599
   16.350    3.4018
   16.380    3.3597
   16.410    3.4966
   16.440    3.5176
   16.470    3.3070
   16.500    3.6335
   16.530    3.6862
   16.560    3.5914
   16.590    3.4650
   16.620    3.5914
   16.650    3.7915
   16.680    3.6967
   16.710    3.7177
   16.740    3.4650
   16.770    3.4334
   16.800    3.5703
   16.830    3.4229
   16.860    3.2333
   16.890    3.3491
   16.920    3.4860
   16.950    3.3386
   16.980    3.3597
   17.010    3.7915
   17.040    3.7177
   17.070    3.6335
   17.100    3.8863
   17.130    4.2549
   17.160    3.3491
   17.190    3.6124
   17.220    3.5071
   17.250    3.3807
   17.280    3.4018
   17.310    3.3070
   17.340    3.4860
   17.370    3.3597
   17.400    3.6967
   17.430    3.2859
   17.460    3.1069
   17.490    3.5071
   17.520    3.5808
   17.550    3.5282
   17.580    3.5492
   17.610    3.1385
   17.640    3.5808
   17.670    3.3281
   17.700    3.4650
   17.730    3.4334
   17.760    3.4544
   17.790    3.4123
   17.820    3.4439
   17.850    3.3175
   17.880    3.3281
   17.910    3.4439
   17.940    3.4018
   17.970    3.5914
   18.000    3.3807
   18.030    3.4334
   18.060    3.2859
   18.090    3.2649
   18.120    3.4123
   18.150    3.3597
   18.180    3.6230
   18.210    3.4860
   18.240    3.2543
   18.270    3.3386
   18.300    3.5703
   18.330    3.2649
   18.360    3.2122
   18.390    3.4123
   18.420    3.4755
   18.450    3.8652
   18.480    3.4755
   18.510    3.3702
   18.540    3.6335
   18.570    3.5387
   18.600    3.3807
   18.630    3.2017
   18.660    3.4755
   18.690    3.4755
   18.720    3.4334
   18.750    3.6124
   18.780    3.5282
   18.810    3.3702
   18.840    3.2754
   18.870    3.4860
   18.900    3.3386
   18.930    3.5176
   18.960    3.4439
   18.990    3.8547
   19.020    3.6019
   19.050    3.3702
   19.080    3.5176
   19.110    3.2965
   19.140    3.4439
   19.170    3.4018
   19.200    2.9805
   19.230    3.3175
   19.260    3.4018
   19.290    3.3070
   19.320    3.4334
   19.350    3.3070
   19.380    3.1596
   19.410    3.3913
   19.440    3.6440
   19.470    3.2017
   19.500    3.2754
   19.530    3.7493
   19.560    3.7388
   19.590    3.4123
   19.620    3.2122
   19.650    3.3070
   19.680    3.1069
   19.710    3.3070
   19.740    3.2438
   19.770    3.2227
   19.800    3.1385
   19.830    3.4334
   19.860    3.4334
   19.890    3.2333
   19.920    3.1701
   19.950    3.4334
   19.980    3.0332
   20.010    3.1280
   20.040    3.2543
   20.070    3.2543
   20.100    3.2122
   20.130    3.4229
   20.160    3.1280
   20.190    3.1280
   20.220    3.2754
   20.250    3.0016
   20.280    3.2754
   20.310    3.4229
   20.340    3.1912
   20.370    3.4334
   20.400    3.5492
   20.430    3.6756
   20.460    3.3597
   20.490    3.1385
   20.520    3.2017
   20.550    3.2017
   20.580    3.3491
   20.610    3.1069
   20.640    3.2859
   20.670    3.4544
   20.700    3.0437
   20.730    3.1490
   20.760    2.8541
   20.790    3.2122
   20.820    3.2017
   20.850    2.7593
   20.880    3.0858
   20.910    3.0542
   20.940    2.7804
   20.970    3.1806
   21.000    2.8541
   21.030    3.2122
   21.060    3.1385
   21.090    3.0753
   21.120    3.4229
   21.150    3.1490
   21.180    3.3913
   21.210    3.1069
   21.240    3.1069
   21.270    3.0121
   21.300    3.0332
   21.330    3.2543
   21.360    3.2122
   21.390    3.2754
   21.420    3.0648
   21.450    3.2122
   21.480    3.2227
   21.510    3.2227
   21.540    3.1174
   21.570    3.3913
   21.600    3.0542
   21.630    2.9173
   21.660    3.0226
   21.690    3.1490
   21.720    3.2438
   21.750    2.9595
   21.780    3.4123
   21.810    3.4650
   21.840    3.2649
   21.870    3.2543
   21.900    3.1490
   21.930    3.2017
   21.960    3.2227
   21.990    2.9595
   22.020    3.2227
   22.050    3.1385
   22.080    3.0542
   22.110    2.8120
   22.140    3.0753
   22.170    3.1596
   22.200    3.1596
   22.230    3.0121
   22.260    3.4755
   22.290    3.1912
   22.320    2.9384
   22.350    2.9384
   22.380    3.1912
   22.410    3.2543
   22.440    3.2122
   22.470    3.0332
   22.500    3.2333
   22.530    3.0437
   22.560    3.1806
   22.590    3.4966
   22.620    3.4334
   22.650    3.0648
   22.680    3.3913
   22.710    3.0016
   22.740    3.0753
   22.770    2.9068
   22.800    3.0226
   22.830    2.8857
   22.860    3.0648
   22.890    2.9805
   22.920    3.4544
   22.950    3.5176
   22.980    3.3913
   23.010    3.0121
   23.040    2.9805
   23.070    3.2965
   23.100    3.3175
   23.130    3.3175
   23.160    2.8015
   23.190    2.7383
   23.220    3.0542
   23.250    2.8647
   23.280    2.8541
   23.310    3.1174
   23.340    2.9805
   23.370    2.9489
   23.400    2.8541
   23.430    2.6646
   23.460    3.1069
   23.490    2.9910
   23.520    2.6962
   23.550    3.1385
   23.580    3.0648
   23.610    3.0648
   23.640    2.6856
   23.670    2.6751
   23.700    2.7172
   23.730    2.9595
   23.760    2.8857
   23.790    2.7593
   23.820    2.8436
   23.850    2.8647
   23.880    2.8436
   23.910    2.7383
   23.940    2.9595
   23.970    2.9700
   24.000    2.9595
   24.030    2.9910
   24.060    2.6962
   24.090    2.6540
   24.120    2.7488
   24.150    2.9805
   24.180    2.8647
   24.210    2.7172
   24.240    2.6224
   24.270    2.6014
   24.300    2.6224
   24.330    2.7699
   24.360    3.0332
   24.390    2.6962
   24.420    2.8120
   24.450    2.7383
   24.480    2.5382
   24.510    2.5908
   24.540    2.8015
   24.570    2.7067
   24.600    3.0226
   24.630    2.5803
   24.660    2.9068
   24.690    2.6646
   24.720    2.8331
   24.750    2.9700
   24.780    2.6224
   24.810    2.9279
   24.840    2.6751
   24.870    2.5908
   24.900    2.9384
   24.930    2.6646
   24.960    2.9489
   24.990    2.6962
   25.020    2.7488
   25.050    2.7488
   25.080    2.9489
   25.110    2.6435
   25.140    2.6856
   25.170    2.7699
   25.200    2.8120
   25.230    2.6014
   25.260    2.9068
   25.290    2.8225
   25.320    2.6119
   25.350    2.6751
   25.380    2.7699
   25.410    2.4645
   25.440    2.6962
   25.470    2.6962
   25.500    2.7804
   25.530    2.6119
   25.560    2.7172
   25.590    3.0332
   25.620    2.8963
   25.650    2.8225
   25.680    2.6014
   25.710    2.6751
   25.740    2.5698
   25.770    2.6435
   25.800    2.8541
   25.830    2.7172
   25.860    2.9068
   25.890    3.2333
   25.920    2.8225
   25.950    2.7804
   25.980    2.7172
   26.010    2.6435
   26.040    2.6751
   26.070    2.6751
   26.100    2.6119
   26.130    2.8225
   26.160    2.6330
   26.190    2.5698
   26.220    2.7067
   26.250    2.6540
   26.280    2.6962
   26.310    2.5698
   26.340    2.3907
   26.370    2.4855
   26.400    2.8436
   26.430    2.6330
   26.460    2.7699
   26.490    2.5276
   26.520    2.7804
   26.550    2.7383
   26.580    2.5698
   26.610    2.5276
   26.640    2.6224
   26.670    2.7699
   26.700    2.7383
   26.730    2.2959
   26.760    2.5803
   26.790    2.2643
   26.820    2.3065
   26.850    2.4013
   26.880    2.6751
   26.910    2.3381
   26.940    2.3907
   26.970    2.4539
   27.000    2.5487
   27.030    2.6330
   27.060    2.7593
   27.090    2.6330
   27.120    2.6751
   27.150    2.6119
   27.180    2.6330
   27.210    2.5066
   27.240    2.1801
   27.270    2.4223
   27.300    2.4645
   27.330    2.2959
   27.360    2.4539
   27.390    2.7383
   27.420    2.4013
   27.450    2.4855
   27.480    2.2959
   27.510    2.3275
   27.540    2.5171
   27.570    2.5171
   27.600    2.3486
   27.630    2.6540
   27.660    2.3381
   27.690    2.5908
   27.720    2.5803
   27.750    2.2328
   27.780    2.5276
   27.810    2.4013
   27.840    2.3591
   27.870    2.6646
   27.900    2.4223
   27.930    2.3170
   27.960    2.6435
   27.990    2.9595
   28.020    2.8752
   28.050    2.6751
   28.080    2.3802
   28.110    2.6330
   28.140    2.6224
   28.170    2.4645
   28.200    2.3697
   28.230    2.5066
   28.260    2.3697
   28.290    2.4013
   28.320    2.3697
   28.350    2.4118
   28.380    2.3170
   28.410    2.3486
   28.440    2.3591
   28.470    2.4118
   28.500    2.3170
   28.530    2.4434
   28.560    2.4118
   28.590    2.3802
   28.620    2.3802
   28.650    2.5276
   28.680    2.2117
   28.710    2.2959
   28.740    2.5803
   28.770    2.3486
   28.800    2.3802
   28.830    2.4434
   28.860    2.3907
   28.890    2.4013
   28.920    2.6540
   28.950    2.4961
   28.980    2.7804
   29.010    2.4118
   29.040    2.2538
   29.070    2.6014
   29.100    2.4013
   29.130    2.4961
   29.160    2.4645
   29.190    2.0748
   29.220    2.6014
   29.250    2.1169
   29.280    2.3591
   29.310    2.2854
   29.340    2.4750
   29.370    2.4855
   29.400    2.0958
   29.430    2.0642
   29.460    2.0326
   29.490    2.3275
   29.520    2.2538
   29.550    2.1169
   29.580    2.0537
   29.610    1.9379
   29.640    2.0853
   29.670    2.1380
   29.700    2.0221
   29.730    2.2222
   29.760    2.0748
   29.790    2.0642
   29.820    2.1169
   29.850    2.1380
   29.880    1.9379
   29.910    2.1696
   29.940    2.0537
   29.970    2.1696
   30.000    1.8852
   30.030    2.0432
   30.060    1.9695
   30.090    1.9168
   30.120    2.0748
   30.150    2.1064
   30.180    2.2117
   30.210    1.9800
   30.240    2.0958
   30.270    1.9695
   30.300    2.0642
   30.330    2.0748
   30.360    2.0853
   30.390    2.2012
   30.420    2.0326
   30.450    1.7378
   30.480    2.1801
   30.510    2.2012
   30.540    1.8747
   30.570    2.1696
   30.600    2.1274
   30.630    1.9484
   30.660    2.0958
   30.690    2.0642
   30.720    2.0326
   30.750    2.0642
   30.780    1.9589
   30.810    2.0116
   30.840    1.9589
   30.870    1.9273
   30.900    1.9273
   30.930    1.9800
   30.960    1.9063
   30.990    1.8220
   31.020    1.9589
   31.050    2.1274
   31.080    1.9695
   31.110    1.8431
   31.140    1.9800
   31.170    2.3802
   31.200    2.1169
   31.230    1.9273
   31.260    1.9273
   31.290    1.8536
   31.320    1.8747
   31.350    2.0642
   31.380    1.8009
   31.410    1.9273
   31.440    1.9273
   31.470    1.9484
   31.500    2.0748
   31.530    1.8536
   31.560    2.0326
   31.590    1.9273
   31.620    1.8431
   31.650    2.0326
   31.680    1.8009
   31.710    1.8957
   31.740    2.3697
   31.770    2.3065
   31.800    1.9484
   31.830    1.7694
   31.860    2.0011
   31.890    1.8220
   31.920    1.8641
   31.950    1.8431
   31.980    1.9905
   32.010    1.8115
   32.040    2.2117
   32.070    2.5487
   32.100    2.2012
   32.130    2.1801
   32.160    1.6956
   32.190    1.5587
   32.220    1.9800
   32.250    1.9589
   32.280    1.8115
   32.310    1.8536
   32.340    1.6956
   32.370    1.7272
   32.400    1.8431
   32.430    1.8115
   32.460    1.9273
   32.490    1.7483
   32.520    1.8747
   32.550    1.9800
   32.580    1.7483
   32.610    1.9063
   32.640    2.0116
   32.670    1.7272
   32.700    2.0116
   32.730    1.5587
   32.760    1.7167
   32.790    1.6956
   32.820    1.9168
   32.850    1.9168
   32.880    1.8747
   32.910    1.8431
   32.940    1.8220
   32.970    1.7694
   33.000    1.7694
   33.030    1.7588
   33.060    1.7799
   33.090    1.7694
   33.120    1.6956
   33.150    1.7904
   33.180    1.7904
   33.210    1.8852
   33.240    1.6640
   33.270    1.7062
   33.300    1.6956
   33.330    1.7588
   33.360    1.6956
   33.390    1.6746
   33.420    1.6430
   33.450    2.0116
   33.480    1.7272
   33.510    1.5692
   33.540    1.7062
   33.570    1.6430
   33.600    1.8957
   33.630    1.8536
   33.660    1.6324
   33.690    1.8220
   33.720    1.6535
   33.750    1.5692
   33.780    1.7483
   33.810    2.2643
   33.840    2.1380
   33.870    1.6956
   33.900    1.8747
   33.930    1.8641
   33.960    1.9379
   33.990    1.7904
   34.020    1.7062
   34.050    1.7694
   34.080    1.8009
   34.110    1.6324
   34.140    1.6746
   34.170    1.6746
   34.200    1.6430
   34.230    1.7588
   34.260    1.7904
   34.290    1.8431
   34.320    1.7483
   34.350    1.8220
   34.380    1.6640
   34.410    1.6746
   34.440    1.6430
   34.470    1.7062
   34.500    1.7062
   34.530    1.7272
   34.560    1.6535
   34.590    1.8009
   34.620    1.7904
   34.650    1.8431
   34.680    1.9589
   34.710    1.7483
   34.740    1.5482
   34.770    1.7483
   34.800    1.7904
   34.830    1.8009
   34.860    1.5903
   34.890    1.7272
   34.920    1.6430
   34.950    1.7694
   34.980    1.7272
   35.010    1.7272
   35.040    1.8641
   35.070    1.6114
   35.100    1.8747
   35.130    1.8220
   35.160    1.7799
   35.190    1.6324
   35.220    1.7694
   35.250    1.6114
   35.280    1.8431
   35.310    1.8641
   35.340    1.7272
   35.370    1.8536
   35.400    1.6956
   35.430    1.6114
   35.460    1.8009
   35.490    1.7062
   35.520    1.6535
   35.550    1.7378
   35.580    1.6851
   35.610    1.5061
   35.640    1.5692
   35.670    1.7799
   35.700    1.7062
   35.730    1.5692
   35.760    1.6956
   35.790    1.7062
   35.820    1.7062
   35.850    1.8325
   35.880    1.7904
   35.910    1.6219
   35.940    1.6535
   35.970    1.8957
   36.000    1.8220
   36.030    1.5271
   36.060    1.9484
   36.090    1.5903
   36.120    1.6324
   36.150    1.4429
   36.180    1.6640
   36.210    1.6535
   36.240    1.8325
   36.270    1.8220
   36.300    1.6535
   36.330    1.6219
   36.360    1.8431
   36.390    1.7904
   36.420    1.7904
   36.450    1.6640
   36.480    1.4429
   36.510    1.5692
   36.540    1.5903
   36.570    1.9484
   36.600    1.7904
   36.630    1.5061
   36.660    1.7588
   36.690    1.5692
   36.720    1.7694
   36.750    1.7167
   36.780    1.7062
   36.810    1.5903
   36.840    1.7272
   36.870    1.8325
   36.900    1.6430
   36.930    1.6324
   36.960    1.7483
   36.990    1.5377
   37.020    1.9063
   37.050    1.6219
   37.080    1.7904
   37.110    1.7272
   37.140    1.5377
   37.170    1.7062
   37.200    1.4113
   37.230    1.8536
   37.260    1.6324
   37.290    1.6851
   37.320    1.5798
   37.350    1.6219
   37.380    1.6324
   37.410    1.5482
   37.440    1.7694
   37.470    1.6114
   37.500    1.4850
   37.530    1.6114
   37.560    1.5798
   37.590    1.5798
   37.620    1.6851
   37.650    1.6851
   37.680    1.6851
   37.710    1.7062
   37.740    1.6430
   37.770    1.6430
   37.800    1.6535
   37.830    1.7167
   37.860    1.4429
   37.890    1.6851
   37.920    1.6851
   37.950    1.8325
   37.980    1.5271
   38.010    1.6008
   38.040    1.7483
   38.070    1.5377
   38.100    1.7799
   38.130    1.6535
   38.160    1.5061
   38.190    1.7062
   38.220    1.5377
   38.250    1.5482
   38.280    1.6219
   38.310    1.7588
   38.340    1.4745
   38.370    1.4955
   38.400    1.6535
   38.430    1.7272
   38.460    1.6430
   38.490    1.7378
   38.520    1.3691
   38.550    1.6219
   38.580    1.7272
   38.610    1.8852
   38.640    1.6114
   38.670    1.6956
   38.700    1.5587
   38.730    1.6219
   38.760    1.6219
   38.790    1.6324
   38.820    1.5061
   38.850    1.5903
   38.880    1.6114
   38.910    1.5377
   38.940    1.5903
   38.970    1.4639
   39.000    1.5903
   39.030    1.5271
   39.060    1.6114
   39.090    1.5903
   39.120    1.4639
   39.150    1.5798
   39.180    1.5166
   39.210    1.4850
   39.240    1.7062
   39.270    1.3481
   39.300    1.3375
   39.330    1.6851
   39.360    1.5587
   39.390    1.6114
   39.420    1.6640
   39.450    1.5271
   39.480    1.5482
   39.510    1.6114
   39.540    1.5271
   39.570    1.5482
   39.600    1.5377
   39.630    1.4850
   39.660    1.6008
   39.690    1.6219
   39.720    1.4534
   39.750    1.5692
   39.780    1.2849
   39.810    1.5061
   39.840    1.4429
   39.870    1.5692
   39.900    1.6535
   39.930    1.5482
   39.960    1.8325
   39.990    1.3586