File: data/PXRD/PXRD_Blank_Cu-Ka1_capillary-1mm_3s-deg.xyd
    1.500    1.5096
    1.545    1.5973
    1.590    1.5447
    1.635    1.4920
    1.680    1.4394
    1.725    1.7027
    1.770    1.4042
    1.815    1.3867
    1.860    1.4745
    1.905    1.5096
    1.950    1.6324
    1.995    1.6149
    2.040    1.9133
    2.085    1.7027
    2.130    1.7027
    2.175    2.1590
    2.220    1.7729
    2.265    1.6324
    2.310    1.7553
    2.355    1.4569
    2.400    1.7027
    2.445    1.8957
    2.490    1.8606
    2.535    1.8606
    2.580    1.6851
    2.625    1.8080
    2.670    1.8431
    2.715    1.8080
    2.760    1.5798
    2.805    1.7553
    2.850    1.8957
    2.895    1.4042
    2.940    1.4569
    2.985    2.0713
    3.030    1.7729
    3.075    1.7202
    3.120    1.5622
    3.165    1.6149
    3.210    1.4218
    3.255    1.7729
    3.300    1.5798
    3.345    1.8255
    3.390    1.4920
    3.435    1.9133
    3.480    1.6851
    3.525    1.4745
    3.570    1.8782
    3.615    1.5973
    3.660    1.8957
    3.705    1.5447
    3.750    1.7202
    3.795    1.7202
    3.840    1.8782
    3.885    1.4569
    3.930    1.6324
    3.975    2.0713
    4.020    1.8957
    4.065    1.5096
    4.110    1.9484
    4.155    1.7553
    4.200    2.0186
    4.245    1.8255
    4.290    1.8255
    4.335    1.5973
    4.380    2.0011
    4.425    2.1239
    4.470    1.9308
    4.515    1.6500
    4.560    1.5447
    4.605    1.8606
    4.650    1.7904
    4.695    1.7729
    4.740    1.8431
    4.785    1.7553
    4.830    1.8255
    4.875    1.8431
    4.920    2.0186
    4.965    1.8431
    5.010    1.9133
    5.055    1.8255
    5.100    1.7378
    5.145    1.8957
    5.190    1.8957
    5.235    1.8255
    5.280    2.2819
    5.325    1.7729
    5.370    1.8782
    5.415    1.8255
    5.460    1.9484
    5.505    1.6500
    5.550    1.9308
    5.595    2.0888
    5.640    1.6324
    5.685    1.8255
    5.730    2.0713
    5.775    1.8782
    5.820    1.9835
    5.865    1.8080
    5.910    1.6851
    5.955    2.0362
    6.000    1.8255
    6.045    1.9308
    6.090    1.9133
    6.135    1.8606
    6.180    1.7027
    6.225    1.9308
    6.270    1.9484
    6.315    2.0888
    6.360    1.7202
    6.405    1.5973
    6.450    1.8255
    6.495    1.9308
    6.540    1.5973
    6.585    1.9659
    6.630    1.4745
    6.675    2.1766
    6.720    1.8782
    6.765    1.7027
    6.810    2.0011
    6.855    1.9659
    6.900    1.6851
    6.945    1.9835
    6.990    1.8255
    7.035    2.1064
    7.080    1.7378
    7.125    1.7202
    7.170    1.9133
    7.215    2.0362
    7.260    1.8957
    7.305    1.7904
    7.350    1.9484
    7.395    1.9308
    7.440    1.7202
    7.485    1.8255
    7.530    1.7904
    7.575    1.6500
    7.620    2.0186
    7.665    2.0537
    7.710    1.6324
    7.755    1.7729
    7.800    1.5622
    7.845    1.6851
    7.890    1.9484
    7.935    1.7202
    7.980    1.7202
    8.025    1.3867
    8.070    2.0537
    8.115    1.7027
    8.160    1.9133
    8.205    1.8431
    8.250    1.8782
    8.295    2.0362
    8.340    1.9659
    8.385    1.9133
    8.430    1.8431
    8.475    1.7729
    8.520    1.8255
    8.565    1.6324
    8.610    1.7553
    8.655    2.0362
    8.700    1.9835
    8.745    1.7553
    8.790    2.0537
    8.835    1.8255
    8.880    1.8431
    8.925    1.4920
    8.970    1.8431
    9.015    1.7904
    9.060    1.9484
    9.105    1.6324
    9.150    1.8957
    9.195    1.7202
    9.240    1.6675
    9.285    2.2292
    9.330    1.8080
    9.375    1.8080
    9.420    2.0011
    9.465    1.8255
    9.510    1.5096
    9.555    1.6675
    9.600    1.7553
    9.645    1.7904
    9.690    1.9659
    9.735    1.7202
    9.780    1.8080
    9.825    1.7027
    9.870    1.8782
    9.915    1.8606
    9.960    1.7202
   10.005    1.5447
   10.050    1.7027
   10.095    1.7553
   10.140    1.7904
   10.185    1.7904
   10.230    1.9308
   10.275    1.7202
   10.320    1.8080
   10.365    1.7202
   10.410    1.8782
   10.455    1.8431
   10.500    1.8606
   10.545    2.1064
   10.590    1.7378
   10.635    2.0011
   10.680    1.8782
   10.725    1.9133
   10.770    1.6500
   10.815    1.5798
   10.860    1.5622
   10.905    1.9835
   10.950    1.6149
   10.995    1.7202
   11.040    1.7378
   11.085    1.9308
   11.130    1.7553
   11.175    1.7378
   11.220    1.6149
   11.265    1.6324
   11.310    1.7729
   11.355    1.8255
   11.400    1.7027
   11.445    1.9659
   11.490    1.6675
   11.535    1.7553
   11.580    1.7904
   11.625    1.8255
   11.670    1.6675
   11.715    1.7553
   11.760    1.8606
   11.805    1.5622
   11.850    1.5622
   11.895    1.6149
   11.940    1.5973
   11.985    1.5271
   12.030    1.5096
   12.075    1.7729
   12.120    1.8080
   12.165    1.6500
   12.210    1.6851
   12.255    1.5447
   12.300    1.6324
   12.345    2.0888
   12.390    1.5447
   12.435    1.7027
   12.480    1.7027
   12.525    1.7378
   12.570    1.8255
   12.615    1.8957
   12.660    1.9308
   12.705    1.7378
   12.750    1.4394
   12.795    1.7553
   12.840    1.6675
   12.885    1.8431
   12.930    1.9133
   12.975    1.8080
   13.020    1.8255
   13.065    1.4569
   13.110    1.5622
   13.155    1.6324
   13.200    1.7378
   13.245    1.7553
   13.290    1.5973
   13.335    1.5271
   13.380    1.5096
   13.425    1.7202
   13.470    1.4042
   13.515    1.6500
   13.560    1.7553
   13.605    1.4920
   13.650    1.7904
   13.695    1.6675
   13.740    1.9308
   13.785    1.7027
   13.830    1.7378
   13.875    1.7202
   13.920    1.4218
   13.965    1.7202
   14.010    1.5622
   14.055    1.5447
   14.100    1.6675
   14.145    1.6149
   14.190    1.6675
   14.235    1.7904
   14.280    1.7378
   14.325    1.5447
   14.370    1.5622
   14.415    1.7553
   14.460    1.6500
   14.505    1.4569
   14.550    1.7729
   14.595    1.5622
   14.640    1.2463
   14.685    1.2112
   14.730    1.6324
   14.775    1.5798
   14.820    1.6675
   14.865    1.5271
   14.910    1.6675
   14.955    1.7378
   15.000    1.5798
   15.045    1.3340
   15.090    1.4569
   15.135    1.5622
   15.180    1.5096
   15.225    1.4920
   15.270    1.6149
   15.315    1.5096
   15.360    1.7027
   15.405    1.6675
   15.450    1.4569
   15.495    1.3516
   15.540    1.6149
   15.585    1.7553
   15.630    1.5622
   15.675    1.5447
   15.720    1.7027
   15.765    1.4218
   15.810    1.4569
   15.855    1.3867
   15.900    1.5973
   15.945    1.5096
   15.990    1.6675
   16.035    1.7027
   16.080    1.5271
   16.125    1.4920
   16.170    1.5447
   16.215    1.8431
   16.260    1.4920
   16.305    1.6675
   16.350    1.4745
   16.395    1.6500
   16.440    1.7027
   16.485    1.4394
   16.530    1.6851
   16.575    1.5622
   16.620    1.5096
   16.665    1.7202
   16.710    1.7904
   16.755    1.6324
   16.800    1.6675
   16.845    1.8080
   16.890    1.6149
   16.935    1.5798
   16.980    1.3340
   17.025    1.6324
   17.070    1.5271
   17.115    1.7904
   17.160    1.4569
   17.205    1.8782
   17.250    1.5798
   17.295    1.7904
   17.340    1.6149
   17.385    1.5271
   17.430    1.5447
   17.475    1.5973
   17.520    1.7027
   17.565    1.6324
   17.610    1.4920
   17.655    1.7729
   17.700    1.9308
   17.745    1.7378
   17.790    1.6500
   17.835    1.4920
   17.880    1.6149
   17.925    1.5622
   17.970    1.6675
   18.015    1.3340
   18.060    1.5622
   18.105    1.4920
   18.150    1.5973
   18.195    1.5622
   18.240    1.7027
   18.285    1.6149
   18.330    1.8431
   18.375    1.6324
   18.420    1.7553
   18.465    1.6675
   18.510    1.4394
   18.555    1.7553
   18.600    1.6324
   18.645    1.4042
   18.690    1.7729
   18.735    1.5447
   18.780    1.7378
   18.825    1.7729
   18.870    1.7202
   18.915    1.6500
   18.960    1.6500
   19.005    1.5622
   19.050    1.4745
   19.095    1.5973
   19.140    1.6851
   19.185    1.4569
   19.230    1.6149
   19.275    1.5973
   19.320    1.6500
   19.365    1.4920
   19.410    1.4569
   19.455    1.7553
   19.500    1.4920
   19.545    1.7027
   19.590    1.4920
   19.635    1.5271
   19.680    1.5798
   19.725    1.5096
   19.770    1.8957
   19.815    1.7904
   19.860    1.8782
   19.905    1.8080
   19.950    1.8080
   19.995    1.7027
   20.040    1.3691
   20.085    2.0362
   20.130    1.7904
   20.175    1.5271
   20.220    1.4569
   20.265    1.7729
   20.310    1.5622
   20.355    1.5973
   20.400    1.6675
   20.445    1.6324
   20.490    1.5798
   20.535    1.7729
   20.580    1.6675
   20.625    1.6851
   20.670    1.6149
   20.715    1.7553
   20.760    1.5271
   20.805    1.6149
   20.850    1.6324
   20.895    1.5798
   20.940    1.8255
   20.985    1.6675
   21.030    1.6851
   21.075    1.7202
   21.120    1.9484
   21.165    1.7553
   21.210    1.7904
   21.255    1.6851
   21.300    1.7553
   21.345    1.6149
   21.390    1.8782
   21.435    1.5973
   21.480    1.6149
   21.525    2.0362
   21.570    1.7729
   21.615    1.9133
   21.660    1.6851
   21.705    1.8431
   21.750    1.8255
   21.795    1.5798
   21.840    1.7202
   21.885    1.6675
   21.930    1.7904
   21.975    1.7027
   22.020    1.7553
   22.065    1.7729
   22.110    1.8606
   22.155    1.7378
   22.200    1.4042
   22.245    1.9308
   22.290    1.7729
   22.335    1.7729
   22.380    1.7729
   22.425    1.6324
   22.470    1.8080
   22.515    1.6149
   22.560    1.8606
   22.605    1.6675
   22.650    1.5973
   22.695    1.6851
   22.740    1.8431
   22.785    1.9133
   22.830    1.5973
   22.875    1.5622
   22.920    1.5271
   22.965    1.8606
   23.010    1.6851
   23.055    1.7378
   23.100    1.8606
   23.145    1.9835
   23.190    1.6675
   23.235    1.7904
   23.280    1.6675
   23.325    1.6500
   23.370    1.5271
   23.415    1.5447
   23.460    1.6500
   23.505    1.9484
   23.550    1.4569
   23.595    1.6851
   23.640    1.6500
   23.685    1.7378
   23.730    2.0537
   23.775    1.7027
   23.820    1.4394
   23.865    1.7027
   23.910    1.6324
   23.955    1.6149
   24.000    1.5798
   24.045    1.6149
   24.090    1.9484
   24.135    1.7202
   24.180    1.8080
   24.225    1.9133
   24.270    1.7378
   24.315    1.9133
   24.360    1.4745
   24.405    1.5271
   24.450    1.6149
   24.495    1.5447
   24.540    1.6500
   24.585    1.6324
   24.630    1.6500
   24.675    2.0011
   24.720    1.3867
   24.765    1.5973
   24.810    1.5798
   24.855    1.7378
   24.900    1.5973
   24.945    1.6851
   24.990    1.7729
   25.035    1.5622
   25.080    1.8255
   25.125    1.6149
   25.170    1.8431
   25.215    1.8080
   25.260    1.7553
   25.305    1.7729
   25.350    1.7027
   25.395    1.7553
   25.440    1.8957
   25.485    1.8431
   25.530    1.7202
   25.575    1.7027
   25.620    1.6324
   25.665    1.7378
   25.710    1.6149
   25.755    1.7904
   25.800    1.5271
   25.845    1.6500
   25.890    1.4394
   25.935    1.5447
   25.980    1.5447
   26.025    1.5271
   26.070    1.5447
   26.115    1.5096
   26.160    1.4745
   26.205    1.7027
   26.250    1.6149
   26.295    1.5271
   26.340    1.6851
   26.385    1.7904
   26.430    1.4394
   26.475    1.4394
   26.520    1.5447
   26.565    1.5447
   26.610    1.4920
   26.655    1.5622
   26.700    1.5622
   26.745    1.4042
   26.790    1.4569
   26.835    1.4394
   26.880    1.4745
   26.925    1.4745
   26.970    1.5096
   27.015    1.4394
   27.060    1.4218
   27.105    1.5096
   27.150    1.4042
   27.195    1.5973
   27.240    1.4394
   27.285    1.7202
   27.330    1.2463
   27.375    1.5447
   27.420    1.4394
   27.465    1.5271
   27.510    1.4394
   27.555    1.4042
   27.600    1.4218
   27.645    1.4042
   27.690    1.4218
   27.735    1.4394
   27.780    1.6675
   27.825    1.5447
   27.870    1.6324
   27.915    1.4569
   27.960    1.6149
   28.005    1.2989
   28.050    1.5447
   28.095    1.3691
   28.140    1.4394
   28.185    1.5096
   28.230    1.4569
   28.275    1.5798
   28.320    1.4218
   28.365    1.2112
   28.410    1.4745
   28.455    1.5447
   28.500    1.5622
   28.545    1.5798
   28.590    1.3691
   28.635    1.2287
   28.680    1.2989
   28.725    1.3340
   28.770    1.3340
   28.815    1.5271
   28.860    1.2814
   28.905    1.6500
   28.950    1.4745
   28.995    1.6851
   29.040    1.3691
   29.085    1.3516
   29.130    1.3516
   29.175    1.2989
   29.220    1.1936
   29.265    1.4218
   29.310    1.2112
   29.355    1.5447
   29.400    1.4042
   29.445    1.4042
   29.490    1.3691
   29.535    1.4394
   29.580    1.3691
   29.625    1.4745
   29.670    1.4745
   29.715    1.3691
   29.760    1.3516
   29.805    1.3691
   29.850    1.4745
   29.895    1.5271
   29.940    1.3340
   29.985    1.4394
   30.030    1.3340
   30.075    1.2112
   30.120    1.5622
   30.165    1.3340
   30.210    1.3691
   30.255    1.5096
   30.300    1.1936
   30.345    1.2463
   30.390    1.2638
   30.435    1.3867
   30.480    1.6500
   30.525    1.4745
   30.570    1.1936
   30.615    1.5271
   30.660    1.3165
   30.705    1.4394
   30.750    1.1936
   30.795    1.2814
   30.840    1.1585
   30.885    1.2638
   30.930    1.1058
   30.975    1.4569
   31.020    1.1761
   31.065    1.2287
   31.110    1.2638
   31.155    1.3165
   31.200    1.1585
   31.245    1.1936
   31.290    1.2463
   31.335    1.2463
   31.380    1.0356
   31.425    1.1410
   31.470    1.1234
   31.515    1.1410
   31.560    1.1936
   31.605    1.2814
   31.650    0.9303
   31.695    1.1761
   31.740    1.2287
   31.785    1.3340
   31.830    1.1585
   31.875    1.2112
   31.920    1.3165
   31.965    1.0181
   32.010    1.0707
   32.055    1.2814
   32.100    1.1234
   32.145    1.1058
   32.190    1.1936
   32.235    1.2814
   32.280    1.0181
   32.325    1.3165
   32.370    1.1585
   32.415    1.2463
   32.460    1.1761
   32.505    1.1410
   32.550    1.0181
   32.595    1.2638
   32.640    1.0707
   32.685    0.9303
   32.730    1.1410
   32.775    1.0005
   32.820    1.2112
   32.865    1.2112
   32.910    1.1761
   32.955    1.0181
   33.000    1.1410
   33.045    1.0181
   33.090    1.0883
   33.135    1.2814
   33.180    0.9830
   33.225    1.2638
   33.270    1.0181
   33.315    0.9479
   33.360    0.9830
   33.405    1.1234
   33.450    0.9128
   33.495    1.0005
   33.540    1.1234
   33.585    1.1936
   33.630    1.0707
   33.675    0.9303
   33.720    1.0883
   33.765    1.0356
   33.810    0.9830
   33.855    1.2112
   33.900    0.8601
   33.945    0.9654
   33.990    1.1058
   34.035    0.8250
   34.080    0.8777
   34.125    1.0883
   34.170    1.0532
   34.215    1.0005
   34.260    1.0532
   34.305    0.9654
   34.350    1.0532
   34.395    0.9654
   34.440    0.8777
   34.485    1.0532
   34.530    0.8952
   34.575    0.8952
   34.620    1.0707
   34.665    0.7899
   34.710    1.0707
   34.755    0.8952
   34.800    0.9479
   34.845    1.0005
   34.890    0.8777
   34.935    0.7372
   34.980    1.0181
   35.025    0.9303
   35.070    1.0356
   35.115    0.8952
   35.160    1.1058
   35.205    0.9303
   35.250    0.7723
   35.295    0.9303
   35.340    0.9654
   35.385    0.6846
   35.430    0.9303
   35.475    0.8250
   35.520    0.7548
   35.565    0.7197
   35.610    0.9303
   35.655    0.8425
   35.700    0.9654
   35.745    0.8250
   35.790    0.8250
   35.835    1.0005
   35.880    0.8601
   35.925    0.9654
   35.970    0.8952
   36.015    0.9654
   36.060    0.8074
   36.105    0.8425
   36.150    0.7723
   36.195    0.9830
   36.240    0.8425
   36.285    0.7372
   36.330    0.7899
   36.375    0.8601
   36.420    0.8074
   36.465    0.6319
   36.510    0.8074
   36.555    0.8425
   36.600    0.8074
   36.645    0.7723
   36.690    0.6846
   36.735    0.8250
   36.780    0.7197
   36.825    0.7723
   36.870    0.7723
   36.915    0.8952
   36.960    0.8601
   37.005    0.7021
   37.050    0.9479
   37.095    0.6144
   37.140    0.7899
   37.185    0.6670
   37.230    0.7372
   37.275    0.8250
   37.320    0.7372
   37.365    0.7723
   37.410    0.6495
   37.455    0.7372
   37.500    0.8074
   37.545    0.8074
   37.590    0.5793
   37.635    0.7548
   37.680    0.7021
   37.725    0.6846
   37.770    0.6670
   37.815    0.7197
   37.860    0.7899
   37.905    0.7899
   37.950    0.8250
   37.995    0.6495
   38.040    0.7548
   38.085    0.6670
   38.130    0.6319
   38.175    0.7548
   38.220    0.6670
   38.265    0.6846
   38.310    0.5968
   38.355    0.6670
   38.400    0.6144
   38.445    0.6846
   38.490    0.8074
   38.535    0.7548
   38.580    0.8074
   38.625    0.6670
   38.670    0.5793
   38.715    0.7372
   38.760    0.4739
   38.805    0.6846
   38.850    0.6144
   38.895    0.6319
   38.940    0.5793
   38.985    0.5793
   39.030    0.5266
   39.075    0.7548
   39.120    0.5266
   39.165    0.4564
   39.210    0.6846
   39.255    0.7372
   39.300    0.6144
   39.345    0.6846
   39.390    0.6319
   39.435    0.8425
   39.480    0.6144
   39.525    0.5793
   39.570    0.6495
   39.615    0.5968
   39.660    0.7197
   39.705    0.5617
   39.750    0.6144
   39.795    0.6144
   39.840    0.5793
   39.885    0.6846
   39.930    0.7899
   39.975    0.6670
   40.020    0.6319
   40.065    0.5968
   40.110    0.6144
   40.155    0.6495
   40.200    0.7723
   40.245    0.7197
   40.290    0.7372
   40.335    0.5968
   40.380    0.7548
   40.425    0.6319
   40.470    0.5617
   40.515    0.6144
   40.560    0.7021
   40.605    0.5793
   40.650    0.5617
   40.695    0.6846
   40.740    0.5617
   40.785    0.5968
   40.830    0.6846
   40.875    0.5090
   40.920    0.5968
   40.965    0.8250
   41.010    0.6670
   41.055    0.5090
   41.100    0.6670
   41.145    0.6319
   41.190    0.7899
   41.235    0.5968
   41.280    0.6144
   41.325    0.6144
   41.370    0.5968
   41.415    0.5793
   41.460    0.6495
   41.505    0.6144
   41.550    0.6495
   41.595    0.6319
   41.640    0.7372
   41.685    0.7021
   41.730    0.5090
   41.775    0.6319
   41.820    0.6144
   41.865    0.7021
   41.910    0.4564
   41.955    0.6144
   42.000    0.4739
   42.045    0.5793
   42.090    0.5441
   42.135    0.7372
   42.180    0.8601
   42.225    0.7021
   42.270    0.5266
   42.315    0.7372
   42.360    0.6495
   42.405    0.6495
   42.450    0.5266
   42.495    0.4213
   42.540    0.4388
   42.585    0.4915
   42.630    0.7021
   42.675    0.7197
   42.720    0.6846
   42.765    0.5441
   42.810    0.6144
   42.855    0.4739
   42.900    0.5617
   42.945    0.5090
   42.990    0.5617
   43.035    0.4915
   43.080    0.5266
   43.125    0.7021
   43.170    0.5441
   43.215    0.6144
   43.260    0.5793
   43.305    0.5968
   43.350    0.5266
   43.395    0.5968
   43.440    0.5968
   43.485    0.5968
   43.530    0.5266
   43.575    0.5793
   43.620    0.7548
   43.665    0.6495
   43.710    0.6144
   43.755    0.5793
   43.800    0.4564
   43.845    0.6846
   43.890    0.5266
   43.935    0.4739
   43.980    0.5968
   44.025    0.5441
   44.070    0.5441
   44.115    0.6495
   44.160    0.5090
   44.205    0.4388
   44.250    0.5968
   44.295    0.6670
   44.340    0.5266
   44.385    0.4915
   44.430    0.5441
   44.475    0.5968
   44.520    0.5617
   44.565    0.5090
   44.610    0.5968
   44.655    0.4915
   44.700    0.4739
   44.745    0.4213
   44.790    0.5441
   44.835    0.6144
   44.880    0.5968
   44.925    0.6495
   44.970    0.4739
   45.015    0.7372
   45.060    0.4037
   45.105    0.4739
   45.150    0.7548
   45.195    0.5793
   45.240    0.5793
   45.285    0.5793
   45.330    0.5266
   45.375    0.4915
   45.420    0.4915
   45.465    0.5090
   45.510    0.5441
   45.555    0.4739
   45.600    0.5441
   45.645    0.6670
   45.690    0.5793
   45.735    0.5968
   45.780    0.5266
   45.825    0.4213
   45.870    0.6670
   45.915    0.5090
   45.960    0.6670
   46.005    0.5441
   46.050    0.6495
   46.095    0.6495
   46.140    0.4388
   46.185    0.4213
   46.230    0.5617
   46.275    0.3862
   46.320    0.4564
   46.365    0.5090
   46.410    0.5441
   46.455    0.4564
   46.500    0.4388
   46.545    0.5090
   46.590    0.5266
   46.635    0.5793
   46.680    0.6319
   46.725    0.4915
   46.770    0.4037
   46.815    0.5441
   46.860    0.5793
   46.905    0.6846
   46.950    0.4388
   46.995    0.5617
   47.040    0.5090
   47.085    0.4388
   47.130    0.5090
   47.175    0.7548
   47.220    0.5090
   47.265    0.5090
   47.310    0.5617
   47.355    0.5968
   47.400    0.4213
   47.445    0.4388
   47.490    0.5793
   47.535    0.4388
   47.580    0.4564
   47.625    0.5617
   47.670    0.5090
   47.715    0.5090
   47.760    0.3862
   47.805    0.4739
   47.850    0.5441
   47.895    0.5090
   47.940    0.4739
   47.985    0.3862
   48.030    0.5617
   48.075    0.5090
   48.120    0.4915
   48.165    0.4915
   48.210    0.3686
   48.255    0.5968
   48.300    0.4739
   48.345    0.5441
   48.390    0.5793
   48.435    0.5793
   48.480    0.4739
   48.525    0.4739
   48.570    0.4564
   48.615    0.4915
   48.660    0.4213
   48.705    0.5090
   48.750    0.5441
   48.795    0.4388
   48.840    0.6144
   48.885    0.4564
   48.930    0.4739
   48.975    0.7197
   49.020    0.4388
   49.065    0.4388
   49.110    0.5090
   49.155    0.5617
   49.200    0.5793
   49.245    0.5266
   49.290    0.5617
   49.335    0.5793
   49.380    0.5090
   49.425    0.4213
   49.470    0.4037
   49.515    0.3335
   49.560    0.3335
   49.605    0.3862
   49.650    0.5441
   49.695    0.4213
   49.740    0.6846
   49.785    0.4564
   49.830    0.4037
   49.875    0.4388
   49.920    0.4739
   49.965    0.5617
   49.980    0.4388