File: data/PXRD/PXRD_KE-288_Cu-Ka1_capillary-1mm_60s-deg.xyd
    1.500   27.7181
    1.530   27.5048
    1.560   26.6052
    1.590   25.8434
    1.620   25.5327
    1.650   24.9263
    1.680   24.1381
    1.710   23.9389
    1.740   23.3921
    1.770   22.9612
    1.800   22.1239
    1.830   21.8852
    1.860   21.4236
    1.890   21.0944
    1.920   21.0014
    1.950   20.7127
    1.980   20.3265
    2.010   20.0298
    2.040   19.9263
    2.070   19.6630
    2.100   19.5313
    2.130   19.3681
    2.160   19.0302
    2.190   19.0837
    2.220   18.7081
    2.250   18.7283
    2.280   18.8266
    2.310   18.8433
    2.340   18.6019
    2.370   18.5598
    2.400   18.7265
    2.430   18.6844
    2.460   18.7853
    2.490   18.8810
    2.520   19.1592
    2.550   19.4128
    2.580   19.3365
    2.610   19.5384
    2.640   19.8411
    2.670   20.0053
    2.700   20.4002
    2.730   20.5731
    2.760   21.0558
    2.790   21.5921
    2.820   21.8896
    2.850   22.2213
    2.880   22.9805
    2.910   23.5712
    2.940   24.3523
    2.970   24.9772
    3.000   25.8487
    3.030   26.6675
    3.060   27.9331
    3.090   28.3281
    3.120   29.9745
    3.150   31.1041
    3.180   32.4662
    3.210   33.9240
    3.240   35.6512
    3.270   37.9419
    3.300   39.9956
    3.330   42.3328
    3.360   44.6595
    3.390   47.3495
    3.420   51.1761
    3.450   54.6051
    3.480   58.4764
    3.510   63.2701
    3.540   68.7476
    3.570   74.5217
    3.600   82.1055
    3.630   90.7864
    3.660  101.3893
    3.690  114.5972
    3.720  131.3542
    3.750  155.0904
    3.780  192.1266
    3.810  261.1313
    3.840  314.4699
    3.870  250.8083
    3.900  115.9101
    3.930   29.7367
    3.960   15.7802
    3.990   12.8471
    4.020   11.4850
    4.050   10.8601
    4.080   10.4801
    4.110   10.2414
    4.140   10.0184
    4.170    9.7911
    4.200    9.7148
    4.230    9.7630
    4.260    9.5340
    4.290    9.5761
    4.320    9.6507
    4.350    9.6876
    4.380    9.5963
    4.410    9.5963
    4.440    9.5533
    4.470    9.4901
    4.500    9.7060
    4.530    9.6182
    4.560    9.8104
    4.590    9.8508
    4.620   10.0474
    4.650   10.1202
    4.680   10.0114
    4.710   10.3037
    4.740   10.5231
    4.770   10.6898
    4.800   10.8891
    4.830   11.2471
    4.860   11.3876
    4.890   11.8053
    4.920   12.3942
    4.950   12.4732
    4.980   13.0823
    5.010   13.5141
    5.040   14.1601
    5.070   14.8596
    5.100   15.8180
    5.130   16.5903
    5.160   17.5671
    5.190   19.1250
    5.220   20.5389
    5.250   22.4092
    5.280   24.7104
    5.310   27.7339
    5.340   31.5789
    5.370   36.7386
    5.400   44.9535
    5.430   59.7727
    5.460   72.6681
    5.490   60.6240
    5.520   32.6496
    5.550   13.3992
    5.580    9.4076
    5.610    8.7379
    5.640    8.5413
    5.670    8.3842
    5.700    8.0858
    5.730    8.1560
    5.760    8.0630
    5.790    8.0463
    5.820    8.0490
    5.850    8.0007
    5.880    7.9761
    5.910    8.0165
    5.940    7.9252
    5.970    7.9050
    6.000    7.9445
    6.030    8.1087
    6.060    7.8410
    6.090    8.0218
    6.120    7.9094
    6.150    8.1288
    6.180    7.9428
    6.210    8.1148
    6.240    8.0893
    6.270    8.0920
    6.300    8.1850
    6.330    8.2412
    6.360    8.2306
    6.390    8.3632
    6.420    8.4992
    6.450    8.4773
    6.480    8.8038
    6.510    8.8204
    6.540    9.1302
    6.570    9.4971
    6.600    9.9438
    6.630   10.5652
    6.660   11.5570
    6.690   13.1376
    6.720   13.3790
    6.750   11.5341
    6.780    8.8441
    6.810    7.7918
    6.840    7.8928
    6.870    7.9419
    6.900    7.7453
    6.930    7.8278
    6.960    7.7462
    6.990    7.9507
    7.020    7.8322
    7.050    7.9077
    7.080    7.9507
    7.110    8.0595
    7.140    8.0630
    7.170    8.0191
    7.200    8.2579
    7.230    8.4106
    7.260    8.4193
    7.290    8.6124
    7.320    8.9240
    7.350    9.2180
    7.380    9.3005
    7.410    9.8429
    7.440   10.1948
    7.470   10.5950
    7.500   11.3498
    7.530   12.1590
    7.560   13.2017
    7.590   14.3374
    7.620   15.8417
    7.650   18.1675
    7.680   21.6105
    7.710   26.8036
    7.740   34.9245
    7.770   36.1418
    7.800   26.2498
    7.830   13.7520
    7.860    8.6273
    7.890    7.7672
    7.920    7.6417
    7.950    7.5162
    7.980    7.3653
    8.010    7.4302
    8.040    7.3846
    8.070    7.3644
    8.100    7.3978
    8.130    7.3170
    8.160    7.2880
    8.190    7.4846
    8.220    7.3776
    8.250    7.4978
    8.280    7.4846
    8.310    7.5382
    8.340    7.6646
    8.370    7.7593
    8.400    7.7383
    8.430    7.9805
    8.460    8.0727
    8.490    8.3158
    8.520    8.3763
    8.550    8.8406
    8.580    9.3663
    8.610   10.2036
    8.640   11.4815
    8.670   13.2886
    8.700   12.9770
    8.730   10.8092
    8.760    8.2895
    8.790    7.4425
    8.820    7.3978
    8.850    7.4372
    8.880    7.3802
    8.910    7.4671
    8.940    7.6488
    8.970    7.7005
    9.000    7.8805
    9.030    8.0183
    9.060    8.2649
    9.090    8.6765
    9.120    8.9477
    9.150    9.3962
    9.180    9.8139
    9.210   10.5643
    9.240   11.4350
    9.270   12.4329
    9.300   13.6423
    9.330   15.3958
    9.360   17.4838
    9.390   20.2949
    9.420   24.7297
    9.450   31.0154
    9.480   42.3960
    9.510   54.9816
    9.540   51.9212
    9.570   33.7493
    9.600   15.2370
    9.630    8.8573
    9.660    7.9200
    9.690    7.5031
    9.720    7.3925
    9.750    7.2775
    9.780    7.2512
    9.810    7.1775
    9.840    7.1810
    9.870    7.1371
    9.900    7.1441
    9.930    7.2731
    9.960    7.3872
    9.990    7.5031
   10.020    7.5900
   10.050    7.6891
   10.080    7.9358
   10.110    8.2543
   10.140    8.4316
   10.170    8.7221
   10.200    9.6191
   10.230   10.5819
   10.260   12.3337
   10.290   13.4316
   10.320   12.4952
   10.350    9.6138
   10.380    7.6189
   10.410    7.0792
   10.440    7.1415
   10.470    6.8984
   10.500    7.0915
   10.530    7.0599
   10.560    7.1309
   10.590    7.1643
   10.620    7.1775
   10.650    7.3626
   10.680    7.4478
   10.710    7.7049
   10.740    7.8427
   10.770    8.2798
   10.800    8.4904
   10.830    9.1750
   10.860    9.7929
   10.890   10.7767
   10.920   12.2073
   10.950   14.5050
   10.980   18.3184
   11.010   20.5547
   11.040   17.9182
   11.070   12.2459
   11.100    8.2324
   11.130    7.2152
   11.160    6.9501
   11.190    6.9501
   11.220    6.8931
   11.250    6.8905
   11.280    7.0283
   11.310    7.0484
   11.340    7.1503
   11.370    7.3091
   11.400    7.4794
   11.430    7.6610
   11.460    7.8761
   11.490    8.0709
   11.520    8.5255
   11.550    9.1109
   11.580   10.3151
   11.610   11.3209
   11.640   13.7423
   11.670   16.3463
   11.700   16.3261
   11.730   12.8717
   11.760    8.9512
   11.790    7.3030
   11.820    6.9519
   11.850    6.8589
   11.880    6.8975
   11.910    6.9089
   11.940    6.7816
   11.970    6.8246
   12.000    6.7930
   12.030    6.7465
   12.060    6.8194
   12.090    6.8088
   12.120    7.0063
   12.150    6.9212
   12.180    7.1696
   12.210    7.2740
   12.240    7.5136
   12.270    7.7111
   12.300    8.3632
   12.330    8.4290
   12.360    8.0621
   12.390    7.4127
   12.420    6.8817
   12.450    6.7650
   12.480    6.6833
   12.510    6.8334
   12.540    6.8273
   12.570    6.9273
   12.600    6.8562
   12.630    6.9186
   12.660    7.0502
   12.690    7.1380
   12.720    7.3416
   12.750    7.4065
   12.780    7.6277
   12.810    8.0709
   12.840    8.5694
   12.870    9.6314
   12.900   11.1287
   12.930   11.8940
   12.960   10.9839
   12.990    8.9100
   13.020    7.2705
   13.050    6.8317
   13.080    6.7694
   13.110    6.6956
   13.140    6.6333
   13.170    6.8124
   13.200    6.9080
   13.230    6.8141
   13.260    6.7922
   13.290    6.7500
   13.320    6.9168
   13.350    7.0028
   13.380    7.0502
   13.410    7.2512
   13.440    7.4381
   13.470    7.8726
   13.500    8.3614
   13.530    8.2851
   13.560    7.7400
   13.590    7.0853
   13.620    6.9168
   13.650    6.7070
   13.680    6.7413
   13.710    6.7694
   13.740    6.8167
   13.770    6.8887
   13.800    6.8975
   13.830    7.0994
   13.860    7.3223
   13.890    7.4355
   13.920    7.7400
   13.950    8.1402
   13.980    8.7704
   14.010    9.7253
   14.040   11.1181
   14.070   11.8352
   14.100   10.9593
   14.130    8.7994
   14.160    7.2661
   14.190    6.7176
   14.220    6.8001
   14.250    6.7483
   14.280    6.7237
   14.310    6.8185
   14.340    6.6193
   14.370    6.7930
   14.400    6.7439
   14.430    6.6877
   14.460    6.7957
   14.490    6.7509
   14.520    6.8018
   14.550    6.6623
   14.580    6.7597
   14.610    6.6245
   14.640    6.6324
   14.670    6.6772
   14.700    6.5701
   14.730    6.7237
   14.760    6.7922
   14.790    6.7299
   14.820    6.6956
   14.850    6.7439
   14.880    6.7729
   14.910    6.9063
   14.940    6.9449
   14.970    6.9914
   15.000    6.9580
   15.030    7.2082
   15.060    7.5241
   15.090    7.8857
   15.120    8.0972
   15.150    7.9744
   15.180    7.4583
   15.210    7.1459
   15.240    6.7290
   15.270    6.6096
   15.300    6.6052
   15.330    6.7070
   15.360    6.6912
   15.390    6.6491
   15.420    6.8071
   15.450    6.6544
   15.480    6.6983
   15.510    6.8036
   15.540    6.8334
   15.570    6.7597
   15.600    6.8387
   15.630    6.8510
   15.660    6.7395
   15.690    6.7720
   15.720    6.7132
   15.750    6.7062
   15.780    6.7720
   15.810    6.8001
   15.840    6.8782
   15.870    6.8062
   15.900    6.9150
   15.930    7.0116
   15.960    7.2477
   15.990    7.4583
   16.020    7.8963
   16.050    8.5589
   16.080    9.5357
   16.110   10.1123
   16.140    9.2382
   16.170    8.2315
   16.200    7.2477
   16.230    6.9484
   16.260    6.7325
   16.290    6.7290
   16.320    6.7518
   16.350    6.9071
   16.380    6.6807
   16.410    6.7395
   16.440    6.9229
   16.470    6.8896
   16.500    6.9265
   16.530    7.1968
   16.560    7.3161
   16.590    7.3881
   16.620    7.2091
   16.650    7.0344
   16.680    6.9545
   16.710    6.8264
   16.740    6.9080
   16.770    7.1178
   16.800    7.2652
   16.830    7.3881
   16.860    7.6453
   16.890    8.0253
   16.920    8.8152
   16.950    9.8174
   16.980   11.5719
   17.010   13.9117
   17.040   15.1580
   17.070   14.0653
   17.100   11.3858
   17.130    8.4466
   17.160    6.9826
   17.190    7.0546
   17.220    6.9616
   17.250    6.9616
   17.280    6.8826
   17.310    6.9659
   17.340    7.0432
   17.370    7.2819
   17.400    7.4153
   17.430    7.6698
   17.460    8.0305
   17.490    8.2359
   17.520    8.0744
   17.550    7.5118
   17.580    7.1151
   17.610    7.0484
   17.640    6.8343
   17.670    6.8290
   17.700    7.0397
   17.730    6.9835
   17.760    6.9668
   17.790    7.1090
   17.820    7.2854
   17.850    7.4996
   17.880    7.9164
   17.910    8.1446
   17.940    8.2043
   17.970    7.8647
   18.000    7.4715
   18.030    7.2020
   18.060    7.0941
   18.090    6.9940
   18.120    6.8913
   18.150    7.0160
   18.180    7.1652
   18.210    6.9616
   18.240    7.0528
   18.270    7.0862
   18.300    7.3539
   18.330    7.6303
   18.360    7.5443
   18.390    7.4487
   18.420    7.1309
   18.450    6.9695
   18.480    6.8747
   18.510    6.8203
   18.540    6.9335
   18.570    6.9554
   18.600    6.9317
   18.630    6.9738
   18.660    6.9949
   18.690    6.9668
   18.720    7.1362
   18.750    7.4258
   18.780    7.3705
   18.810    7.2047
   18.840    7.0704
   18.870    6.8992
   18.900    6.9984
   18.930    6.7641
   18.960    6.6456
   18.990    6.7974
   19.020    6.7843
   19.050    6.7351
   19.080    6.8475
   19.110    6.8203
   19.140    6.9686
   19.170    6.8045
   19.200    6.9449
   19.230    6.8413
   19.260    6.7913
   19.290    6.8378
   19.320    6.8826
   19.350    6.8905
   19.380    7.0054
   19.410    7.1810
   19.440    7.2231
   19.470    7.4557
   19.500    7.7883
   19.530    8.3869
   19.560    9.1890
   19.590    9.3874
   19.620    8.7423
   19.650    7.9612
   19.680    7.2363
   19.710    6.9335
   19.740    6.9370
   19.770    6.7035
   19.800    6.9133
   19.830    6.9888
   19.860    6.9089
   19.890    7.2442
   19.920    7.3319
   19.950    7.3600
   19.980    7.6295
   20.010    7.3705
   20.040    7.1731
   20.070    7.0537
   20.100    6.9659
   20.130    6.9624
   20.160    7.0827
   20.190    7.1204
   20.220    7.3969
   20.250    7.7172
   20.280    8.2851
   20.310    9.2400
   20.340   10.0641
   20.370   10.0465
   20.400    9.5226
   20.430    8.4255
   20.460    7.3986
   20.490    7.0011
   20.520    6.8290
   20.550    6.7799
   20.580    6.7439
   20.610    6.7843
   20.640    6.9405
   20.670    6.8922
   20.700    7.0107
   20.730    7.0546
   20.760    6.9352
   20.790    6.9844
   20.820    6.8527
   20.850    6.9089
   20.880    6.8097
   20.910    6.8325
   20.940    6.9133
   20.970    6.8870
   21.000    6.9221
   21.030    6.8150
   21.060    6.9300
   21.090    6.8176
   21.120    6.9528
   21.150    6.8141
   21.180    6.8922
   21.210    6.8773
   21.240    6.7667
   21.270    6.8861
   21.300    6.7974
   21.330    6.8712
   21.360    6.8387
   21.390    6.7176
   21.420    6.8905
   21.450    6.8466
   21.480    6.8045
   21.510    6.8843
   21.540    6.9756
   21.570    6.8940
   21.600    6.9616
   21.630    7.0195
   21.660    6.9651
   21.690    7.0704
   21.720    7.2187
   21.750    7.3100
   21.780    7.7128
   21.810    8.1394
   21.840    8.3009
   21.870    8.1411
   21.900    7.6453
   21.930    7.3925
   21.960    7.0695
   21.990    6.9493
   22.020    6.9045
   22.050    7.1108
   22.080    7.1424
   22.110    7.4478
   22.140    7.7155
   22.170    8.1078
   22.200    8.0841
   22.230    8.0534
   22.260    7.6058
   22.290    7.1906
   22.320    7.2872
   22.350    7.2521
   22.380    7.5610
   22.410    8.1885
   22.440    8.7037
   22.470   10.2177
   22.500   11.8404
   22.530   13.3395
   22.560   13.2903
   22.590   11.9291
   22.620    9.9596
   22.650    8.1060
   22.680    7.6031
   22.710    7.4144
   22.740    7.6716
   22.770    8.0656
   22.800    8.9609
   22.830   10.4020
   22.860   11.7641
   22.890   12.5224
   22.920   11.9028
   22.950   10.1255
   22.980    8.5141
   23.010    7.4355
   23.040    7.1388
   23.070    7.0730
   23.100    7.1862
   23.130    7.4118
   23.160    7.7251
   23.190    8.1938
   23.220    8.2280
   23.250    8.3939
   23.280    7.8269
   23.310    7.3670
   23.340    7.1459
   23.370    6.9563
   23.400    7.0011
   23.430    7.2503
   23.460    7.2424
   23.490    7.6031
   23.520    7.8541
   23.550    8.0446
   23.580    8.0692
   23.610    7.7357
   23.640    7.3600
   23.670    7.1309
   23.700    7.0923
   23.730    6.9835
   23.760    7.1643
   23.790    7.4276
   23.820    7.8375
   23.850    8.4755
   23.880    9.0986
   23.910    9.1223
   23.940    8.7028
   23.970    7.9331
   24.000    7.2600
   24.030    7.0520
   24.060    6.8203
   24.090    6.8440
   24.120    6.8913
   24.150    7.0502
   24.180    7.2091
   24.210    7.4258
   24.240    7.2880
   24.270    7.3144
   24.300    6.9282
   24.330    6.8141
   24.360    6.8185
   24.390    6.8071
   24.420    6.8878
   24.450    6.9949
   24.480    7.1608
   24.510    7.3486
   24.540    7.5417
   24.570    7.3337
   24.600    7.2108
   24.630    7.0011
   24.660    6.8764
   24.690    6.7474
   24.720    6.7764
   24.750    6.8483
   24.780    6.9247
   24.810    6.9361
   24.840    7.0326
   24.870    7.0757
   24.900    6.9203
   24.930    6.8492
   24.960    6.8325
   24.990    6.7500
   25.020    6.8246
   25.050    6.7658
   25.080    6.8896
   25.110    7.3556
   25.140    7.4478
   25.170    7.6716
   25.200    7.6830
   25.230    7.2828
   25.260    6.9826
   25.290    6.8957
   25.320    6.8729
   25.350    6.7852
   25.380    6.9844
   25.410    7.0748
   25.440    7.3021
   25.470    7.4741
   25.500    7.4250
   25.530    7.3293
   25.560    7.1669
   25.590    7.0116
   25.620    7.0467
   25.650    7.2178
   25.680    7.6128
   25.710    8.4843
   25.740    9.8017
   25.770   11.0365
   25.800   11.4903
   25.830   10.8794
   25.860    9.8253
   25.890    8.4106
   25.920    7.2766
   25.950    6.8132
   25.980    6.7500
   26.010    6.8913
   26.040    6.8352
   26.070    6.9449
   26.100    7.0546
   26.130    6.9984
   26.160    6.8887
   26.190    6.7579
   26.220    6.8053
   26.250    6.6570
   26.280    6.8562
   26.310    6.9905
   26.340    7.2670
   26.370    7.5391
   26.400    7.7260
   26.430    7.7936
   26.460    7.4083
   26.490    7.0651
   26.520    6.7474
   26.550    6.7281
   26.580    6.5710
   26.610    6.6140
   26.640    6.3849
   26.670    6.5236
   26.700    6.4973
   26.730    6.5403
   26.760    6.4815
   26.790    6.6509
   26.820    6.5061
   26.850    6.7755
   26.880    6.9967
   26.910    7.4443
   26.940    8.0507
   26.970    8.5352
   27.000    8.7116
   27.030    8.5264
   27.060    8.0814
   27.090    7.2407
   27.120    6.7246
   27.150    6.5719
   27.180    6.4516
   27.210    6.3674
   27.240    6.5227
   27.270    6.5517
   27.300    6.5684
   27.330    6.5341
   27.360    6.4885
   27.390    6.4631
   27.420    6.5543
   27.450    6.6395
   27.480    6.7448
   27.510    7.0757
   27.540    7.2986
   27.570    7.6733
   27.600    7.5145
   27.630    7.2573
   27.660    7.0836
   27.690    6.6675
   27.720    6.5210
   27.750    6.6026
   27.780    6.7843
   27.810    6.9651
   27.840    7.0002
   27.870    7.1151
   27.900    7.0028
   27.930    6.9659
   27.960    6.7509
   27.990    6.6833
   28.020    6.5947
   28.050    6.7518
   28.080    7.1880
   28.110    7.5979
   28.140    7.6847
   28.170    7.7392
   28.200    7.6031
   28.230    7.2161
   28.260    6.8255
   28.290    6.7378
   28.320    6.6886
   28.350    7.0607
   28.380    7.4057
   28.410    7.7286
   28.440    8.0393
   28.470    7.6514
   28.500    7.3995
   28.530    6.8150
   28.560    6.5807
   28.590    6.5587
   28.620    6.5104
   28.650    6.6158
   28.680    6.6772
   28.710    6.6219
   28.740    6.6245
   28.770    6.4850
   28.800    6.4745
   28.830    6.4385
   28.860    6.4192
   28.890    6.5385
   28.920    6.6175
   28.950    6.7676
   28.980    6.8448
   29.010    6.9168
   29.040    6.7228
   29.070    6.6640
   29.100    6.4832
   29.130    6.4516
   29.160    6.7509
   29.190    7.1178
   29.220    7.4162
   29.250    7.7111
   29.280    7.6435
   29.310    7.4759
   29.340    7.0520
   29.370    6.6842
   29.400    6.3911
   29.430    6.3103
   29.460    6.2375
   29.490    6.3411
   29.520    6.1190
   29.550    6.2902
   29.580    6.4148
   29.610    6.1840
   29.640    6.3077
   29.670    6.3138
   29.700    6.4350
   29.730    6.6395
   29.760    6.8457
   29.790    6.9036
   29.820    6.9273
   29.850    6.8483
   29.880    6.6728
   29.910    6.5025
   29.940    6.3244
   29.970    6.3972
   30.000    6.3867
   30.030    6.4982
   30.060    6.6579
   30.090    6.3990
   30.120    6.4306
   30.150    6.3384
   30.180    6.2963
   30.210    6.1980
   30.240    6.2866
   30.270    6.4016
   30.300    6.4499
   30.330    6.4209
   30.360    6.4297
   30.390    6.3095
   30.420    6.3639
   30.450    6.3516
   30.480    6.2498
   30.510    6.3200
   30.540    6.6061
   30.570    6.8448
   30.600    6.8852
   30.630    6.7720
   30.660    6.6114
   30.690    6.3358
   30.720    6.0699
   30.750    6.0277
   30.780    6.0216
   30.810    6.1840
   30.840    6.2033
   30.870    6.1559
   30.900    6.1190
   30.930    6.1076
   30.960    5.9707
   30.990    6.0181
   31.020    5.9435
   31.050    5.9014
   31.080    6.0067
   31.110    5.9619
   31.140    6.0032
   31.170    5.8891
   31.200    6.0444
   31.230    6.0532
   31.260    6.1260
   31.290    6.2831
   31.320    6.4508
   31.350    6.7351
   31.380    6.6763
   31.410    6.6491
   31.440    6.4420
   31.470    6.2217
   31.500    6.1445
   31.530    6.0312
   31.560    6.1295
   31.590    6.4297
   31.620    6.3981
   31.650    6.5096
   31.680    6.5912
   31.710    6.6114
   31.740    6.5157
   31.770    6.6570
   31.800    6.5684
   31.830    6.7483
   31.860    6.6316
   31.890    6.6842
   31.920    6.3525
   31.950    6.3033
   31.980    6.0690
   32.010    6.1313
   32.040    5.9961
   32.070    6.0488
   32.100    6.2006
   32.130    6.2173
   32.160    6.2313
   32.190    6.2208
   32.220    6.1348
   32.250    6.0532
   32.280    5.9373
   32.310    5.9689
   32.340    6.0576
   32.370    6.0427
   32.400    5.9215
   32.430    6.0971
   32.460    5.8346
   32.490    5.7162
   32.520    5.8162
   32.550    5.7925
   32.580    5.7820
   32.610    5.8118
   32.640    5.7767
   32.670    5.7750
   32.700    5.7715
   32.730    5.8215
   32.760    5.7908
   32.790    5.9724
   32.820    6.0971
   32.850    6.2059
   32.880    6.2638
   32.910    6.3103
   32.940    6.1734
   32.970    5.9224
   33.000    5.7285
   33.030    5.6337
   33.060    5.7223
   33.090    5.5722
   33.120    5.7135
   33.150    5.7065
   33.180    5.5889
   33.210    5.6495
   33.240    5.6073
   33.270    5.5433
   33.300    5.6495
   33.330    5.6223
   33.360    5.6196
   33.390    5.5450
   33.420    5.5187
   33.450    5.5503
   33.480    5.5520
   33.510    5.6345
   33.540    5.6547
   33.570    5.8935
   33.600    5.8777
   33.630    5.8083
   33.660    5.8364
   33.690    5.7899
   33.720    5.7592
   33.750    5.9996
   33.780    6.0997
   33.810    6.4569
   33.840    6.5561
   33.870    6.6693
   33.900    6.6368
   33.930    6.4271
   33.960    6.1032
   33.990    5.9373
   34.020    5.9163
   34.050    5.7934
   34.080    5.6767
   34.110    5.7214
   34.140    5.6337
   34.170    5.6749
   34.200    5.6512
   34.230    5.5907
   34.260    5.7030
   34.290    5.6003
   34.320    5.6881
   34.350    5.6293
   34.380    5.6819
   34.410    5.6477
   34.440    5.4573
   34.470    5.4783
   34.500    5.3318
   34.530    5.5038
   34.560    5.3748
   34.590    5.3695
   34.620    5.4125
   34.650    5.5389
   34.680    5.5731
   34.710    5.4090
   34.740    5.6977
   34.770    5.6363
   34.800    5.8057
   34.830    5.6547
   34.860    5.6740
   34.890    5.4783
   34.920    5.4186
   34.950    5.2545
   34.980    5.2861
   35.010    5.3177
   35.040    5.2256
   35.070    5.2238
   35.100    5.3212
   35.130    5.2299
   35.160    5.2835
   35.190    5.3467
   35.220    5.5003
   35.250    5.3958
   35.280    5.4941
   35.310    5.5055
   35.340    5.3353
   35.370    5.2817
   35.400    5.2738
   35.430    5.3133
   35.460    5.1992
   35.490    5.2852
   35.520    5.3072
   35.550    5.2343
   35.580    5.1764
   35.610    5.3230
   35.640    5.2405
   35.670    5.2870
   35.700    5.4265
   35.730    5.3256
   35.760    5.4362
   35.790    5.2984
   35.820    5.3081
   35.850    5.3432
   35.880    5.4889
   35.910    5.4274
   35.940    5.4836
   35.970    5.4476
   36.000    5.4099
   36.030    5.2721
   36.060    5.3765
   36.090    5.3818
   36.120    5.2940
   36.150    5.3160
   36.180    5.3449
   36.210    5.4432
   36.240    5.2712
   36.270    5.1659
   36.300    5.3116
   36.330    5.1448
   36.360    5.2966
   36.390    5.2615
   36.420    5.3581
   36.450    5.2966
   36.480    5.2106
   36.510    5.2194
   36.540    5.2247
   36.570    5.3511
   36.600    5.3414
   36.630    5.4371
   36.660    5.3625
   36.690    5.3379
   36.720    5.2414
   36.750    5.1606
   36.780    5.0772
   36.810    5.1255
   36.840    5.0614
   36.870    5.1018
   36.900    5.1597
   36.930    5.1720
   36.960    5.2528
   36.990    5.4739
   37.020    5.5433
   37.050    5.6688
   37.080    5.6837
   37.110    5.6012
   37.140    5.4090
   37.170    5.3677
   37.200    5.1650
   37.230    5.0246
   37.260    5.0255
   37.290    5.0334
   37.320    5.1352
   37.350    5.0316
   37.380    5.0869
   37.410    5.0553
   37.440    5.1448
   37.470    5.2387
   37.500    5.2466
   37.530    5.1843
   37.560    5.1896
   37.590    5.2036
   37.620    5.1764
   37.650    5.1940
   37.680    5.1957
   37.710    5.3949
   37.740    5.4485
   37.770    5.3282
   37.800    5.2826
   37.830    5.2668
   37.860    5.3300
   37.890    5.3309
   37.920    5.3116
   37.950    5.3203
   37.980    5.3493
   38.010    5.2493
   38.040    5.1685
   38.070    5.1483
   38.100    5.1150
   38.130    5.0649
   38.160    5.0202
   38.190    5.0263
   38.220    5.0377
   38.250    5.0342
   38.280    5.1044
   38.310    5.0737
   38.340    5.2598
   38.370    5.1747
   38.400    5.2010
   38.430    5.1018
   38.460    5.0193
   38.490    5.0009
   38.520    4.9324
   38.550    4.9438
   38.580    4.9351
   38.610    4.9991
   38.640    4.9447
   38.670    4.9473
   38.700    4.9824
   38.730    4.9956
   38.760    5.0202
   38.790    4.9544
   38.820    4.9412
   38.850    4.9570
   38.880    4.9965
   38.910    4.8745
   38.940    4.8657
   38.970    5.0290
   39.000    4.8043
   39.030    4.9789
   39.060    4.8850
   39.090    5.1404
   39.120    4.9070
   39.150    5.0641
   39.180    5.0860
   39.210    5.2563
   39.240    5.1948
   39.270    5.2080
   39.300    5.0869
   39.330    5.1492
   39.360    5.0518
   39.390    5.0035
   39.420    4.9175
   39.450    4.8885
   39.480    5.0272
   39.510    4.9447
   39.540    4.9895
   39.570    4.9816
   39.600    5.0167
   39.630    5.0930
   39.660    5.2098
   39.690    4.9649
   39.720    5.1343
   39.750    5.0483
   39.780    5.1606
   39.810    4.9860
   39.840    5.1009
   39.870    5.0395
   39.900    5.0298
   39.930    4.8596
   39.960    4.9491
   39.990    4.9096