File: data/PXRD/PXRD_KE-218_Co-Ka1_capillary-1mm_5s-deg.xyd
    1.500    5.2862
    1.530    5.2970
    1.560    4.9010
    1.590    4.9117
    1.620    4.8903
    1.650    4.8582
    1.680    4.0877
    1.710    4.1734
    1.740    4.4088
    1.770    4.1306
    1.800    4.0128
    1.830    3.9486
    1.860    4.1627
    1.890    3.6490
    1.920    3.9914
    1.950    3.2638
    1.980    3.5634
    2.010    3.6276
    2.040    3.1889
    2.070    3.2959
    2.100    3.2852
    2.130    3.0926
    2.160    2.9856
    2.190    3.2103
    2.220    3.3815
    2.250    2.7715
    2.280    2.7822
    2.310    2.7608
    2.340    2.7501
    2.370    2.8571
    2.400    3.0070
    2.430    2.6003
    2.460    2.7929
    2.490    2.6110
    2.520    2.6859
    2.550    2.5575
    2.580    2.3435
    2.610    2.4826
    2.640    2.3863
    2.670    2.5040
    2.700    2.4719
    2.730    2.5575
    2.760    2.3649
    2.790    2.3863
    2.820    2.3756
    2.850    2.1295
    2.880    2.3114
    2.910    2.4505
    2.940    2.3970
    2.970    2.5040
    3.000    2.3007
    3.030    2.5254
    3.060    2.1509
    3.090    2.3221
    3.120    2.6645
    3.150    2.5147
    3.180    2.6217
    3.210    2.5682
    3.240    2.7073
    3.270    2.6110
    3.300    2.9642
    3.330    2.8464
    3.360    2.7929
    3.390    2.8036
    3.420    2.9106
    3.450    2.8036
    3.480    3.1782
    3.510    3.2638
    3.540    3.5634
    3.570    3.3601
    3.600    3.5527
    3.630    3.3387
    3.660    4.0128
    3.690    4.1306
    3.720    4.5479
    3.750    4.7298
    3.780    4.4837
    3.810    4.9866
    3.840    5.2220
    3.870    5.7999
    3.900    5.9176
    3.930    6.9877
    3.960    7.3515
    3.990    7.4692
    4.020    9.1600
    4.050    8.5500
    4.080    9.5131
    4.110   10.1552
    4.140   10.6474
    4.170   11.6319
    4.200   12.7341
    4.230   13.9647
    4.260   15.1632
    4.290   17.5602
    4.320   20.4922
    4.350   22.7715
    4.380   26.5062
    4.410   31.2039
    4.440   38.7266
    4.470   50.1338
    4.500   67.7261
    4.530   68.5607
    4.560   32.2846
    4.590    9.0530
    4.620    4.9973
    4.650    3.4243
    4.680    2.6217
    4.710    2.4184
    4.740    1.8406
    4.770    1.8727
    4.800    1.9155
    4.830    1.7978
    4.860    1.6265
    4.890    1.6586
    4.920    1.5195
    4.950    1.6158
    4.980    1.7442
    5.010    1.4767
    5.040    1.4553
    5.070    1.4446
    5.100    1.3590
    5.130    1.2627
    5.160    1.2520
    5.190    1.1343
    5.220    1.3590
    5.250    1.2413
    5.280    1.2734
    5.310    1.2306
    5.340    1.1129
    5.370    1.2841
    5.400    1.2092
    5.430    1.3162
    5.460    1.0380
    5.490    1.1022
    5.520    1.2413
    5.550    1.2627
    5.580    1.2092
    5.610    1.1450
    5.640    1.1557
    5.670    1.3269
    5.700    1.3483
    5.730    1.4339
    5.760    1.4232
    5.790    1.3269
    5.820    1.3697
    5.850    1.4660
    5.880    1.5730
    5.910    1.6051
    5.940    1.6051
    5.970    1.6051
    6.000    2.0011
    6.030    1.7442
    6.060    1.8941
    6.090    2.2365
    6.120    2.2258
    6.150    2.5896
    6.180    2.7287
    6.210    3.5741
    6.240    3.3922
    6.270    3.9807
    6.300    5.0936
    6.330    5.8534
    6.360    8.0792
    6.390   10.5083
    6.420    9.9946
    6.450    4.4195
    6.480    1.9155
    6.510    1.1878
    6.540    1.2734
    6.570    1.1236
    6.600    1.1022
    6.630    0.9417
    6.660    0.9631
    6.690    1.0380
    6.720    1.0915
    6.750    1.0701
    6.780    0.9310
    6.810    0.9738
    6.840    1.1022
    6.870    1.0701
    6.900    1.1022
    6.930    0.8989
    6.960    0.8989
    6.990    0.9310
    7.020    0.8989
    7.050    1.0059
    7.080    0.8668
    7.110    1.0273
    7.140    0.9310
    7.170    0.8668
    7.200    0.8882
    7.230    0.9310
    7.260    0.9310
    7.290    0.8347
    7.320    0.9738
    7.350    0.8561
    7.380    0.9310
    7.410    0.9096
    7.440    0.8026
    7.470    0.8133
    7.500    0.8454
    7.530    0.8240
    7.560    0.9845
    7.590    1.1129
    7.620    0.8882
    7.650    0.8454
    7.680    0.8989
    7.710    1.0915
    7.740    1.3590
    7.770    1.0380
    7.800    1.0915
    7.830    1.3911
    7.860    1.6479
    7.890    1.1557
    7.920    1.0380
    7.950    1.0166
    7.980    0.8668
    8.010    1.0059
    8.040    1.0166
    8.070    0.9952
    8.100    1.0594
    8.130    0.9417
    8.160    0.8989
    8.190    0.8882
    8.220    0.8668
    8.250    0.8561
    8.280    0.8882
    8.310    0.9096
    8.340    0.8454
    8.370    0.8989
    8.400    0.8668
    8.430    0.8240
    8.460    0.9203
    8.490    0.8133
    8.520    0.7384
    8.550    0.9631
    8.580    0.9631
    8.610    0.8240
    8.640    0.9203
    8.670    1.0487
    8.700    1.0701
    8.730    1.0701
    8.760    1.1129
    8.790    1.1557
    8.820    1.1236
    8.850    1.3697
    8.880    1.5409
    8.910    1.6051
    8.940    1.8299
    8.970    2.1295
    9.000    2.5040
    9.030    3.2103
    9.060    4.0449
    9.090    3.6490
    9.120    1.9369
    9.150    1.2092
    9.180    0.8775
    9.210    0.8561
    9.240    0.7919
    9.270    0.8989
    9.300    0.7812
    9.330    0.8882
    9.360    0.7705
    9.390    0.7598
    9.420    0.9096
    9.450    0.9203
    9.480    0.7598
    9.510    0.7491
    9.540    0.7491
    9.570    0.8026
    9.600    0.7384
    9.630    0.8775
    9.660    0.7170
    9.690    0.7491
    9.720    0.7919
    9.750    0.7705
    9.780    0.9310
    9.810    0.8454
    9.840    0.8347
    9.870    0.8882
    9.900    0.9631
    9.930    1.0487
    9.960    1.0059
    9.990    0.9096
   10.020    0.9845
   10.050    0.9524
   10.080    1.0487
   10.110    1.1343
   10.140    1.3269
   10.170    1.4339
   10.200    1.0166
   10.230    0.8775
   10.260    0.6956
   10.290    0.7063
   10.320    0.7705
   10.350    0.8133
   10.380    0.7063
   10.410    0.8561
   10.440    0.8133
   10.470    0.7919
   10.500    0.8668
   10.530    0.6849
   10.560    0.7384
   10.590    0.7812
   10.620    0.8989
   10.650    0.7384
   10.680    0.7170
   10.710    0.7598
   10.740    0.8775
   10.770    0.8561
   10.800    0.9096
   10.830    1.0915
   10.860    1.0059
   10.890    1.1985
   10.920    1.3162
   10.950    1.2520
   10.980    1.6479
   11.010    2.0118
   11.040    2.7929
   11.070    3.3601
   11.100    4.9438
   11.130    4.8047
   11.160    3.1996
   11.190    1.5837
   11.220    1.1022
   11.250    0.9310
   11.280    0.7384
   11.310    0.7277
   11.340    0.8026
   11.370    0.8026
   11.400    0.7919
   11.430    0.7705
   11.460    0.7812
   11.490    0.7705
   11.520    0.6207
   11.550    0.6849
   11.580    0.7063
   11.610    0.8026
   11.640    0.7170
   11.670    0.8133
   11.700    0.6314
   11.730    0.7598
   11.760    0.8454
   11.790    0.8561
   11.820    0.7812
   11.850    0.8775
   11.880    0.9845
   11.910    1.1771
   11.940    1.3269
   11.970    1.5730
   12.000    2.0867
   12.030    2.4612
   12.060    1.7442
   12.090    0.9524
   12.120    0.7277
   12.150    0.7491
   12.180    0.7384
   12.210    0.7170
   12.240    0.7063
   12.270    0.6956
   12.300    0.7170
   12.330    0.6742
   12.360    0.6849
   12.390    0.6207
   12.420    0.6849
   12.450    0.6528
   12.480    0.6956
   12.510    0.7170
   12.540    0.6207
   12.570    0.7063
   12.600    0.6956
   12.630    0.7063
   12.660    0.8882
   12.690    0.8668
   12.720    1.0594
   12.750    1.0594
   12.780    1.3911
   12.810    1.5302
   12.840    1.9155
   12.870    1.9690
   12.900    1.3697
   12.930    0.8454
   12.960    0.6421
   12.990    0.7170
   13.020    0.6849
   13.050    0.6421
   13.080    0.7170
   13.110    0.7277
   13.140    0.8240
   13.170    0.6421
   13.200    0.7277
   13.230    0.6421
   13.260    0.6421
   13.290    0.7812
   13.320    0.7812
   13.350    0.7384
   13.380    0.6849
   13.410    0.9310
   13.440    0.9096
   13.470    0.8240
   13.500    0.9631
   13.530    1.0915
   13.560    1.3911
   13.590    1.6265
   13.620    1.8727
   13.650    2.3649
   13.680    1.5088
   13.710    0.9310
   13.740    0.8240
   13.770    0.7170
   13.800    0.6956
   13.830    0.6635
   13.860    0.5671
   13.890    0.7705
   13.920    0.6528
   13.950    0.4922
   13.980    0.6100
   14.010    0.6421
   14.040    0.6849
   14.070    0.5671
   14.100    0.5993
   14.130    0.5029
   14.160    0.6956
   14.190    0.6421
   14.220    0.7170
   14.250    0.6528
   14.280    0.7812
   14.310    0.8347
   14.340    1.1022
   14.370    1.0808
   14.400    1.0166
   14.430    0.7705
   14.460    0.7277
   14.490    0.6314
   14.520    0.6207
   14.550    0.6635
   14.580    0.5029
   14.610    0.5671
   14.640    0.5457
   14.670    0.7491
   14.700    0.5136
   14.730    0.6207
   14.760    0.6207
   14.790    0.6528
   14.820    0.7170
   14.850    0.7598
   14.880    0.7277
   14.910    0.7384
   14.940    0.7491
   14.970    0.8668
   15.000    0.9524
   15.030    1.3269
   15.060    1.7764
   15.090    1.9262
   15.120    1.7549
   15.150    0.8989
   15.180    0.6742
   15.210    0.7384
   15.240    0.5457
   15.270    0.7277
   15.300    0.7705
   15.330    0.6742
   15.360    0.6849
   15.390    0.6528
   15.420    0.6421
   15.450    0.7170
   15.480    0.5564
   15.510    0.6207
   15.540    0.6314
   15.570    0.5671
   15.600    0.7384
   15.630    0.7812
   15.660    0.7384
   15.690    0.7384
   15.720    0.9952
   15.750    1.2841
   15.780    1.0915
   15.810    0.9524
   15.840    0.8454
   15.870    0.5350
   15.900    0.6742
   15.930    0.6742
   15.960    0.6207
   15.990    0.5350
   16.020    0.5350
   16.050    0.5350
   16.080    0.5778
   16.110    0.6421
   16.140    0.5993
   16.170    0.5243
   16.200    0.6635
   16.230    0.7598
   16.260    0.6528
   16.290    0.7063
   16.320    1.0594
   16.350    1.1878
   16.380    1.4018
   16.410    1.5195
   16.440    1.4767
   16.470    1.0701
   16.500    0.7598
   16.530    0.6956
   16.560    0.5778
   16.590    0.6849
   16.620    0.5564
   16.650    0.6635
   16.680    0.5029
   16.710    0.6100
   16.740    0.6314
   16.770    0.6421
   16.800    0.4387
   16.830    0.4494
   16.860    0.6314
   16.890    0.6207
   16.920    0.5993
   16.950    0.6528
   16.980    0.4922
   17.010    0.6100
   17.040    0.6742
   17.070    0.6207
   17.100    0.5457
   17.130    0.6528
   17.160    0.5243
   17.190    0.5671
   17.220    0.5778
   17.250    0.4280
   17.280    0.6421
   17.310    0.5671
   17.340    0.5564
   17.370    0.6742
   17.400    0.6100
   17.430    0.5564
   17.460    0.5778
   17.490    0.7277
   17.520    0.6742
   17.550    0.7919
   17.580    0.7812
   17.610    0.8561
   17.640    0.9738
   17.670    0.8347
   17.700    0.6849
   17.730    0.6849
   17.760    0.6849
   17.790    0.5671
   17.820    0.4815
   17.850    0.5993
   17.880    0.7063
   17.910    0.6849
   17.940    0.5243
   17.970    0.7384
   18.000    0.5243
   18.030    0.6100
   18.060    0.5350
   18.090    0.5029
   18.120    0.6207
   18.150    0.6207
   18.180    0.6635
   18.210    0.6421
   18.240    0.7598
   18.270    0.6207
   18.300    0.6314
   18.330    0.6314
   18.360    0.5671
   18.390    0.6314
   18.420    0.6314
   18.450    0.6100
   18.480    0.6742
   18.510    0.6635
   18.540    0.4387
   18.570    0.6635
   18.600    0.6742
   18.630    0.7491
   18.660    0.7384
   18.690    0.6849
   18.720    0.7598
   18.750    0.8775
   18.780    0.8454
   18.810    0.8347
   18.840    0.7277
   18.870    0.7063
   18.900    0.5671
   18.930    0.5778
   18.960    0.6314
   18.990    0.5886
   19.020    0.6207
   19.050    0.6314
   19.080    0.6421
   19.110    0.5993
   19.140    0.6742
   19.170    0.5457
   19.200    0.5029
   19.230    0.7063
   19.260    0.7063
   19.290    0.7384
   19.320    0.9096
   19.350    0.9417
   19.380    1.0166
   19.410    0.7384
   19.440    0.6528
   19.470    0.7170
   19.500    0.6100
   19.530    0.4387
   19.560    0.5778
   19.590    0.5886
   19.620    0.6421
   19.650    0.4601
   19.680    0.6956
   19.710    0.6421
   19.740    0.7812
   19.770    0.8240
   19.800    0.9310
   19.830    1.1664
   19.860    1.3804
   19.890    1.5409
   19.920    1.3483
   19.950    0.9096
   19.980    0.5993
   20.010    0.7170
   20.040    0.5671
   20.070    0.5778
   20.100    0.7063
   20.130    0.6528
   20.160    0.5886
   20.190    0.4815
   20.220    0.5457
   20.250    0.5993
   20.280    0.7277
   20.310    0.6849
   20.340    0.8133
   20.370    0.7919
   20.400    0.7705
   20.430    0.8882
   20.460    0.6207
   20.490    0.7063
   20.520    0.5778
   20.550    0.5778
   20.580    0.5671
   20.610    0.7063
   20.640    0.5886
   20.670    0.5671
   20.700    0.5778
   20.730    0.6207
   20.760    0.6635
   20.790    0.7705
   20.820    0.7277
   20.850    0.6207
   20.880    0.8668
   20.910    0.8668
   20.940    0.7063
   20.970    0.6635
   21.000    0.5029
   21.030    0.5886
   21.060    0.6742
   21.090    0.7919
   21.120    0.7598
   21.150    0.8026
   21.180    0.6100
   21.210    0.6528
   21.240    0.6528
   21.270    0.6956
   21.300    0.6956
   21.330    0.7491
   21.360    0.6742
   21.390    0.9524
   21.420    0.9310
   21.450    0.8989
   21.480    0.5564
   21.510    0.7491
   21.540    0.5778
   21.570    0.6314
   21.600    0.6207
   21.630    0.6207
   21.660    0.6314
   21.690    0.5564
   21.720    0.5886
   21.750    0.7491
   21.780    0.5886
   21.810    0.6421
   21.840    0.6100
   21.870    0.7063
   21.900    0.8133
   21.930    0.6207
   21.960    0.8026
   21.990    0.6528
   22.020    0.7384
   22.050    0.7384
   22.080    0.5136
   22.110    0.6528
   22.140    0.6528
   22.170    0.6528
   22.200    0.6742
   22.230    0.5350
   22.260    0.5457
   22.290    0.7063
   22.320    0.5564
   22.350    0.6207
   22.380    0.5671
   22.410    0.6100
   22.440    0.6849
   22.470    0.6207
   22.500    0.6207
   22.530    0.6849
   22.560    0.8026
   22.590    0.5886
   22.620    0.5350
   22.650    0.6421
   22.680    0.7384
   22.710    0.6528
   22.740    0.6849
   22.770    0.8026
   22.800    1.0059
   22.830    0.9310
   22.860    1.0701
   22.890    0.9738
   22.920    0.8989
   22.950    0.5778
   22.980    0.6100
   23.010    0.5350
   23.040    0.6528
   23.070    0.7063
   23.100    0.6314
   23.130    0.6635
   23.160    0.5886
   23.190    0.6421
   23.220    0.6528
   23.250    0.7170
   23.280    0.5564
   23.310    0.7170
   23.340    0.6635
   23.370    0.5993
   23.400    0.7491
   23.430    0.6956
   23.460    0.6528
   23.490    0.6100
   23.520    0.6528
   23.550    0.5886
   23.580    0.6207
   23.610    0.6849
   23.640    0.8240
   23.670    1.0273
   23.700    1.0380
   23.730    1.3269
   23.760    1.4767
   23.790    1.3483
   23.820    1.1557
   23.850    0.8561
   23.880    0.6956
   23.910    0.6849
   23.940    0.5993
   23.970    0.6314
   24.000    0.5350
   24.030    0.5457
   24.060    0.5457
   24.090    0.6528
   24.120    0.6100
   24.150    0.7384
   24.180    0.6742
   24.210    0.8026
   24.240    0.5993
   24.270    0.6742
   24.300    0.7598
   24.330    0.7277
   24.360    0.5243
   24.390    0.7063
   24.420    0.6742
   24.450    0.7063
   24.480    0.5886
   24.510    0.5457
   24.540    0.6956
   24.570    0.6849
   24.600    0.5993
   24.630    0.5993
   24.660    0.6635
   24.690    0.7919
   24.720    0.4601
   24.750    0.5350
   24.780    0.7384
   24.810    0.5564
   24.840    0.6207
   24.870    0.7277
   24.900    0.6742
   24.930    0.6100
   24.960    0.7277
   24.990    0.6956
   25.020    0.6100
   25.050    0.6635
   25.080    0.6207
   25.110    0.6528
   25.140    0.7170
   25.170    0.6421
   25.200    0.6956
   25.230    0.6849
   25.260    0.6742
   25.290    0.6956
   25.320    0.7063
   25.350    0.7384
   25.380    0.7812
   25.410    0.7812
   25.440    0.9845
   25.470    0.9524
   25.500    0.8454
   25.530    0.8347
   25.560    0.9096
   25.590    0.6421
   25.620    0.6207
   25.650    0.6421
   25.680    0.5671
   25.710    0.6528
   25.740    0.6207
   25.770    0.7170
   25.800    0.6742
   25.830    0.5778
   25.860    0.7170
   25.890    0.7919
   25.920    0.9096
   25.950    0.7170
   25.980    0.6956
   26.010    0.6635
   26.040    0.6314
   26.070    0.7598
   26.100    0.6956
   26.130    0.7277
   26.160    0.7170
   26.190    0.9310
   26.220    0.8882
   26.250    1.1022
   26.280    1.1450
   26.310    1.2627
   26.340    1.4660
   26.370    0.9845
   26.400    0.9203
   26.430    0.6635
   26.460    0.7491
   26.490    0.7491
   26.520    0.6742
   26.550    0.6635
   26.580    0.6528
   26.610    0.7384
   26.640    1.0915
   26.670    1.1878
   26.700    1.5088
   26.730    1.4339
   26.760    1.1771
   26.790    1.1343
   26.820    0.8882
   26.850    0.5993
   26.880    0.7277
   26.910    0.7170
   26.940    0.5993
   26.970    0.5886
   27.000    0.7277
   27.030    0.6207
   27.060    0.7598
   27.090    0.8454
   27.120    0.9738
   27.150    0.8561
   27.180    0.8347
   27.210    0.7277
   27.240    0.6207
   27.270    0.5886
   27.300    0.6849
   27.330    0.7277
   27.360    0.6421
   27.390    0.5993
   27.420    0.5671
   27.450    0.5671
   27.480    0.6100
   27.510    0.7063
   27.540    0.5243
   27.570    0.6956
   27.600    0.7384
   27.630    0.5886
   27.660    0.6742
   27.690    0.5564
   27.720    0.6849
   27.750    0.7812
   27.780    0.6528
   27.810    0.7598
   27.840    0.7705
   27.870    0.7705
   27.900    0.7170
   27.930    0.7491
   27.960    0.7705
   27.990    0.5564
   28.020    0.6421
   28.050    0.7277
   28.080    0.5993
   28.110    0.6849
   28.140    0.5993
   28.170    0.5564
   28.200    0.6100
   28.230    0.6314
   28.260    0.5886
   28.290    0.5886
   28.320    0.6742
   28.350    0.6956
   28.380    0.6314
   28.410    0.4601
   28.440    0.5350
   28.470    0.6100
   28.500    0.5350
   28.530    0.7170
   28.560    0.6207
   28.590    0.6207
   28.620    0.6849
   28.650    0.6528
   28.680    0.6421
   28.710    0.6314
   28.740    0.6314
   28.770    0.6635
   28.800    0.5136
   28.830    0.6635
   28.860    0.7384
   28.890    0.5457
   28.920    0.6314
   28.950    0.5778
   28.980    0.6314
   29.010    0.6635
   29.040    0.7170
   29.070    0.5564
   29.100    0.6742
   29.130    0.5564
   29.160    0.5457
   29.190    0.6635
   29.220    0.6635
   29.250    0.5886
   29.280    0.6849
   29.310    0.6314
   29.340    0.5886
   29.370    0.7705
   29.400    0.6635
   29.430    0.7812
   29.460    0.5993
   29.490    0.6314
   29.520    0.6314
   29.550    0.5778
   29.580    0.6100
   29.610    0.5671
   29.640    0.5671
   29.670    0.6314
   29.700    0.7705
   29.730    0.7598
   29.760    0.5350
   29.790    0.5778
   29.820    0.6314
   29.850    0.6742
   29.880    0.6207
   29.910    0.5778
   29.940    0.6635
   29.970    0.5993
   30.000    0.7491
   30.030    0.7170
   30.060    0.7063
   30.090    1.2199
   30.120    1.1022
   30.150    1.1022
   30.180    1.0380
   30.210    0.8668
   30.240    0.6635
   30.270    0.6742
   30.300    0.6314
   30.330    0.5671
   30.360    0.6421
   30.390    0.5564
   30.420    0.7063
   30.450    0.7277
   30.480    0.6742
   30.510    0.5350
   30.540    0.7170
   30.570    0.5778
   30.600    0.5886
   30.630    0.6100
   30.660    0.5457
   30.690    0.6528
   30.720    0.6421
   30.750    0.5993
   30.780    0.6956
   30.810    0.6956
   30.840    0.7598
   30.870    0.6635
   30.900    0.6314
   30.930    0.5886
   30.960    0.5457
   30.990    0.5671
   31.020    0.5564
   31.050    0.5886
   31.080    0.5564
   31.110    0.6100
   31.140    0.5136
   31.170    0.5993
   31.200    0.6635
   31.230    0.4708
   31.260    0.5243
   31.290    0.5886
   31.320    0.6100
   31.350    0.4815
   31.380    0.6528
   31.410    0.5136
   31.440    0.6314
   31.470    0.7170
   31.500    0.7491
   31.530    0.7491
   31.560    0.7812
   31.590    0.8347
   31.620    0.6207
   31.650    0.6100
   31.680    0.4922
   31.710    0.6742
   31.740    0.6742
   31.770    0.4066
   31.800    0.5029
   31.830    0.5136
   31.860    0.4922
   31.890    0.4708
   31.920    0.5671
   31.950    0.4708
   31.980    0.6635
   32.010    0.5457
   32.040    0.5564
   32.070    0.5350
   32.100    0.6421
   32.130    0.5029
   32.160    0.5671
   32.190    0.6849
   32.220    0.7170
   32.250    0.6528
   32.280    0.6742
   32.310    0.6635
   32.340    0.4173
   32.370    0.4708
   32.400    0.5457
   32.430    0.5350
   32.460    0.4815
   32.490    0.4815
   32.520    0.5993
   32.550    0.5993
   32.580    0.6421
   32.610    0.6528
   32.640    0.5564
   32.670    0.5993
   32.700    0.5350
   32.730    0.4708
   32.760    0.5457
   32.790    0.6421
   32.820    0.6207
   32.850    0.7384
   32.880    0.8347
   32.910    0.8240
   32.940    0.7277
   32.970    0.6849
   33.000    0.5457
   33.030    0.5993
   33.060    0.7598
   33.090    0.5029
   33.120    0.5671
   33.150    0.7170
   33.180    0.7277
   33.210    0.7063
   33.240    0.7277
   33.270    0.7491
   33.300    0.7063
   33.330    0.6849
   33.360    0.4387
   33.390    0.5136
   33.420    0.4387
   33.450    0.6314
   33.480    0.5243
   33.510    0.5778
   33.540    0.5350
   33.570    0.6100
   33.600    0.6100
   33.630    0.3745
   33.660    0.5886
   33.690    0.5350
   33.720    0.4601
   33.750    0.5671
   33.780    0.4280
   33.810    0.5886
   33.840    0.4280
   33.870    0.5350
   33.900    0.4494
   33.930    0.5136
   33.960    0.5671
   33.990    0.5564
   34.020    0.5136
   34.050    0.4173
   34.080    0.5029
   34.110    0.6207
   34.140    0.6956
   34.170    0.6314
   34.200    0.7277
   34.230    0.5671
   34.260    0.6421
   34.290    0.6207
   34.320    0.4387
   34.350    0.4922
   34.380    0.4815
   34.410    0.6207
   34.440    0.4387
   34.470    0.5993
   34.500    0.5564
   34.530    0.4066
   34.560    0.3745
   34.590    0.5778
   34.620    0.4494
   34.650    0.5564
   34.680    0.4280
   34.710    0.5457
   34.740    0.5886
   34.770    0.5457
   34.800    0.5778
   34.830    0.5886
   34.860    0.5671
   34.890    0.4922
   34.920    0.5243
   34.950    0.6100
   34.980    0.4708
   35.010    0.6100
   35.040    0.4922
   35.070    0.5029
   35.100    0.4173
   35.130    0.5778
   35.160    0.4922
   35.190    0.5029
   35.220    0.4601
   35.250    0.5350
   35.280    0.5029
   35.310    0.4494
   35.340    0.4708
   35.370    0.5243
   35.400    0.5886
   35.430    0.4708
   35.460    0.5564
   35.490    0.5778
   35.520    0.4601
   35.550    0.4387
   35.580    0.5564
   35.610    0.5136
   35.640    0.5243
   35.670    0.5350
   35.700    0.4601
   35.730    0.5886
   35.760    0.4494
   35.790    0.4922
   35.820    0.4280
   35.850    0.6528
   35.880    0.4387
   35.910    0.4815
   35.940    0.4494
   35.970    0.5886
   36.000    0.5136
   36.030    0.4815
   36.060    0.5029
   36.090    0.5993
   36.120    0.5243
   36.150    0.4922
   36.180    0.5136
   36.210    0.5136
   36.240    0.5029
   36.270    0.4708
   36.300    0.5136
   36.330    0.4708
   36.360    0.3745
   36.390    0.4815
   36.420    0.3745
   36.450    0.4173
   36.480    0.4815
   36.510    0.4280
   36.540    0.5564
   36.570    0.3852
   36.600    0.4708
   36.630    0.4387
   36.660    0.5671
   36.690    0.6207
   36.720    0.4708
   36.750    0.4601
   36.780    0.4066
   36.810    0.4173
   36.840    0.3852
   36.870    0.3959
   36.900    0.3210
   36.930    0.3531
   36.960    0.3852
   36.990    0.5671
   37.020    0.4708
   37.050    0.5243
   37.080    0.4815
   37.110    0.4601
   37.140    0.4173
   37.170    0.3638
   37.200    0.4708
   37.230    0.4173
   37.260    0.5564
   37.290    0.3852
   37.320    0.3745
   37.350    0.5243
   37.380    0.3103
   37.410    0.3959
   37.440    0.4494
   37.470    0.3531
   37.500    0.3638
   37.530    0.4494
   37.560    0.3210
   37.590    0.4066
   37.620    0.4708
   37.650    0.4387
   37.680    0.4815
   37.710    0.4815
   37.740    0.3959
   37.770    0.4601
   37.800    0.3638
   37.830    0.3745
   37.860    0.3317
   37.890    0.4601
   37.920    0.4387
   37.950    0.4173
   37.980    0.4280
   38.010    0.3959
   38.040    0.3424
   38.070    0.4387
   38.100    0.4173
   38.130    0.4601
   38.160    0.3103
   38.190    0.4173
   38.220    0.4173
   38.250    0.3317
   38.280    0.3424
   38.310    0.3317
   38.340    0.3531
   38.370    0.3210
   38.400    0.4708
   38.430    0.5457
   38.460    0.4173
   38.490    0.5029
   38.520    0.4387
   38.550    0.4494
   38.580    0.4280
   38.610    0.2996
   38.640    0.4387
   38.670    0.3959
   38.700    0.3210
   38.730    0.4173
   38.760    0.4066
   38.790    0.3638
   38.820    0.3745
   38.850    0.4066
   38.880    0.3959
   38.910    0.3210
   38.940    0.3317
   38.970    0.3852
   39.000    0.4173
   39.030    0.3745
   39.060    0.3210
   39.090    0.3103
   39.120    0.4173
   39.150    0.3103
   39.180    0.4280
   39.210    0.4494
   39.240    0.3103
   39.270    0.3852
   39.300    0.4387
   39.330    0.4066
   39.360    0.4815
   39.390    0.2996
   39.420    0.3959
   39.450    0.4173
   39.480    0.4708
   39.510    0.4601
   39.540    0.4494
   39.570    0.4066
   39.600    0.5029
   39.630    0.4708
   39.660    0.4173
   39.690    0.4280
   39.720    0.3852
   39.750    0.3424
   39.780    0.4387
   39.810    0.3317
   39.840    0.3424
   39.870    0.3638
   39.900    0.4387
   39.930    0.4173
   39.960    0.4066
   39.990    0.3531