File: data/PXRD/PXRD_KE-028_Cu-Ka1_capillary-1mm_5s-deg.xyd
    1.500    9.4892
    1.530    9.1943
    1.560    9.1838
    1.590    8.4150
    1.620    8.3834
    1.650    8.4044
    1.680    8.4887
    1.710    7.6356
    1.740    7.5303
    1.770    7.5619
    1.800    6.9510
    1.830    7.2670
    1.860    7.1090
    1.890    6.8562
    1.920    6.5613
    1.950    6.3086
    1.980    7.1301
    2.010    6.7299
    2.040    6.4876
    2.070    6.1927
    2.100    6.0664
    2.130    6.2665
    2.160    6.1295
    2.190    6.4876
    2.220    5.9505
    2.250    6.0769
    2.280    6.0137
    2.310    6.3296
    2.340    6.0453
    2.370    5.7399
    2.400    6.0558
    2.430    6.3402
    2.460    5.8978
    2.490    6.0874
    2.520    6.0453
    2.550    5.9716
    2.580    6.1822
    2.610    5.8347
    2.640    5.7820
    2.670    6.0242
    2.700    6.3823
    2.730    6.6983
    2.760    6.4244
    2.790    6.5192
    2.820    6.6983
    2.850    6.3612
    2.880    6.3296
    2.910    7.1511
    2.940    6.5298
    2.970    6.4455
    3.000    7.1617
    3.030    7.2459
    3.060    7.3196
    3.090    7.5303
    3.120    7.3302
    3.150    7.6461
    3.180    8.4255
    3.210    8.1727
    3.240    9.1101
    3.270    9.2048
    3.300    9.2575
    3.330    9.9421
    3.360   10.6266
    3.390   10.3423
    3.420   11.4165
    3.450   12.0379
    3.480   11.8378
    3.510   13.2807
    3.540   13.5861
    3.570   13.6177
    3.600   13.6914
    3.630   13.3228
    3.660   12.4171
    3.690   11.5429
    3.720   10.7004
    3.750   10.0263
    3.780    9.5419
    3.810    9.3839
    3.840    8.7730
    3.870    8.5308
    3.900    8.9942
    3.930    8.2149
    3.960    7.8568
    3.990    7.6777
    4.020    7.3618
    4.050    7.6145
    4.080    7.2038
    4.110    7.2670
    4.140    7.0669
    4.170    7.0985
    4.200    6.7299
    4.230    6.7615
    4.260    6.8246
    4.290    6.7193
    4.320    6.6456
    4.350    6.8773
    4.380    6.4560
    4.410    6.6772
    4.440    6.4982
    4.470    6.5929
    4.500    6.6351
    4.530    6.2454
    4.560    5.7820
    4.590    6.5929
    4.620    6.3928
    4.650    6.4350
    4.680    6.4560
    4.710    6.6561
    4.740    6.2770
    4.770    6.8562
    4.800    6.4982
    4.830    6.4982
    4.860    6.2349
    4.890    6.1611
    4.920    6.4139
    4.950    6.7615
    4.980    6.4666
    5.010    6.6877
    5.040    6.8562
    5.070    6.4244
    5.100    6.2243
    5.130    6.7509
    5.160    6.0558
    5.190    6.2559
    5.220    6.2349
    5.250    6.2665
    5.280    6.2033
    5.310    6.5192
    5.340    6.2770
    5.370    6.5298
    5.400    6.9089
    5.430    6.0137
    5.460    6.4771
    5.490    6.2981
    5.520    6.1401
    5.550    6.1717
    5.580    6.3402
    5.610    6.3718
    5.640    6.2243
    5.670    6.0979
    5.700    5.6451
    5.730    5.7820
    5.760    5.9294
    5.790    5.7609
    5.820    5.5819
    5.850    5.7609
    5.880    5.6240
    5.910    5.3923
    5.940    5.3607
    5.970    5.4871
    6.000    5.6767
    6.030    5.1290
    6.060    5.2765
    6.090    5.2659
    6.120    5.4976
    6.150    5.1711
    6.180    4.8763
    6.210    4.9921
    6.240    5.1501
    6.270    5.0658
    6.300    5.0658
    6.330    5.0869
    6.360    4.8973
    6.390    4.9500
    6.420    5.0553
    6.450    4.7815
    6.480    5.1711
    6.510    5.0658
    6.540    5.2554
    6.570    4.9921
    6.600    4.9816
    6.630    5.2238
    6.660    5.0764
    6.690    5.0237
    6.720    4.9710
    6.750    5.4239
    6.780    5.1080
    6.810    5.5082
    6.840    5.3291
    6.870    5.6135
    6.900    5.6345
    6.930    5.6029
    6.960    5.6977
    6.990    5.6661
    7.020    6.0874
    7.050    6.0242
    7.080    6.3086
    7.110    6.0874
    7.140    6.0137
    7.170    5.9716
    7.200    6.2243
    7.230    5.5924
    7.260    5.8768
    7.290    5.6135
    7.320    5.6240
    7.350    5.6029
    7.380    5.2027
    7.410    5.1922
    7.440    4.9921
    7.470    4.9921
    7.500    4.6445
    7.530    4.4444
    7.560    4.6551
    7.590    4.9078
    7.620    4.5708
    7.650    4.1917
    7.680    4.4234
    7.710    4.2338
    7.740    4.3075
    7.770    4.1180
    7.800    4.4234
    7.830    4.1390
    7.860    4.0126
    7.890    3.9284
    7.920    4.0653
    7.950    3.8547
    7.980    3.8652
    8.010    4.3497
    8.040    4.1706
    8.070    3.9705
    8.100    4.1601
    8.130    3.8863
    8.160    4.1180
    8.190    3.7388
    8.220    3.6651
    8.250    3.9389
    8.280    3.8547
    8.310    3.6440
    8.340    3.6651
    8.370    3.4860
    8.400    4.0864
    8.430    3.9494
    8.460    3.8441
    8.490    3.7072
    8.520    3.7283
    8.550    3.7388
    8.580    3.4650
    8.610    3.9389
    8.640    3.7388
    8.670    4.0021
    8.700    3.6230
    8.730    3.6862
    8.760    3.4755
    8.790    4.0021
    8.820    3.8547
    8.850    3.4860
    8.880    3.6756
    8.910    3.5808
    8.940    3.4439
    8.970    3.6967
    9.000    3.5387
    9.030    3.5703
    9.060    3.7704
    9.090    3.4334
    9.120    3.6230
    9.150    3.3597
    9.180    3.4018
    9.210    3.8863
    9.240    3.3491
    9.270    3.1912
    9.300    3.7493
    9.330    3.5598
    9.360    3.4334
    9.390    3.5387
    9.420    3.8020
    9.450    3.4439
    9.480    3.5492
    9.510    3.7072
    9.540    3.4544
    9.570    3.2122
    9.600    3.4544
    9.630    3.7177
    9.660    3.6756
    9.690    3.4439
    9.720    3.5492
    9.750    3.7704
    9.780    3.7809
    9.810    3.6230
    9.840    3.5071
    9.870    3.7493
    9.900    3.5703
    9.930    3.4544
    9.960    3.4229
    9.990    3.5387
   10.020    3.4650
   10.050    3.5703
   10.080    3.5492
   10.110    3.8125
   10.140    3.2438
   10.170    3.4966
   10.200    3.4334
   10.230    3.6019
   10.260    3.5176
   10.290    3.6230
   10.320    3.7809
   10.350    3.7177
   10.380    3.6440
   10.410    3.6862
   10.440    3.3807
   10.470    3.6862
   10.500    3.2438
   10.530    3.5914
   10.560    3.8336
   10.590    3.6651
   10.620    3.7283
   10.650    3.5071
   10.680    3.7809
   10.710    3.5492
   10.740    3.6651
   10.770    3.4650
   10.800    3.6440
   10.830    3.7388
   10.860    3.4229
   10.890    3.5914
   10.920    4.0021
   10.950    3.5492
   10.980    3.9600
   11.010    4.0337
   11.040    3.4123
   11.070    3.7072
   11.100    3.6230
   11.130    3.5282
   11.160    3.5914
   11.190    3.6124
   11.220    3.7283
   11.250    4.1811
   11.280    3.6862
   11.310    3.6019
   11.340    3.5071
   11.370    3.6440
   11.400    3.9389
   11.430    3.7704
   11.460    3.7915
   11.490    3.4439
   11.520    3.6651
   11.550    3.6756
   11.580    3.8231
   11.610    3.7072
   11.640    3.7283
   11.670    3.8757
   11.700    3.6651
   11.730    3.5808
   11.760    3.7704
   11.790    3.7283
   11.820    3.8652
   11.850    3.5492
   11.880    3.6019
   11.910    3.8441
   11.940    3.3386
   11.970    3.5703
   12.000    3.8441
   12.030    3.9179
   12.060    3.6862
   12.090    3.6230
   12.120    3.6124
   12.150    3.4544
   12.180    3.3491
   12.210    3.6019
   12.240    3.6440
   12.270    3.7388
   12.300    3.3281
   12.330    3.5387
   12.360    3.6230
   12.390    3.5703
   12.420    3.4123
   12.450    3.5598
   12.480    3.9179
   12.510    3.5914
   12.540    3.6651
   12.570    3.3597
   12.600    3.7388
   12.630    3.6019
   12.660    3.5387
   12.690    3.3491
   12.720    3.5598
   12.750    3.2965
   12.780    3.6019
   12.810    3.8231
   12.840    3.2649
   12.870    3.4439
   12.900    3.3807
   12.930    3.5176
   12.960    3.2543
   12.990    3.1596
   13.020    3.2543
   13.050    3.5282
   13.080    3.3702
   13.110    3.4229
   13.140    3.7177
   13.170    3.4544
   13.200    3.5492
   13.230    3.5808
   13.260    3.3386
   13.290    3.4439
   13.320    3.5808
   13.350    3.6756
   13.380    3.6124
   13.410    3.3807
   13.440    3.4650
   13.470    3.4439
   13.500    3.3807
   13.530    3.3597
   13.560    3.5598
   13.590    3.3702
   13.620    3.4439
   13.650    3.5176
   13.680    3.4439
   13.710    3.3702
   13.740    3.3386
   13.770    3.2122
   13.800    3.4860
   13.830    3.3702
   13.860    3.4860
   13.890    3.6440
   13.920    3.5176
   13.950    3.3281
   13.980    3.7072
   14.010    3.6335
   14.040    3.6756
   14.070    3.2543
   14.100    3.5914
   14.130    3.7072
   14.160    3.3386
   14.190    3.4544
   14.220    3.6862
   14.250    3.6756
   14.280    3.5914
   14.310    3.6440
   14.340    3.6756
   14.370    3.3807
   14.400    3.4018
   14.430    3.6967
   14.460    3.3070
   14.490    3.7704
   14.520    3.4123
   14.550    3.7493
   14.580    3.6967
   14.610    3.6756
   14.640    3.7283
   14.670    3.5808
   14.700    3.6124
   14.730    3.4334
   14.760    3.5914
   14.790    3.3281
   14.820    3.4966
   14.850    3.5492
   14.880    3.7388
   14.910    3.5914
   14.940    3.7599
   14.970    3.6124
   15.000    3.3175
   15.030    3.6440
   15.060    3.5071
   15.090    3.4229
   15.120    3.9389
   15.150    3.7493
   15.180    3.5387
   15.210    3.5914
   15.240    3.4018
   15.270    3.6440
   15.300    3.5914
   15.330    3.5598
   15.360    3.3597
   15.390    3.9389
   15.420    3.5914
   15.450    3.3913
   15.480    3.3702
   15.510    3.6335
   15.540    3.4544
   15.570    3.5598
   15.600    3.6230
   15.630    3.4966
   15.660    3.6230
   15.690    3.5914
   15.720    3.5914
   15.750    3.5387
   15.780    3.5808
   15.810    3.7072
   15.840    3.3913
   15.870    3.7809
   15.900    3.4229
   15.930    3.6230
   15.960    3.7072
   15.990    3.6440
   16.020    3.6440
   16.050    3.5387
   16.080    3.6124
   16.110    3.7177
   16.140    3.7599
   16.170    3.4755
   16.200    3.7704
   16.230    3.7599
   16.260    3.7809
   16.290    3.7177
   16.320    3.9494
   16.350    3.6967
   16.380    3.7493
   16.410    3.6019
   16.440    3.8336
   16.470    3.7072
   16.500    3.4544
   16.530    3.7915
   16.560    3.7177
   16.590    3.4755
   16.620    3.6862
   16.650    3.7809
   16.680    3.6335
   16.710    3.4650
   16.740    3.4860
   16.770    3.7493
   16.800    3.9600
   16.830    4.0548
   16.860    3.5071
   16.890    3.8441
   16.920    3.7915
   16.950    3.5598
   16.980    3.7388
   17.010    3.7704
   17.040    3.8441
   17.070    3.5808
   17.100    3.5914
   17.130    3.5598
   17.160    3.5914
   17.190    3.5598
   17.220    3.7704
   17.250    3.7177
   17.280    3.7809
   17.310    3.6651
   17.340    3.7072
   17.370    3.8125
   17.400    3.6862
   17.430    4.0126
   17.460    3.5914
   17.490    3.7072
   17.520    3.8863
   17.550    3.8863
   17.580    3.8020
   17.610    3.8547
   17.640    4.1601
   17.670    4.1180
   17.700    4.0337
   17.730    4.0442
   17.760    3.9810
   17.790    3.8231
   17.820    3.8547
   17.850    4.0758
   17.880    4.2127
   17.910    4.2233
   17.940    4.0232
   17.970    4.2443
   18.000    4.1601
   18.030    3.9916
   18.060    4.1285
   18.090    4.2865
   18.120    4.0442
   18.150    4.6551
   18.180    4.0864
   18.210    4.1390
   18.240    4.5603
   18.270    4.3075
   18.300    4.0864
   18.330    4.0653
   18.360    4.0758
   18.390    4.0442
   18.420    4.2233
   18.450    4.0232
   18.480    4.1390
   18.510    4.2338
   18.540    4.1917
   18.570    4.1706
   18.600    4.3707
   18.630    4.4760
   18.660    4.1074
   18.690    4.1811
   18.720    4.0969
   18.750    4.7709
   18.780    4.2127
   18.810    4.1706
   18.840    4.3813
   18.870    4.5392
   18.900    4.3286
   18.930    4.3391
   18.960    4.4550
   18.990    4.5603
   19.020    4.0548
   19.050    4.3813
   19.080    4.2970
   19.110    4.3813
   19.140    4.2127
   19.170    3.9389
   19.200    4.2022
   19.230    4.1706
   19.260    4.3286
   19.290    4.1706
   19.320    4.1180
   19.350    4.4760
   19.380    4.1811
   19.410    4.1706
   19.440    4.2022
   19.470    4.2654
   19.500    3.9705
   19.530    3.9494
   19.560    4.2022
   19.590    4.0653
   19.620    4.0864
   19.650    4.0232
   19.680    3.7915
   19.710    3.8652
   19.740    4.1180
   19.770    3.9389
   19.800    3.9284
   19.830    4.0548
   19.860    3.7283
   19.890    3.9494
   19.920    4.2338
   19.950    4.1285
   19.980    3.9073
   20.010    3.9494
   20.040    4.0337
   20.070    4.1811
   20.100    3.6967
   20.130    4.0442
   20.160    4.1180
   20.190    4.0126
   20.220    4.1285
   20.250    3.9284
   20.280    4.1496
   20.310    3.8968
   20.340    3.9810
   20.370    4.0337
   20.400    3.9284
   20.430    3.8125
   20.460    3.8547
   20.490    3.8336
   20.520    4.2338
   20.550    3.9600
   20.580    4.0548
   20.610    4.0442
   20.640    4.0337
   20.670    4.1496
   20.700    4.1811
   20.730    4.2549
   20.760    3.8020
   20.790    4.1074
   20.820    3.7177
   20.850    3.9284
   20.880    3.9073
   20.910    3.8336
   20.940    4.1601
   20.970    4.1601
   21.000    4.0232
   21.030    4.2549
   21.060    4.0969
   21.090    4.0758
   21.120    4.0232
   21.150    4.1706
   21.180    3.6862
   21.210    3.9073
   21.240    3.8231
   21.270    4.1180
   21.300    3.8441
   21.330    3.9810
   21.360    4.3707
   21.390    4.0864
   21.420    4.0864
   21.450    4.2970
   21.480    3.7493
   21.510    3.9494
   21.540    4.1706
   21.570    4.3813
   21.600    3.9494
   21.630    4.0653
   21.660    4.2654
   21.690    4.1074
   21.720    4.0442
   21.750    3.9284
   21.780    3.9179
   21.810    3.9810
   21.840    4.1074
   21.870    3.9284
   21.900    4.0548
   21.930    4.0126
   21.960    3.8336
   21.990    4.2654
   22.020    4.0548
   22.050    4.1811
   22.080    4.2338
   22.110    3.9600
   22.140    3.9494
   22.170    4.2759
   22.200    4.2443
   22.230    4.1917
   22.260    3.8336
   22.290    4.1074
   22.320    3.8231
   22.350    4.0126
   22.380    4.1706
   22.410    4.1601
   22.440    3.8757
   22.470    3.8441
   22.500    4.1074
   22.530    4.2022
   22.560    4.0337
   22.590    4.0021
   22.620    3.8863
   22.650    3.9073
   22.680    3.8652
   22.710    4.1811
   22.740    3.9600
   22.770    4.1285
   22.800    4.0969
   22.830    3.9810
   22.860    4.2127
   22.890    4.0758
   22.920    4.1180
   22.950    4.0653
   22.980    3.8757
   23.010    3.9810
   23.040    4.0232
   23.070    4.1390
   23.100    4.1285
   23.130    4.0653
   23.160    4.0864
   23.190    4.1285
   23.220    3.7072
   23.250    3.9073
   23.280    4.1180
   23.310    4.0442
   23.340    3.8757
   23.370    3.8125
   23.400    3.7388
   23.430    4.2127
   23.460    3.9494
   23.490    3.7915
   23.520    4.2338
   23.550    4.0969
   23.580    4.1811
   23.610    4.2970
   23.640    4.1496
   23.670    3.9600
   23.700    3.9389
   23.730    3.6756
   23.760    3.9916
   23.790    4.0021
   23.820    4.0126
   23.850    3.9600
   23.880    3.8441
   23.910    4.1180
   23.940    3.8968
   23.970    3.8231
   24.000    3.6546
   24.030    4.0758
   24.060    3.6756
   24.090    4.0969
   24.120    3.8125
   24.150    3.6967
   24.180    4.1285
   24.210    4.0021
   24.240    3.6756
   24.270    3.9389
   24.300    3.8968
   24.330    4.1811
   24.360    3.7388
   24.390    3.9916
   24.420    3.8125
   24.450    4.0548
   24.480    3.8441
   24.510    3.9600
   24.540    3.7388
   24.570    3.5703
   24.600    3.8757
   24.630    3.8968
   24.660    3.9073
   24.690    3.9600
   24.720    3.9073
   24.750    3.8863
   24.780    3.8231
   24.810    3.7283
   24.840    3.7704
   24.870    3.5071
   24.900    3.8863
   24.930    3.6862
   24.960    3.7072
   24.990    3.7809
   25.020    3.6335
   25.050    3.8020
   25.080    3.5598
   25.110    3.9073
   25.140    3.7915
   25.170    3.7704
   25.200    3.8757
   25.230    3.9284
   25.260    3.3597
   25.290    3.7177
   25.320    3.8020
   25.350    3.9179
   25.380    3.4966
   25.410    3.8125
   25.440    3.6019
   25.470    3.5492
   25.500    3.6862
   25.530    3.6440
   25.560    3.7283
   25.590    3.4439
   25.620    3.5176
   25.650    3.6335
   25.680    3.8020
   25.710    3.7177
   25.740    3.4860
   25.770    3.4018
   25.800    3.3597
   25.830    3.3281
   25.860    3.5387
   25.890    3.5282
   25.920    3.5598
   25.950    3.4018
   25.980    3.7388
   26.010    3.7704
   26.040    3.3913
   26.070    3.5808
   26.100    3.2965
   26.130    3.3175
   26.160    3.1912
   26.190    3.6756
   26.220    3.4966
   26.250    3.5282
   26.280    3.3807
   26.310    3.2543
   26.340    3.3070
   26.370    3.4650
   26.400    3.2649
   26.430    3.6440
   26.460    3.7809
   26.490    3.4123
   26.520    3.3386
   26.550    3.3913
   26.580    3.4123
   26.610    3.4334
   26.640    3.5176
   26.670    3.4860
   26.700    3.2438
   26.730    3.4018
   26.760    3.2017
   26.790    3.2438
   26.820    3.1912
   26.850    3.2227
   26.880    2.9173
   26.910    3.3807
   26.940    3.1596
   26.970    3.2859
   27.000    2.9595
   27.030    3.2333
   27.060    3.1912
   27.090    3.0332
   27.120    3.0858
   27.150    3.2333
   27.180    2.8647
   27.210    3.1490
   27.240    3.4544
   27.270    3.3597
   27.300    3.2227
   27.330    3.0542
   27.360    3.1385
   27.390    3.1490
   27.420    3.3702
   27.450    3.1596
   27.480    3.0964
   27.510    3.2859
   27.540    3.1174
   27.570    3.0753
   27.600    3.0226
   27.630    3.2438
   27.660    2.9489
   27.690    2.9068
   27.720    3.1912
   27.750    3.0753
   27.780    3.0437
   27.810    3.0437
   27.840    2.9595
   27.870    3.1174
   27.900    2.9595
   27.930    3.2965
   27.960    3.2438
   27.990    2.8331
   28.020    3.2017
   28.050    3.0226
   28.080    3.0332
   28.110    2.8436
   28.140    3.0121
   28.170    3.2017
   28.200    2.8541
   28.230    3.0964
   28.260    2.8857
   28.290    3.0332
   28.320    3.4018
   28.350    2.9173
   28.380    3.1806
   28.410    2.7804
   28.440    3.0437
   28.470    2.9910
   28.500    2.7278
   28.530    2.8436
   28.560    2.8331
   28.590    2.8225
   28.620    3.0858
   28.650    3.0858
   28.680    2.8963
   28.710    3.1280
   28.740    2.9279
   28.770    2.9910
   28.800    2.9068
   28.830    2.8541
   28.860    2.7172
   28.890    3.0332
   28.920    2.9279
   28.950    3.0016
   28.980    2.6646
   29.010    2.9700
   29.040    2.8857
   29.070    2.8541
   29.100    2.8647
   29.130    3.0858
   29.160    2.8015
   29.190    2.5698
   29.220    3.0648
   29.250    2.7593
   29.280    2.5487
   29.310    2.9068
   29.340    2.8647
   29.370    2.9595
   29.400    3.0332
   29.430    2.8857
   29.460    2.9068
   29.490    2.6751
   29.520    2.8963
   29.550    2.7699
   29.580    3.0121
   29.610    2.8857
   29.640    2.9068
   29.670    2.8436
   29.700    2.6751
   29.730    3.1385
   29.760    2.9279
   29.790    2.5276
   29.820    2.6856
   29.850    2.7488
   29.880    2.6962
   29.910    2.7172
   29.940    2.5382
   29.970    2.6014
   30.000    2.8647
   30.030    2.5803
   30.060    2.7172
   30.090    2.8752
   30.120    2.8225
   30.150    2.8225
   30.180    2.8120
   30.210    2.6751
   30.240    2.6014
   30.270    2.6751
   30.300    2.8331
   30.330    2.9068
   30.360    2.9173
   30.390    2.4223
   30.420    2.4750
   30.450    2.7804
   30.480    2.5698
   30.510    2.4645
   30.540    2.6540
   30.570    2.7488
   30.600    2.7593
   30.630    2.4223
   30.660    2.7383
   30.690    2.6646
   30.720    2.8436
   30.750    2.5066
   30.780    2.7699
   30.810    2.5487
   30.840    2.8225
   30.870    2.5066
   30.900    2.6856
   30.930    2.6330
   30.960    2.5803
   30.990    2.4118
   31.020    2.8436
   31.050    2.7383
   31.080    2.4329
   31.110    2.5171
   31.140    2.8015
   31.170    2.3697
   31.200    2.3170
   31.230    2.4855
   31.260    2.2749
   31.290    2.8541
   31.320    2.6119
   31.350    2.4750
   31.380    2.5803
   31.410    2.3170
   31.440    2.5592
   31.470    2.6540
   31.500    2.3065
   31.530    2.2643
   31.560    2.3591
   31.590    2.4750
   31.620    2.4013
   31.650    2.4539
   31.680    2.4118
   31.710    2.4750
   31.740    2.5066
   31.770    2.5171
   31.800    2.4750
   31.830    2.2854
   31.860    2.1801
   31.890    2.4961
   31.920    2.3697
   31.950    2.4013
   31.980    2.4118
   32.010    2.4223
   32.040    2.4539
   32.070    2.2959
   32.100    2.3802
   32.130    2.1380
   32.160    2.2328
   32.190    2.4013
   32.220    2.3065
   32.250    2.3591
   32.280    2.3486
   32.310    2.3697
   32.340    2.3065
   32.370    2.1485
   32.400    2.3802
   32.430    2.2328
   32.460    2.1590
   32.490    2.3065
   32.520    2.3170
   32.550    2.3591
   32.580    2.2328
   32.610    2.3275
   32.640    2.1274
   32.670    2.1485
   32.700    2.1801
   32.730    2.4118
   32.760    2.2012
   32.790    1.9589
   32.820    2.1696
   32.850    2.1169
   32.880    2.2012
   32.910    2.0537
   32.940    2.4329
   32.970    1.9800
   33.000    2.0326
   33.030    2.0748
   33.060    2.1696
   33.090    2.1274
   33.120    2.0642
   33.150    2.0326
   33.180    1.9063
   33.210    2.2854
   33.240    2.1906
   33.270    2.2328
   33.300    2.1696
   33.330    2.2117
   33.360    2.1064
   33.390    2.2222
   33.420    2.3170
   33.450    2.0642
   33.480    2.2328
   33.510    2.4013
   33.540    2.2222
   33.570    2.2222
   33.600    2.1696
   33.630    2.1064
   33.660    2.0748
   33.690    2.0326
   33.720    2.0537
   33.750    2.1485
   33.780    2.1485
   33.810    2.2749
   33.840    2.0642
   33.870    1.8747
   33.900    1.9589
   33.930    1.9695
   33.960    2.0011
   33.990    1.9589
   34.020    2.1380
   34.050    2.0116
   34.080    1.7588
   34.110    1.9695
   34.140    2.1696
   34.170    2.0432
   34.200    1.8220
   34.230    2.0958
   34.260    2.0537
   34.290    1.8009
   34.320    1.7799
   34.350    1.8747
   34.380    1.8325
   34.410    2.0221
   34.440    1.8536
   34.470    1.8009
   34.500    2.0221
   34.530    2.0642
   34.560    2.0011
   34.590    1.8431
   34.620    1.9063
   34.650    1.8220
   34.680    1.8852
   34.710    1.8009
   34.740    1.9589
   34.770    1.7904
   34.800    1.8431
   34.830    1.8009
   34.860    1.8115
   34.890    1.7799
   34.920    1.8220
   34.950    1.8431
   34.980    1.8957
   35.010    1.8220
   35.040    1.7904
   35.070    1.8220
   35.100    1.7167
   35.130    2.1380
   35.160    1.6851
   35.190    1.8009
   35.220    1.8325
   35.250    1.8325
   35.280    1.8536
   35.310    1.7799
   35.340    1.7167
   35.370    1.7799
   35.400    1.5798
   35.430    1.9695
   35.460    1.7272
   35.490    1.7483
   35.520    1.8009
   35.550    1.7694
   35.580    1.6430
   35.610    1.8431
   35.640    1.8009
   35.670    1.8009
   35.700    1.7167
   35.730    1.7167
   35.760    1.8641
   35.790    1.6430
   35.820    1.8536
   35.850    1.6640
   35.880    1.7062
   35.910    1.7483
   35.940    1.6535
   35.970    1.7588
   36.000    1.7799
   36.030    1.6640
   36.060    1.7904
   36.090    1.5377
   36.120    1.8009
   36.150    1.5587
   36.180    1.4639
   36.210    1.5166
   36.240    1.8009
   36.270    1.5271
   36.300    1.9800
   36.330    1.4639
   36.360    1.7483
   36.390    1.7904
   36.420    1.5166
   36.450    1.6640
   36.480    1.7062
   36.510    1.6956
   36.540    1.5587
   36.570    1.5692
   36.600    1.5903
   36.630    1.5271
   36.660    1.8009
   36.690    1.7062
   36.720    1.4745
   36.750    1.5166
   36.780    1.6746
   36.810    1.6430
   36.840    1.8220
   36.870    1.5903
   36.900    1.6851
   36.930    1.7588
   36.960    1.6008
   36.990    1.6008
   37.020    1.6430
   37.050    1.6640
   37.080    1.8431
   37.110    1.5482
   37.140    1.6324
   37.170    1.7588
   37.200    1.7378
   37.230    1.4955
   37.260    1.5482
   37.290    1.3375
   37.320    1.4323
   37.350    1.6640
   37.380    1.4955
   37.410    1.3902
   37.440    1.5271
   37.470    1.7062
   37.500    1.4955
   37.530    1.7272
   37.560    1.5587
   37.590    1.3691
   37.620    1.4113
   37.650    1.4534
   37.680    1.4745
   37.710    1.5377
   37.740    1.4429
   37.770    1.4955
   37.800    1.6851
   37.830    1.7272
   37.860    1.4955
   37.890    1.6008
   37.920    1.5903
   37.950    1.4323
   37.980    1.7062
   38.010    1.4639
   38.040    1.4850
   38.070    1.6114
   38.100    1.3375
   38.130    1.4534
   38.160    1.3165
   38.190    1.4955
   38.220    1.3060
   38.250    1.4113
   38.280    1.4639
   38.310    1.4534
   38.340    1.5061
   38.370    1.4639
   38.400    1.4323
   38.430    1.5377
   38.460    1.4955
   38.490    1.6746
   38.520    1.4534
   38.550    1.6114
   38.580    1.4007
   38.610    1.2006
   38.640    1.7378
   38.670    1.4534
   38.700    1.4113
   38.730    1.3902
   38.760    1.4534
   38.790    1.5271
   38.820    1.4534
   38.850    1.5587
   38.880    1.2217
   38.910    1.4955
   38.940    1.4850
   38.970    1.4113
   39.000    1.4534
   39.030    1.4850
   39.060    1.3902
   39.090    1.4429
   39.120    1.3797
   39.150    1.3902
   39.180    1.4113
   39.210    1.2638
   39.240    1.4113
   39.270    1.3165
   39.300    1.6008
   39.330    1.4323
   39.360    1.3797
   39.390    1.3586
   39.420    1.4113
   39.450    1.4007
   39.480    1.3060
   39.510    1.4850
   39.540    1.4007
   39.570    1.3691
   39.600    1.4745
   39.630    1.4429
   39.660    1.3060
   39.690    1.4007
   39.720    1.4323
   39.750    1.2638
   39.780    1.4218
   39.810    1.3270
   39.840    1.3060
   39.870    1.3691
   39.900    1.3797
   39.930    1.3481
   39.960    1.4850
   39.990    1.2849