File: data/PXRD/PXRD_Blank_Co-Ka1_film-8mm_3s-deg.xyd
    1.500    4.8511
    1.545    4.8867
    1.590    4.8689
    1.635    4.2625
    1.680    3.9950
    1.725    4.1912
    1.770    4.0485
    1.815    4.1377
    1.860    4.0663
    1.905    3.6383
    1.950    3.5313
    1.995    3.5848
    2.040    3.9237
    2.085    3.5670
    2.130    3.5848
    2.175    3.5491
    2.220    3.5670
    2.265    3.1211
    2.310    3.2103
    2.355    3.1033
    2.400    3.3351
    2.445    2.8892
    2.490    3.0498
    2.535    3.1746
    2.580    2.9963
    2.625    3.4243
    2.670    3.1746
    2.715    3.0854
    2.760    3.1568
    2.805    3.3351
    2.850    3.1568
    2.895    3.0854
    2.940    3.2103
    2.985    3.1746
    3.030    3.2459
    3.075    2.8357
    3.120    2.8001
    3.165    3.1568
    3.210    3.2103
    3.255    2.7109
    3.300    2.9428
    3.345    3.0141
    3.390    3.1924
    3.435    2.7109
    3.480    2.9606
    3.525    2.9428
    3.570    2.8536
    3.615    2.8357
    3.660    2.8179
    3.705    2.9428
    3.750    2.9428
    3.795    3.0141
    3.840    2.9071
    3.885    2.6752
    3.930    2.7109
    3.975    2.9071
    4.020    3.0141
    4.065    3.1568
    4.110    2.8001
    4.155    3.2994
    4.200    2.9071
    4.245    2.9606
    4.290    2.9606
    4.335    2.9071
    4.380    3.3173
    4.425    2.9963
    4.470    3.4421
    4.515    2.9784
    4.560    2.9784
    4.605    2.9249
    4.650    3.2459
    4.695    3.1924
    4.740    3.2103
    4.785    3.0854
    4.830    3.1746
    4.875    3.0141
    4.920    2.6217
    4.965    2.8714
    5.010    2.9784
    5.055    3.2103
    5.100    2.7822
    5.145    3.0676
    5.190    2.8179
    5.235    2.5861
    5.280    2.8714
    5.325    3.0498
    5.370    3.2281
    5.415    3.0854
    5.460    2.8001
    5.505    2.8892
    5.550    2.7287
    5.595    2.9071
    5.640    3.3173
    5.685    3.5313
    5.730    3.0854
    5.775    3.2638
    5.820    3.1746
    5.865    3.6205
    5.910    3.4421
    5.955    3.5313
    6.000    3.4065
    6.045    3.3530
    6.090    3.4421
    6.135    3.1746
    6.180    3.6561
    6.225    3.6026
    6.270    3.7810
    6.315    3.9950
    6.360    3.6740
    6.405    4.0485
    6.450    4.1020
    6.495    3.7988
    6.540    3.9415
    6.585    3.9950
    6.630    3.8702
    6.675    3.7988
    6.720    3.2816
    6.765    3.6383
    6.810    3.1033
    6.855    3.6383
    6.900    3.4243
    6.945    3.2816
    6.990    2.9249
    7.035    3.2103
    7.080    3.0319
    7.125    2.9963
    7.170    2.8536
    7.215    2.9784
    7.260    3.0854
    7.305    3.0141
    7.350    3.3351
    7.395    2.9428
    7.440    2.8892
    7.485    2.7822
    7.530    2.5861
    7.575    2.8357
    7.620    2.7644
    7.665    2.5147
    7.710    2.3364
    7.755    2.5504
    7.800    2.6039
    7.845    2.6931
    7.890    2.4077
    7.935    2.6396
    7.980    2.4790
    8.025    2.2829
    8.070    2.7287
    8.115    2.2650
    8.160    2.5325
    8.205    2.1580
    8.250    2.1580
    8.295    2.6931
    8.340    2.0688
    8.385    2.4077
    8.430    2.3542
    8.475    2.3720
    8.520    2.4612
    8.565    2.1759
    8.610    1.7478
    8.655    1.9262
    8.700    2.1045
    8.745    2.0867
    8.790    2.1402
    8.835    1.9262
    8.880    2.2472
    8.925    2.1580
    8.970    2.0510
    9.015    1.9262
    9.060    2.1937
    9.105    1.8013
    9.150    1.9440
    9.195    2.2472
    9.240    1.7835
    9.285    1.9262
    9.330    2.0153
    9.375    1.8727
    9.420    1.7300
    9.465    1.6765
    9.510    1.7478
    9.555    1.8370
    9.600    1.7121
    9.645    1.8548
    9.690    1.6943
    9.735    1.9618
    9.780    1.9262
    9.825    1.7657
    9.870    1.8548
    9.915    1.9797
    9.960    1.9083
   10.005    1.7657
   10.050    1.6765
   10.095    2.0510
   10.140    1.6230
   10.185    1.6943
   10.230    1.6765
   10.275    2.0688
   10.320    1.5338
   10.365    1.8013
   10.410    1.3019
   10.455    1.5873
   10.500    1.4268
   10.545    1.5695
   10.590    1.6408
   10.635    1.6051
   10.680    1.2484
   10.725    1.9797
   10.770    1.6408
   10.815    1.5873
   10.860    1.7657
   10.905    1.6943
   10.950    1.4981
   10.995    1.4803
   11.040    1.6051
   11.085    1.6230
   11.130    1.6051
   11.175    1.6051
   11.220    1.6765
   11.265    1.8013
   11.310    1.6051
   11.355    1.4803
   11.400    1.3198
   11.445    1.6051
   11.490    1.7121
   11.535    1.4803
   11.580    1.2663
   11.625    1.6051
   11.670    1.5338
   11.715    1.8192
   11.760    1.6765
   11.805    1.6408
   11.850    1.7300
   11.895    1.4803
   11.940    1.4268
   11.985    1.8548
   12.030    1.6051
   12.075    1.7835
   12.120    1.6230
   12.165    1.6051
   12.210    1.6230
   12.255    1.7300
   12.300    1.6051
   12.345    1.7657
   12.390    1.7300
   12.435    1.7300
   12.480    1.6051
   12.525    1.7121
   12.570    1.9618
   12.615    1.7300
   12.660    1.6943
   12.705    1.8192
   12.750    1.6408
   12.795    1.5695
   12.840    1.8548
   12.885    1.6586
   12.930    1.6230
   12.975    1.7300
   13.020    1.8548
   13.065    1.9262
   13.110    1.9440
   13.155    1.5873
   13.200    1.7835
   13.245    1.6765
   13.290    1.9440
   13.335    1.6765
   13.380    1.7121
   13.425    1.6943
   13.470    1.8727
   13.515    1.7657
   13.560    1.6943
   13.605    1.4803
   13.650    1.6051
   13.695    1.6586
   13.740    1.5516
   13.785    1.6586
   13.830    1.7835
   13.875    1.7121
   13.920    1.5873
   13.965    2.0332
   14.010    1.7300
   14.055    1.7300
   14.100    1.4803
   14.145    1.9440
   14.190    1.6586
   14.235    1.6943
   14.280    1.8370
   14.325    1.4803
   14.370    1.7657
   14.415    1.8013
   14.460    1.7835
   14.505    1.6408
   14.550    1.4625
   14.595    1.5338
   14.640    1.3198
   14.685    1.2306
   14.730    1.7300
   14.775    1.6230
   14.820    1.3733
   14.865    1.6408
   14.910    1.8727
   14.955    1.6943
   15.000    1.5516
   15.045    1.5873
   15.090    1.3198
   15.135    1.8013
   15.180    1.3733
   15.225    1.3733
   15.270    1.5160
   15.315    1.6586
   15.360    1.7121
   15.405    1.5160
   15.450    1.6943
   15.495    1.4803
   15.540    1.4090
   15.585    1.7121
   15.630    1.4446
   15.675    1.1593
   15.720    1.4268
   15.765    1.1949
   15.810    1.5695
   15.855    1.6230
   15.900    1.6765
   15.945    1.4268
   15.990    1.7121
   16.035    1.5695
   16.080    1.3911
   16.125    1.5516
   16.170    1.4803
   16.215    1.4625
   16.260    1.6586
   16.305    1.5516
   16.350    1.4803
   16.395    1.4803
   16.440    1.6051
   16.485    1.3911
   16.530    1.7300
   16.575    1.7121
   16.620    1.8192
   16.665    1.6943
   16.710    1.7835
   16.755    1.7835
   16.800    1.7657
   16.845    1.7478
   16.890    1.9083
   16.935    1.6765
   16.980    1.7478
   17.025    1.5695
   17.070    1.4625
   17.115    1.5516
   17.160    1.5695
   17.205    1.5338
   17.250    1.6586
   17.295    1.6765
   17.340    1.6408
   17.385    1.3376
   17.430    1.4268
   17.475    1.5873
   17.520    1.7121
   17.565    1.7478
   17.610    1.7657
   17.655    1.3019
   17.700    1.7478
   17.745    1.5338
   17.790    1.5695
   17.835    1.5695
   17.880    1.3554
   17.925    1.5338
   17.970    1.6051
   18.015    1.4446
   18.060    1.4446
   18.105    1.3019
   18.150    1.5160
   18.195    1.3733
   18.240    1.3733
   18.285    1.5516
   18.330    1.6765
   18.375    1.3019
   18.420    1.2663
   18.465    1.2663
   18.510    1.5338
   18.555    1.4446
   18.600    1.1593
   18.645    1.2128
   18.690    1.3733
   18.735    1.5160
   18.780    1.4981
   18.825    1.4090
   18.870    1.3733
   18.915    1.5160
   18.960    1.6051
   19.005    1.7121
   19.050    1.2128
   19.095    1.3911
   19.140    1.5873
   19.185    1.4446
   19.230    1.5695
   19.275    1.2663
   19.320    1.9262
   19.365    1.7657
   19.410    1.0701
   19.455    1.6051
   19.500    1.5873
   19.545    1.4446
   19.590    1.3911
   19.635    1.3911
   19.680    1.4090
   19.725    1.4090
   19.770    1.2484
   19.815    1.3733
   19.860    1.4268
   19.905    1.6230
   19.950    1.4803
   19.995    1.2128
   20.040    1.5873
   20.085    1.4803
   20.130    1.7657
   20.175    1.6408
   20.220    1.4090
   20.265    1.3554
   20.310    1.5695
   20.355    1.4268
   20.400    1.4625
   20.445    1.5873
   20.490    1.7657
   20.535    1.5516
   20.580    1.6230
   20.625    1.5695
   20.670    1.5873
   20.715    1.4268
   20.760    1.2128
   20.805    1.4446
   20.850    1.4981
   20.895    1.3198
   20.940    1.4268
   20.985    1.6051
   21.030    1.4090
   21.075    1.3019
   21.120    1.4981
   21.165    1.2663
   21.210    1.4981
   21.255    1.2484
   21.300    1.6051
   21.345    1.4268
   21.390    1.3554
   21.435    1.5338
   21.480    1.3019
   21.525    1.3198
   21.570    1.4268
   21.615    1.4090
   21.660    1.2663
   21.705    1.2841
   21.750    1.4446
   21.795    1.4625
   21.840    1.5695
   21.885    1.5338
   21.930    1.6051
   21.975    1.4625
   22.020    1.3733
   22.065    1.4625
   22.110    1.3376
   22.155    1.4268
   22.200    1.3733
   22.245    1.0701
   22.290    1.1949
   22.335    1.3019
   22.380    1.2484
   22.425    1.2663
   22.470    1.6765
   22.515    1.4981
   22.560    1.4625
   22.605    1.3376
   22.650    1.4446
   22.695    1.3733
   22.740    1.4981
   22.785    1.6586
   22.830    1.4981
   22.875    1.5160
   22.920    1.3376
   22.965    1.2306
   23.010    1.2306
   23.055    1.1414
   23.100    1.3554
   23.145    1.2841
   23.190    1.5695
   23.235    1.1414
   23.280    1.4446
   23.325    1.3019
   23.370    1.2484
   23.415    1.2306
   23.460    1.4803
   23.505    1.2841
   23.550    1.5160
   23.595    1.2128
   23.640    1.4803
   23.685    1.3911
   23.730    1.5338
   23.775    1.3554
   23.820    1.1949
   23.865    1.3554
   23.910    1.3911
   23.955    1.2663
   24.000    1.1593
   24.045    1.1949
   24.090    1.2128
   24.135    1.3376
   24.180    1.2128
   24.225    1.1771
   24.270    1.4625
   24.315    1.1236
   24.360    1.0701
   24.405    1.4090
   24.450    1.2306
   24.495    1.1949
   24.540    0.9988
   24.585    1.1058
   24.630    1.3376
   24.675    1.1593
   24.720    1.1236
   24.765    1.2484
   24.810    1.1236
   24.855    1.3019
   24.900    1.2128
   24.945    1.3198
   24.990    1.3376
   25.035    1.5516
   25.080    1.3911
   25.125    1.0879
   25.170    1.0344
   25.215    1.4981
   25.260    1.2484
   25.305    1.2484
   25.350    1.1771
   25.395    1.1236
   25.440    1.1593
   25.485    1.2128
   25.530    1.2128
   25.575    1.2484
   25.620    1.1236
   25.665    1.2128
   25.710    1.2663
   25.755    1.2484
   25.800    1.1414
   25.845    1.3198
   25.890    1.1771
   25.935    1.2841
   25.980    1.1414
   26.025    1.1236
   26.070    1.2484
   26.115    1.2663
   26.160    1.2841
   26.205    1.3554
   26.250    1.0701
   26.295    1.3554
   26.340    1.0523
   26.385    1.2841
   26.430    1.3733
   26.475    1.3733
   26.520    1.1414
   26.565    1.1414
   26.610    1.0701
   26.655    0.9274
   26.700    1.0166
   26.745    0.9809
   26.790    1.2484
   26.835    1.1593
   26.880    1.0166
   26.925    1.0166
   26.970    0.9988
   27.015    1.2841
   27.060    0.9452
   27.105    1.1058
   27.150    1.0166
   27.195    0.9274
   27.240    1.1771
   27.285    1.1058
   27.330    0.9631
   27.375    0.9274
   27.420    1.0166
   27.465    1.1414
   27.510    1.1771
   27.555    0.9988
   27.600    1.1236
   27.645    0.9452
   27.690    1.0344
   27.735    0.9452
   27.780    1.1771
   27.825    1.0879
   27.870    1.2128
   27.915    1.0166
   27.960    1.1593
   28.005    1.1414
   28.050    0.8739
   28.095    0.9809
   28.140    1.1771
   28.185    1.1058
   28.230    1.0523
   28.275    0.9809
   28.320    1.0344
   28.365    1.1236
   28.410    0.9452
   28.455    0.9988
   28.500    1.0701
   28.545    0.9809
   28.590    1.1593
   28.635    0.9809
   28.680    0.8917
   28.725    0.7491
   28.770    0.8026
   28.815    0.8561
   28.860    1.0523
   28.905    1.2128
   28.950    0.9631
   28.995    0.9096
   29.040    0.9096
   29.085    0.9452
   29.130    0.8026
   29.175    0.7134
   29.220    0.9096
   29.265    0.8917
   29.310    0.9809
   29.355    1.0344
   29.400    0.9452
   29.445    0.8561
   29.490    1.0879
   29.535    0.9988
   29.580    0.9452
   29.625    0.7312
   29.670    0.9096
   29.715    0.8382
   29.760    0.9096
   29.805    0.9631
   29.850    1.0344
   29.895    0.8739
   29.940    1.1414
   29.985    0.9988
   30.030    1.0523
   30.075    1.0523
   30.120    1.0701
   30.165    0.9631
   30.210    0.8561
   30.255    0.9631
   30.300    0.9096
   30.345    1.1058
   30.390    1.1414
   30.435    0.8917
   30.480    0.7312
   30.525    1.0166
   30.570    1.0701
   30.615    1.0166
   30.660    0.8382
   30.705    1.0166
   30.750    0.9452
   30.795    0.9096
   30.840    0.7669
   30.885    1.0523
   30.930    0.9452
   30.975    0.7491
   31.020    0.9452
   31.065    0.8382
   31.110    0.8561
   31.155    0.8917
   31.200    0.8561
   31.245    0.9274
   31.290    0.9452
   31.335    0.9631
   31.380    1.2128
   31.425    0.9096
   31.470    0.9274
   31.515    0.9631
   31.560    0.9809
   31.605    0.8382
   31.650    0.8382
   31.695    0.9274
   31.740    0.9274
   31.785    0.6956
   31.830    0.7669
   31.875    0.9988
   31.920    0.7847
   31.965    0.8204
   32.010    0.6599
   32.055    0.8026
   32.100    0.7491
   32.145    0.7669
   32.190    0.7847
   32.235    0.9452
   32.280    0.8204
   32.325    0.7134
   32.370    0.8382
   32.415    0.8026
   32.460    0.8204
   32.505    0.9631
   32.550    0.8204
   32.595    0.8382
   32.640    0.7491
   32.685    0.7491
   32.730    0.6242
   32.775    0.8561
   32.820    0.7491
   32.865    0.8026
   32.910    0.7669
   32.955    0.8026
   33.000    0.9631
   33.045    0.8026
   33.090    0.6956
   33.135    0.7312
   33.180    0.7134
   33.225    0.7669
   33.270    0.8204
   33.315    0.7312
   33.360    0.7847
   33.405    0.8739
   33.450    0.4994
   33.495    0.8917
   33.540    0.6956
   33.585    0.5707
   33.630    0.9096
   33.675    0.7312
   33.720    0.7134
   33.765    0.7134
   33.810    0.6956
   33.855    0.8026
   33.900    0.7312
   33.945    0.8204
   33.990    0.8382
   34.035    0.5886
   34.080    0.6956
   34.125    0.8739
   34.170    0.6242
   34.215    0.6956
   34.260    0.9809
   34.305    0.7312
   34.350    0.7491
   34.395    0.8382
   34.440    0.5886
   34.485    0.8739
   34.530    0.8026
   34.575    0.8026
   34.620    0.7491
   34.665    0.5529
   34.710    0.7491
   34.755    0.6599
   34.800    0.5350
   34.845    0.6242
   34.890    0.6777
   34.935    0.8204
   34.980    0.5886
   35.025    0.6242
   35.070    0.7134
   35.115    0.5707
   35.160    0.6956
   35.205    0.6421
   35.250    0.6242
   35.295    0.5529
   35.340    0.5350
   35.385    0.6599
   35.430    0.7134
   35.475    0.4815
   35.520    0.6421
   35.565    0.5350
   35.610    0.6956
   35.655    0.6777
   35.700    0.5886
   35.745    0.6599
   35.790    0.5707
   35.835    0.5529
   35.880    0.5707
   35.925    0.4815
   35.970    0.6242
   36.015    0.6956
   36.060    0.6242
   36.105    0.6242
   36.150    0.5707
   36.195    0.6421
   36.240    0.5529
   36.285    0.5350
   36.330    0.5707
   36.375    0.5529
   36.420    0.4637
   36.465    0.5350
   36.510    0.5707
   36.555    0.5529
   36.600    0.7312
   36.645    0.5350
   36.690    0.5350
   36.735    0.7847
   36.780    0.3745
   36.825    0.4994
   36.870    0.4994
   36.915    0.7134
   36.960    0.5350
   37.005    0.5707
   37.050    0.5172
   37.095    0.5529
   37.140    0.4459
   37.185    0.6064
   37.230    0.4459
   37.275    0.6242
   37.320    0.4994
   37.365    0.6242
   37.410    0.5172
   37.455    0.4637
   37.500    0.6242
   37.545    0.6064
   37.590    0.5529
   37.635    0.5350
   37.680    0.5350
   37.725    0.4280
   37.770    0.5707
   37.815    0.5707
   37.860    0.5350
   37.905    0.5350
   37.950    0.6421
   37.995    0.3924
   38.040    0.5172
   38.085    0.4815
   38.130    0.6956
   38.175    0.4459
   38.220    0.3924
   38.265    0.5529
   38.310    0.5886
   38.355    0.4637
   38.400    0.6064
   38.445    0.3567
   38.490    0.6242
   38.535    0.4994
   38.580    0.4637
   38.625    0.6064
   38.670    0.4994
   38.715    0.5172
   38.760    0.6421
   38.805    0.4637
   38.850    0.3567
   38.895    0.4280
   38.940    0.4637
   38.985    0.6242
   39.030    0.4994
   39.075    0.5172
   39.120    0.5350
   39.165    0.3210
   39.210    0.3924
   39.255    0.4459
   39.300    0.4637
   39.345    0.4280
   39.390    0.4102
   39.435    0.5350
   39.480    0.4994
   39.525    0.4637
   39.570    0.4280
   39.615    0.4102
   39.660    0.3567
   39.705    0.3924
   39.750    0.4994
   39.795    0.4637
   39.840    0.3745
   39.885    0.4637
   39.930    0.4815
   39.975    0.5172
   40.020    0.3389
   40.065    0.6064
   40.110    0.4280
   40.155    0.4459
   40.200    0.4994
   40.245    0.3924
   40.290    0.4280
   40.335    0.4280
   40.380    0.3924
   40.425    0.4459
   40.470    0.4459
   40.515    0.5350
   40.560    0.4994
   40.605    0.3924
   40.650    0.5707
   40.695    0.4815
   40.740    0.3924
   40.785    0.5350
   40.830    0.4280
   40.875    0.5172
   40.920    0.4637
   40.965    0.4815
   41.010    0.3389
   41.055    0.4815
   41.100    0.3745
   41.145    0.4459
   41.190    0.4102
   41.235    0.4102
   41.280    0.4102
   41.325    0.4994
   41.370    0.3745
   41.415    0.4459
   41.460    0.6242
   41.505    0.4815
   41.550    0.3389
   41.595    0.3924
   41.640    0.4280
   41.685    0.5529
   41.730    0.5529
   41.775    0.4637
   41.820    0.4637
   41.865    0.5350
   41.910    0.3924
   41.955    0.5172
   42.000    0.4280
   42.045    0.4280
   42.090    0.6064
   42.135    0.4102
   42.180    0.3745
   42.225    0.4280
   42.270    0.3745
   42.315    0.3745
   42.360    0.3745
   42.405    0.3745
   42.450    0.3924
   42.495    0.4637
   42.540    0.4459
   42.585    0.4815
   42.630    0.3924
   42.675    0.3567
   42.720    0.4815
   42.765    0.3389
   42.810    0.4459
   42.855    0.5529
   42.900    0.3567
   42.945    0.4280
   42.990    0.5172
   43.035    0.4994
   43.080    0.4102
   43.125    0.4994
   43.170    0.4994
   43.215    0.4459
   43.260    0.3924
   43.305    0.5886
   43.350    0.3745
   43.395    0.3745
   43.440    0.4637
   43.485    0.3032
   43.530    0.3924
   43.575    0.3567
   43.620    0.3745
   43.665    0.3389
   43.710    0.4994
   43.755    0.3032
   43.800    0.3567
   43.845    0.3210
   43.890    0.4280
   43.935    0.5172
   43.980    0.4280
   44.025    0.3389
   44.070    0.5707
   44.115    0.3389
   44.160    0.4637
   44.205    0.3567
   44.250    0.3567
   44.295    0.3924
   44.340    0.3210
   44.385    0.3210
   44.430    0.4280
   44.475    0.3745
   44.520    0.3210
   44.565    0.3210
   44.610    0.3924
   44.655    0.4102
   44.700    0.4459
   44.745    0.3389
   44.790    0.5172
   44.835    0.4280
   44.880    0.3210
   44.925    0.3210
   44.970    0.3210
   45.015    0.3924
   45.060    0.4280
   45.105    0.3924
   45.150    0.4637
   45.195    0.4102
   45.240    0.4994
   45.285    0.4102
   45.330    0.3567
   45.375    0.3924
   45.420    0.4637
   45.465    0.3924
   45.510    0.4102
   45.555    0.2854
   45.600    0.4459
   45.645    0.3389
   45.690    0.4102
   45.735    0.4815
   45.780    0.4280
   45.825    0.5350
   45.870    0.2675
   45.915    0.4459
   45.960    0.5529
   46.005    0.2675
   46.050    0.3567
   46.095    0.2497
   46.140    0.3924
   46.185    0.3389
   46.230    0.4280
   46.275    0.4637
   46.320    0.4994
   46.365    0.3924
   46.410    0.3389
   46.455    0.4459
   46.500    0.3567
   46.545    0.4280
   46.590    0.4280
   46.635    0.3567
   46.680    0.4637
   46.725    0.4637
   46.770    0.3567
   46.815    0.3924
   46.860    0.3567
   46.905    0.2854
   46.950    0.3745
   46.995    0.4459
   47.040    0.3567
   47.085    0.3389
   47.130    0.3924
   47.175    0.3567
   47.220    0.4280
   47.265    0.2675
   47.310    0.3567
   47.355    0.4102
   47.400    0.3389
   47.445    0.4102
   47.490    0.2319
   47.535    0.3210
   47.580    0.4102
   47.625    0.2497
   47.670    0.4459
   47.715    0.4994
   47.760    0.4280
   47.805    0.3924
   47.850    0.3924
   47.895    0.3389
   47.940    0.2675
   47.985    0.4280
   48.030    0.4102
   48.075    0.3924
   48.120    0.4102
   48.165    0.4102
   48.210    0.3210
   48.255    0.3567
   48.300    0.3389
   48.345    0.5172
   48.390    0.3567
   48.435    0.3210
   48.480    0.3745
   48.525    0.3389
   48.570    0.3032
   48.615    0.3924
   48.660    0.4102
   48.705    0.2854
   48.750    0.3389
   48.795    0.3745
   48.840    0.3032
   48.885    0.4459
   48.930    0.3389
   48.975    0.3032
   49.020    0.4102
   49.065    0.2497
   49.110    0.4637
   49.155    0.4102
   49.200    0.3745
   49.245    0.4102
   49.290    0.2854
   49.335    0.2140
   49.380    0.2675
   49.425    0.3389
   49.470    0.2497
   49.515    0.4280
   49.560    0.3924
   49.605    0.3389
   49.650    0.3032
   49.695    0.2497
   49.740    0.1962
   49.785    0.2675
   49.830    0.2854
   49.875    0.3210
   49.920    0.4815
   49.965    0.3745
   50.010    0.3745
   50.055    0.3210
   50.100    0.4459
   50.145    0.4280
   50.190    0.2497
   50.235    0.3567
   50.280    0.3924
   50.325    0.3567
   50.370    0.3210
   50.415    0.3924
   50.460    0.5350
   50.505    0.3389
   50.550    0.2675
   50.595    0.3745
   50.640    0.2675
   50.685    0.3032
   50.730    0.2854
   50.775    0.3745
   50.820    0.3745
   50.865    0.3032
   50.910    0.2675
   50.955    0.1962
   51.000    0.5172
   51.045    0.1962
   51.090    0.2675
   51.135    0.3924
   51.180    0.3032
   51.225    0.4280
   51.270    0.3567
   51.315    0.3924
   51.360    0.3210
   51.405    0.2854
   51.450    0.4637
   51.495    0.4280
   51.540    0.4102
   51.585    0.4102
   51.630    0.3745
   51.675    0.3567
   51.720    0.2140
   51.765    0.3210
   51.810    0.4994
   51.855    0.3924
   51.900    0.4280
   51.945    0.3032
   51.990    0.4102
   52.035    0.3032
   52.080    0.3924
   52.125    0.4102
   52.170    0.5350
   52.215    0.3032
   52.260    0.3567
   52.305    0.4280
   52.350    0.4102
   52.395    0.3745
   52.440    0.3032
   52.485    0.3032
   52.530    0.3032
   52.575    0.3567
   52.620    0.3924
   52.665    0.4459
   52.710    0.2497
   52.755    0.1962
   52.800    0.3389
   52.845    0.3745
   52.890    0.3389
   52.935    0.3745
   52.980    0.4102
   53.025    0.4280
   53.070    0.3745
   53.115    0.3567
   53.160    0.3210
   53.205    0.3210
   53.250    0.2319
   53.295    0.3210
   53.340    0.3389
   53.385    0.4815
   53.430    0.3389
   53.475    0.2319
   53.520    0.3032
   53.565    0.2497
   53.610    0.3210
   53.655    0.4102
   53.700    0.2854
   53.745    0.4280
   53.790    0.4459
   53.835    0.3567
   53.880    0.3389
   53.925    0.3389
   53.970    0.3924
   54.015    0.3745
   54.060    0.3924
   54.105    0.3567
   54.150    0.2675
   54.195    0.3567
   54.240    0.3210
   54.285    0.4459
   54.330    0.3389
   54.375    0.4102
   54.420    0.3210
   54.465    0.3032
   54.510    0.2675
   54.555    0.3032
   54.600    0.2497
   54.645    0.2675
   54.690    0.2675
   54.735    0.3210
   54.780    0.3210
   54.825    0.2319
   54.870    0.3389
   54.915    0.3210
   54.960    0.4102
   55.005    0.3032
   55.050    0.3567
   55.095    0.3389
   55.140    0.3567
   55.185    0.3389
   55.230    0.3210
   55.275    0.4459
   55.320    0.3745
   55.365    0.3389
   55.410    0.3567
   55.455    0.4280
   55.500    0.3745
   55.545    0.2854
   55.590    0.3210
   55.635    0.2319
   55.680    0.2497
   55.725    0.3924
   55.770    0.3567
   55.815    0.1962
   55.860    0.4102
   55.905    0.3210
   55.950    0.2675
   55.995    0.3032
   56.040    0.3567
   56.085    0.3389
   56.130    0.3032
   56.175    0.2854
   56.220    0.3210
   56.265    0.4815
   56.310    0.2675
   56.355    0.1605
   56.400    0.2140
   56.445    0.3745
   56.490    0.3032
   56.535    0.1962
   56.580    0.2497
   56.625    0.3210
   56.670    0.3745
   56.715    0.3389
   56.760    0.4280
   56.805    0.2854
   56.850    0.2675
   56.895    0.1962
   56.940    0.3032
   56.985    0.2497
   57.030    0.3210
   57.075    0.2854
   57.120    0.2854
   57.165    0.3210
   57.210    0.3745
   57.255    0.1962
   57.300    0.2140
   57.345    0.2140
   57.390    0.3389
   57.435    0.3389
   57.480    0.2319
   57.525    0.4102
   57.570    0.3389
   57.615    0.3032
   57.660    0.1962
   57.705    0.2675
   57.750    0.2675
   57.795    0.3389
   57.840    0.3389
   57.885    0.2497
   57.930    0.3745
   57.975    0.2140
   58.020    0.4280
   58.065    0.3924
   58.110    0.2854
   58.155    0.3924
   58.200    0.2854
   58.245    0.3032
   58.290    0.1962
   58.335    0.3210
   58.380    0.3567
   58.425    0.3032
   58.470    0.2854
   58.515    0.3032
   58.560    0.2675
   58.605    0.1783
   58.650    0.2854
   58.695    0.2854
   58.740    0.2319
   58.785    0.1783
   58.830    0.3032
   58.875    0.3745
   58.920    0.2854
   58.965    0.3567
   59.010    0.2140
   59.055    0.2497
   59.100    0.2675
   59.145    0.3210
   59.190    0.2675
   59.235    0.3032
   59.280    0.2319
   59.325    0.3924
   59.370    0.1962
   59.415    0.2319
   59.460    0.3032
   59.505    0.2675
   59.550    0.2140
   59.595    0.2497
   59.640    0.3032
   59.685    0.2497
   59.730    0.2854
   59.775    0.2497
   59.820    0.3389
   59.865    0.3210
   59.910    0.2497
   59.955    0.2319
   59.985    0.2854