File: data/PXRD/PXRD_KE-233_Co-Ka1_capillary-1mm_5s-deg.xyd
    1.500    9.0209
    1.530    8.8925
    1.560    8.8068
    1.590    8.4751
    1.620    8.7426
    1.650    8.2397
    1.680    7.7903
    1.710    7.7154
    1.740    7.6833
    1.770    7.2231
    1.800    6.9556
    1.830    6.9770
    1.860    6.9128
    1.890    7.2873
    1.920    6.7309
    1.950    6.3242
    1.980    6.6346
    2.010    6.5276
    2.040    6.4955
    2.070    5.9711
    2.100    5.9604
    2.130    5.6822
    2.160    5.8962
    2.190    6.1102
    2.220    5.9069
    2.250    5.6501
    2.280    5.4147
    2.310    5.2006
    2.340    5.3184
    2.370    5.1685
    2.400    4.7191
    2.430    4.8796
    2.460    5.0829
    2.490    5.0829
    2.520    4.8154
    2.550    4.7298
    2.580    5.1043
    2.610    4.8261
    2.640    4.5372
    2.670    4.2162
    2.700    4.7619
    2.730    4.5907
    2.760    4.6228
    2.790    4.4623
    2.820    4.0984
    2.850    4.4195
    2.880    4.1948
    2.910    4.2911
    2.940    4.4195
    2.970    4.4302
    3.000    4.4837
    3.030    4.1306
    3.060    4.1091
    3.090    4.3874
    3.120    4.2804
    3.150    3.9593
    3.180    4.3232
    3.210    4.0128
    3.240    4.5051
    3.270    4.7405
    3.300    4.5051
    3.330    4.4302
    3.360    4.6763
    3.390    4.5907
    3.420    4.9438
    3.450    5.1899
    3.480    5.3719
    3.510    5.2970
    3.540    5.7678
    3.570    5.8534
    3.600    6.1744
    3.630    6.2600
    3.660    6.4633
    3.690    6.8700
    3.720    7.4906
    3.750    7.5334
    3.780    7.7689
    3.810    8.5714
    3.840    8.4858
    3.870    9.4489
    3.900   10.1873
    3.930   10.5832
    3.960   11.8566
    3.990   12.7555
    4.020   13.2156
    4.050   14.2964
    4.080   16.4152
    4.110   17.2606
    4.140   19.0155
    4.170   21.2306
    4.200   22.5147
    4.230   24.5479
    4.260   28.1862
    4.290   31.9101
    4.320   35.8802
    4.350   40.5779
    4.380   48.1648
    4.410   55.6554
    4.440   69.1814
    4.470   89.3740
    4.500  134.3927
    4.530  194.7459
    4.560   34.4034
    4.590    4.0877
    4.620    2.5575
    4.650    2.4291
    4.680    2.2900
    4.710    2.0653
    4.740    2.0011
    4.770    2.0225
    4.800    2.0011
    4.830    2.0011
    4.860    1.9048
    4.890    1.7014
    4.920    1.7228
    4.950    1.8406
    4.980    1.6479
    5.010    1.9476
    5.040    1.6479
    5.070    1.6158
    5.100    1.6479
    5.130    1.7657
    5.160    1.7335
    5.190    1.6051
    5.220    1.5944
    5.250    1.8299
    5.280    1.9369
    5.310    1.9155
    5.340    1.6586
    5.370    1.6907
    5.400    1.4874
    5.430    1.4767
    5.460    1.6586
    5.490    1.6051
    5.520    1.5730
    5.550    1.7764
    5.580    1.9048
    5.610    1.9476
    5.640    1.6693
    5.670    1.7978
    5.700    2.0225
    5.730    2.0332
    5.760    2.2151
    5.790    2.2044
    5.820    2.2151
    5.850    2.2472
    5.880    2.5575
    5.910    2.8999
    5.940    2.8785
    5.970    3.0177
    6.000    3.3280
    6.030    3.4457
    6.060    3.8202
    6.090    4.1091
    6.120    4.8475
    6.150    5.3933
    6.180    6.1316
    6.210    6.7951
    6.240    8.3788
    6.270    9.6201
    6.300   11.0754
    6.330   13.3654
    6.360   18.7373
    6.390   29.6415
    6.420   31.9315
    6.450    4.9010
    6.480    1.5944
    6.510    1.2734
    6.540    1.2413
    6.570    1.2948
    6.600    1.1236
    6.630    1.3269
    6.660    1.3055
    6.690    1.1878
    6.720    1.0059
    6.750    1.0915
    6.780    1.2092
    6.810    1.0701
    6.840    1.1129
    6.870    0.9417
    6.900    1.1771
    6.930    1.2627
    6.960    1.2841
    6.990    1.2306
    7.020    1.2734
    7.050    1.2520
    7.080    1.1450
    7.110    1.0273
    7.140    0.9952
    7.170    1.0059
    7.200    1.1878
    7.230    1.1343
    7.260    1.2520
    7.290    1.1557
    7.320    1.1557
    7.350    1.1129
    7.380    1.2948
    7.410    1.1450
    7.440    1.3055
    7.470    1.1557
    7.500    1.4767
    7.530    1.1450
    7.560    1.3590
    7.590    1.3590
    7.620    1.2199
    7.650    1.4660
    7.680    1.5409
    7.710    1.4018
    7.740    1.8941
    7.770    1.9155
    7.800    2.1830
    7.830    2.9856
    7.860    3.7774
    7.890    1.5623
    7.920    1.1022
    7.950    1.0380
    7.980    1.0166
    8.010    1.1557
    8.040    1.0808
    8.070    0.9738
    8.100    1.0059
    8.130    1.0059
    8.160    1.0059
    8.190    1.0915
    8.220    0.9631
    8.250    0.9524
    8.280    1.0487
    8.310    0.9845
    8.340    0.9952
    8.370    1.0166
    8.400    1.0166
    8.430    1.1771
    8.460    1.0808
    8.490    1.0594
    8.520    1.1022
    8.550    1.1985
    8.580    1.2841
    8.610    1.3162
    8.640    1.2306
    8.670    1.4339
    8.700    1.2092
    8.730    1.3590
    8.760    1.7442
    8.790    1.8620
    8.820    1.9048
    8.850    2.1830
    8.880    2.3221
    8.910    2.5147
    8.940    3.2745
    8.970    3.7239
    9.000    4.7084
    9.030    6.0460
    9.060    9.8769
    9.090    8.6784
    9.120    1.8941
    9.150    1.0487
    9.180    0.8989
    9.210    1.0166
    9.240    0.8347
    9.270    1.0594
    9.300    0.8347
    9.330    1.0808
    9.360    0.8775
    9.390    0.9845
    9.420    1.0059
    9.450    0.8347
    9.480    0.9417
    9.510    0.8668
    9.540    0.8989
    9.570    0.9738
    9.600    0.7919
    9.630    0.8561
    9.660    0.8668
    9.690    0.9738
    9.720    1.0915
    9.750    0.9631
    9.780    0.9096
    9.810    0.8026
    9.840    0.9952
    9.870    1.0166
    9.900    1.0166
    9.930    1.0701
    9.960    1.0915
    9.990    1.1664
   10.020    1.0487
   10.050    1.2199
   10.080    1.4018
   10.110    1.5837
   10.140    2.0439
   10.170    1.4660
   10.200    0.9952
   10.230    1.0273
   10.260    1.0059
   10.290    0.9738
   10.320    0.8668
   10.350    0.9096
   10.380    0.9203
   10.410    0.8882
   10.440    0.7705
   10.470    0.8882
   10.500    0.9096
   10.530    0.9310
   10.560    0.9417
   10.590    0.9096
   10.620    1.1022
   10.650    0.9845
   10.680    1.1664
   10.710    1.2306
   10.740    1.2627
   10.770    1.4232
   10.800    1.7121
   10.830    1.6265
   10.860    1.9690
   10.890    2.0546
   10.920    2.4612
   10.950    3.0284
   10.980    4.1413
   11.010    5.0401
   11.040    6.3349
   11.070    8.6891
   11.100   14.7994
   11.130   17.6779
   11.160    6.1958
   11.190    1.3483
   11.220    0.7277
   11.250    1.0059
   11.280    0.9096
   11.310    0.8668
   11.340    0.8347
   11.370    1.0273
   11.400    0.8882
   11.430    0.8347
   11.460    0.8240
   11.490    0.7384
   11.520    0.9845
   11.550    0.8026
   11.580    1.0701
   11.610    0.9845
   11.640    0.8561
   11.670    1.0273
   11.700    0.9738
   11.730    1.1236
   11.760    1.1129
   11.790    1.1450
   11.820    1.1664
   11.850    1.4553
   11.880    1.4232
   11.910    1.9690
   11.940    2.2044
   11.970    3.0070
   12.000    5.1043
   12.030    5.2755
   12.060    1.9262
   12.090    0.9203
   12.120    0.8347
   12.150    0.8454
   12.180    0.8775
   12.210    0.7812
   12.240    0.8775
   12.270    0.7705
   12.300    0.7170
   12.330    0.8240
   12.360    0.7277
   12.390    0.8668
   12.420    0.8133
   12.450    0.7384
   12.480    0.8989
   12.510    0.9096
   12.540    1.0380
   12.570    0.9738
   12.600    1.0594
   12.630    0.9952
   12.660    1.3162
   12.690    1.6586
   12.720    1.7764
   12.750    2.0974
   12.780    2.8785
   12.810    4.6228
   12.840    6.4848
   12.870    5.4682
   12.900    1.7657
   12.930    0.8561
   12.960    0.9417
   12.990    0.8026
   13.020    0.8240
   13.050    0.8133
   13.080    0.8026
   13.110    0.7491
   13.140    0.8454
   13.170    0.7384
   13.200    0.9524
   13.230    0.7919
   13.260    0.7919
   13.290    0.7812
   13.320    0.8133
   13.350    0.8454
   13.380    1.0059
   13.410    1.1022
   13.440    1.1343
   13.470    1.2734
   13.500    1.4232
   13.530    1.7549
   13.560    2.2686
   13.590    3.1247
   13.620    5.0722
   13.650    4.5051
   13.680    1.8941
   13.710    0.8668
   13.740    0.7705
   13.770    0.6421
   13.800    0.7170
   13.830    0.8240
   13.860    0.7705
   13.890    0.8775
   13.920    0.6742
   13.950    0.7384
   13.980    0.6742
   14.010    0.7919
   14.040    0.7919
   14.070    0.7919
   14.100    0.7277
   14.130    0.7812
   14.160    0.6956
   14.190    0.8240
   14.220    0.9631
   14.250    0.8240
   14.280    0.8989
   14.310    1.0915
   14.340    1.1771
   14.370    1.3269
   14.400    1.2413
   14.430    0.7598
   14.460    0.7384
   14.490    0.7812
   14.520    0.6421
   14.550    0.7170
   14.580    0.8133
   14.610    0.8454
   14.640    0.8347
   14.670    0.7277
   14.700    0.6528
   14.730    0.8668
   14.760    0.7598
   14.790    0.7063
   14.820    0.8347
   14.850    0.9096
   14.880    0.8133
   14.910    1.0380
   14.940    1.2734
   14.970    1.4446
   15.000    1.4874
   15.030    2.2900
   15.060    3.5313
   15.090    3.6918
   15.120    2.3114
   15.150    0.7063
   15.180    0.7919
   15.210    0.6849
   15.240    0.7170
   15.270    0.7812
   15.300    0.7277
   15.330    0.5350
   15.360    0.7491
   15.390    0.6314
   15.420    0.6421
   15.450    0.8026
   15.480    0.8240
   15.510    0.7919
   15.540    0.7491
   15.570    0.8668
   15.600    0.8454
   15.630    0.9738
   15.660    0.9738
   15.690    1.4125
   15.720    1.6051
   15.750    2.5254
   15.780    2.0653
   15.810    1.0273
   15.840    0.6742
   15.870    0.7812
   15.900    0.5564
   15.930    0.5778
   15.960    0.7384
   15.990    0.6314
   16.020    0.7919
   16.050    0.7063
   16.080    0.6314
   16.110    0.7491
   16.140    0.8561
   16.170    0.7919
   16.200    0.8240
   16.230    0.8026
   16.260    1.0487
   16.290    1.0594
   16.320    1.3269
   16.350    1.6693
   16.380    2.4933
   16.410    2.8892
   16.440    2.2044
   16.470    0.9952
   16.500    0.7277
   16.530    0.7491
   16.560    0.6528
   16.590    0.7277
   16.620    0.7170
   16.650    0.7277
   16.680    0.7277
   16.710    0.5457
   16.740    0.7598
   16.770    0.8240
   16.800    0.7384
   16.830    0.8133
   16.860    0.6956
   16.890    0.5886
   16.920    0.6207
   16.950    0.6956
   16.980    0.5886
   17.010    0.6742
   17.040    0.8347
   17.070    0.7812
   17.100    0.7491
   17.130    0.8240
   17.160    0.6849
   17.190    0.6421
   17.220    0.6207
   17.250    0.5993
   17.280    0.5778
   17.310    0.6635
   17.340    0.6635
   17.370    0.6742
   17.400    0.5886
   17.430    0.7598
   17.460    0.8133
   17.490    0.8561
   17.520    0.9310
   17.550    0.8882
   17.580    1.1557
   17.610    1.5088
   17.640    1.7764
   17.670    1.2948
   17.700    0.6635
   17.730    0.6742
   17.760    0.7491
   17.790    0.7170
   17.820    0.7598
   17.850    0.6956
   17.880    0.7384
   17.910    0.7170
   17.940    0.7277
   17.970    0.6742
   18.000    0.6528
   18.030    0.6849
   18.060    0.7812
   18.090    0.8133
   18.120    0.6742
   18.150    0.7919
   18.180    0.7277
   18.210    0.6528
   18.240    0.5993
   18.270    0.7384
   18.300    0.7063
   18.330    0.8133
   18.360    0.7705
   18.390    0.7598
   18.420    0.6849
   18.450    0.7384
   18.480    0.8240
   18.510    0.6742
   18.540    0.7705
   18.570    0.7919
   18.600    0.7812
   18.630    0.8775
   18.660    0.7598
   18.690    1.0487
   18.720    1.1771
   18.750    1.6372
   18.780    1.9797
   18.810    1.7014
   18.840    0.9417
   18.870    0.7170
   18.900    0.8026
   18.930    0.7170
   18.960    0.6528
   18.990    0.6956
   19.020    0.6635
   19.050    0.7063
   19.080    0.7812
   19.110    0.6528
   19.140    0.6100
   19.170    0.8454
   19.200    0.8882
   19.230    0.8133
   19.260    1.0380
   19.290    1.2627
   19.320    1.7764
   19.350    1.6158
   19.380    1.0059
   19.410    0.8240
   19.440    0.8240
   19.470    0.7705
   19.500    0.6421
   19.530    0.6100
   19.560    0.6528
   19.590    0.7277
   19.620    0.7598
   19.650    0.8454
   19.680    0.7919
   19.710    0.9417
   19.740    1.0487
   19.770    1.3162
   19.800    1.8192
   19.830    2.5789
   19.860    3.9700
   19.890    3.3280
   19.920    1.9476
   19.950    0.9952
   19.980    0.7170
   20.010    0.6742
   20.040    0.7919
   20.070    0.6742
   20.100    0.7063
   20.130    0.7919
   20.160    0.6635
   20.190    0.6635
   20.220    0.6956
   20.250    0.6314
   20.280    0.8454
   20.310    0.7919
   20.340    0.9738
   20.370    1.0915
   20.400    1.0487
   20.430    0.8882
   20.460    0.7705
   20.490    0.8240
   20.520    0.6207
   20.550    0.6635
   20.580    0.8454
   20.610    0.7384
   20.640    0.8026
   20.670    0.7598
   20.700    0.6849
   20.730    0.8775
   20.760    0.8347
   20.790    0.9096
   20.820    0.9738
   20.850    0.9310
   20.880    1.2199
   20.910    1.2413
   20.940    0.9417
   20.970    0.7812
   21.000    0.7063
   21.030    0.8668
   21.060    0.6849
   21.090    0.6528
   21.120    0.6207
   21.150    0.5886
   21.180    0.7491
   21.210    0.7812
   21.240    0.8026
   21.270    0.8026
   21.300    0.7919
   21.330    1.0166
   21.360    1.1236
   21.390    1.5516
   21.420    1.3055
   21.450    0.9738
   21.480    0.8454
   21.510    0.6314
   21.540    0.7063
   21.570    0.6207
   21.600    0.6100
   21.630    0.8989
   21.660    0.8240
   21.690    0.7598
   21.720    0.7063
   21.750    0.5778
   21.780    0.8561
   21.810    0.8561
   21.840    0.9096
   21.870    0.9631
   21.900    1.0594
   21.930    0.8989
   21.960    0.7384
   21.990    0.8347
   22.020    0.7063
   22.050    0.9310
   22.080    1.1450
   22.110    0.8775
   22.140    0.9417
   22.170    0.7812
   22.200    0.7491
   22.230    0.8240
   22.260    0.8989
   22.290    0.7705
   22.320    0.7384
   22.350    0.8989
   22.380    0.7491
   22.410    0.7812
   22.440    0.7598
   22.470    0.7491
   22.500    0.6528
   22.530    0.7812
   22.560    0.8668
   22.590    0.7812
   22.620    0.7491
   22.650    0.7812
   22.680    0.8668
   22.710    1.0487
   22.740    1.0808
   22.770    1.3162
   22.800    1.8727
   22.830    2.0867
   22.860    1.4767
   22.890    1.2199
   22.920    0.8133
   22.950    0.8454
   22.980    0.7063
   23.010    0.8133
   23.040    0.7491
   23.070    0.8026
   23.100    0.7063
   23.130    0.7705
   23.160    0.7919
   23.190    0.8026
   23.220    0.8240
   23.250    1.0380
   23.280    0.9417
   23.310    1.0701
   23.340    0.9524
   23.370    0.6528
   23.400    0.8454
   23.430    0.6849
   23.460    0.7598
   23.490    0.8026
   23.520    0.8775
   23.550    0.8989
   23.580    0.7705
   23.610    0.9310
   23.640    1.1022
   23.670    1.5516
   23.700    1.9476
   23.730    2.8785
   23.760    2.4077
   23.790    1.9262
   23.820    0.8989
   23.850    0.8454
   23.880    0.7491
   23.910    0.6956
   23.940    0.8133
   23.970    0.8775
   24.000    0.8561
   24.030    0.7598
   24.060    0.7384
   24.090    0.7277
   24.120    0.6956
   24.150    0.7063
   24.180    0.7491
   24.210    0.7277
   24.240    0.8775
   24.270    0.7277
   24.300    0.8347
   24.330    0.8454
   24.360    0.6849
   24.390    0.7705
   24.420    0.7063
   24.450    0.8347
   24.480    0.8133
   24.510    0.7491
   24.540    0.7063
   24.570    0.8561
   24.600    0.8454
   24.630    0.7384
   24.660    0.7063
   24.690    0.7919
   24.720    0.7277
   24.750    0.7384
   24.780    0.6742
   24.810    0.7491
   24.840    0.7705
   24.870    0.6849
   24.900    0.6421
   24.930    0.8561
   24.960    0.7491
   24.990    0.7384
   25.020    0.7491
   25.050    0.6100
   25.080    0.6742
   25.110    0.7063
   25.140    0.8133
   25.170    0.6421
   25.200    0.8989
   25.230    0.9738
   25.260    0.6421
   25.290    0.8882
   25.320    0.8454
   25.350    0.7170
   25.380    0.9631
   25.410    1.0915
   25.440    1.5623
   25.470    1.6693
   25.500    1.3911
   25.530    1.2520
   25.560    0.9524
   25.590    0.7491
   25.620    0.8240
   25.650    0.6742
   25.680    0.8026
   25.710    0.7491
   25.740    0.7384
   25.770    0.8668
   25.800    0.8454
   25.830    1.0166
   25.860    1.4232
   25.890    1.3590
   25.920    1.1129
   25.950    0.8240
   25.980    0.8347
   26.010    0.8454
   26.040    0.7491
   26.070    0.8668
   26.100    0.7598
   26.130    0.9096
   26.160    1.0594
   26.190    1.3162
   26.220    1.6265
   26.250    2.8143
   26.280    3.5955
   26.310    2.9320
   26.340    2.5147
   26.370    1.5088
   26.400    0.8989
   26.430    0.7491
   26.460    0.7919
   26.490    0.7919
   26.520    0.8454
   26.550    1.0166
   26.580    1.2092
   26.610    1.4553
   26.640    1.9583
   26.670    3.2210
   26.700    2.9963
   26.730    2.7929
   26.760    2.0118
   26.790    1.0594
   26.820    0.7491
   26.850    0.7812
   26.880    0.7277
   26.910    0.9524
   26.940    0.8775
   26.970    0.8989
   27.000    0.8775
   27.030    0.9524
   27.060    1.4767
   27.090    1.5195
   27.120    1.4767
   27.150    1.1878
   27.180    0.9203
   27.210    0.7063
   27.240    0.6849
   27.270    0.7491
   27.300    0.8133
   27.330    0.7598
   27.360    0.7277
   27.390    0.7812
   27.420    0.9738
   27.450    1.0487
   27.480    1.1236
   27.510    1.1343
   27.540    0.6956
   27.570    0.7170
   27.600    0.8989
   27.630    0.7277
   27.660    0.7491
   27.690    0.7705
   27.720    0.9310
   27.750    0.8775
   27.780    0.9738
   27.810    1.1129
   27.840    1.7335
   27.870    2.0439
   27.900    1.7549
   27.930    1.3804
   27.960    0.9631
   27.990    0.7277
   28.020    0.9524
   28.050    0.7491
   28.080    0.7812
   28.110    0.8133
   28.140    0.6742
   28.170    0.6421
   28.200    0.9310
   28.230    0.9310
   28.260    0.8989
   28.290    0.8561
   28.320    0.7812
   28.350    0.7170
   28.380    0.6849
   28.410    0.7598
   28.440    0.7705
   28.470    0.7598
   28.500    0.7705
   28.530    0.7919
   28.560    0.7705
   28.590    0.9203
   28.620    0.9310
   28.650    0.9631
   28.680    0.8026
   28.710    0.8026
   28.740    0.6207
   28.770    0.7491
   28.800    0.8775
   28.830    0.6314
   28.860    0.8668
   28.890    0.7598
   28.920    0.7919
   28.950    0.7812
   28.980    0.8668
   29.010    1.0594
   29.040    0.8347
   29.070    0.6421
   29.100    0.8240
   29.130    0.8026
   29.160    0.8347
   29.190    0.6207
   29.220    0.7170
   29.250    0.6528
   29.280    0.7919
   29.310    1.0273
   29.340    1.0701
   29.370    1.2306
   29.400    1.1129
   29.430    0.9417
   29.460    0.7919
   29.490    0.7598
   29.520    0.6635
   29.550    0.6956
   29.580    0.5671
   29.610    0.7598
   29.640    0.7598
   29.670    1.0059
   29.700    0.9417
   29.730    1.1450
   29.760    1.0487
   29.790    0.8240
   29.820    0.8668
   29.850    0.6528
   29.880    0.6100
   29.910    0.6635
   29.940    0.7491
   29.970    0.8454
   30.000    1.0915
   30.030    1.2734
   30.060    2.1830
   30.090    2.5040
   30.120    2.3863
   30.150    2.0867
   30.180    1.3804
   30.210    0.8668
   30.240    0.8882
   30.270    0.6635
   30.300    0.5564
   30.330    0.6849
   30.360    0.5671
   30.390    0.8240
   30.420    0.8775
   30.450    1.1022
   30.480    0.9203
   30.510    0.8240
   30.540    0.6742
   30.570    0.6742
   30.600    0.7063
   30.630    0.6849
   30.660    0.5993
   30.690    0.7384
   30.720    0.7491
   30.750    0.8989
   30.780    1.0915
   30.810    1.1985
   30.840    1.1664
   30.870    1.0059
   30.900    0.7170
   30.930    0.7598
   30.960    0.6528
   30.990    0.5993
   31.020    0.7277
   31.050    0.6849
   31.080    0.5993
   31.110    0.7063
   31.140    0.5993
   31.170    0.6635
   31.200    0.7170
   31.230    0.7063
   31.260    0.6742
   31.290    0.6956
   31.320    0.6956
   31.350    1.0059
   31.380    0.7063
   31.410    0.7063
   31.440    1.1878
   31.470    1.4553
   31.500    1.7121
   31.530    1.5302
   31.560    1.3911
   31.590    0.9845
   31.620    0.6849
   31.650    0.6314
   31.680    0.6742
   31.710    0.5778
   31.740    0.6100
   31.770    0.6421
   31.800    0.7812
   31.830    0.5886
   31.860    0.6207
   31.890    0.5671
   31.920    0.6528
   31.950    0.5029
   31.980    0.6421
   32.010    0.6421
   32.040    0.6956
   32.070    0.7812
   32.100    0.7277
   32.130    0.8882
   32.160    1.0166
   32.190    1.0380
   32.220    0.9845
   32.250    1.0487
   32.280    0.6956
   32.310    0.7384
   32.340    0.4815
   32.370    0.6849
   32.400    0.6100
   32.430    0.6528
   32.460    0.8026
   32.490    0.8882
   32.520    1.1129
   32.550    1.1022
   32.580    1.1343
   32.610    1.1129
   32.640    0.8240
   32.670    0.7491
   32.700    0.8133
   32.730    0.9524
   32.760    0.7277
   32.790    1.0059
   32.820    1.3804
   32.850    1.3697
   32.880    1.2520
   32.910    0.9631
   32.940    1.0273
   32.970    0.7384
   33.000    0.6956
   33.030    0.6421
   33.060    0.5457
   33.090    0.9203
   33.120    0.9096
   33.150    1.1557
   33.180    1.2199
   33.210    1.2306
   33.240    1.2306
   33.270    0.8026
   33.300    0.5886
   33.330    0.6635
   33.360    0.5564
   33.390    0.6528
   33.420    0.7705
   33.450    0.6207
   33.480    0.7384
   33.510    0.5886
   33.540    0.6742
   33.570    0.6742
   33.600    0.5886
   33.630    0.5886
   33.660    0.7063
   33.690    0.5671
   33.720    0.6742
   33.750    0.8240
   33.780    0.8454
   33.810    1.0166
   33.840    0.7919
   33.870    0.7384
   33.900    0.7063
   33.930    0.7384
   33.960    0.6314
   33.990    0.6635
   34.020    0.5564
   34.050    0.6635
   34.080    0.6421
   34.110    1.0380
   34.140    1.1985
   34.170    1.1664
   34.200    1.0273
   34.230    1.0594
   34.260    0.8561
   34.290    0.6528
   34.320    0.7170
   34.350    0.5886
   34.380    0.5886
   34.410    0.5671
   34.440    0.5136
   34.470    0.4494
   34.500    0.5564
   34.530    0.6207
   34.560    0.7384
   34.590    0.5778
   34.620    0.5564
   34.650    0.5886
   34.680    0.6528
   34.710    0.6421
   34.740    0.7063
   34.770    0.8775
   34.800    0.7384
   34.830    0.7705
   34.860    0.6207
   34.890    0.7384
   34.920    0.5029
   34.950    0.6314
   34.980    0.5886
   35.010    0.5457
   35.040    0.6421
   35.070    0.6849
   35.100    0.8882
   35.130    0.6100
   35.160    0.7063
   35.190    0.6742
   35.220    0.6635
   35.250    0.5778
   35.280    0.5136
   35.310    0.5564
   35.340    0.5886
   35.370    0.6100
   35.400    0.6100
   35.430    0.6421
   35.460    0.6100
   35.490    0.5457
   35.520    0.4708
   35.550    0.4280
   35.580    0.4922
   35.610    0.6849
   35.640    0.6849
   35.670    0.6849
   35.700    0.8240
   35.730    0.7812
   35.760    0.8454
   35.790    0.6207
   35.820    0.5350
   35.850    0.5350
   35.880    0.5243
   35.910    0.5671
   35.940    0.4815
   35.970    0.5778
   36.000    0.5564
   36.030    0.5564
   36.060    0.4494
   36.090    0.5136
   36.120    0.5671
   36.150    0.4280
   36.180    0.4708
   36.210    0.4708
   36.240    0.4922
   36.270    0.3959
   36.300    0.5136
   36.330    0.4708
   36.360    0.4815
   36.390    0.5243
   36.420    0.4815
   36.450    0.5564
   36.480    0.6100
   36.510    0.5350
   36.540    0.5350
   36.570    0.6635
   36.600    0.8240
   36.630    0.9310
   36.660    0.6849
   36.690    0.9096
   36.720    0.6849
   36.750    0.5457
   36.780    0.6421
   36.810    0.4815
   36.840    0.4708
   36.870    0.5886
   36.900    0.5993
   36.930    0.6314
   36.960    0.5671
   36.990    0.6314
   37.020    0.5671
   37.050    0.5243
   37.080    0.5029
   37.110    0.5029
   37.140    0.6207
   37.170    0.5993
   37.200    0.6421
   37.230    0.5778
   37.260    0.7277
   37.290    0.5778
   37.320    0.5993
   37.350    0.5886
   37.380    0.5778
   37.410    0.7705
   37.440    0.9203
   37.470    0.9738
   37.500    1.0808
   37.530    0.9203
   37.560    0.8775
   37.590    0.5457
   37.620    0.5886
   37.650    0.5029
   37.680    0.4708
   37.710    0.5350
   37.740    0.4922
   37.770    0.5564
   37.800    0.4494
   37.830    0.5778
   37.860    0.5778
   37.890    0.5886
   37.920    0.4922
   37.950    0.4601
   37.980    0.4601
   38.010    0.3745
   38.040    0.4173
   38.070    0.4387
   38.100    0.4173
   38.130    0.5886
   38.160    0.4173
   38.190    0.4601
   38.220    0.4173
   38.250    0.5564
   38.280    0.4815
   38.310    0.5671
   38.340    0.4066
   38.370    0.6100
   38.400    0.7812
   38.430    0.7170
   38.460    0.6956
   38.490    0.5136
   38.520    0.5457
   38.550    0.4280
   38.580    0.4280
   38.610    0.3531
   38.640    0.4494
   38.670    0.5778
   38.700    0.4708
   38.730    0.4922
   38.760    0.5136
   38.790    0.5136
   38.820    0.4066
   38.850    0.3852
   38.880    0.4815
   38.910    0.5243
   38.940    0.4066
   38.970    0.4494
   39.000    0.4815
   39.030    0.4173
   39.060    0.5350
   39.090    0.4280
   39.120    0.4280
   39.150    0.5136
   39.180    0.5457
   39.210    0.6100
   39.240    0.4280
   39.270    0.4601
   39.300    0.4494
   39.330    0.4922
   39.360    0.5243
   39.390    0.5350
   39.420    0.5029
   39.450    0.5243
   39.480    0.7063
   39.510    0.9524
   39.540    0.8561
   39.570    0.7705
   39.600    0.8026
   39.630    0.7491
   39.660    0.5457
   39.690    0.5350
   39.720    0.5243
   39.750    0.4280
   39.780    0.4922
   39.810    0.6314
   39.840    0.5671
   39.870    0.4066
   39.900    0.5564
   39.930    0.4173
   39.960    0.4280
   39.990    0.4815