File: data/PXRD/PXRD_KE-305-3F_Cu-Ka1_capillary-1mm_3s-deg.xyd
    1.500   15.3941
    1.530   15.1132
    1.560   15.6398
    1.590   14.9728
    1.620   13.7792
    1.650   13.7090
    1.680   13.5334
    1.710   13.4808
    1.740   12.4978
    1.770   13.4106
    1.800   12.9015
    1.830   12.1994
    1.860   12.3749
    1.890   12.2521
    1.920   11.7255
    1.950   11.3042
    1.980   12.0590
    2.010   11.4095
    2.040   11.6728
    2.070   10.8127
    2.100    9.8999
    2.130   10.7776
    2.160   10.8478
    2.190   11.0233
    2.220   10.2686
    2.250   10.5319
    2.280   10.4968
    2.310   11.2691
    2.340   10.8478
    2.370   10.1808
    2.400   10.5670
    2.430   10.2686
    2.460   10.3563
    2.490   10.4792
    2.520   10.6021
    2.550   10.9531
    2.580   10.1457
    2.610   10.8829
    2.640   11.2691
    2.670   11.4622
    2.700   11.7606
    2.730   11.9888
    2.760   12.0941
    2.790   12.5154
    2.820   12.5856
    2.850   12.4627
    2.880   12.9717
    2.910   13.5861
    2.940   13.5334
    2.970   14.0600
    3.000   13.9898
    3.030   15.3414
    3.060   15.9558
    3.090   16.7632
    3.120   16.5526
    3.150   17.2547
    3.180   18.8345
    3.210   18.6238
    3.240   19.6068
    3.270   21.5377
    3.300   22.0467
    3.330   23.1350
    3.360   24.7148
    3.390   25.3993
    3.420   28.2605
    3.450   28.8046
    3.480   31.1567
    3.510   34.5796
    3.540   37.5812
    3.570   42.0572
    3.600   45.2343
    3.630   50.5880
    3.660   55.3449
    3.690   62.8050
    3.720   72.9682
    3.750   84.4831
    3.780  106.1085
    3.810  138.4062
    3.840  167.3512
    3.870  135.0711
    3.900   67.2459
    3.930   21.6430
    3.960   11.4797
    3.990    8.5659
    4.020    7.8287
    4.050    7.3723
    4.080    7.0915
    4.110    6.9159
    4.140    6.6000
    4.170    6.9335
    4.200    6.8106
    4.230    6.2489
    4.260    6.1436
    4.290    6.3191
    4.320    6.5649
    4.350    6.1611
    4.380    6.3893
    4.410    6.4069
    4.440    6.4069
    4.470    6.7404
    4.500    6.8984
    4.530    6.4244
    4.560    6.3542
    4.590    7.1617
    4.620    6.8457
    4.650    6.8633
    4.680    7.1090
    4.710    7.2845
    4.740    7.4250
    4.770    7.4425
    4.800    7.7234
    4.830    7.7409
    4.860    7.9691
    4.890    8.1622
    4.920    8.6712
    4.950    9.1276
    4.980    9.0574
    5.010    9.4787
    5.040   10.2861
    5.070   11.4446
    5.100   11.8483
    5.130   12.8840
    5.160   13.9196
    5.190   15.4994
    5.220   16.4121
    5.250   18.1148
    5.280   20.8004
    5.310   23.5914
    5.340   25.7153
    5.370   30.4897
    5.400   37.4583
    5.430   48.5519
    5.460   61.8922
    5.490   51.6939
    5.520   29.8929
    5.550   12.3223
    5.580    7.5829
    5.610    6.0558
    5.640    6.0032
    5.670    5.7399
    5.700    5.4415
    5.730    5.8627
    5.760    5.4590
    5.790    5.8101
    5.820    4.9324
    5.850    5.5994
    5.880    5.3537
    5.910    5.7223
    5.940    5.3537
    5.970    5.3537
    6.000    5.6345
    6.030    5.9856
    6.060    5.9505
    6.090    5.5994
    6.120    6.0383
    6.150    5.6345
    6.180    5.7925
    6.210    6.0909
    6.240    5.6697
    6.270    5.8276
    6.300    6.6526
    6.330    6.4420
    6.360    6.9335
    6.390    6.5122
    6.420    6.6526
    6.450    6.7755
    6.480    8.0920
    6.510    8.8292
    6.540    9.3382
    6.570    9.1276
    6.600   10.2861
    6.630   12.6207
    6.660   15.2712
    6.690   19.0276
    6.720   20.2738
    6.750   15.5872
    6.780    9.0398
    6.810    6.8984
    6.840    5.7925
    6.870    5.4766
    6.900    5.0026
    6.930    5.3010
    6.960    5.0202
    6.990    5.0904
    7.020    5.6872
    7.050    5.2835
    7.080    5.4064
    7.110    4.6340
    7.140    5.4064
    7.170    4.7042
    7.200    5.3010
    7.230    5.3010
    7.260    5.4766
    7.290    4.9500
    7.320    5.5819
    7.350    5.4239
    7.380    5.0553
    7.410    5.8803
    7.440    5.8803
    7.470    6.3542
    7.500    6.1611
    7.530    6.4244
    7.560    7.6707
    7.590    6.7930
    7.620    7.9340
    7.650    8.1797
    7.680    9.5840
    7.710   11.0936
    7.740   13.3052
    7.770   15.6574
    7.800   11.9537
    7.830    7.8462
    7.860    5.7223
    7.890    5.1606
    7.920    4.9149
    7.950    5.0904
    7.980    5.3361
    8.010    5.1431
    8.040    5.2659
    8.070    5.1080
    8.100    4.7920
    8.130    5.1255
    8.160    5.0904
    8.190    5.2835
    8.220    5.0377
    8.250    4.9500
    8.280    5.1431
    8.310    5.0904
    8.340    4.8095
    8.370    5.1957
    8.400    4.8447
    8.430    4.9149
    8.460    4.9324
    8.490    5.2659
    8.520    4.8798
    8.550    5.8452
    8.580    5.3010
    8.610    5.4766
    8.640    6.0383
    8.670    6.3367
    8.700    6.4946
    8.730    6.0207
    8.760    5.7048
    8.790    5.3010
    8.820    4.7218
    8.850    4.6516
    8.880    4.7218
    8.910    4.8622
    8.940    5.3010
    8.970    5.3186
    9.000    5.3888
    9.030    4.6867
    9.060    5.2308
    9.090    5.4239
    9.120    5.9329
    9.150    5.1606
    9.180    6.1611
    9.210    6.0734
    9.240    6.6702
    9.270    6.6351
    9.300    7.6707
    9.330    8.2149
    9.360    8.7063
    9.390   10.5319
    9.420   11.5148
    9.450   14.5691
    9.480   18.6589
    9.510   26.3648
    9.540   26.1366
    9.570   19.1855
    9.600   10.4265
    9.630    6.4946
    9.660    5.0377
    9.690    5.1782
    9.720    5.2308
    9.750    4.9675
    9.780    4.8622
    9.810    4.9324
    9.840    5.0904
    9.870    4.5463
    9.900    5.0904
    9.930    4.9500
    9.960    5.1255
    9.990    4.9675
   10.020    5.3361
   10.050    5.2133
   10.080    5.4064
   10.110    5.8803
   10.140    6.5473
   10.170    6.5298
   10.200    7.2845
   10.230    8.3553
   10.260    9.9351
   10.290   12.5154
   10.320   12.0590
   10.350    8.6888
   10.380    6.4244
   10.410    5.1255
   10.440    4.9324
   10.470    4.6516
   10.500    4.3181
   10.530    4.6340
   10.560    4.9675
   10.590    4.8095
   10.620    4.6867
   10.650    4.9500
   10.680    4.8622
   10.710    5.0553
   10.740    5.0026
   10.770    5.0553
   10.800    5.4239
   10.830    5.4064
   10.860    5.4766
   10.890    6.1260
   10.920    6.4595
   10.950    7.0037
   10.980    8.8819
   11.010   10.2159
   11.040    9.5840
   11.070    7.5829
   11.100    5.4766
   11.130    4.8798
   11.160    4.9500
   11.190    4.6867
   11.220    4.7920
   11.250    4.7218
   11.280    5.3712
   11.310    4.4058
   11.340    4.8271
   11.370    4.8447
   11.400    4.9500
   11.430    5.0904
   11.460    4.7744
   11.490    5.1431
   11.520    5.7399
   11.550    5.8276
   11.580    6.3016
   11.610    7.1266
   11.640    8.1095
   11.670   10.3914
   11.700   10.9005
   11.730    9.4787
   11.760    6.6526
   11.790    4.8798
   11.820    4.2303
   11.850    4.5814
   11.880    4.9324
   11.910    4.6165
   11.940    4.7920
   11.970    4.4760
   12.000    4.5463
   12.030    4.4585
   12.060    4.4409
   12.090    5.1080
   12.120    4.7218
   12.150    4.4058
   12.180    4.7218
   12.210    4.4936
   12.240    4.8622
   12.270    5.0728
   12.300    5.5117
   12.330    5.4415
   12.360    5.4766
   12.390    4.7920
   12.420    4.9324
   12.450    4.7920
   12.480    4.5287
   12.510    4.2303
   12.540    4.3883
   12.570    4.2478
   12.600    4.5463
   12.630    4.4058
   12.660    4.5638
   12.690    4.7393
   12.720    4.9500
   12.750    5.0377
   12.780    4.7744
   12.810    4.9851
   12.840    6.0383
   12.870    5.8276
   12.900    7.5303
   12.930    8.2675
   12.960    8.6537
   12.990    6.7053
   13.020    5.3888
   13.050    4.7744
   13.080    4.6165
   13.110    4.3707
   13.140    4.7569
   13.170    4.5989
   13.200    4.7393
   13.230    4.1074
   13.260    4.3005
   13.290    4.4409
   13.320    4.4760
   13.350    4.3181
   13.380    4.7042
   13.410    4.9500
   13.440    4.9324
   13.470    5.8452
   13.500    5.9681
   13.530    6.0032
   13.560    5.6345
   13.590    5.0202
   13.620    4.4234
   13.650    4.8447
   13.680    4.6691
   13.710    4.5287
   13.740    4.5638
   13.770    4.7393
   13.800    4.1776
   13.830    5.0026
   13.860    4.6340
   13.890    5.2484
   13.920    4.6340
   13.950    5.3712
   13.980    5.8452
   14.010    5.8627
   14.040    6.8808
   14.070    8.3904
   14.100    8.0744
   14.130    6.9335
   14.160    5.3888
   14.190    5.1606
   14.220    4.5111
   14.250    4.5463
   14.280    4.2654
   14.310    4.1425
   14.340    4.3532
   14.370    4.2654
   14.400    4.2654
   14.430    4.5989
   14.460    4.2830
   14.490    4.1952
   14.520    3.7388
   14.550    4.0197
   14.580    4.2830
   14.610    4.0723
   14.640    3.9846
   14.670    4.4234
   14.700    3.9494
   14.730    4.1601
   14.760    4.4760
   14.790    4.0197
   14.820    4.4936
   14.850    4.2127
   14.880    4.0548
   14.910    4.2830
   14.940    4.0372
   14.970    4.6165
   15.000    4.4234
   15.030    4.4936
   15.060    4.3532
   15.090    4.5287
   15.120    4.6165
   15.150    4.6867
   15.180    4.3356
   15.210    4.4234
   15.240    4.3005
   15.270    4.1425
   15.300    4.4760
   15.330    4.1250
   15.360    4.1425
   15.390    4.1952
   15.420    4.0723
   15.450    4.0548
   15.480    4.1776
   15.510    4.3532
   15.540    4.1601
   15.570    4.3883
   15.600    4.1776
   15.630    3.9846
   15.660    4.1952
   15.690    4.0548
   15.720    4.2830
   15.750    4.3532
   15.780    4.5111
   15.810    4.3707
   15.840    4.2303
   15.870    4.3532
   15.900    4.2478
   15.930    4.0548
   15.960    4.5989
   15.990    4.9324
   16.020    4.5989
   16.050    4.4234
   16.080    4.9675
   16.110    4.8798
   16.140    5.0377
   16.170    4.9149
   16.200    4.2303
   16.230    4.5111
   16.260    4.4409
   16.290    4.4585
   16.320    4.2478
   16.350    4.2127
   16.380    4.1952
   16.410    4.4585
   16.440    4.4585
   16.470    4.3707
   16.500    4.3883
   16.530    4.5814
   16.560    4.9675
   16.590    4.7569
   16.620    5.2835
   16.650    5.0728
   16.680    4.2830
   16.710    4.5111
   16.740    4.3356
   16.770    4.1776
   16.800    4.5638
   16.830    4.4936
   16.860    4.2303
   16.890    4.3883
   16.920    4.4234
   16.950    5.2835
   16.980    6.2138
   17.010    6.3893
   17.040    7.5127
   17.070    7.0037
   17.100    6.0207
   17.130    5.7048
   17.160    4.6691
   17.190    4.1601
   17.220    4.3883
   17.250    4.1952
   17.280    4.8447
   17.310    4.3005
   17.340    4.1425
   17.370    4.6340
   17.400    4.3532
   17.430    4.8798
   17.460    4.7393
   17.490    4.7569
   17.520    4.8798
   17.550    4.5814
   17.580    4.4409
   17.610    3.9846
   17.640    4.1074
   17.670    4.0021
   17.700    4.1601
   17.730    4.1601
   17.760    4.1952
   17.790    4.3883
   17.820    4.3532
   17.850    4.5287
   17.880    4.6691
   17.910    4.7744
   17.940    4.7218
   17.970    4.5989
   18.000    5.1431
   18.030    4.5111
   18.060    4.2830
   18.090    4.3005
   18.120    4.1425
   18.150    4.1952
   18.180    4.0899
   18.210    4.5638
   18.240    3.8090
   18.270    4.4058
   18.300    4.4409
   18.330    4.9500
   18.360    4.9500
   18.390    4.5814
   18.420    5.2659
   18.450    4.7920
   18.480    4.3532
   18.510    4.0899
   18.540    4.2303
   18.570    4.4409
   18.600    4.6340
   18.630    4.3356
   18.660    4.0372
   18.690    3.9846
   18.720    4.5814
   18.750    4.2127
   18.780    5.0202
   18.810    4.5638
   18.840    4.3532
   18.870    4.3181
   18.900    3.9846
   18.930    4.2303
   18.960    4.6691
   18.990    4.1952
   19.020    4.0899
   19.050    4.0548
   19.080    4.7393
   19.110    4.2654
   19.140    3.9670
   19.170    3.9670
   19.200    4.1952
   19.230    4.3356
   19.260    4.2830
   19.290    4.3356
   19.320    4.1425
   19.350    3.9670
   19.380    4.4585
   19.410    4.6867
   19.440    4.3883
   19.470    4.4760
   19.500    4.3356
   19.530    4.7569
   19.560    5.5819
   19.590    5.2133
   19.620    5.5643
   19.650    4.9851
   19.680    4.5111
   19.710    4.3181
   19.740    4.3707
   19.770    3.9319
   19.800    4.5814
   19.830    4.4936
   19.860    4.4585
   19.890    4.1074
   19.920    4.3181
   19.950    3.8792
   19.980    4.7218
   20.010    4.5989
   20.040    4.1601
   20.070    4.0372
   20.100    4.4760
   20.130    4.3005
   20.160    4.6165
   20.190    4.5287
   20.220    4.8973
   20.250    4.8095
   20.280    4.4058
   20.310    5.2308
   20.340    5.7223
   20.370    6.3718
   20.400    6.4595
   20.430    6.2489
   20.460    4.8271
   20.490    4.5814
   20.520    4.5111
   20.550    4.6516
   20.580    4.4936
   20.610    4.2830
   20.640    4.0899
   20.670    4.3005
   20.700    4.2654
   20.730    4.1250
   20.760    4.1425
   20.790    4.5463
   20.820    4.0899
   20.850    3.9670
   20.880    4.3005
   20.910    4.0723
   20.940    4.0899
   20.970    4.4409
   21.000    4.7569
   21.030    4.0197
   21.060    4.4234
   21.090    4.6516
   21.120    4.4585
   21.150    4.2478
   21.180    4.1601
   21.210    4.1952
   21.240    4.4058
   21.270    4.3181
   21.300    4.1074
   21.330    4.4936
   21.360    4.1250
   21.390    4.3532
   21.420    4.1425
   21.450    4.2127
   21.480    4.2127
   21.510    4.2303
   21.540    4.3356
   21.570    4.4409
   21.600    4.2654
   21.630    3.9670
   21.660    4.3005
   21.690    4.1776
   21.720    4.3883
   21.750    4.3883
   21.780    4.3181
   21.810    4.9149
   21.840    5.5292
   21.870    5.7048
   21.900    5.2659
   21.930    4.5287
   21.960    4.1952
   21.990    4.6516
   22.020    4.4409
   22.050    4.5111
   22.080    4.7218
   22.110    4.9675
   22.140    4.5463
   22.170    5.2659
   22.200    5.2133
   22.230    4.7744
   22.260    4.7042
   22.290    4.7920
   22.320    4.6867
   22.350    4.7569
   22.380    4.9500
   22.410    4.7393
   22.440    4.5814
   22.470    5.4941
   22.500    5.7574
   22.530    6.6702
   22.560    6.7755
   22.590    6.6526
   22.620    6.3718
   22.650    5.2659
   22.680    4.4058
   22.710    4.4936
   22.740    4.3532
   22.770    4.7569
   22.800    4.7920
   22.830    5.4064
   22.860    5.8101
   22.890    6.6526
   22.920    6.7579
   22.950    6.5473
   22.980    5.9505
   23.010    5.0377
   23.040    4.5111
   23.070    4.2654
   23.100    4.4058
   23.130    4.3883
   23.160    5.0026
   23.190    5.0026
   23.220    5.0026
   23.250    5.2133
   23.280    5.1080
   23.310    4.9500
   23.340    4.8798
   23.370    4.1074
   23.400    3.9494
   23.430    4.3005
   23.460    4.3181
   23.490    4.4760
   23.520    4.1952
   23.550    4.9324
   23.580    4.4760
   23.610    4.0899
   23.640    4.4760
   23.670    4.3883
   23.700    4.0021
   23.730    4.3356
   23.760    4.4409
   23.790    4.3005
   23.820    4.1250
   23.850    4.7569
   23.880    5.1431
   23.910    5.1431
   23.940    4.6165
   23.970    4.7569
   24.000    4.3707
   24.030    3.9143
   24.060    4.5287
   24.090    4.0372
   24.120    4.8622
   24.150    4.2478
   24.180    4.2830
   24.210    4.2654
   24.240    4.6165
   24.270    4.0723
   24.300    4.3005
   24.330    4.4936
   24.360    4.1952
   24.390    4.5111
   24.420    4.2830
   24.450    4.2654
   24.480    4.0372
   24.510    4.2478
   24.540    4.2654
   24.570    4.4058
   24.600    4.6867
   24.630    4.4409
   24.660    3.9143
   24.690    4.5287
   24.720    4.0372
   24.750    4.4936
   24.780    3.9670
   24.810    4.0723
   24.840    4.3883
   24.870    4.2127
   24.900    4.8447
   24.930    4.2127
   24.960    4.0197
   24.990    4.2478
   25.020    4.4234
   25.050    4.0548
   25.080    4.0021
   25.110    4.1250
   25.140    4.3532
   25.170    4.8095
   25.200    4.9149
   25.230    5.0904
   25.260    4.5287
   25.290    4.5463
   25.320    4.1074
   25.350    4.3181
   25.380    4.1250
   25.410    4.3707
   25.440    4.3005
   25.470    4.6516
   25.500    4.5638
   25.530    4.6516
   25.560    4.2654
   25.590    4.4585
   25.620    4.3005
   25.650    4.7218
   25.680    4.1952
   25.710    4.4760
   25.740    5.0202
   25.770    5.4064
   25.800    5.7750
   25.830    6.4595
   25.860    5.8627
   25.890    5.1957
   25.920    4.7042
   25.950    4.5111
   25.980    4.1952
   26.010    4.1601
   26.040    4.3181
   26.070    4.0899
   26.100    4.3356
   26.130    3.8617
   26.160    4.3883
   26.190    4.3356
   26.220    4.3883
   26.250    4.3707
   26.280    4.2478
   26.310    3.9319
   26.340    4.2478
   26.370    4.3532
   26.400    4.8447
   26.430    4.8973
   26.460    4.8271
   26.490    4.5287
   26.520    4.4585
   26.550    4.0899
   26.580    3.9494
   26.610    3.8441
   26.640    3.5984
   26.670    4.0723
   26.700    4.1425
   26.730    4.0372
   26.760    4.5989
   26.790    4.0372
   26.820    4.3181
   26.850    3.7564
   26.880    3.7739
   26.910    4.1074
   26.940    4.2127
   26.970    4.2478
   27.000    5.0377
   27.030    4.8095
   27.060    4.9324
   27.090    4.3532
   27.120    4.3532
   27.150    4.1074
   27.180    3.9494
   27.210    3.8617
   27.240    4.0899
   27.270    3.9846
   27.300    3.7213
   27.330    3.8968
   27.360    4.2478
   27.390    4.1250
   27.420    4.0197
   27.450    4.3181
   27.480    4.0021
   27.510    3.9319
   27.540    4.1425
   27.570    4.1250
   27.600    4.7569
   27.630    4.6165
   27.660    4.5814
   27.690    3.9670
   27.720    3.9846
   27.750    3.6510
   27.780    3.7037
   27.810    4.0197
   27.840    4.1425
   27.870    4.2654
   27.900    4.3356
   27.930    4.2654
   27.960    4.1250
   27.990    4.1074
   28.020    4.0372
   28.050    3.7213
   28.080    4.0021
   28.110    4.1776
   28.140    4.6340
   28.170    5.1255
   28.200    4.9675
   28.230    4.5638
   28.260    4.8271
   28.290    4.2478
   28.320    4.0548
   28.350    3.8968
   28.380    4.6516
   28.410    4.7042
   28.440    4.6867
   28.470    4.5814
   28.500    4.3181
   28.530    4.2830
   28.560    4.4058
   28.590    3.6686
   28.620    3.7739
   28.650    3.5984
   28.680    3.4404
   28.710    3.9670
   28.740    3.8617
   28.770    3.7388
   28.800    3.8266
   28.830    3.6862
   28.860    3.9670
   28.890    3.8617
   28.920    3.6335
   28.950    3.6335
   28.980    3.9670
   29.010    4.2127
   29.040    3.7564
   29.070    3.7037
   29.100    4.1601
   29.130    4.0197
   29.160    3.3175
   29.190    4.1250
   29.220    3.8266
   29.250    4.2303
   29.280    4.3883
   29.310    4.5989
   29.340    4.2830
   29.370    4.1952
   29.400    3.9846
   29.430    3.8266
   29.460    3.9494
   29.490    3.6335
   29.520    3.7915
   29.550    4.1952
   29.580    3.7213
   29.610    3.6335
   29.640    3.7388
   29.670    3.9670
   29.700    3.6510
   29.730    4.2478
   29.760    4.2127
   29.790    4.0723
   29.820    3.9670
   29.850    4.0021
   29.880    3.8441
   29.910    3.5457
   29.940    3.8441
   29.970    3.4580
   30.000    3.5984
   30.030    3.9319
   30.060    3.9494
   30.090    3.8617
   30.120    3.8441
   30.150    4.0372
   30.180    3.5457
   30.210    3.8090
   30.240    3.4580
   30.270    3.6686
   30.300    4.1074
   30.330    3.3175
   30.360    3.5984
   30.390    4.2478
   30.420    4.1952
   30.450    4.0372
   30.480    3.6862
   30.510    3.5984
   30.540    3.8090
   30.570    3.5984
   30.600    3.8792
   30.630    4.0021
   30.660    4.0723
   30.690    3.8441
   30.720    3.8792
   30.750    4.1425
   30.780    3.7915
   30.810    3.3526
   30.840    3.2298
   30.870    4.0548
   30.900    3.6159
   30.930    3.8266
   30.960    3.5984
   30.990    3.7037
   31.020    3.6510
   31.050    3.1947
   31.080    3.4931
   31.110    3.2473
   31.140    3.5282
   31.170    3.5282
   31.200    3.6510
   31.230    3.7739
   31.260    3.8090
   31.290    3.4229
   31.320    3.8617
   31.350    3.9319
   31.380    3.5282
   31.410    4.0548
   31.440    3.6510
   31.470    3.7213
   31.500    3.7388
   31.530    3.2473
   31.560    3.4580
   31.590    3.5984
   31.620    3.6510
   31.650    3.8266
   31.680    4.0548
   31.710    4.4585
   31.740    3.8617
   31.770    4.0372
   31.800    4.0021
   31.830    3.7388
   31.860    4.2478
   31.890    3.7739
   31.920    3.5808
   31.950    3.6510
   31.980    3.5282
   32.010    3.5808
   32.040    3.5282
   32.070    3.6686
   32.100    3.9670
   32.130    3.4580
   32.160    3.5282
   32.190    3.7213
   32.220    3.1420
   32.250    3.3526
   32.280    3.3175
   32.310    3.0016
   32.340    3.5984
   32.370    3.6159
   32.400    3.1069
   32.430    3.7388
   32.460    3.4931
   32.490    3.3000
   32.520    3.4755
   32.550    3.3175
   32.580    3.2298
   32.610    3.4931
   32.640    3.1245
   32.670    3.5106
   32.700    3.1420
   32.730    3.6510
   32.760    3.3702
   32.790    3.4229
   32.820    3.6510
   32.850    3.3526
   32.880    3.8266
   32.910    3.8792
   32.940    3.6159
   32.970    3.4229
   33.000    3.5282
   33.030    3.3000
   33.060    3.0893
   33.090    3.7037
   33.120    3.7739
   33.150    3.4755
   33.180    3.0191
   33.210    3.3526
   33.240    3.1596
   33.270    3.1069
   33.300    3.2122
   33.330    3.0542
   33.360    3.4755
   33.390    3.2824
   33.420    3.3175
   33.450    3.5282
   33.480    3.4931
   33.510    3.0191
   33.540    3.2298
   33.570    3.5106
   33.600    3.3526
   33.630    3.5106
   33.660    3.1245
   33.690    3.1069
   33.720    3.5808
   33.750    3.3877
   33.780    3.4404
   33.810    3.5457
   33.840    3.7037
   33.870    3.9670
   33.900    3.4580
   33.930    3.9143
   33.960    3.4053
   33.990    3.8792
   34.020    3.5282
   34.050    3.2824
   34.080    3.5633
   34.110    3.1596
   34.140    3.1947
   34.170    2.8787
   34.200    3.2298
   34.230    3.2824
   34.260    3.3702
   34.290    3.2122
   34.320    3.3526
   34.350    3.5457
   34.380    3.0367
   34.410    2.9665
   34.440    2.9314
   34.470    2.7383
   34.500    2.7734
   34.530    2.8612
   34.560    3.2824
   34.590    2.9489
   34.620    3.4580
   34.650    3.0367
   34.680    3.0367
   34.710    2.8260
   34.740    3.2824
   34.770    3.6510
   34.800    3.5808
   34.830    2.8963
   34.860    3.4404
   34.890    3.4404
   34.920    3.1771
   34.950    3.5106
   34.980    2.8612
   35.010    3.0718
   35.040    3.0191
   35.070    2.8436
   35.100    3.2649
   35.130    3.1771
   35.160    3.0893
   35.190    3.3351
   35.220    3.0542
   35.250    2.9314
   35.280    3.4053
   35.310    2.6856
   35.340    2.9840
   35.370    3.3175
   35.400    3.1420
   35.430    3.1245
   35.460    3.0367
   35.490    3.1069
   35.520    3.0191
   35.550    3.0016
   35.580    2.9489
   35.610    2.7383
   35.640    2.6505
   35.670    2.7558
   35.700    3.0016
   35.730    3.4580
   35.760    3.0718
   35.790    3.0718
   35.820    2.8963
   35.850    3.1947
   35.880    3.1245
   35.910    3.1771
   35.940    3.1771
   35.970    2.8260
   36.000    2.9840
   36.030    3.1069
   36.060    3.1947
   36.090    2.7032
   36.120    3.1245
   36.150    3.2122
   36.180    3.2824
   36.210    3.4229
   36.240    3.0542
   36.270    3.1771
   36.300    2.9489
   36.330    2.7032
   36.360    2.6505
   36.390    3.0893
   36.420    3.1245
   36.450    3.3000
   36.480    3.2298
   36.510    3.0367
   36.540    2.7909
   36.570    3.0718
   36.600    3.0191
   36.630    2.7734
   36.660    2.8260
   36.690    3.2649
   36.720    3.0367
   36.750    3.1947
   36.780    2.7383
   36.810    2.8787
   36.840    2.8436
   36.870    2.9314
   36.900    2.9138
   36.930    2.8085
   36.960    2.9314
   36.990    3.1771
   37.020    2.9840
   37.050    2.9665
   37.080    3.4404
   37.110    3.0542
   37.140    3.0016
   37.170    3.1069
   37.200    2.4574
   37.230    2.9489
   37.260    3.0016
   37.290    3.1069
   37.320    2.9840
   37.350    2.7207
   37.380    2.9840
   37.410    2.6856
   37.440    2.5452
   37.470    2.7383
   37.500    3.0718
   37.530    2.7558
   37.560    2.7909
   37.590    2.8085
   37.620    3.0893
   37.650    2.7734
   37.680    3.0191
   37.710    3.3526
   37.740    2.9665
   37.770    3.3175
   37.800    3.2122
   37.830    3.0191
   37.860    2.7207
   37.890    2.8787
   37.920    2.8963
   37.950    2.6330
   37.980    3.2298
   38.010    3.1245
   38.040    3.1069
   38.070    3.1245
   38.100    2.7734
   38.130    2.9840
   38.160    2.8787
   38.190    2.9138
   38.220    2.8787
   38.250    2.8085
   38.280    2.6856
   38.310    2.8787
   38.340    2.9665
   38.370    2.5803
   38.400    2.8085
   38.430    3.0367
   38.460    2.9665
   38.490    2.9314
   38.520    3.0542
   38.550    2.6505
   38.580    3.0367
   38.610    2.5452
   38.640    2.8787
   38.670    2.7734
   38.700    2.8963
   38.730    3.0367
   38.760    2.7207
   38.790    2.8963
   38.820    2.6681
   38.850    2.5276
   38.880    2.6856
   38.910    3.0016
   38.940    2.6330
   38.970    3.0191
   39.000    2.7207
   39.030    2.3170
   39.060    2.7909
   39.090    2.5803
   39.120    2.7207
   39.150    2.5101
   39.180    2.7558
   39.210    2.8963
   39.240    2.6681
   39.270    2.9138
   39.300    2.9840
   39.330    2.9489
   39.360    3.2122
   39.390    2.9489
   39.420    2.6681
   39.450    2.4048
   39.480    2.7032
   39.510    2.6330
   39.540    2.5101
   39.570    3.0191
   39.600    2.6330
   39.630    2.6856
   39.660    2.7909
   39.690    3.0016
   39.720    2.9489
   39.750    2.8436
   39.780    2.7734
   39.810    2.9314
   39.840    2.6681
   39.870    2.6505
   39.900    3.0016
   39.930    2.8612
   39.960    2.7207
   39.990    2.5979