File: data/PXRD/PXRD_KE-064_Cu-Ka1_film-3mm_5s-deg.xyd
    1.500    9.8789
    1.530    9.6156
    1.560    9.5313
    1.590    9.1838
    1.620    9.3207
    1.650    9.3418
    1.680    9.0785
    1.710    8.8152
    1.740    8.4044
    1.770    8.3096
    1.800    8.0569
    1.830    8.2991
    1.860    8.3096
    1.890    8.3202
    1.920    7.7199
    1.950    7.7409
    1.980    7.5724
    2.010    7.4039
    2.040    7.1617
    2.070    7.0985
    2.100    6.9089
    2.130    6.8562
    2.160    6.8141
    2.190    6.9510
    2.220    6.5508
    2.250    6.7825
    2.280    6.6772
    2.310    6.6140
    2.340    6.7930
    2.370    6.4771
    2.400    6.3402
    2.430    6.2033
    2.460    6.6772
    2.490    6.2033
    2.520    6.2454
    2.550    6.3191
    2.580    5.8452
    2.610    6.3928
    2.640    5.9189
    2.670    6.2454
    2.700    5.8136
    2.730    6.0558
    2.760    6.0242
    2.790    6.1927
    2.820    6.4350
    2.850    5.8241
    2.880    5.8031
    2.910    5.6240
    2.940    5.8452
    2.970    5.4344
    3.000    6.0348
    3.030    5.9294
    3.060    5.9821
    3.090    5.8662
    3.120    6.3402
    3.150    5.6977
    3.180    6.2454
    3.210    5.5714
    3.240    5.8873
    3.270    5.6767
    3.300    5.7925
    3.330    5.9400
    3.360    5.9400
    3.390    5.9821
    3.420    6.0453
    3.450    6.1295
    3.480    5.9400
    3.510    5.6661
    3.540    5.7609
    3.570    6.2559
    3.600    6.7404
    3.630    6.5087
    3.660    6.9405
    3.690    6.5298
    3.720    6.9932
    3.750    7.1301
    3.780    7.6672
    3.810    8.5835
    3.840    9.3628
    3.870   10.6688
    3.900   13.7967
    3.930   12.2275
    3.960    8.1306
    3.990    6.2770
    4.020    5.7293
    4.050    5.7188
    4.080    5.4766
    4.110    5.8662
    4.140    5.8768
    4.170    5.7188
    4.200    6.0348
    4.230    5.4660
    4.260    5.7083
    4.290    5.7399
    4.320    5.8873
    4.350    5.4871
    4.380    5.6872
    4.410    5.6872
    4.440    6.0979
    4.470    5.6451
    4.500    5.2449
    4.530    5.9400
    4.560    5.3818
    4.590    5.8662
    4.620    5.6872
    4.650    6.0242
    4.680    5.9926
    4.710    5.6661
    4.740    5.5924
    4.770    5.8241
    4.800    5.9926
    4.830    5.6977
    4.860    6.6140
    4.890    6.0664
    4.920    6.1611
    4.950    6.1506
    4.980    6.2349
    5.010    6.0664
    5.040    6.2559
    5.070    6.0874
    5.100    6.2033
    5.130    6.5403
    5.160    6.6140
    5.190    6.7720
    5.220    6.9089
    5.250    7.1827
    5.280    7.2775
    5.310    7.4144
    5.340    7.6672
    5.370    8.1095
    5.400    8.2043
    5.430    8.2464
    5.460    9.2048
    5.490    9.3944
    5.520   10.3423
    5.550   10.0474
    5.580    9.6577
    5.610    7.8252
    5.640    8.1411
    5.670    7.6988
    5.700    7.6777
    5.730    7.6145
    5.760    7.3091
    5.790    7.4039
    5.820    7.0669
    5.850    6.4244
    5.880    6.7299
    5.910    6.8773
    5.940    6.1927
    5.970    6.3086
    6.000    6.4244
    6.030    6.6245
    6.060    6.1085
    6.090    6.0242
    6.120    5.8452
    6.150    5.5924
    6.180    5.9926
    6.210    5.7609
    6.240    5.8031
    6.270    5.3186
    6.300    5.4660
    6.330    5.8452
    6.360    5.4555
    6.390    5.4871
    6.420    5.4660
    6.450    5.5924
    6.480    5.4660
    6.510    5.3291
    6.540    5.4766
    6.570    5.2027
    6.600    5.4450
    6.630    4.8868
    6.660    5.2870
    6.690    5.5608
    6.720    5.8557
    6.750    5.9294
    6.780    6.2454
    6.810    5.6661
    6.840    5.2238
    6.870    5.1290
    6.900    5.1606
    6.930    4.7604
    6.960    4.8341
    6.990    4.8763
    7.020    5.0132
    7.050    4.6235
    7.080    4.3918
    7.110    4.6761
    7.140    4.4550
    7.170    4.4550
    7.200    4.5392
    7.230    4.8763
    7.260    4.4760
    7.290    4.5182
    7.320    4.6340
    7.350    4.5182
    7.380    4.4760
    7.410    4.7183
    7.440    4.2654
    7.470    4.2233
    7.500    3.9494
    7.530    4.3391
    7.560    4.1496
    7.590    4.3181
    7.620    4.1285
    7.650    4.2127
    7.680    4.2443
    7.710    4.2549
    7.740    4.3286
    7.770    4.2338
    7.800    4.2865
    7.830    4.5708
    7.860    4.3391
    7.890    4.2443
    7.920    3.6651
    7.950    4.0021
    7.980    4.0653
    8.010    3.9810
    8.040    4.1390
    8.070    3.7704
    8.100    3.9389
    8.130    3.6440
    8.160    3.5703
    8.190    3.7283
    8.220    4.0442
    8.250    3.7388
    8.280    3.4755
    8.310    3.3807
    8.340    3.7072
    8.370    3.7177
    8.400    3.6335
    8.430    3.6651
    8.460    3.9705
    8.490    3.8547
    8.520    3.5282
    8.550    3.7072
    8.580    3.6124
    8.610    3.4966
    8.640    3.5914
    8.670    3.5703
    8.700    3.5176
    8.730    3.6440
    8.760    3.4439
    8.790    3.5492
    8.820    3.4018
    8.850    3.2859
    8.880    3.6230
    8.910    3.4123
    8.940    3.5914
    8.970    3.5703
    9.000    3.6546
    9.030    3.4860
    9.060    3.5282
    9.090    3.5176
    9.120    3.5492
    9.150    3.4860
    9.180    3.5176
    9.210    3.4544
    9.240    3.2649
    9.270    3.3807
    9.300    3.4018
    9.330    3.4229
    9.360    3.3386
    9.390    3.4544
    9.420    3.6019
    9.450    3.6651
    9.480    3.9705
    9.510    3.7072
    9.540    4.2443
    9.570    5.0026
    9.600    5.0658
    9.630    3.8020
    9.660    3.5808
    9.690    3.2017
    9.720    3.4966
    9.750    3.5387
    9.780    3.4755
    9.810    3.5914
    9.840    3.1280
    9.870    3.2965
    9.900    3.3175
    9.930    3.6230
    9.960    3.3281
    9.990    3.4860
   10.020    3.3491
   10.050    3.4334
   10.080    3.2122
   10.110    3.4229
   10.140    3.4755
   10.170    3.3913
   10.200    3.5071
   10.230    3.6546
   10.260    3.6546
   10.290    3.4650
   10.320    3.6019
   10.350    4.2654
   10.380    4.1390
   10.410    3.6335
   10.440    3.3070
   10.470    4.0653
   10.500    3.6019
   10.530    3.4544
   10.560    3.6651
   10.590    3.4018
   10.620    3.3702
   10.650    3.8125
   10.680    3.6967
   10.710    3.6862
   10.740    3.4860
   10.770    3.3175
   10.800    3.8336
   10.830    3.9073
   10.860    3.7283
   10.890    3.3491
   10.920    3.7072
   10.950    3.7283
   10.980    3.8863
   11.010    3.8968
   11.040    3.7704
   11.070    4.5076
   11.100    3.8020
   11.130    3.9284
   11.160    3.7915
   11.190    3.6440
   11.220    3.8231
   11.250    3.5176
   11.280    3.4229
   11.310    3.6019
   11.340    3.6124
   11.370    3.4334
   11.400    3.5282
   11.430    3.4755
   11.460    3.5282
   11.490    3.7388
   11.520    3.6756
   11.550    3.5071
   11.580    3.6019
   11.610    3.7283
   11.640    3.5387
   11.670    3.7177
   11.700    3.5387
   11.730    4.1811
   11.760    3.8863
   11.790    3.9284
   11.820    3.7388
   11.850    3.6440
   11.880    3.5808
   11.910    3.7599
   11.940    3.6124
   11.970    3.2965
   12.000    3.7072
   12.030    3.4544
   12.060    3.6862
   12.090    3.5492
   12.120    3.5492
   12.150    3.6546
   12.180    3.6019
   12.210    3.4966
   12.240    3.6230
   12.270    3.5598
   12.300    3.4650
   12.330    3.4439
   12.360    3.5387
   12.390    3.4755
   12.420    3.6651
   12.450    3.6019
   12.480    3.3070
   12.510    3.3597
   12.540    3.2965
   12.570    3.2122
   12.600    3.4966
   12.630    3.5387
   12.660    3.0964
   12.690    3.0964
   12.720    3.2859
   12.750    3.2227
   12.780    3.4439
   12.810    3.5492
   12.840    3.3702
   12.870    3.4439
   12.900    3.4860
   12.930    3.3070
   12.960    3.4123
   12.990    3.5282
   13.020    3.5703
   13.050    3.5703
   13.080    3.1806
   13.110    3.3491
   13.140    3.4966
   13.170    3.0332
   13.200    3.1806
   13.230    3.5387
   13.260    2.7909
   13.290    3.1806
   13.320    3.4755
   13.350    3.3491
   13.380    3.1069
   13.410    3.2859
   13.440    3.4123
   13.470    3.1174
   13.500    3.3281
   13.530    3.3702
   13.560    3.4123
   13.590    3.5176
   13.620    3.5071
   13.650    3.2754
   13.680    3.4123
   13.710    3.3386
   13.740    3.5703
   13.770    3.3491
   13.800    3.4123
   13.830    3.3807
   13.860    3.3702
   13.890    3.3281
   13.920    3.3913
   13.950    3.3807
   13.980    3.4123
   14.010    3.4966
   14.040    3.3913
   14.070    3.7177
   14.100    3.8441
   14.130    3.8441
   14.160    3.7283
   14.190    3.6651
   14.220    3.6862
   14.250    3.6967
   14.280    3.6756
   14.310    3.6019
   14.340    3.6756
   14.370    3.8441
   14.400    3.8757
   14.430    3.8757
   14.460    3.8020
   14.490    3.8968
   14.520    3.8125
   14.550    3.6862
   14.580    3.7915
   14.610    3.7704
   14.640    3.3913
   14.670    3.7388
   14.700    3.6440
   14.730    3.5387
   14.760    3.4439
   14.790    3.6019
   14.820    3.0542
   14.850    3.4544
   14.880    3.4860
   14.910    3.6230
   14.940    3.4860
   14.970    3.4439
   15.000    3.5176
   15.030    3.2227
   15.060    3.5914
   15.090    3.2333
   15.120    3.4860
   15.150    3.3281
   15.180    3.3597
   15.210    3.3702
   15.240    3.3070
   15.270    3.1280
   15.300    3.3913
   15.330    3.0437
   15.360    3.4018
   15.390    3.2543
   15.420    3.5282
   15.450    3.1490
   15.480    3.5598
   15.510    3.3070
   15.540    3.4229
   15.570    3.2227
   15.600    3.2017
   15.630    3.4755
   15.660    3.1490
   15.690    3.1912
   15.720    3.1596
   15.750    3.3070
   15.780    3.3597
   15.810    3.1912
   15.840    3.4755
   15.870    3.2333
   15.900    3.2227
   15.930    3.4018
   15.960    2.9910
   15.990    3.4755
   16.020    3.3702
   16.050    3.3807
   16.080    3.4229
   16.110    3.5808
   16.140    3.2754
   16.170    3.2754
   16.200    3.2859
   16.230    3.4860
   16.260    3.1490
   16.290    3.0226
   16.320    3.4123
   16.350    3.1490
   16.380    3.2333
   16.410    3.2754
   16.440    2.9279
   16.470    3.3913
   16.500    3.1596
   16.530    3.0858
   16.560    3.5387
   16.590    3.1385
   16.620    3.4860
   16.650    3.3175
   16.680    3.7177
   16.710    3.1701
   16.740    2.9805
   16.770    3.4018
   16.800    3.4334
   16.830    3.2543
   16.860    3.3175
   16.890    3.1490
   16.920    3.5598
   16.950    3.4229
   16.980    3.1174
   17.010    3.6651
   17.040    3.0437
   17.070    3.2543
   17.100    3.3597
   17.130    3.5914
   17.160    3.6335
   17.190    3.3702
   17.220    3.3175
   17.250    2.9279
   17.280    3.0437
   17.310    3.3175
   17.340    3.0332
   17.370    3.3175
   17.400    3.4334
   17.430    3.1280
   17.460    3.3807
   17.490    3.0858
   17.520    3.0648
   17.550    3.2438
   17.580    3.3175
   17.610    3.0858
   17.640    3.3702
   17.670    3.1174
   17.700    3.2227
   17.730    3.1385
   17.760    3.3175
   17.790    3.2227
   17.820    3.0858
   17.850    3.0858
   17.880    3.0016
   17.910    3.4334
   17.940    3.1490
   17.970    2.9595
   18.000    3.2122
   18.030    3.2649
   18.060    3.1596
   18.090    3.1806
   18.120    3.2333
   18.150    3.1280
   18.180    3.2227
   18.210    3.1280
   18.240    3.0753
   18.270    3.0332
   18.300    2.9489
   18.330    3.0226
   18.360    3.2859
   18.390    3.1701
   18.420    3.3702
   18.450    3.3175
   18.480    3.0753
   18.510    2.9279
   18.540    3.2543
   18.570    3.2017
   18.600    3.1596
   18.630    3.2438
   18.660    3.2227
   18.690    3.2017
   18.720    2.8752
   18.750    3.0332
   18.780    3.2649
   18.810    3.3807
   18.840    3.1806
   18.870    3.1490
   18.900    3.1806
   18.930    3.3281
   18.960    3.4229
   18.990    3.9810
   19.020    5.1922
   19.050    5.6451
   19.080    4.0337
   19.110    2.9068
   19.140    3.0437
   19.170    3.2649
   19.200    3.2227
   19.230    3.1069
   19.260    3.2965
   19.290    3.3807
   19.320    3.1490
   19.350    3.0964
   19.380    3.1912
   19.410    3.0964
   19.440    2.9279
   19.470    3.3913
   19.500    3.2227
   19.530    3.0964
   19.560    2.8541
   19.590    2.8015
   19.620    3.1069
   19.650    3.0858
   19.680    3.3070
   19.710    2.9384
   19.740    3.2017
   19.770    2.6435
   19.800    3.1280
   19.830    2.9595
   19.860    3.1174
   19.890    3.0542
   19.920    2.8436
   19.950    2.8752
   19.980    2.7593
   20.010    3.1912
   20.040    2.9910
   20.070    2.8436
   20.100    2.9805
   20.130    3.0964
   20.160    3.0016
   20.190    2.7593
   20.220    3.1912
   20.250    3.0753
   20.280    3.2649
   20.310    2.6646
   20.340    3.0332
   20.370    2.9805
   20.400    2.9384
   20.430    3.2649
   20.460    3.2017
   20.490    3.0332
   20.520    3.0542
   20.550    2.7909
   20.580    2.9173
   20.610    2.8436
   20.640    3.1806
   20.670    3.0648
   20.700    2.9279
   20.730    3.1069
   20.760    2.9805
   20.790    2.8331
   20.820    2.6330
   20.850    2.7383
   20.880    3.0016
   20.910    2.6330
   20.940    2.8331
   20.970    2.7593
   21.000    2.9595
   21.030    2.9173
   21.060    3.0332
   21.090    2.6435
   21.120    2.9700
   21.150    2.9805
   21.180    2.8752
   21.210    2.6646
   21.240    2.7804
   21.270    2.8120
   21.300    2.6224
   21.330    2.8647
   21.360    2.4855
   21.390    2.9279
   21.420    2.7909
   21.450    2.8647
   21.480    2.8647
   21.510    2.8225
   21.540    2.7593
   21.570    2.8120
   21.600    2.7383
   21.630    2.8015
   21.660    2.7593
   21.690    2.6119
   21.720    2.8647
   21.750    2.7488
   21.780    2.8541
   21.810    2.8963
   21.840    2.9279
   21.870    2.6330
   21.900    2.8752
   21.930    2.7488
   21.960    2.9384
   21.990    2.7593
   22.020    2.9068
   22.050    2.8015
   22.080    2.6119
   22.110    2.7804
   22.140    2.9595
   22.170    2.8015
   22.200    2.7909
   22.230    2.7593
   22.260    2.7278
   22.290    2.9173
   22.320    2.9068
   22.350    2.6962
   22.380    2.7593
   22.410    2.4961
   22.440    2.6119
   22.470    2.5066
   22.500    2.7067
   22.530    2.7383
   22.560    2.3381
   22.590    2.8331
   22.620    2.5592
   22.650    2.6540
   22.680    2.6962
   22.710    2.8120
   22.740    2.4855
   22.770    2.5382
   22.800    2.4645
   22.830    2.4961
   22.860    2.5698
   22.890    2.6540
   22.920    2.5066
   22.950    2.7699
   22.980    2.6540
   23.010    2.7383
   23.040    2.6119
   23.070    2.8752
   23.100    3.0648
   23.130    3.2965
   23.160    3.6124
   23.190    3.0121
   23.220    2.5487
   23.250    2.6119
   23.280    2.4855
   23.310    2.6224
   23.340    2.5803
   23.370    2.6856
   23.400    2.4961
   23.430    2.5276
   23.460    2.4434
   23.490    2.5803
   23.520    2.3381
   23.550    2.5487
   23.580    2.4329
   23.610    2.4223
   23.640    2.7172
   23.670    2.4855
   23.700    2.3486
   23.730    2.5908
   23.760    2.5803
   23.790    2.3170
   23.820    2.6646
   23.850    2.4223
   23.880    2.4855
   23.910    2.0958
   23.940    2.4118
   23.970    2.5066
   24.000    2.3802
   24.030    2.7172
   24.060    2.2222
   24.090    2.4434
   24.120    2.6330
   24.150    2.4329
   24.180    2.4013
   24.210    2.3065
   24.240    2.5171
   24.270    2.3697
   24.300    2.5276
   24.330    2.1380
   24.360    2.4329
   24.390    2.2749
   24.420    2.4855
   24.450    2.4434
   24.480    2.3486
   24.510    2.3486
   24.540    2.5908
   24.570    2.3170
   24.600    2.3486
   24.630    2.4539
   24.660    2.2117
   24.690    2.3275
   24.720    2.2749
   24.750    2.3802
   24.780    2.3697
   24.810    2.3802
   24.840    2.1590
   24.870    2.3591
   24.900    2.3486
   24.930    2.4539
   24.960    2.2328
   24.990    2.3591
   25.020    2.4645
   25.050    2.4645
   25.080    2.4329
   25.110    2.2959
   25.140    2.5908
   25.170    2.4855
   25.200    2.6856
   25.230    2.2959
   25.260    2.3591
   25.290    2.4750
   25.320    2.1906
   25.350    2.2433
   25.380    2.2643
   25.410    2.2538
   25.440    2.2749
   25.470    2.2959
   25.500    2.3381
   25.530    2.0221
   25.560    2.3275
   25.590    2.4013
   25.620    2.2854
   25.650    2.3697
   25.680    2.2854
   25.710    2.2959
   25.740    2.1696
   25.770    2.3591
   25.800    2.4223
   25.830    2.2854
   25.860    2.5487
   25.890    2.5276
   25.920    2.3381
   25.950    2.3065
   25.980    2.2854
   26.010    2.3591
   26.040    2.1169
   26.070    2.3381
   26.100    2.3065
   26.130    2.1169
   26.160    2.0958
   26.190    2.1590
   26.220    2.1906
   26.250    2.2012
   26.280    2.1274
   26.310    2.0958
   26.340    2.1380
   26.370    2.3275
   26.400    2.3275
   26.430    2.2222
   26.460    2.3907
   26.490    2.1064
   26.520    2.2222
   26.550    2.0642
   26.580    2.4750
   26.610    2.2643
   26.640    2.4750
   26.670    2.3170
   26.700    2.0958
   26.730    2.4118
   26.760    1.9484
   26.790    2.1169
   26.820    2.0537
   26.850    2.0748
   26.880    2.2959
   26.910    2.0958
   26.940    2.1801
   26.970    2.0011
   27.000    2.0853
   27.030    2.3802
   27.060    2.0853
   27.090    2.1169
   27.120    1.7904
   27.150    2.1274
   27.180    2.0748
   27.210    1.9695
   27.240    2.0116
   27.270    2.0116
   27.300    2.2117
   27.330    2.1906
   27.360    2.3381
   27.390    2.0642
   27.420    2.0432
   27.450    2.0642
   27.480    1.8431
   27.510    2.1064
   27.540    1.8852
   27.570    2.2328
   27.600    2.0326
   27.630    2.1064
   27.660    2.2328
   27.690    2.0853
   27.720    1.9695
   27.750    1.9695
   27.780    1.9168
   27.810    1.8747
   27.840    1.7694
   27.870    1.8747
   27.900    2.0748
   27.930    2.0432
   27.960    2.2117
   27.990    2.5276
   28.020    3.2543
   28.050    3.6546
   28.080    2.6435
   28.110    2.0853
   28.140    1.8641
   28.170    1.8852
   28.200    2.1696
   28.230    1.8431
   28.260    1.8957
   28.290    1.9273
   28.320    2.1485
   28.350    2.1169
   28.380    2.0011
   28.410    1.8009
   28.440    1.9063
   28.470    1.9905
   28.500    1.8536
   28.530    2.1274
   28.560    2.0326
   28.590    1.9273
   28.620    1.8641
   28.650    1.8957
   28.680    2.0326
   28.710    1.8747
   28.740    2.0326
   28.770    1.9063
   28.800    1.8536
   28.830    1.9905
   28.860    2.0642
   28.890    2.1696
   28.920    1.9484
   28.950    2.4855
   28.980    3.0648
   29.010    3.3807
   29.040    2.7699
   29.070    1.8957
   29.100    1.7799
   29.130    1.9379
   29.160    1.9379
   29.190    1.9168
   29.220    1.9695
   29.250    1.9379
   29.280    1.7062
   29.310    1.9589
   29.340    1.8852
   29.370    1.7062
   29.400    1.8115
   29.430    1.9905
   29.460    1.9695
   29.490    1.7378
   29.520    1.5798
   29.550    1.9484
   29.580    1.8431
   29.610    1.8747
   29.640    1.6219
   29.670    1.8431
   29.700    1.7483
   29.730    1.7588
   29.760    1.6851
   29.790    1.5903
   29.820    1.6430
   29.850    1.6324
   29.880    1.7588
   29.910    1.9484
   29.940    1.6219
   29.970    1.6430
   30.000    1.8536
   30.030    1.5903
   30.060    1.7799
   30.090    1.6430
   30.120    1.8220
   30.150    1.7062
   30.180    1.7799
   30.210    1.7378
   30.240    1.6535
   30.270    1.5061
   30.300    1.7167
   30.330    1.5271
   30.360    1.5587
   30.390    1.7167
   30.420    1.4534
   30.450    1.7588
   30.480    1.6746
   30.510    1.6851
   30.540    1.5482
   30.570    1.6851
   30.600    1.6640
   30.630    1.7167
   30.660    1.6430
   30.690    1.6008
   30.720    1.7588
   30.750    1.6746
   30.780    1.7694
   30.810    1.7483
   30.840    1.5903
   30.870    1.5798
   30.900    1.6430
   30.930    1.7167
   30.960    1.5482
   30.990    1.6114
   31.020    1.7799
   31.050    1.4955
   31.080    1.5798
   31.110    1.4639
   31.140    1.4850
   31.170    1.6324
   31.200    1.3375
   31.230    1.5166
   31.260    1.5587
   31.290    1.6851
   31.320    1.5377
   31.350    1.6324
   31.380    1.5166
   31.410    1.7272
   31.440    1.5692
   31.470    1.5271
   31.500    1.4534
   31.530    1.4955
   31.560    1.4955
   31.590    1.2849
   31.620    1.7272
   31.650    1.5061
   31.680    1.5903
   31.710    1.6008
   31.740    1.5166
   31.770    1.5903
   31.800    1.4850
   31.830    1.6114
   31.860    1.4955
   31.890    1.3060
   31.920    1.4639
   31.950    1.6324
   31.980    1.3797
   32.010    1.6535
   32.040    1.8431
   32.070    2.3802
   32.100    3.6862
   32.130    4.9394
   32.160    4.3813
   32.190    2.2959
   32.220    1.7904
   32.250    1.6535
   32.280    1.5166
   32.310    1.2533
   32.340    1.3902
   32.370    1.4850
   32.400    1.3797
   32.430    1.3586
   32.460    1.4323
   32.490    1.6219
   32.520    1.2112
   32.550    1.3270
   32.580    1.3797
   32.610    1.5166
   32.640    1.4113
   32.670    1.5166
   32.700    1.3165
   32.730    1.3165
   32.760    1.3481
   32.790    1.3586
   32.820    1.2112
   32.850    1.3060
   32.880    1.3586
   32.910    1.4113
   32.940    1.5061
   32.970    1.2533
   33.000    1.4007
   33.030    1.5061
   33.060    1.6851
   33.090    1.4534
   33.120    1.4429
   33.150    1.3691
   33.180    1.2744
   33.210    1.4007
   33.240    1.3586
   33.270    1.4429
   33.300    1.4323
   33.330    1.3270
   33.360    1.4007
   33.390    1.3165
   33.420    1.2428
   33.450    1.3060
   33.480    1.3270
   33.510    1.2849
   33.540    1.3165
   33.570    1.3586
   33.600    1.3797
   33.630    1.3797
   33.660    1.3375
   33.690    1.3797
   33.720    1.6430
   33.750    1.3691
   33.780    1.5482
   33.810    2.2012
   33.840    2.4645
   33.870    2.5698
   33.900    1.9800
   33.930    1.6640
   33.960    1.4113
   33.990    1.1901
   34.020    1.4955
   34.050    1.2954
   34.080    1.2322
   34.110    1.2638
   34.140    1.3270
   34.170    1.1796
   34.200    1.5903
   34.230    1.3060
   34.260    1.5587
   34.290    1.2954
   34.320    1.3060
   34.350    1.3375
   34.380    1.2638
   34.410    1.3481
   34.440    1.2217
   34.470    1.2112
   34.500    1.1901
   34.530    1.2533
   34.560    1.2638
   34.590    1.3165
   34.620    1.1901
   34.650    1.2006
   34.680    1.1690
   34.710    1.2744
   34.740    1.2638
   34.770    1.2112
   34.800    1.2638
   34.830    1.1796
   34.860    1.3691
   34.890    1.3165
   34.920    1.2744
   34.950    1.2112
   34.980    1.2849
   35.010    1.1480
   35.040    1.1164
   35.070    1.4955
   35.100    1.2954
   35.130    1.2954
   35.160    1.3375
   35.190    1.0427
   35.220    1.2744
   35.250    1.3797
   35.280    1.2217
   35.310    1.2533
   35.340    1.0637
   35.370    1.3375
   35.400    1.2533
   35.430    1.2954
   35.460    1.2638
   35.490    1.2217
   35.520    1.2638
   35.550    1.2322
   35.580    1.2217
   35.610    1.2006
   35.640    1.1690
   35.670    1.3797
   35.700    1.2954
   35.730    1.3691
   35.760    1.3902
   35.790    1.3165
   35.820    1.3375
   35.850    1.0216
   35.880    1.2322
   35.910    1.1796
   35.940    1.1901
   35.970    1.1480
   36.000    1.1480
   36.030    1.4955
   36.060    1.2217
   36.090    1.2217
   36.120    1.2217
   36.150    1.2954
   36.180    1.2428
   36.210    1.3060
   36.240    1.2322
   36.270    1.2849
   36.300    1.3691
   36.330    1.4218
   36.360    1.3375
   36.390    1.3060
   36.420    1.2954
   36.450    1.3060
   36.480    1.3902
   36.510    1.1901
   36.540    1.2217
   36.570    1.2428
   36.600    1.2744
   36.630    1.2849
   36.660    1.1901
   36.690    1.4007
   36.720    1.3691
   36.750    1.1058
   36.780    1.4850
   36.810    1.1585
   36.840    1.4218
   36.870    1.2322
   36.900    1.2217
   36.930    1.1901
   36.960    1.1269
   36.990    1.2428
   37.020    1.2744
   37.050    1.1585
   37.080    1.3586
   37.110    1.0637
   37.140    1.3165
   37.170    1.4113
   37.200    1.3481
   37.230    1.2217
   37.260    1.2954
   37.290    1.1690
   37.320    1.2112
   37.350    1.1374
   37.380    1.2533
   37.410    1.1480
   37.440    1.1901
   37.470    1.1164
   37.500    1.0848
   37.530    1.2744
   37.560    1.2322
   37.590    1.3691
   37.620    1.0848
   37.650    1.2322
   37.680    1.2744
   37.710    1.1269
   37.740    1.1269
   37.770    1.3270
   37.800    1.2428
   37.830    1.0848
   37.860    1.0848
   37.890    1.0848
   37.920    1.0321
   37.950    1.1796
   37.980    1.1690
   38.010    1.0953
   38.040    1.1480
   38.070    1.2428
   38.100    1.2006
   38.130    1.2638
   38.160    1.2112
   38.190    1.1690
   38.220    1.1480
   38.250    1.0953
   38.280    1.2006
   38.310    1.2217
   38.340    1.2006
   38.370    1.3481
   38.400    1.2112
   38.430    1.1269
   38.460    1.2954
   38.490    1.3165
   38.520    1.0216
   38.550    1.3375
   38.580    1.6324
   38.610    2.2117
   38.640    2.1801
   38.670    1.7062
   38.700    1.2954
   38.730    0.9900
   38.760    1.1058
   38.790    1.2954
   38.820    1.2533
   38.850    1.1480
   38.880    1.1690
   38.910    0.9479
   38.940    1.1374
   38.970    1.2954
   39.000    1.3481
   39.030    1.1058
   39.060    1.2533
   39.090    1.2428
   39.120    1.3165
   39.150    1.0532
   39.180    1.1690
   39.210    1.0005
   39.240    1.1690
   39.270    1.2112
   39.300    1.1585
   39.330    1.2533
   39.360    1.1480
   39.390    1.0532
   39.420    1.0005
   39.450    1.1690
   39.480    1.1164
   39.510    1.0532
   39.540    1.2112
   39.570    1.1374
   39.600    1.1374
   39.630    1.0427
   39.660    1.0953
   39.690    1.1796
   39.720    1.0848
   39.750    1.0742
   39.780    1.1374
   39.810    1.2533
   39.840    1.2744
   39.870    1.0532
   39.900    0.9795
   39.930    1.0321
   39.960    1.0427
   39.990    1.1269