File: data/PXRD/PXRD_KE-275_Cu-Ka1_capillary-1mm_60s-deg.xyd
    1.500   16.3639
    1.530   16.0427
    1.560   15.6073
    1.590   15.2554
    1.620   14.8657
    1.650   14.3742
    1.680   14.1487
    1.710   13.7520
    1.740   13.1920
    1.770   12.9586
    1.800   12.6295
    1.830   12.4364
    1.860   11.9598
    1.890   11.9510
    1.920   11.6403
    1.950   11.3428
    1.980   11.0804
    2.010   10.9865
    2.040   10.6863
    2.070   10.5617
    2.100   10.2229
    2.130   10.1229
    2.160    9.9315
    2.190    9.7306
    2.220    9.7551
    2.250    9.7016
    2.280    9.2628
    2.310    9.2426
    2.340    9.0943
    2.370    8.8827
    2.400    8.8204
    2.430    8.6037
    2.460    8.5817
    2.490    8.5326
    2.520    8.4448
    2.550    8.3702
    2.580    8.2684
    2.610    8.1139
    2.640    8.1657
    2.670    8.1192
    2.700    7.9516
    2.730    8.1833
    2.760    8.0893
    2.790    8.1508
    2.820    8.2113
    2.850    8.3930
    2.880    8.4483
    2.910    8.7362
    2.940    8.9187
    2.970    9.5050
    3.000    9.7051
    3.030   10.1755
    3.060   10.5854
    3.090   11.4797
    3.120   12.1274
    3.150   13.0314
    3.180   14.1978
    3.210   15.2844
    3.240   17.1046
    3.270   18.4597
    3.300   20.6029
    3.330   22.8366
    3.360   25.4845
    3.390   28.7932
    3.420   32.5531
    3.450   36.8799
    3.480   42.1318
    3.510   48.5677
    3.540   56.1962
    3.570   65.6012
    3.600   77.6900
    3.630   93.5527
    3.660  114.9122
    3.690  145.5415
    3.720  199.8859
    3.750  271.0909
    3.780  259.0627
    3.810  154.6261
    3.840   45.9760
    3.870   15.7750
    3.900   10.3019
    3.930    8.3693
    3.960    7.4144
    3.990    6.7790
    4.020    6.3902
    4.050    6.2278
    4.080    6.1304
    4.110    5.7574
    4.140    5.7609
    4.170    5.6512
    4.200    5.6512
    4.230    5.4739
    4.260    5.3598
    4.290    5.3862
    4.320    5.4002
    4.350    5.3370
    4.380    5.2896
    4.410    5.3432
    4.440    5.2361
    4.470    5.2273
    4.500    5.1229
    4.530    5.1395
    4.560    5.1782
    4.590    5.1115
    4.620    5.2001
    4.650    5.1606
    4.680    5.2572
    4.710    5.2607
    4.740    5.2730
    4.770    5.2519
    4.800    5.2817
    4.830    5.4055
    4.860    5.5863
    4.890    5.7679
    4.920    6.0944
    4.950    6.2858
    4.980    6.5412
    5.010    7.0651
    5.040    7.5496
    5.070    8.3500
    5.100    9.0574
    5.130   10.1922
    5.160   11.6570
    5.190   13.6493
    5.220   15.9110
    5.250   19.5480
    5.280   24.6761
    5.310   34.3321
    5.340   45.2352
    5.370   43.3035
    5.400   26.7544
    5.430   10.9444
    5.460    6.2928
    5.490    5.3476
    5.520    5.0913
    5.550    4.9816
    5.580    4.8815
    5.610    4.7990
    5.640    4.6560
    5.670    4.7701
    5.700    4.7306
    5.730    4.6884
    5.760    4.6665
    5.790    4.6402
    5.820    4.5840
    5.850    4.5498
    5.880    4.6902
    5.910    4.6261
    5.940    4.5743
    5.970    4.4690
    6.000    4.5138
    6.030    4.6331
    6.060    4.5717
    6.090    4.5656
    6.120    4.6015
    6.150    4.6410
    6.180    4.7499
    6.210    4.7981
    6.240    4.8341
    6.270    4.9930
    6.300    5.0386
    6.330    5.4766
    6.360    5.8215
    6.390    6.1646
    6.420    6.7834
    6.450    7.4574
    6.480    8.6958
    6.510   10.7644
    6.540   14.1443
    6.570   16.7035
    6.600   14.4602
    6.630    9.0969
    6.660    5.6328
    6.690    4.7938
    6.720    4.5348
    6.750    4.4989
    6.780    4.4796
    6.810    4.3962
    6.840    4.3707
    6.870    4.3698
    6.900    4.4128
    6.930    4.2996
    6.960    4.4111
    6.990    4.2891
    7.020    4.2707
    7.050    4.1996
    7.080    4.3084
    7.110    4.3268
    7.140    4.2900
    7.170    4.3400
    7.200    4.3330
    7.230    4.2715
    7.260    4.3690
    7.290    4.4006
    7.320    4.5234
    7.350    4.6682
    7.380    4.7551
    7.410    4.9763
    7.440    5.4283
    7.470    5.8496
    7.500    6.5201
    7.530    7.6979
    7.560    9.7297
    7.590   11.6368
    7.620   11.3604
    7.650    8.3772
    7.680    5.3010
    7.710    4.3777
    7.740    4.2830
    7.770    4.2233
    7.800    4.2198
    7.830    4.1004
    7.860    4.1223
    7.890    4.1689
    7.920    4.1522
    7.950    4.1390
    7.980    4.1689
    8.010    4.0811
    8.040    4.0223
    8.070    4.0328
    8.100    4.0820
    8.130    4.0205
    8.160    4.0267
    8.190    4.1575
    8.220    4.1610
    8.250    4.2601
    8.280    4.3444
    8.310    4.4857
    8.340    4.6542
    8.370    4.8982
    8.400    5.3555
    8.430    6.1883
    8.460    7.2468
    8.490    8.9056
    8.520    9.1276
    8.550    7.4925
    8.580    5.1299
    8.610    4.3268
    8.640    4.0899
    8.670    3.9916
    8.700    4.0451
    8.730    4.0293
    8.760    3.8977
    8.790    3.9100
    8.820    4.0486
    8.850    3.9635
    8.880    3.9837
    8.910    3.9644
    8.940    3.9275
    8.970    3.9433
    9.000    4.0346
    9.030    4.1022
    9.060    4.1566
    9.090    4.3251
    9.120    4.5629
    9.150    4.8385
    9.180    5.3318
    9.210    6.0418
    9.240    7.1459
    9.270    9.2584
    9.300   12.4425
    9.330   14.1022
    9.360   12.0169
    9.390    7.6180
    9.420    4.8411
    9.450    4.2198
    9.480    4.1118
    9.510    4.0451
    9.540    3.9705
    9.570    3.9407
    9.600    4.0451
    9.630    3.8942
    9.660    3.9126
    9.690    3.8775
    9.720    3.9336
    9.750    3.9310
    9.780    3.9056
    9.810    3.9968
    9.840    4.1338
    9.870    4.3400
    9.900    4.6735
    9.930    5.0772
    9.960    5.7785
    9.990    6.9229
   10.020    8.8836
   10.050   12.2336
   10.080   14.4953
   10.110   12.9779
   10.140    8.6528
   10.170    5.2308
   10.200    4.3225
   10.230    3.9758
   10.260    3.8117
   10.290    3.8687
   10.320    3.8476
   10.350    3.8582
   10.380    3.7950
   10.410    3.8204
   10.440    3.7441
   10.470    3.8345
   10.500    3.8424
   10.530    3.8933
   10.560    4.0030
   10.590    4.0609
   10.620    4.3233
   10.650    4.6718
   10.680    5.1580
   10.710    6.0488
   10.740    7.7479
   10.770    9.6656
   10.800    9.7876
   10.830    7.8059
   10.860    5.2879
   10.890    4.1197
   10.920    3.8950
   10.950    3.7757
   10.980    3.8740
   11.010    3.7643
   11.040    3.7713
   11.070    3.7704
   11.100    3.7713
   11.130    3.7871
   11.160    3.7599
   11.190    3.7204
   11.220    3.7888
   11.250    3.9731
   11.280    3.9749
   11.310    4.2364
   11.340    4.4953
   11.370    5.1080
   11.400    6.1594
   11.430    7.2758
   11.460    7.5092
   11.490    6.3516
   11.520    4.8368
   11.550    3.9170
   11.580    3.7634
   11.610    3.7116
   11.640    3.6572
   11.670    3.7028
   11.700    3.6589
   11.730    3.7230
   11.760    3.6238
   11.790    3.6984
   11.820    3.6800
   11.850    3.7493
   11.880    3.8661
   11.910    3.8143
   11.940    3.8757
   11.970    4.1917
   12.000    4.5875
   12.030    5.4336
   12.060    5.9689
   12.090    5.9215
   12.120    5.1518
   12.150    4.1417
   12.180    3.7248
   12.210    3.7414
   12.240    3.7274
   12.270    3.5826
   12.300    3.6212
   12.330    3.6396
   12.360    3.5958
   12.390    3.6747
   12.420    3.6361
   12.450    3.7151
   12.480    3.7441
   12.510    3.7300
   12.540    4.0969
   12.570    4.4778
   12.600    5.0465
   12.630    6.0979
   12.660    6.9958
   12.690    6.7553
   12.720    5.4766
   12.750    4.2145
   12.780    3.7485
   12.810    3.6221
   12.840    3.6115
   12.870    3.6001
   12.900    3.6897
   12.930    3.6607
   12.960    3.6361
   12.990    3.6019
   13.020    3.5835
   13.050    3.6247
   13.080    3.6940
   13.110    3.7774
   13.140    3.8731
   13.170    4.1223
   13.200    4.6112
   13.230    4.9614
   13.260    4.8526
   13.290    4.3303
   13.320    3.8854
   13.350    3.5203
   13.380    3.4781
   13.410    3.5931
   13.440    3.6045
   13.470    3.5993
   13.500    3.6273
   13.530    3.5334
   13.560    3.6791
   13.590    3.7441
   13.620    3.9389
   13.650    4.3014
   13.680    4.8517
   13.710    5.8847
   13.740    7.6005
   13.770    9.1355
   13.800    9.0811
   13.830    7.1810
   13.860    5.0395
   13.890    3.9372
   13.920    3.6905
   13.950    3.6037
   13.980    3.6080
   14.010    3.5712
   14.040    3.6045
   14.070    3.5238
   14.100    3.4299
   14.130    3.5010
   14.160    3.5203
   14.190    3.5264
   14.220    3.5413
   14.250    3.5466
   14.280    3.4492
   14.310    3.4597
   14.340    3.5018
   14.370    3.5747
   14.400    3.4711
   14.430    3.5036
   14.460    3.5106
   14.490    3.6265
   14.520    3.5800
   14.550    3.5133
   14.580    3.5045
   14.610    3.5361
   14.640    3.6791
   14.670    3.6747
   14.700    3.6993
   14.730    3.8555
   14.760    4.2470
   14.790    4.5489
   14.820    4.8192
   14.850    4.3883
   14.880    4.0477
   14.910    3.6598
   14.940    3.5168
   14.970    3.5185
   15.000    3.5598
   15.030    3.5133
   15.060    3.4992
   15.090    3.4720
   15.120    3.5168
   15.150    3.5589
   15.180    3.5054
   15.210    3.5387
   15.240    3.4404
   15.270    3.5580
   15.300    3.5782
   15.330    3.4834
   15.360    3.5299
   15.390    3.4904
   15.420    3.5291
   15.450    3.4878
   15.480    3.4939
   15.510    3.5089
   15.540    3.5343
   15.570    3.4738
   15.600    3.5852
   15.630    3.5062
   15.660    3.7107
   15.690    3.9214
   15.720    4.3681
   15.750    4.8640
   15.780    5.3203
   15.810    5.1474
   15.840    4.5050
   15.870    3.9275
   15.900    3.6273
   15.930    3.4975
   15.960    3.5545
   15.990    3.5633
   16.020    3.5124
   16.050    3.5343
   16.080    3.5624
   16.110    3.5808
   16.140    3.6686
   16.170    3.9494
   16.200    4.2926
   16.230    4.6858
   16.260    4.6103
   16.290    4.3927
   16.320    3.9205
   16.350    3.5861
   16.380    3.5150
   16.410    3.6098
   16.440    3.5536
   16.470    3.5554
   16.500    3.5650
   16.530    3.5931
   16.560    3.7572
   16.590    3.7309
   16.620    4.1039
   16.650    4.6647
   16.680    5.0974
   16.710    5.1580
   16.740    4.7674
   16.770    4.1030
   16.800    3.7643
   16.830    3.5466
   16.860    3.4781
   16.890    3.5282
   16.920    3.5993
   16.950    3.5510
   16.980    3.6054
   17.010    3.6528
   17.040    3.8389
   17.070    4.0776
   17.100    4.4690
   17.130    4.6682
   17.160    4.6358
   17.190    4.1803
   17.220    3.7616
   17.250    3.5352
   17.280    3.5808
   17.310    3.4896
   17.340    3.5685
   17.370    3.5738
   17.400    3.5852
   17.430    3.5782
   17.460    3.5826
   17.490    3.7643
   17.520    3.9152
   17.550    4.0302
   17.580    4.0232
   17.610    3.8590
   17.640    3.7072
   17.670    3.6186
   17.700    3.5580
   17.730    3.6510
   17.760    3.6844
   17.790    3.6414
   17.820    3.6519
   17.850    3.7897
   17.880    3.8801
   17.910    4.0100
   17.940    4.1776
   17.970    4.1566
   18.000    4.3734
   18.030    4.1785
   18.060    3.9679
   18.090    3.8915
   18.120    3.7213
   18.150    3.6019
   18.180    3.6151
   18.210    3.5668
   18.240    3.5993
   18.270    3.6212
   18.300    3.7081
   18.330    4.0021
   18.360    4.1592
   18.390    4.3260
   18.420    4.1978
   18.450    3.9670
   18.480    3.7801
   18.510    3.5659
   18.540    3.6010
   18.570    3.6221
   18.600    3.6625
   18.630    3.5659
   18.660    3.6238
   18.690    3.6467
   18.720    3.5466
   18.750    3.6019
   18.780    3.6765
   18.810    3.6519
   18.840    3.5817
   18.870    3.6133
   18.900    3.5018
   18.930    3.5492
   18.960    3.5010
   18.990    3.6633
   19.020    3.6414
   19.050    3.6467
   19.080    3.6546
   19.110    3.8011
   19.140    4.0671
   19.170    4.3040
   19.200    4.2575
   19.230    4.1101
   19.260    3.8731
   19.290    3.6835
   19.320    3.6440
   19.350    3.5571
   19.380    3.6080
   19.410    3.5282
   19.440    3.6177
   19.470    3.5756
   19.500    3.6519
   19.530    3.6124
   19.560    3.6467
   19.590    3.6914
   19.620    3.6352
   19.650    3.6300
   19.680    3.5694
   19.710    3.6037
   19.740    3.6019
   19.770    3.6809
   19.800    3.7493
   19.830    3.9258
   19.860    4.3049
   19.890    4.9219
   19.920    5.4485
   19.950    5.8206
   19.980    5.5705
   20.010    4.9210
   20.040    4.1890
   20.070    3.7687
   20.100    3.7204
   20.130    3.7098
   20.160    3.7134
   20.190    3.6273
   20.220    3.6704
   20.250    3.7037
   20.280    3.6651
   20.310    3.7678
   20.340    3.7423
   20.370    3.6879
   20.400    3.7458
   20.430    3.6151
   20.460    3.5896
   20.490    3.6396
   20.520    3.6388
   20.550    3.7669
   20.580    3.7520
   20.610    3.9784
   20.640    4.1636
   20.670    4.3786
   20.700    4.3777
   20.730    4.1697
   20.760    3.9275
   20.790    3.7072
   20.820    3.6317
   20.850    3.6115
   20.880    3.6677
   20.910    3.7467
   20.940    3.6677
   20.970    3.6212
   21.000    3.5949
   21.030    3.6010
   21.060    3.6668
   21.090    3.6967
   21.120    3.6344
   21.150    3.6589
   21.180    3.6905
   21.210    3.7572
   21.240    3.6932
   21.270    3.8011
   21.300    3.8143
   21.330    4.0434
   21.360    4.4480
   21.390    4.4523
   21.420    4.4067
   21.450    4.1873
   21.480    3.9179
   21.510    3.7019
   21.540    3.7072
   21.570    3.7599
   21.600    3.6976
   21.630    3.6668
   21.660    3.7669
   21.690    3.7950
   21.720    3.8108
   21.750    3.9293
   21.780    3.8643
   21.810    3.7590
   21.840    3.7397
   21.870    3.7300
   21.900    3.7458
   21.930    3.7572
   21.960    3.8687
   21.990    4.1267
   22.020    4.7297
   22.050    5.2800
   22.080    5.6363
   22.110    5.4959
   22.140    5.0562
   22.170    4.4278
   22.200    3.9336
   22.230    3.8038
   22.260    3.8029
   22.290    3.8652
   22.320    4.0635
   22.350    4.6226
   22.380    5.2326
   22.410    5.6293
   22.440    5.6266
   22.470    5.2124
   22.500    4.5691
   22.530    4.0943
   22.560    3.7897
   22.590    3.7722
   22.620    3.7687
   22.650    3.7774
   22.680    3.7757
   22.710    3.8160
   22.740    3.7967
   22.770    3.8222
   22.800    3.7959
   22.830    3.6835
   22.860    3.7335
   22.890    3.5949
   22.920    3.6914
   22.950    3.6423
   22.980    3.7748
   23.010    3.7072
   23.040    3.7730
   23.070    3.8222
   23.100    3.9003
   23.130    3.7379
   23.160    3.8678
   23.190    3.7371
   23.220    3.6976
   23.250    3.7353
   23.280    3.7423
   23.310    3.9898
   23.340    4.5147
   23.370    4.8991
   23.400    5.0939
   23.430    4.9842
   23.460    4.7999
   23.490    4.2952
   23.520    3.8424
   23.550    3.7072
   23.580    3.7177
   23.610    3.7002
   23.640    3.7283
   23.670    3.7476
   23.700    3.9161
   23.730    3.9670
   23.760    3.8196
   23.790    3.7862
   23.820    3.7783
   23.850    3.5896
   23.880    3.6107
   23.910    3.6054
   23.940    3.6625
   23.970    3.7335
   24.000    3.7818
   24.030    3.7651
   24.060    3.8547
   24.090    3.8073
   24.120    3.6168
   24.150    3.5966
   24.180    3.5554
   24.210    3.6984
   24.240    3.6826
   24.270    3.6853
   24.300    3.7169
   24.330    3.7897
   24.360    3.8169
   24.390    3.8441
   24.420    3.7809
   24.450    3.6668
   24.480    3.6238
   24.510    3.5966
   24.540    3.5220
   24.570    3.6739
   24.600    3.8125
   24.630    3.7844
   24.660    3.8468
   24.690    3.8740
   24.720    3.8038
   24.750    3.7028
   24.780    3.5036
   24.810    3.5756
   24.840    3.6379
   24.870    3.7599
   24.900    3.8020
   24.930    4.0750
   24.960    4.1452
   24.990    4.0846
   25.020    3.9573
   25.050    3.8231
   25.080    3.6581
   25.110    3.6923
   25.140    3.7757
   25.170    4.0986
   25.200    4.6577
   25.230    5.1983
   25.260    5.4687
   25.290    5.5064
   25.320    5.1378
   25.350    4.5384
   25.380    3.9688
   25.410    3.7283
   25.440    3.6897
   25.470    3.6721
   25.500    3.6221
   25.530    3.6879
   25.560    3.5870
   25.590    3.6879
   25.620    3.6870
   25.650    3.5756
   25.680    3.6818
   25.710    3.5826
   25.740    3.6247
   25.770    3.8248
   25.800    3.9345
   25.830    4.2865
   25.860    4.2584
   25.890    4.3312
   25.920    4.2013
   25.950    3.9135
   25.980    3.6326
   26.010    3.4623
   26.040    3.5457
   26.070    3.5484
   26.100    3.5457
   26.130    3.5027
   26.160    3.6001
   26.190    3.6230
   26.220    3.4571
   26.250    3.4439
   26.280    3.5378
   26.310    3.5808
   26.340    3.5940
   26.370    3.6774
   26.400    3.9143
   26.430    3.9266
   26.460    3.8801
   26.490    3.8494
   26.520    3.6431
   26.550    3.6028
   26.580    3.5141
   26.610    3.5185
   26.640    3.4430
   26.670    3.4325
   26.700    3.4202
   26.730    3.4509
   26.760    3.4571
   26.790    3.4474
   26.820    3.4711
   26.850    3.4316
   26.880    3.3641
   26.910    3.4817
   26.940    3.6388
   26.970    3.6835
   27.000    3.7362
   27.030    3.6642
   27.060    3.6010
   27.090    3.5396
   27.120    3.5194
   27.150    3.3667
   27.180    3.3974
   27.210    3.4387
   27.240    3.5027
   27.270    3.4817
   27.300    3.5440
   27.330    3.5027
   27.360    3.4597
   27.390    3.4623
   27.420    3.4817
   27.450    3.5299
   27.480    3.6028
   27.510    3.6932
   27.540    3.8836
   27.570    3.9442
   27.600    3.9266
   27.630    3.8283
   27.660    3.6651
   27.690    3.4360
   27.720    3.4483
   27.750    3.4931
   27.780    3.6431
   27.810    3.6449
   27.840    3.7748
   27.870    3.6835
   27.900    3.6037
   27.930    3.5580
   27.960    3.5045
   27.990    3.4378
   28.020    3.4334
   28.050    3.4781
   28.080    3.3684
   28.110    3.4571
   28.140    3.4141
   28.170    3.3755
   28.200    3.3728
   28.230    3.4229
   28.260    3.3772
   28.290    3.4272
   28.320    3.5194
   28.350    3.5299
   28.380    3.6133
   28.410    3.5931
   28.440    3.5843
   28.470    3.5914
   28.500    3.3702
   28.530    3.4079
   28.560    3.6107
   28.590    3.9424
   28.620    4.0802
   28.650    4.1689
   28.680    4.2865
   28.710    4.0714
   28.740    3.7923
   28.770    3.4983
   28.800    3.4360
   28.830    3.3500
   28.860    3.3421
   28.890    3.3272
   28.920    3.3149
   28.950    3.2763
   28.980    3.2807
   29.010    3.3017
   29.040    3.2631
   29.070    3.3553
   29.100    3.4404
   29.130    3.6291
   29.160    3.7511
   29.190    3.6326
   29.220    3.6993
   29.250    3.5642
   29.280    3.3807
   29.310    3.3763
   29.340    3.4308
   29.370    3.3904
   29.400    3.3579
   29.430    3.4764
   29.460    3.4852
   29.490    3.4483
   29.520    3.3974
   29.550    3.3228
   29.580    3.3447
   29.610    3.2912
   29.640    3.2596
   29.670    3.2622
   29.700    3.3175
   29.730    3.3140
   29.760    3.3272
   29.790    3.2745
   29.820    3.2473
   29.850    3.2842
   29.880    3.2552
   29.910    3.3368
   29.940    3.3500
   29.970    3.3167
   30.000    3.3026
   30.030    3.3228
   30.060    3.3175
   30.090    3.2552
   30.120    3.1692
   30.150    3.3246
   30.180    3.3658
   30.210    3.3439
   30.240    3.4518
   30.270    3.2912
   30.300    3.2859
   30.330    3.2008
   30.360    3.2219
   30.390    3.2043
   30.420    3.1631
   30.450    3.1087
   30.480    3.0832
   30.510    3.1525
   30.540    3.2421
   30.570    3.1315
   30.600    3.1297
   30.630    3.1227
   30.660    3.2543
   30.690    3.2965
   30.720    3.2087
   30.750    3.2034
   30.780    3.2184
   30.810    3.1315
   30.840    3.1894
   30.870    3.1394
   30.900    3.1552
   30.930    3.1209
   30.960    3.1148
   30.990    3.1069
   31.020    3.1394
   31.050    3.0814
   31.080    3.1113
   31.110    3.1332
   31.140    3.2500
   31.170    3.2552
   31.200    3.2105
   31.230    3.2157
   31.260    3.2973
   31.290    3.3421
   31.320    3.1859
   31.350    3.1780
   31.380    3.0402
   31.410    3.1201
   31.440    3.1587
   31.470    3.1350
   31.500    3.0823
   31.530    3.0990
   31.560    3.1429
   31.590    3.1122
   31.620    3.1797
   31.650    3.1771
   31.680    3.2508
   31.710    3.1833
   31.740    3.2087
   31.770    3.2210
   31.800    3.1034
   31.830    3.1051
   31.860    3.0902
   31.890    3.1095
   31.920    3.0428
   31.950    3.0332
   31.980    3.0981
   32.010    3.0753
   32.040    2.8875
   32.070    3.0235
   32.100    3.0797
   32.130    3.1982
   32.160    3.1569
   32.190    3.1868
   32.220    3.2245
   32.250    3.2464
   32.280    3.0990
   32.310    3.0683
   32.340    2.9840
   32.370    2.9559
   32.400    2.9998
   32.430    2.9744
   32.460    2.9989
   32.490    2.9542
   32.520    2.8638
   32.550    2.9340
   32.580    2.9419
   32.610    2.9489
   32.640    2.9989
   32.670    2.9726
   32.700    2.8822
   32.730    2.9963
   32.760    2.9305
   32.790    2.9445
   32.820    2.8971
   32.850    2.9700
   32.880    2.9753
   32.910    3.0850
   32.940    2.9884
   32.970    2.9516
   33.000    2.9305
   33.030    2.9147
   33.060    3.0367
   33.090    3.0235
   33.120    3.1148
   33.150    3.1657
   33.180    3.0920
   33.210    3.1560
   33.240    3.0411
   33.270    2.9287
   33.300    2.8585
   33.330    2.8383
   33.360    2.8348
   33.390    2.8840
   33.420    2.8559
   33.450    2.8252
   33.480    2.8936
   33.510    2.8945
   33.540    2.8989
   33.570    2.9410
   33.600    2.9024
   33.630    2.8743
   33.660    2.9287
   33.690    2.9393
   33.720    2.8348
   33.750    2.9015
   33.780    2.8541
   33.810    2.9129
   33.840    2.8673
   33.870    2.9445
   33.900    2.9358
   33.930    2.8629
   33.960    2.9507
   33.990    2.9559
   34.020    2.8559
   34.050    2.8884
   34.080    2.8015
   34.110    2.8287
   34.140    2.8436
   34.170    2.8015
   34.200    2.8103
   34.230    2.7593
   34.260    2.7918
   34.290    2.7585
   34.320    2.7462
   34.350    2.7690
   34.380    2.7120
   34.410    2.7041
   34.440    2.7734
   34.470    2.6997
   34.500    2.6742
   34.530    2.7681
   34.560    2.7672
   34.590    2.7874
   34.620    2.7128
   34.650    2.7444
   34.680    2.8418
   34.710    2.8796
   34.740    2.7760
   34.770    2.7523
   34.800    2.7909
   34.830    2.7918
   34.860    2.7664
   34.890    2.7041
   34.920    2.6926
   34.950    2.6488
   34.980    2.7023
   35.010    2.6918
   35.040    2.7032
   35.070    2.7181
   35.100    2.7532
   35.130    2.7620
   35.160    2.7804
   35.190    2.7593
   35.220    2.7681
   35.250    2.6918
   35.280    2.7120
   35.310    2.6268
   35.340    2.5864
   35.370    2.7286
   35.400    2.7032
   35.430    2.6470
   35.460    2.6970
   35.490    2.7190
   35.520    2.7032
   35.550    2.6242
   35.580    2.5733
   35.610    2.6259
   35.640    2.6514
   35.670    2.6374
   35.700    2.6514
   35.730    2.7444
   35.760    2.7321
   35.790    2.6979
   35.820    2.7725
   35.850    2.8243
   35.880    2.7453
   35.910    2.7348
   35.940    2.6725
   35.970    2.6725
   36.000    2.6391
   36.030    2.6093
   36.060    2.5952
   36.090    2.5382
   36.120    2.6242
   36.150    2.5452
   36.180    2.5926
   36.210    2.6619
   36.240    2.6593
   36.270    2.7032
   36.300    2.7348
   36.330    2.6865
   36.360    2.5496
   36.390    2.6523
   36.420    2.5180
   36.450    2.5312
   36.480    2.5478
   36.510    2.5303
   36.540    2.5057
   36.570    2.5557
   36.600    2.5970
   36.630    2.5689
   36.660    2.6145
   36.690    2.5452
   36.720    2.6110
   36.750    2.6189
   36.780    2.5057
   36.810    2.6031
   36.840    2.5364
   36.870    2.5487
   36.900    2.5452
   36.930    2.4978
   36.960    2.5101
   36.990    2.5197
   37.020    2.5715
   37.050    2.5557
   37.080    2.6883
   37.110    2.6479
   37.140    2.6979
   37.170    2.6330
   37.200    2.6725
   37.230    2.6628
   37.260    2.6075
   37.290    2.5083
   37.320    2.5048
   37.350    2.5303
   37.380    2.4504
   37.410    2.5566
   37.440    2.5434
   37.470    2.5478
   37.500    2.5821
   37.530    2.6022
   37.560    2.6409
   37.590    2.6180
   37.620    2.5952
   37.650    2.5250
   37.680    2.5276
   37.710    2.4767
   37.740    2.5373
   37.770    2.4759
   37.800    2.4908
   37.830    2.4337
   37.860    2.4864
   37.890    2.4952
   37.920    2.4557
   37.950    2.4381
   37.980    2.4408
   38.010    2.4759
   38.040    2.4337
   38.070    2.4355
   38.100    2.4408
   38.130    2.4408
   38.160    2.4908
   38.190    2.4408
   38.220    2.4627
   38.250    2.4776
   38.280    2.5145
   38.310    2.4996
   38.340    2.5364
   38.370    2.4969
   38.400    2.5601
   38.430    2.6014
   38.460    2.5943
   38.490    2.5698
   38.520    2.5347
   38.550    2.5408
   38.580    2.4179
   38.610    2.4855
   38.640    2.4118
   38.670    2.4513
   38.700    2.4706
   38.730    2.5540
   38.760    2.5083
   38.790    2.4478
   38.820    2.4706
   38.850    2.5408
   38.880    2.5338
   38.910    2.4522
   38.940    2.4987
   38.970    2.4460
   39.000    2.5031
   39.030    2.4346
   39.060    2.4320
   39.090    2.4653
   39.120    2.4829
   39.150    2.4083
   39.180    2.4162
   39.210    2.4100
   39.240    2.4899
   39.270    2.4346
   39.300    2.4609
   39.330    2.5312
   39.360    2.4144
   39.390    2.4697
   39.420    2.4855
   39.450    2.4890
   39.480    2.5197
   39.510    2.5566
   39.540    2.5856
   39.570    2.6066
   39.600    2.5707
   39.630    2.6198
   39.660    2.6119
   39.690    2.5750
   39.720    2.5707
   39.750    2.5154
   39.780    2.4285
   39.810    2.4653
   39.840    2.4267
   39.870    2.4416
   39.900    2.4522
   39.930    2.4004
   39.960    2.3899
   39.990    2.4495