File: data/PXRD/PXRD_KE-322A_Cu-Ka1_film-3mm_3s-deg.xyd
    1.500    6.4946
    1.545    6.8106
    1.590    6.3893
    1.635    5.7223
    1.680    6.0734
    1.725    5.6872
    1.770    5.6872
    1.815    5.7750
    1.860    5.5819
    1.905    5.2484
    1.950    5.4064
    1.995    5.3712
    2.040    6.0032
    2.085    5.4415
    2.130    5.2659
    2.175    5.1255
    2.220    5.1080
    2.265    4.8095
    2.310    4.8095
    2.355    4.9851
    2.400    5.3186
    2.445    4.4585
    2.490    4.6165
    2.535    4.8973
    2.580    4.9149
    2.625    4.9324
    2.670    5.1431
    2.715    5.2308
    2.760    4.8973
    2.805    5.2659
    2.850    4.7569
    2.895    5.1957
    2.940    4.9324
    2.985    4.7393
    3.030    5.1957
    3.075    5.3537
    3.120    4.9149
    3.165    5.2308
    3.210    5.1255
    3.255    5.1782
    3.300    4.7218
    3.345    5.0026
    3.390    5.5117
    3.435    4.8973
    3.480    5.1255
    3.525    5.2484
    3.570    5.1782
    3.615    5.3888
    3.660    5.7048
    3.705    5.3186
    3.750    5.3010
    3.795    5.6170
    3.840    5.7574
    3.885    5.4590
    3.930    5.3537
    3.975    5.8101
    4.020    5.5994
    4.065    5.6170
    4.110    5.3361
    4.155    5.2308
    4.200    5.1782
    4.245    5.5292
    4.290    5.0904
    4.335    5.6345
    4.380    5.2659
    4.425    5.8627
    4.470    4.7569
    4.515    4.9500
    4.560    5.1957
    4.605    6.0558
    4.650    5.9329
    4.695    5.8627
    4.740    5.8627
    4.785    5.7925
    4.830    5.6521
    4.875    6.1611
    4.920    6.1611
    4.965    5.7574
    5.010    5.9329
    5.055    6.2138
    5.100    5.8803
    5.145    5.9681
    5.190    5.8978
    5.235    5.6872
    5.280    6.4069
    5.325    5.7750
    5.370    5.7574
    5.415    6.3367
    5.460    5.8452
    5.505    6.5473
    5.550    6.0383
    5.595    5.9505
    5.640    6.1436
    5.685    6.5649
    5.730    5.7925
    5.775    5.5994
    5.820    5.4590
    5.865    6.0734
    5.910    5.5292
    5.955    5.5819
    6.000    5.7399
    6.045    5.2308
    6.090    4.9851
    6.135    5.4766
    6.180    5.1255
    6.225    5.1957
    6.270    5.2835
    6.315    5.1957
    6.360    5.5468
    6.405    5.1080
    6.450    5.1606
    6.495    5.1606
    6.540    5.0553
    6.585    5.1957
    6.630    4.7393
    6.675    5.0728
    6.720    4.7042
    6.765    4.7920
    6.810    4.8271
    6.855    4.9149
    6.900    5.4590
    6.945    4.6867
    6.990    5.0904
    7.035    5.0904
    7.080    5.1606
    7.125    4.8798
    7.170    4.9500
    7.215    5.1255
    7.260    4.5463
    7.305    4.8798
    7.350    5.0728
    7.395    4.7393
    7.440    4.9149
    7.485    4.8798
    7.530    4.2830
    7.575    4.4936
    7.620    4.9675
    7.665    5.0728
    7.710    4.8271
    7.755    4.7569
    7.800    5.3361
    7.845    4.8973
    7.890    4.9675
    7.935    4.8973
    7.980    4.7218
    8.025    4.6516
    8.070    4.7569
    8.115    4.7569
    8.160    4.6516
    8.205    4.9324
    8.250    4.6340
    8.295    4.3005
    8.340    4.9500
    8.385    4.3883
    8.430    4.9324
    8.475    4.8447
    8.520    4.7744
    8.565    4.2478
    8.610    4.5111
    8.655    4.4936
    8.700    4.8798
    8.745    4.7744
    8.790    4.3883
    8.835    4.3707
    8.880    4.4585
    8.925    4.3532
    8.970    5.1080
    9.015    4.4409
    9.060    4.2830
    9.105    4.0723
    9.150    4.4760
    9.195    4.4585
    9.240    4.3005
    9.285    4.5638
    9.330    4.3181
    9.375    4.7569
    9.420    5.0202
    9.465    4.3356
    9.510    4.4234
    9.555    4.9149
    9.600    4.6691
    9.645    4.0021
    9.690    4.4409
    9.735    4.4936
    9.780    4.4234
    9.825    4.4936
    9.870    4.4234
    9.915    4.6340
    9.960    4.7042
   10.005    4.2303
   10.050    4.4585
   10.095    4.7920
   10.140    4.2830
   10.185    4.8798
   10.230    4.5111
   10.275    4.4585
   10.320    4.6165
   10.365    4.2830
   10.410    4.3356
   10.455    4.7393
   10.500    4.1250
   10.545    4.3707
   10.590    4.5111
   10.635    4.7042
   10.680    4.6516
   10.725    4.6691
   10.770    4.5463
   10.815    4.6516
   10.860    4.5814
   10.905    4.6867
   10.950    4.4058
   10.995    4.5989
   11.040    4.5638
   11.085    4.2478
   11.130    4.2654
   11.175    4.7218
   11.220    4.4585
   11.265    4.7920
   11.310    4.3883
   11.355    4.4409
   11.400    4.4760
   11.445    4.0899
   11.490    4.6165
   11.535    4.3005
   11.580    4.8447
   11.625    4.3181
   11.670    4.4058
   11.715    4.3532
   11.760    4.3707
   11.805    4.1776
   11.850    4.2127
   11.895    4.2830
   11.940    4.0372
   11.985    4.2830
   12.030    4.0899
   12.075    4.4058
   12.120    3.9319
   12.165    4.2127
   12.210    4.2654
   12.255    4.6516
   12.300    4.1601
   12.345    4.0548
   12.390    4.1425
   12.435    4.4760
   12.480    4.1425
   12.525    4.2830
   12.570    3.9670
   12.615    4.1952
   12.660    4.4585
   12.705    4.4058
   12.750    4.3532
   12.795    4.0899
   12.840    4.0723
   12.885    4.2303
   12.930    4.3532
   12.975    4.0548
   13.020    4.1601
   13.065    4.6165
   13.110    4.2654
   13.155    4.0723
   13.200    3.8090
   13.245    3.7915
   13.290    3.9846
   13.335    4.4234
   13.380    4.3883
   13.425    4.3707
   13.470    3.8266
   13.515    4.0723
   13.560    4.1601
   13.605    4.0372
   13.650    4.3883
   13.695    3.9846
   13.740    4.1601
   13.785    4.0899
   13.830    3.7564
   13.875    4.1952
   13.920    4.0723
   13.965    4.1776
   14.010    4.3532
   14.055    4.4585
   14.100    4.6340
   14.145    4.2303
   14.190    4.3532
   14.235    4.2303
   14.280    4.5989
   14.325    4.3356
   14.370    4.2478
   14.415    4.3356
   14.460    4.1250
   14.505    4.7744
   14.550    4.2478
   14.595    4.3356
   14.640    4.1074
   14.685    3.9319
   14.730    4.3181
   14.775    4.4058
   14.820    4.4409
   14.865    4.2830
   14.910    4.0899
   14.955    4.2478
   15.000    4.0548
   15.045    4.2654
   15.090    4.0723
   15.135    4.1776
   15.180    4.2654
   15.225    3.8792
   15.270    4.0723
   15.315    4.2303
   15.360    3.9846
   15.405    4.0723
   15.450    3.9846
   15.495    4.0899
   15.540    4.0548
   15.585    4.2830
   15.630    4.1776
   15.675    3.9143
   15.720    4.1250
   15.765    4.2127
   15.810    3.9143
   15.855    3.9670
   15.900    3.9494
   15.945    3.9494
   15.990    4.1250
   16.035    4.2478
   16.080    3.9846
   16.125    4.3356
   16.170    4.0197
   16.215    4.5463
   16.260    3.6510
   16.305    4.4058
   16.350    4.2654
   16.395    3.8792
   16.440    4.5638
   16.485    4.1776
   16.530    4.0021
   16.575    4.2654
   16.620    4.1074
   16.665    4.1776
   16.710    4.0723
   16.755    3.9670
   16.800    4.3707
   16.845    3.9494
   16.890    3.9319
   16.935    4.1074
   16.980    4.1776
   17.025    3.9670
   17.070    4.1601
   17.115    3.7037
   17.160    3.9670
   17.205    4.2830
   17.250    3.8266
   17.295    4.1601
   17.340    4.2478
   17.385    4.3356
   17.430    4.1776
   17.475    3.7915
   17.520    3.9143
   17.565    3.8968
   17.610    3.9670
   17.655    3.8441
   17.700    4.2478
   17.745    3.7564
   17.790    3.7388
   17.835    3.9494
   17.880    4.3356
   17.925    4.8798
   17.970    4.7569
   18.015    3.6335
   18.060    4.0197
   18.105    3.9670
   18.150    4.2830
   18.195    4.3532
   18.240    4.4409
   18.285    3.9494
   18.330    4.2303
   18.375    4.0723
   18.420    3.9319
   18.465    4.1776
   18.510    4.2478
   18.555    4.1601
   18.600    3.8968
   18.645    4.4936
   18.690    4.0723
   18.735    4.4760
   18.780    4.4585
   18.825    4.1250
   18.870    3.7915
   18.915    4.3005
   18.960    3.9670
   19.005    4.3532
   19.050    3.8792
   19.095    3.8968
   19.140    3.8617
   19.185    3.9143
   19.230    3.8090
   19.275    4.3532
   19.320    4.0899
   19.365    4.0548
   19.410    4.2127
   19.455    4.0372
   19.500    3.9670
   19.545    4.4936
   19.590    4.3005
   19.635    4.1952
   19.680    4.6516
   19.725    3.8266
   19.770    3.6686
   19.815    4.0899
   19.860    3.9670
   19.905    3.9846
   19.950    4.3532
   19.995    3.8968
   20.040    3.7564
   20.085    3.7739
   20.130    4.0723
   20.175    4.4058
   20.220    4.0021
   20.265    4.0021
   20.310    3.7739
   20.355    4.0548
   20.400    3.9494
   20.445    4.0723
   20.490    3.7564
   20.535    3.6510
   20.580    4.2127
   20.625    4.0548
   20.670    3.9494
   20.715    3.9494
   20.760    4.1074
   20.805    4.0197
   20.850    4.5814
   20.895    4.3356
   20.940    4.2654
   20.985    3.9143
   21.030    4.2830
   21.075    3.7739
   21.120    3.8792
   21.165    4.2127
   21.210    4.0899
   21.255    3.7037
   21.300    4.2303
   21.345    3.9319
   21.390    3.9319
   21.435    3.9846
   21.480    4.0548
   21.525    3.9494
   21.570    3.6686
   21.615    4.2830
   21.660    4.1776
   21.705    3.7388
   21.750    4.0723
   21.795    3.8792
   21.840    3.7037
   21.885    4.3532
   21.930    4.0723
   21.975    3.8441
   22.020    3.6159
   22.065    3.9670
   22.110    4.3356
   22.155    3.8441
   22.200    3.7388
   22.245    3.6510
   22.290    3.5984
   22.335    4.0021
   22.380    3.8441
   22.425    4.1250
   22.470    4.0723
   22.515    4.2654
   22.560    4.3883
   22.605    3.7739
   22.650    4.0021
   22.695    4.0197
   22.740    4.0548
   22.785    3.6335
   22.830    3.8968
   22.875    3.8617
   22.920    3.8441
   22.965    4.2478
   23.010    3.2122
   23.055    3.8792
   23.100    3.6335
   23.145    3.8441
   23.190    3.4931
   23.235    3.4580
   23.280    3.6862
   23.325    4.0021
   23.370    3.7564
   23.415    3.8441
   23.460    3.6862
   23.505    3.7564
   23.550    3.7564
   23.595    3.8266
   23.640    3.9494
   23.685    3.9494
   23.730    4.0548
   23.775    3.6335
   23.820    3.9319
   23.865    3.3175
   23.910    3.8441
   23.955    3.8266
   24.000    4.1425
   24.045    3.8617
   24.090    3.8617
   24.135    3.8792
   24.180    3.7388
   24.225    3.5106
   24.270    3.8792
   24.315    3.5984
   24.360    3.5984
   24.405    3.7037
   24.450    3.6510
   24.495    3.8441
   24.540    3.6335
   24.585    3.6335
   24.630    3.6159
   24.675    3.4053
   24.720    3.7213
   24.765    3.3000
   24.810    3.4755
   24.855    3.5808
   24.900    3.4580
   24.945    3.8968
   24.990    3.6510
   25.035    3.5282
   25.080    3.4229
   25.125    3.7037
   25.170    3.6510
   25.215    3.5633
   25.260    3.5633
   25.305    3.6686
   25.350    3.8441
   25.395    3.7739
   25.440    3.2824
   25.485    3.3877
   25.530    3.4755
   25.575    3.0191
   25.620    3.4404
   25.665    3.8090
   25.710    3.7388
   25.755    3.8266
   25.800    3.3351
   25.845    3.3175
   25.890    3.1771
   25.935    3.4755
   25.980    3.3526
   26.025    3.7915
   26.070    3.8090
   26.115    3.4229
   26.160    3.7739
   26.205    3.2473
   26.250    3.2824
   26.295    3.8090
   26.340    3.3000
   26.385    3.7739
   26.430    3.4229
   26.475    3.5106
   26.520    3.4580
   26.565    3.3351
   26.610    3.5633
   26.655    3.1947
   26.700    3.7388
   26.745    3.4229
   26.790    3.2473
   26.835    3.5808
   26.880    3.5457
   26.925    3.1947
   26.970    3.5984
   27.015    3.2122
   27.060    3.4404
   27.105    3.3526
   27.150    3.5457
   27.195    3.2824
   27.240    3.2298
   27.285    3.0893
   27.330    3.5808
   27.375    3.3175
   27.420    3.6159
   27.465    3.3526
   27.510    3.0542
   27.555    3.3175
   27.600    3.8090
   27.645    3.4053
   27.690    3.0016
   27.735    3.4404
   27.780    3.3702
   27.825    3.1947
   27.870    3.3351
   27.915    3.3702
   27.960    3.4229
   28.005    3.0542
   28.050    3.5984
   28.095    3.3526
   28.140    3.4755
   28.185    3.3351
   28.230    3.3877
   28.275    3.4229
   28.320    3.3175
   28.365    3.0893
   28.410    3.3877
   28.455    3.5808
   28.500    3.2649
   28.545    3.3526
   28.590    3.5457
   28.635    3.6510
   28.680    3.3000
   28.725    3.8792
   28.770    3.3351
   28.815    3.0016
   28.860    3.3526
   28.905    3.4404
   28.950    3.1947
   28.995    3.0542
   29.040    3.4755
   29.085    3.0542
   29.130    2.9138
   29.175    3.5633
   29.220    3.1069
   29.265    3.5984
   29.310    3.5106
   29.355    3.2649
   29.400    3.2298
   29.445    3.2473
   29.490    2.9665
   29.535    3.3175
   29.580    3.4931
   29.625    3.0718
   29.670    3.0718
   29.715    2.9665
   29.760    3.2122
   29.805    3.1245
   29.850    3.1245
   29.895    3.2122
   29.940    3.2824
   29.985    3.0893
   30.030    3.0893
   30.075    2.9840
   30.120    2.9489
   30.165    2.8787
   30.210    3.0191
   30.255    3.2122
   30.300    2.8612
   30.345    3.2824
   30.390    2.9314
   30.435    3.3175
   30.480    2.7207
   30.525    3.2122
   30.570    2.8085
   30.615    3.3351
   30.660    2.9138
   30.705    2.9314
   30.750    3.1420
   30.795    2.9665
   30.840    3.4755
   30.885    3.1596
   30.930    2.9489
   30.975    3.0016
   31.020    3.1771
   31.065    2.9138
   31.110    3.0893
   31.155    2.9489
   31.200    3.0718
   31.245    3.1069
   31.290    3.3000
   31.335    2.8436
   31.380    2.4223
   31.425    3.0191
   31.470    3.1245
   31.515    2.8085
   31.560    3.0893
   31.605    3.2824
   31.650    3.1069
   31.695    3.3175
   31.740    2.8787
   31.785    2.8612
   31.830    2.9489
   31.875    2.9489
   31.920    3.1771
   31.965    3.1245
   32.010    2.9489
   32.055    2.7909
   32.100    3.0016
   32.145    2.9489
   32.190    3.1069
   32.235    3.2824
   32.280    2.9840
   32.325    3.1420
   32.370    2.8260
   32.415    2.5803
   32.460    3.1596
   32.505    2.9138
   32.550    3.1596
   32.595    2.9840
   32.640    2.7207
   32.685    2.7383
   32.730    2.8260
   32.775    2.6505
   32.820    2.7207
   32.865    3.0016
   32.910    2.7734
   32.955    2.6330
   33.000    2.7909
   33.045    3.0016
   33.090    2.6330
   33.135    2.8260
   33.180    2.9489
   33.225    2.7734
   33.270    2.9314
   33.315    2.8260
   33.360    2.7207
   33.405    2.8085
   33.450    2.6505
   33.495    3.2824
   33.540    2.7383
   33.585    2.8436
   33.630    2.8963
   33.675    2.8260
   33.720    2.8260
   33.765    2.9314
   33.810    2.6330
   33.855    2.8436
   33.900    2.9489
   33.945    2.9138
   33.990    2.7734
   34.035    2.5979
   34.080    2.8612
   34.125    2.7032
   34.170    2.9138
   34.215    3.0542
   34.260    2.7734
   34.305    2.8260
   34.350    2.8963
   34.395    2.7558
   34.440    2.8260
   34.485    2.8260
   34.530    2.7032
   34.575    2.8612
   34.620    2.8260
   34.665    2.5803
   34.710    2.9489
   34.755    2.8085
   34.800    2.6856
   34.845    2.6505
   34.890    2.7032
   34.935    2.7383
   34.980    2.4048
   35.025    3.1771
   35.070    2.8260
   35.115    2.9489
   35.160    2.6856
   35.205    3.1420
   35.250    2.7558
   35.295    2.9489
   35.340    2.7558
   35.385    3.0191
   35.430    2.7032
   35.475    2.6681
   35.520    2.9840
   35.565    2.8260
   35.610    2.7383
   35.655    2.6856
   35.700    2.5101
   35.745    3.0542
   35.790    2.7032
   35.835    2.6856
   35.880    2.7734
   35.925    2.9314
   35.970    2.8260
   36.015    2.7032
   36.060    2.9138
   36.105    2.7032
   36.150    2.4750
   36.195    2.9314
   36.240    2.7909
   36.285    2.9314
   36.330    2.9840
   36.375    2.6856
   36.420    2.9489
   36.465    2.8085
   36.510    2.9840
   36.555    2.2468
   36.600    2.9314
   36.645    2.9489
   36.690    2.7207
   36.735    3.0016
   36.780    2.5452
   36.825    2.5803
   36.870    2.6856
   36.915    2.5979
   36.960    3.1245
   37.005    2.8436
   37.050    2.7207
   37.095    2.8436
   37.140    2.7383
   37.185    2.5803
   37.230    3.0016
   37.275    2.8260
   37.320    2.7734
   37.365    2.6330
   37.410    2.4574
   37.455    2.7734
   37.500    2.7734
   37.545    2.6154
   37.590    2.9840
   37.635    2.5276
   37.680    2.8085
   37.725    2.5979
   37.770    2.8260
   37.815    3.0718
   37.860    2.6505
   37.905    2.5979
   37.950    2.8963
   37.995    2.5628
   38.040    2.6330
   38.085    2.7909
   38.130    2.7909
   38.175    2.7734
   38.220    2.9314
   38.265    2.4925
   38.310    2.9138
   38.355    2.3346
   38.400    2.7207
   38.445    2.6154
   38.490    2.6330
   38.535    2.7383
   38.580    2.7909
   38.625    2.8436
   38.670    2.8085
   38.715    2.8787
   38.760    2.7383
   38.805    2.5979
   38.850    2.8612
   38.895    2.8787
   38.940    2.9138
   38.985    2.4223
   39.030    2.5979
   39.075    2.5276
   39.120    2.5628
   39.165    2.7383
   39.210    2.6505
   39.255    2.8260
   39.300    2.9665
   39.345    2.6154
   39.390    2.7383
   39.435    2.6330
   39.480    2.4399
   39.525    2.6154
   39.570    2.9489
   39.615    2.4925
   39.660    2.7734
   39.705    2.8260
   39.750    2.8787
   39.795    2.7909
   39.840    2.5979
   39.885    2.5803
   39.930    2.9138
   39.975    2.5101
   40.020    2.9489
   40.065    2.9138
   40.110    2.6330
   40.155    2.9138
   40.200    2.6681
   40.245    2.9840
   40.290    2.4925
   40.335    2.8436
   40.380    2.7558
   40.425    2.8436
   40.470    2.6681
   40.515    2.5628
   40.560    2.5452
   40.605    2.5979
   40.650    2.4925
   40.695    2.5979
   40.740    2.4925
   40.785    2.4399
   40.830    2.3170
   40.875    2.6505
   40.920    2.7558
   40.965    2.5803
   41.010    2.9840
   41.055    2.5452
   41.100    2.5452
   41.145    2.6856
   41.190    2.5803
   41.235    2.9489
   41.280    2.8260
   41.325    2.6330
   41.370    2.5628
   41.415    2.5979
   41.460    2.6154
   41.505    2.6505
   41.550    2.5979
   41.595    2.7558
   41.640    2.3872
   41.685    2.7558
   41.730    2.7734
   41.775    2.4925
   41.820    2.8085
   41.865    2.3697
   41.910    2.4048
   41.955    2.7032
   42.000    2.4750
   42.045    2.5101
   42.090    2.6505
   42.135    2.5101
   42.180    2.6856
   42.225    2.4574
   42.270    2.7032
   42.315    2.7558
   42.360    2.9314
   42.405    2.6856
   42.450    2.5101
   42.495    2.6154
   42.540    2.5452
   42.585    2.7207
   42.630    2.5452
   42.675    2.5276
   42.720    2.4925
   42.765    2.5276
   42.810    2.6330
   42.855    2.4399
   42.900    2.7383
   42.945    2.8260
   42.990    2.7383
   43.035    2.6330
   43.080    2.6856
   43.125    2.8260
   43.170    3.0718
   43.215    2.4925
   43.260    2.4399
   43.305    2.6505
   43.350    3.0542
   43.395    2.9489
   43.440    2.5979
   43.485    2.6505
   43.530    2.7032
   43.575    2.6330
   43.620    2.6681
   43.665    2.7909
   43.710    2.7032
   43.755    3.0542
   43.800    2.5452
   43.845    2.4399
   43.890    2.5803
   43.935    2.4574
   43.980    2.8436
   44.025    2.2819
   44.070    2.4399
   44.115    2.8787
   44.160    2.5803
   44.205    2.7909
   44.250    2.6154
   44.295    2.6681
   44.340    2.5276
   44.385    2.6154
   44.430    2.7383
   44.475    2.5628
   44.520    2.8260
   44.565    2.8612
   44.610    2.7207
   44.655    2.7207
   44.700    2.8612
   44.745    2.6154
   44.790    2.7909
   44.835    2.5101
   44.880    2.7032
   44.925    2.5628
   44.970    2.6856
   45.015    2.6330
   45.060    2.7734
   45.105    2.5979
   45.150    2.5276
   45.195    2.7383
   45.240    2.6505
   45.285    2.8260
   45.330    2.4048
   45.375    2.4925
   45.420    2.7383
   45.465    2.3521
   45.510    2.5276
   45.555    2.5101
   45.600    2.6154
   45.645    2.7558
   45.690    2.5101
   45.735    2.3170
   45.780    2.4925
   45.825    2.5452
   45.870    2.5803
   45.915    2.6330
   45.960    2.4399
   46.005    2.3521
   46.050    2.4048
   46.095    2.4048
   46.140    2.5276
   46.185    2.4925
   46.230    2.4048
   46.275    2.6154
   46.320    2.4750
   46.365    2.7558
   46.410    2.6505
   46.455    2.3521
   46.500    2.8260
   46.545    2.7558
   46.590    2.7558
   46.635    2.5452
   46.680    2.7383
   46.725    2.6505
   46.770    2.8612
   46.815    2.4048
   46.860    2.8787
   46.905    2.4223
   46.950    2.5101
   46.995    2.6505
   47.040    2.6154
   47.085    2.7207
   47.130    2.4925
   47.175    2.7383
   47.220    2.4574
   47.265    2.4399
   47.310    2.9138
   47.355    2.5979
   47.400    2.4399
   47.445    2.5452
   47.490    2.8612
   47.535    2.3521
   47.580    1.9484
   47.625    2.4750
   47.670    2.2819
   47.715    2.7558
   47.760    2.2995
   47.805    2.4750
   47.850    2.4048
   47.895    2.3521
   47.940    2.4574
   47.985    2.5101
   48.030    2.2819
   48.075    2.6330
   48.120    2.3346
   48.165    2.7383
   48.210    2.3521
   48.255    2.4925
   48.300    2.4048
   48.345    2.5803
   48.390    2.2643
   48.435    2.4399
   48.480    2.5979
   48.525    2.5452
   48.570    2.3346
   48.615    2.5452
   48.660    2.4048
   48.705    2.4399
   48.750    2.5452
   48.795    2.5803
   48.840    2.4925
   48.885    2.4750
   48.930    2.2468
   48.975    2.3346
   49.020    2.2643
   49.065    2.4750
   49.110    2.5101
   49.155    2.4750
   49.200    2.5803
   49.245    2.2819
   49.290    2.3521
   49.335    2.5803
   49.380    2.4574
   49.425    2.5452
   49.470    2.5276
   49.515    2.6330
   49.560    2.0888
   49.605    2.7383
   49.650    2.4574
   49.695    2.3346
   49.740    2.4750
   49.785    2.1766
   49.830    2.5979
   49.875    2.5452
   49.920    2.2643
   49.965    2.3521
   49.980    2.6681