File: data/PXRD/PXRD_KE-178_Cu-Ka1_capillary-1mm_5s-deg.xyd
    1.500   28.1517
    1.530   28.1306
    1.560   26.4244
    1.590   26.0453
    1.620   25.3397
    1.650   24.6130
    1.680   23.4439
    1.710   23.8968
    1.740   23.8020
    1.770   22.6330
    1.800   22.2433
    1.830   21.6640
    1.860   21.6640
    1.890   21.3586
    1.920   21.0743
    1.950   20.1053
    1.980   21.1269
    2.010   20.5055
    2.040   19.6735
    2.070   19.8526
    2.100   19.8526
    2.130   20.0632
    2.160   19.7578
    2.190   20.1159
    2.220   20.1053
    2.250   18.6519
    2.280   20.3686
    2.310   19.8104
    2.340   20.5266
    2.370   19.5366
    2.400   20.4318
    2.430   20.6740
    2.460   20.7583
    2.490   20.2949
    2.520   20.9163
    2.550   22.0221
    2.580   21.2428
    2.610   22.0116
    2.640   22.2433
    2.670   23.6756
    2.700   23.2333
    2.730   23.5387
    2.760   24.8131
    2.790   25.6030
    2.820   26.4244
    2.850   26.2033
    2.880   27.2459
    2.910   28.5835
    2.940   30.1843
    2.970   30.6477
    3.000   33.3860
    3.030   33.4281
    3.060   35.2396
    3.090   36.7457
    3.120   37.9989
    3.150   39.0943
    3.180   42.3065
    3.210   44.5287
    3.240   46.2349
    3.270   48.7520
    3.300   52.3749
    3.330   56.3033
    3.360   58.9468
    3.390   63.7599
    3.420   67.2986
    3.450   72.3855
    3.480   78.5150
    3.510   83.6546
    3.540   92.0800
    3.570  101.3376
    3.600  109.9631
    3.630  121.0216
    3.660  136.1664
    3.690  150.6477
    3.720  168.3728
    3.750  194.5761
    3.780  227.5303
    3.810  277.2723
    3.840  358.9995
    3.870  492.7857
    3.900  515.8294
    3.930  342.3065
    3.960   73.1122
    3.990   18.1148
    4.020   13.2385
    4.050   12.0274
    4.080   11.0269
    4.110   10.6898
    4.140   10.0790
    4.170   10.0053
    4.200   10.0158
    4.230    9.6261
    4.260    9.8684
    4.290    9.3102
    4.320    9.1522
    4.350    9.0785
    4.380    9.2891
    4.410    9.8578
    4.440   10.0895
    4.470    9.3944
    4.500    9.4997
    4.530    9.7841
    4.560    9.7314
    4.590    9.7525
    4.620    9.9210
    4.650   10.0053
    4.680    9.9105
    4.710   10.6056
    4.740   10.6372
    4.770   10.8899
    4.800   10.8583
    4.830   11.0269
    4.860   11.1322
    4.890   11.7852
    4.920   12.1959
    4.950   12.1116
    4.980   12.9753
    5.010   12.9542
    5.040   13.5966
    5.070   14.8078
    5.100   14.9763
    5.130   16.1348
    5.160   17.1985
    5.190   18.9047
    5.220   19.0205
    5.250   21.0005
    5.280   23.3702
    5.310   24.8973
    5.340   28.1095
    5.370   32.2064
    5.400   36.4824
    5.430   43.4860
    5.460   54.9131
    5.490   77.0616
    5.520   83.2228
    5.550   60.7794
    5.580   21.8852
    5.610    9.3839
    5.640    8.9415
    5.670    8.1622
    5.700    8.1727
    5.730    8.3939
    5.760    8.1727
    5.790    7.9726
    5.820    8.2780
    5.850    7.7725
    5.880    7.9726
    5.910    8.2570
    5.940    7.9831
    5.970    8.5203
    6.000    7.8146
    6.030    7.9937
    6.060    7.7830
    6.090    8.0253
    6.120    8.0358
    6.150    8.1622
    6.180    8.1833
    6.210    8.0147
    6.240    7.9516
    6.270    8.3307
    6.300    7.9516
    6.330    8.1411
    6.360    8.3096
    6.390    7.9831
    6.420    7.9831
    6.450    8.1622
    6.480    8.3518
    6.510    8.4150
    6.540    8.8678
    6.570    8.5729
    6.600    8.8152
    6.630    9.1311
    6.660    9.4155
    6.690   10.3949
    6.720   11.6588
    6.750   12.4276
    6.780   11.3849
    6.810    9.5945
    6.840    7.6567
    6.870    7.5724
    6.900    7.6040
    6.930    7.7409
    6.960    7.8989
    6.990    7.7936
    7.020    7.9200
    7.050    7.8778
    7.080    7.5197
    7.110    7.7620
    7.140    7.7093
    7.170    8.7098
    7.200    7.8462
    7.230    7.7199
    7.260    8.2464
    7.290    8.3412
    7.320    8.6361
    7.350    8.6993
    7.380    8.8362
    7.410    9.1838
    7.440    9.7420
    7.470    9.7630
    7.500    9.9105
    7.530   10.5529
    7.560   11.3955
    7.590   12.0379
    7.620   13.0595
    7.650   14.1969
    7.680   15.7241
    7.710   17.5987
    7.740   21.1796
    7.770   26.9510
    7.800   34.1548
    7.830   33.7757
    7.860   21.4113
    7.890   10.1843
    7.920    7.7620
    7.950    7.8778
    7.980    7.8462
    8.010    7.2775
    8.040    6.9826
    8.070    7.6145
    8.100    7.4776
    8.130    7.4250
    8.160    7.4250
    8.190    7.3934
    8.220    7.6251
    8.250    7.2143
    8.280    7.3723
    8.310    7.4250
    8.340    7.7514
    8.370    7.9726
    8.400    7.4039
    8.430    7.6988
    8.460    7.8989
    8.490    7.7514
    8.520    7.8252
    8.550    8.3623
    8.580    8.5308
    8.610    8.4466
    8.640    9.0258
    8.670    9.3207
    8.700   10.8689
    8.730   12.1116
    8.760   11.7536
    8.790    9.3418
    8.820    8.0147
    8.850    7.1617
    8.880    7.4566
    8.910    7.0774
    8.940    7.4039
    8.970    7.4987
    9.000    7.4987
    9.030    8.0042
    9.060    8.0569
    9.090    7.6777
    9.120    7.7409
    9.150    8.7836
    9.180    8.5519
    9.210    7.9410
    9.240    9.1732
    9.270    9.0258
    9.300    9.8473
    9.330   10.1843
    9.360   11.0585
    9.390   12.6277
    9.420   13.5229
    9.450   15.4608
    9.480   18.1464
    9.510   21.9905
    9.540   29.4787
    9.570   37.6725
    9.600   34.5024
    9.630   21.2954
    9.660    9.7209
    9.690    7.5303
    9.720    7.5408
    9.750    7.5092
    9.780    6.7615
    9.810    7.2565
    9.840    7.1722
    9.870    7.5092
    9.900    7.3407
    9.930    7.2880
    9.960    7.5092
    9.990    7.5619
   10.020    7.5724
   10.050    7.3828
   10.080    8.1727
   10.110    8.0253
   10.140    8.8573
   10.170    8.7730
   10.200    9.4892
   10.230   10.7636
   10.260   11.5745
   10.290   13.4597
   10.320   16.9352
   10.350   18.7151
   10.380   16.7773
   10.410   10.7846
   10.440    7.7093
   10.470    7.5092
   10.500    7.1827
   10.530    7.4671
   10.560    7.2038
   10.590    7.0669
   10.620    6.7088
   10.650    7.1195
   10.680    7.2459
   10.710    7.0142
   10.740    7.6251
   10.770    7.7304
   10.800    7.9726
   10.830    8.0569
   10.860    8.3202
   10.890    9.2786
   10.920    9.3628
   10.950   10.7109
   10.980   11.9747
   11.010   14.0495
   11.040   18.1253
   11.070   20.2422
   11.100   17.6093
   11.130   11.6588
   11.160    7.1406
   11.190    7.3091
   11.220    6.9405
   11.250    7.0774
   11.280    6.8562
   11.310    6.8141
   11.340    6.7720
   11.370    7.2354
   11.400    7.1195
   11.430    7.6672
   11.460    7.1617
   11.490    7.6145
   11.520    8.0463
   11.550    8.5203
   11.580    9.6893
   11.610   10.1738
   11.640   10.9321
   11.670   12.2275
   11.700   16.2928
   11.730   19.8315
   11.760   19.2522
   11.790   14.4813
   11.820    9.1732
   11.850    6.8878
   11.880    6.9194
   11.910    7.0353
   11.940    6.6772
   11.970    6.2243
   12.000    6.8141
   12.030    6.7720
   12.060    6.7615
   12.090    6.9405
   12.120    6.9510
   12.150    6.9194
   12.180    6.9089
   12.210    6.6561
   12.240    7.1090
   12.270    7.1617
   12.300    7.1090
   12.330    7.9937
   12.360    9.6156
   12.390    9.3102
   12.420    8.6783
   12.450    7.6040
   12.480    6.6456
   12.510    6.7193
   12.540    6.5613
   12.570    6.7720
   12.600    6.6877
   12.630    6.9932
   12.660    6.8036
   12.690    6.7930
   12.720    6.8352
   12.750    7.4460
   12.780    7.0037
   12.810    8.0147
   12.840    8.2886
   12.870    8.4781
   12.900    9.5208
   12.930   11.3639
   12.960   13.1648
   12.990   15.1237
   13.020   13.4913
   13.050    9.9842
   13.080    7.1511
   13.110    6.7930
   13.140    6.6772
   13.170    6.6140
   13.200    6.3507
   13.230    6.6456
   13.260    6.5824
   13.290    6.4876
   13.320    6.7088
   13.350    6.8562
   13.380    6.9826
   13.410    7.0142
   13.440    7.4144
   13.470    8.1411
   13.500    9.0153
   13.530    9.7841
   13.560   10.6898
   13.590   11.1006
   13.620    9.5103
   13.650    7.4987
   13.680    6.3823
   13.710    6.7930
   13.740    6.3823
   13.770    6.4560
   13.800    6.5824
   13.830    6.5613
   13.860    6.4244
   13.890    7.2775
   13.920    6.7615
   13.950    7.6040
   13.980    7.7725
   14.010    7.8357
   14.040    9.2891
   14.070   10.2791
   14.100   13.0174
   14.130   14.1969
   14.160   12.9858
   14.190    9.3628
   14.220    6.6877
   14.250    6.3823
   14.280    6.2454
   14.310    6.2875
   14.340    6.3086
   14.370    5.8873
   14.400    6.2454
   14.430    6.0769
   14.460    6.3086
   14.490    6.6877
   14.520    6.3612
   14.550    6.1822
   14.580    6.1611
   14.610    6.3928
   14.640    6.3612
   14.670    6.6561
   14.700    6.5508
   14.730    6.5929
   14.760    6.4876
   14.790    6.3402
   14.820    6.1190
   14.850    6.3296
   14.880    6.1927
   14.910    6.3823
   14.940    6.4350
   14.970    6.9405
   15.000    6.8562
   15.030    6.6877
   15.060    7.4250
   15.090    7.0142
   15.120    7.9937
   15.150    8.5203
   15.180    9.8262
   15.210    9.8473
   15.240    8.6361
   15.270    6.9405
   15.300    6.1822
   15.330    6.4034
   15.360    6.5508
   15.390    6.5613
   15.420    5.9400
   15.450    6.2981
   15.480    7.0142
   15.510    6.4350
   15.540    6.3402
   15.570    6.8668
   15.600    6.3823
   15.630    6.2875
   15.660    6.3296
   15.690    6.4350
   15.720    6.3718
   15.750    6.2981
   15.780    6.3928
   15.810    6.2559
   15.840    6.4876
   15.870    6.0664
   15.900    6.5613
   15.930    6.5298
   15.960    6.3402
   15.990    6.6667
   16.020    6.6351
   16.050    7.0037
   16.080    7.8357
   16.110    7.5408
   16.140    8.8678
   16.170    9.3418
   16.200    9.1311
   16.230    7.6356
   16.260    6.5403
   16.290    6.3823
   16.320    6.4666
   16.350    6.4455
   16.380    6.3402
   16.410    6.7930
   16.440    6.4876
   16.470    6.4876
   16.500    6.6035
   16.530    7.6672
   16.560    7.2354
   16.590    8.0253
   16.620    9.6682
   16.650    9.8368
   16.680    8.6677
   16.710    7.8673
   16.740    7.1195
   16.770    6.5298
   16.800    6.4982
   16.830    6.5298
   16.860    7.0563
   16.890    6.8457
   16.920    6.8668
   16.950    7.5513
   16.980    7.7304
   17.010    8.5624
   17.040    9.2575
   17.070   11.6798
   17.100   12.3960
   17.130   12.5013
   17.160    9.9947
   17.190    7.4355
   17.220    6.8352
   17.250    6.5824
   17.280    6.4876
   17.310    6.3507
   17.340    6.6456
   17.370    6.6351
   17.400    6.7930
   17.430    6.5403
   17.460    6.8878
   17.490    6.9616
   17.520    7.3196
   17.550    7.5408
   17.580    7.5092
   17.610    7.0985
   17.640    6.4560
   17.670    6.7615
   17.700    6.8457
   17.730    6.0874
   17.760    6.8668
   17.790    6.4244
   17.820    6.1401
   17.850    7.3196
   17.880    6.6245
   17.910    7.1301
   17.940    7.3407
   17.970    7.7936
   18.000    7.5619
   18.030    7.9305
   18.060    7.2880
   18.090    6.2770
   18.120    6.9616
   18.150    6.5929
   18.180    6.3296
   18.210    6.0453
   18.240    6.4455
   18.270    6.9089
   18.300    6.8773
   18.330    7.1827
   18.360    7.4039
   18.390    8.5413
   18.420    8.4044
   18.450    8.0674
   18.480    7.4776
   18.510    6.8878
   18.540    6.4244
   18.570    6.7509
   18.600    6.0874
   18.630    6.5929
   18.660    6.5087
   18.690    6.9405
   18.720    6.6772
   18.750    6.8773
   18.780    7.4039
   18.810    7.5619
   18.840    7.9516
   18.870    8.0990
   18.900    7.1406
   18.930    6.7404
   18.960    6.3296
   18.990    6.2243
   19.020    6.6035
   19.050    6.6351
   19.080    6.1190
   19.110    6.8773
   19.140    6.3612
   19.170    6.6245
   19.200    7.0037
   19.230    6.7615
   19.260    6.4350
   19.290    6.4455
   19.320    6.7088
   19.350    6.1401
   19.380    6.4034
   19.410    6.9405
   19.440    6.3296
   19.470    7.0037
   19.500    6.7825
   19.530    7.1406
   19.560    7.6251
   19.590    8.6045
   19.620    9.3839
   19.650    9.6367
   19.680   10.2159
   19.710    8.0253
   19.740    7.0458
   19.770    6.5613
   19.800    6.3612
   19.830    6.4034
   19.860    6.4666
   19.890    6.3296
   19.920    6.4876
   19.950    6.7930
   19.980    6.8246
   20.010    6.5613
   20.040    6.5929
   20.070    6.8984
   20.100    6.8036
   20.130    6.9089
   20.160    6.5087
   20.190    6.6456
   20.220    6.6667
   20.250    6.8984
   20.280    7.2880
   20.310    7.7514
   20.340    8.3728
   20.370   10.0685
   20.400   11.1532
   20.430   12.5750
   20.460   11.9642
   20.490    9.8473
   20.520    7.9094
   20.550    6.5929
   20.580    6.7299
   20.610    6.6983
   20.640    6.7299
   20.670    6.6351
   20.700    6.3086
   20.730    6.6245
   20.760    6.8984
   20.790    6.5192
   20.820    7.0248
   20.850    6.6667
   20.880    6.7193
   20.910    6.8141
   20.940    6.3823
   20.970    6.6772
   21.000    6.4771
   21.030    6.4139
   21.060    6.2559
   21.090    6.6667
   21.120    6.2665
   21.150    6.5508
   21.180    7.0353
   21.210    6.5824
   21.240    6.7615
   21.270    6.3296
   21.300    6.8036
   21.330    6.7509
   21.360    6.5719
   21.390    6.6877
   21.420    6.4455
   21.450    6.6877
   21.480    6.8246
   21.510    6.7615
   21.540    6.4034
   21.570    6.8141
   21.600    7.0669
   21.630    6.2349
   21.660    6.5824
   21.690    6.7825
   21.720    6.2559
   21.750    6.8562
   21.780    6.8562
   21.810    7.4460
   21.840    7.8778
   21.870    8.4360
   21.900    8.9837
   21.930    8.9205
   21.960    8.2464
   21.990    7.5197
   22.020    6.9089
   22.050    6.5192
   22.080    6.7930
   22.110    6.7509
   22.140    6.4982
   22.170    6.9616
   22.200    7.2038
   22.230    7.6672
   22.260    7.8884
   22.290    8.0779
   22.320    7.5619
   22.350    7.4776
   22.380    6.8141
   22.410    6.8457
   22.440    7.0985
   22.470    7.2670
   22.500    8.3307
   22.530    8.5624
   22.560   10.1738
   22.590   11.6061
   22.620   12.9331
   22.650   11.6482
   22.680    9.9631
   22.710    8.6256
   22.740    7.1722
   22.770    6.8036
   22.800    7.4882
   22.830    8.0253
   22.860    8.3096
   22.890    9.7314
   22.920   12.0274
   22.950   14.3760
   22.980   14.4076
   23.010   12.4908
   23.040   10.0790
   23.070    7.6988
   23.100    6.8773
   23.130    7.1511
   23.160    6.5824
   23.190    7.5303
   23.220    6.9194
   23.250    7.8357
   23.280    8.7941
   23.310    8.6888
   23.340    8.1938
   23.370    7.6251
   23.400    7.2775
   23.430    6.6351
   23.460    6.3296
   23.490    6.7404
   23.520    6.6035
   23.550    6.8878
   23.580    6.9510
   23.610    6.9300
   23.640    7.2459
   23.670    7.1511
   23.700    6.9510
   23.730    6.5613
   23.760    6.6035
   23.790    6.5929
   23.820    7.0353
   23.850    7.2565
   23.880    7.5619
   23.910    7.9516
   23.940    9.1206
   23.970    9.1732
   24.000    9.0785
   24.030    8.2675
   24.060    7.1933
   24.090    6.4350
   24.120    6.3402
   24.150    6.5192
   24.180    6.4139
   24.210    6.4139
   24.240    6.4666
   24.270    7.0879
   24.300    6.8352
   24.330    6.5719
   24.360    6.6140
   24.390    7.1406
   24.420    6.4244
   24.450    6.4139
   24.480    6.5824
   24.510    6.3296
   24.540    6.9510
   24.570    6.5824
   24.600    7.0879
   24.630    7.1301
   24.660    7.3723
   24.690    6.6772
   24.720    6.7930
   24.750    6.8036
   24.780    6.2770
   24.810    6.2770
   24.840    6.7404
   24.870    6.8246
   24.900    6.6983
   24.930    6.8141
   24.960    7.1090
   24.990    6.7930
   25.020    6.3612
   25.050    6.8036
   25.080    6.8457
   25.110    6.2033
   25.140    6.5824
   25.170    6.9089
   25.200    7.1090
   25.230    7.2880
   25.260    7.4987
   25.290    7.3302
   25.320    6.7825
   25.350    6.8984
   25.380    6.1927
   25.410    6.4771
   25.440    7.0774
   25.470    6.6877
   25.500    6.6456
   25.530    7.0563
   25.560    7.6777
   25.590    7.0142
   25.620    7.3723
   25.650    6.8878
   25.680    6.4139
   25.710    6.8668
   25.740    7.1301
   25.770    7.1301
   25.800    8.2464
   25.830    9.3523
   25.860   10.7846
   25.890   10.5003
   25.920    9.9210
   25.950    8.5097
   25.980    7.3828
   26.010    6.5824
   26.040    6.4666
   26.070    6.0558
   26.100    6.4771
   26.130    6.7193
   26.160    6.9194
   26.190    6.6351
   26.220    6.9300
   26.250    7.0037
   26.280    6.2138
   26.310    6.3612
   26.340    6.2243
   26.370    6.4139
   26.400    6.9721
   26.430    7.3091
   26.460    7.8146
   26.490    7.5724
   26.520    7.8462
   26.550    7.1933
   26.580    6.3507
   26.610    6.5824
   26.640    6.5508
   26.670    6.0348
   26.700    6.4771
   26.730    6.3823
   26.760    6.2138
   26.790    6.0664
   26.820    6.2665
   26.850    6.4982
   26.880    6.4876
   26.910    6.2981
   26.940    6.2875
   26.970    6.3402
   27.000    7.1722
   27.030    8.0358
   27.060    8.6256
   27.090    8.6572
   27.120    8.1622
   27.150    7.6356
   27.180    6.8141
   27.210    6.2665
   27.240    6.0453
   27.270    6.1822
   27.300    6.1506
   27.330    6.3507
   27.360    6.3612
   27.390    6.5403
   27.420    6.5719
   27.450    6.4560
   27.480    6.0664
   27.510    6.0348
   27.540    6.6772
   27.570    6.3718
   27.600    7.5513
   27.630    7.1406
   27.660    7.8568
   27.690    7.9094
   27.720    7.1933
   27.750    6.5508
   27.780    6.2981
   27.810    6.1927
   27.840    6.4876
   27.870    6.4034
   27.900    6.9089
   27.930    7.0879
   27.960    7.0985
   27.990    7.1933
   28.020    6.4350
   28.050    6.7825
   28.080    6.4244
   28.110    6.2875
   28.140    6.9826
   28.170    7.3196
   28.200    7.9516
   28.230    7.7725
   28.260    8.1517
   28.290    7.7514
   28.320    7.0458
   28.350    6.6035
   28.380    6.5298
   28.410    6.5298
   28.440    7.2038
   28.470    7.7514
   28.500    7.8357
   28.530    7.9200
   28.560    7.9726
   28.590    7.1406
   28.620    6.6140
   28.650    6.0664
   28.680    6.3718
   28.710    5.9821
   28.740    6.1506
   28.770    6.1927
   28.800    6.5192
   28.830    6.0769
   28.860    6.3402
   28.890    6.2981
   28.920    6.2981
   28.950    6.0242
   28.980    6.0032
   29.010    6.7299
   29.040    6.9510
   29.070    6.7404
   29.100    6.7825
   29.130    6.4034
   29.160    6.4139
   29.190    6.4034
   29.220    6.2770
   29.250    6.9616
   29.280    6.3507
   29.310    7.2249
   29.340    7.4882
   29.370    7.4987
   29.400    7.0248
   29.430    7.0985
   29.460    6.2559
   29.490    6.5719
   29.520    5.8662
   29.550    5.8452
   29.580    6.1927
   29.610    5.8978
   29.640    5.9926
   29.670    5.8136
   29.700    6.4244
   29.730    5.7609
   29.760    6.2138
   29.790    6.3191
   29.820    6.5508
   29.850    6.7509
   29.880    6.9194
   29.910    6.8036
   29.940    6.6667
   29.970    6.5192
   30.000    6.4244
   30.030    5.6977
   30.060    6.0664
   30.090    6.3823
   30.120    6.2349
   30.150    6.4982
   30.180    6.0769
   30.210    6.1717
   30.240    6.0664
   30.270    5.9084
   30.300    6.3612
   30.330    6.1190
   30.360    5.9610
   30.390    6.0558
   30.420    6.4350
   30.450    6.7615
   30.480    6.3191
   30.510    6.1295
   30.540    6.2454
   30.570    6.3928
   30.600    5.9821
   30.630    6.4034
   30.660    6.6140
   30.690    6.8457
   30.720    6.7193
   30.750    6.3402
   30.780    6.5508
   30.810    6.2033
   30.840    5.7188
   30.870    5.9505
   30.900    6.4666
   30.930    5.9821
   30.960    6.0769
   30.990    6.0769
   31.020    5.9716
   31.050    5.8768
   31.080    5.9189
   31.110    5.8978
   31.140    5.5714
   31.170    5.9189
   31.200    5.7820
   31.230    5.7504
   31.260    5.7609
   31.290    6.3823
   31.320    6.0979
   31.350    6.3823
   31.380    5.9716
   31.410    6.8036
   31.440    6.6245
   31.470    6.6667
   31.500    6.3928
   31.530    6.1927
   31.560    6.0242
   31.590    6.0032
   31.620    5.5924
   31.650    5.9084
   31.680    5.9294
   31.710    6.6140
   31.740    6.2138
   31.770    6.1611
   31.800    6.0348
   31.830    6.0874
   31.860    5.9505
   31.890    6.2243
   31.920    6.1401
   31.950    6.3191
   31.980    6.4139
   32.010    6.0769
   32.040    5.7820
   32.070    5.8768
   32.100    6.0348
   32.130    5.5398
   32.160    5.8557
   32.190    5.8136
   32.220    6.0558
   32.250    6.0137
   32.280    5.5292
   32.310    5.9821
   32.340    5.5503
   32.370    6.0558
   32.400    5.9189
   32.430    5.9610
   32.460    6.1506
   32.490    5.8136
   32.520    5.5819
   32.550    5.7399
   32.580    5.7820
   32.610    5.3818
   32.640    5.6767
   32.670    5.6872
   32.700    6.0453
   32.730    5.9505
   32.760    5.8452
   32.790    5.7609
   32.820    5.3397
   32.850    5.9400
   32.880    5.7083
   32.910    5.7293
   32.940    6.4666
   32.970    6.2349
   33.000    6.1717
   33.030    6.1717
   33.060    5.8031
   33.090    5.7715
   33.120    5.2870
   33.150    5.4028
   33.180    5.7188
   33.210    5.7399
   33.240    5.8662
   33.270    5.4766
   33.300    5.6240
   33.330    5.6345
   33.360    5.7083
   33.390    5.6977
   33.420    5.7188
   33.450    5.4766
   33.480    5.7399
   33.510    5.9400
   33.540    5.5503
   33.570    5.6661
   33.600    5.8031
   33.630    5.7609
   33.660    6.1927
   33.690    6.1822
   33.720    6.2454
   33.750    6.1506
   33.780    6.0242
   33.810    5.7609
   33.840    6.1085
   33.870    6.1506
   33.900    6.2033
   33.930    6.1611
   33.960    6.5403
   33.990    6.1506
   34.020    6.2875
   34.050    6.0348
   34.080    5.8452
   34.110    5.5819
   34.140    6.0032
   34.170    6.1611
   34.200    6.1506
   34.230    5.8452
   34.260    5.8662
   34.290    6.0664
   34.320    5.9400
   34.350    5.8662
   34.380    5.3607
   34.410    5.2449
   34.440    6.0242
   34.470    5.8662
   34.500    5.4871
   34.530    5.3397
   34.560    5.6029
   34.590    5.7504
   34.620    5.5608
   34.650    5.2659
   34.680    5.3502
   34.710    5.2765
   34.740    5.9084
   34.770    5.9821
   34.800    6.0032
   34.830    5.7293
   34.860    5.9505
   34.890    5.8768
   34.920    6.0558
   34.950    5.7609
   34.980    5.9505
   35.010    5.9294
   35.040    5.3502
   35.070    5.8873
   35.100    5.4134
   35.130    5.3607
   35.160    5.3923
   35.190    5.3186
   35.220    5.3502
   35.250    5.2238
   35.280    5.5714
   35.310    5.4134
   35.340    5.1817
   35.370    5.7715
   35.400    5.4871
   35.430    5.4239
   35.460    5.3502
   35.490    5.1080
   35.520    5.1080
   35.550    5.3502
   35.580    5.4766
   35.610    5.2870
   35.640    5.7399
   35.670    5.6029
   35.700    5.9400
   35.730    5.5292
   35.760    5.7715
   35.790    5.8136
   35.820    5.7293
   35.850    6.1190
   35.880    5.6240
   35.910    5.4766
   35.940    5.4134
   35.970    5.5608
   36.000    6.1611
   36.030    5.7504
   36.060    6.1295
   36.090    5.5187
   36.120    5.3818
   36.150    5.5608
   36.180    5.6661
   36.210    5.4450
   36.240    5.7293
   36.270    5.8136
   36.300    5.5082
   36.330    5.2659
   36.360    5.6135
   36.390    5.6451
   36.420    5.3186
   36.450    5.5082
   36.480    5.2238
   36.510    5.4344
   36.540    5.2449
   36.570    5.6451
   36.600    5.4555
   36.630    5.6556
   36.660    5.7504
   36.690    6.1401
   36.720    5.8452
   36.750    5.6240
   36.780    5.7293
   36.810    5.7188
   36.840    5.3081
   36.870    5.4976
   36.900    5.2870
   36.930    5.4134
   36.960    5.5292
   36.990    5.3081
   37.020    5.1395
   37.050    5.4344
   37.080    5.9505
   37.110    5.8662
   37.140    6.3718
   37.170    6.1190
   37.200    6.1295
   37.230    5.9821
   37.260    5.8031
   37.290    5.5398
   37.320    5.2238
   37.350    5.3818
   37.380    5.3607
   37.410    4.9605
   37.440    5.5187
   37.470    5.0448
   37.500    5.4660
   37.530    5.4344
   37.560    5.3818
   37.590    5.5819
   37.620    5.4766
   37.650    5.6135
   37.680    5.8662
   37.710    5.5503
   37.740    5.4344
   37.770    5.3291
   37.800    5.4028
   37.830    5.3923
   37.860    5.6872
   37.890    5.7820
   37.920    5.6345
   37.950    5.6240
   37.980    5.2870
   38.010    5.8241
   38.040    5.8662
   38.070    5.4028
   38.100    5.2765
   38.130    5.4871
   38.160    4.9289
   38.190    5.1501
   38.220    5.1395
   38.250    5.4871
   38.280    5.2027
   38.310    5.4028
   38.340    5.1501
   38.370    5.6240
   38.400    5.4344
   38.430    5.0448
   38.460    5.2343
   38.490    5.5503
   38.520    5.4766
   38.550    5.4766
   38.580    5.1080
   38.610    5.2133
   38.640    4.9289
   38.670    5.3397
   38.700    5.0553
   38.730    5.1185
   38.760    5.0553
   38.790    5.2659
   38.820    5.1711
   38.850    5.3291
   38.880    5.4450
   38.910    5.0553
   38.940    5.2659
   38.970    5.2133
   39.000    5.6451
   39.030    5.5292
   39.060    5.2238
   39.090    5.2238
   39.120    4.8341
   39.150    5.4660
   39.180    5.0658
   39.210    5.2765
   39.240    5.3397
   39.270    5.5714
   39.300    5.5819
   39.330    5.7504
   39.360    5.6029
   39.390    5.5292
   39.420    5.5608
   39.450    5.3607
   39.480    5.0553
   39.510    5.3923
   39.540    5.4028
   39.570    5.6345
   39.600    4.9184
   39.630    5.4450
   39.660    5.4239
   39.690    5.6029
   39.720    5.5082
   39.750    5.5187
   39.780    5.5292
   39.810    5.8136
   39.840    5.2027
   39.870    5.4555
   39.900    5.3291
   39.930    5.7715
   39.960    5.3712
   39.990    5.2975