File: data/PXRD/PXRD_KE-327_Cu-Ka1_capillary-1mm_3s-deg.xyd
    1.500    9.4085
    1.545    9.1276
    1.590    7.5829
    1.635    8.0393
    1.680    7.7760
    1.725    7.1441
    1.770    7.0388
    1.815    6.3718
    1.860    6.1436
    1.905    6.3016
    1.950    5.8627
    1.995    6.1962
    2.040    5.3537
    2.085    5.6872
    2.130    5.2659
    2.175    5.0026
    2.220    4.7218
    2.265    5.1431
    2.310    4.8622
    2.355    4.4585
    2.400    4.3707
    2.445    4.6691
    2.490    4.5989
    2.535    4.1425
    2.580    4.5814
    2.625    4.1952
    2.670    4.0899
    2.715    4.1601
    2.760    3.5984
    2.805    3.9670
    2.850    3.7388
    2.895    3.7739
    2.940    3.8617
    2.985    3.7564
    3.030    3.6510
    3.075    3.6335
    3.120    3.7213
    3.165    3.7564
    3.210    3.7388
    3.255    3.6862
    3.300    3.7915
    3.345    3.6686
    3.390    3.5984
    3.435    3.5106
    3.480    3.7388
    3.525    3.5457
    3.570    3.4053
    3.615    3.7213
    3.660    3.4755
    3.705    3.6686
    3.750    3.7213
    3.795    3.4053
    3.840    3.8090
    3.885    4.0723
    3.930    3.5457
    3.975    3.2473
    4.020    3.4931
    4.065    3.4580
    4.110    3.4580
    4.155    3.4580
    4.200    3.4580
    4.245    3.6335
    4.290    3.6159
    4.335    3.6335
    4.380    3.7213
    4.425    3.8968
    4.470    3.5106
    4.515    3.6510
    4.560    3.5808
    4.605    3.4229
    4.650    3.6335
    4.695    3.5282
    4.740    3.6335
    4.785    3.2298
    4.830    3.5633
    4.875    3.5282
    4.920    4.0899
    4.965    3.5808
    5.010    3.5633
    5.055    3.4580
    5.100    3.4229
    5.145    3.5106
    5.190    3.7915
    5.235    3.6159
    5.280    3.7213
    5.325    3.3175
    5.370    3.7213
    5.415    3.3175
    5.460    3.2824
    5.505    3.4229
    5.550    3.3000
    5.595    3.3526
    5.640    3.7037
    5.685    3.5984
    5.730    3.8968
    5.775    3.8792
    5.820    3.5282
    5.865    3.7037
    5.910    3.7388
    5.955    3.5457
    6.000    3.8617
    6.045    4.0197
    6.090    3.4229
    6.135    3.8617
    6.180    3.7739
    6.225    3.5808
    6.270    3.8617
    6.315    3.8617
    6.360    3.5808
    6.405    3.2473
    6.450    3.6159
    6.495    3.4229
    6.540    3.2298
    6.585    3.5457
    6.630    3.7564
    6.675    3.6335
    6.720    3.4053
    6.765    3.6862
    6.810    3.8968
    6.855    3.3175
    6.900    3.7213
    6.945    3.7388
    6.990    3.3702
    7.035    4.0548
    7.080    3.6862
    7.125    3.4229
    7.170    3.9143
    7.215    3.4931
    7.260    3.5457
    7.305    3.7564
    7.350    3.8617
    7.395    3.8617
    7.440    3.6510
    7.485    4.1425
    7.530    3.7564
    7.575    3.7037
    7.620    3.8968
    7.665    3.7915
    7.710    3.8617
    7.755    4.0723
    7.800    4.0021
    7.845    3.5808
    7.890    3.8441
    7.935    3.8617
    7.980    3.8792
    8.025    3.7739
    8.070    4.1776
    8.115    3.9319
    8.160    4.3883
    8.205    3.7213
    8.250    3.8266
    8.295    3.7915
    8.340    3.7915
    8.385    3.7739
    8.430    4.0197
    8.475    3.8617
    8.520    3.7915
    8.565    4.1074
    8.610    3.9143
    8.655    3.9143
    8.700    4.0899
    8.745    3.7915
    8.790    4.2478
    8.835    3.7564
    8.880    3.9670
    8.925    3.7213
    8.970    4.5989
    9.015    3.9319
    9.060    4.1074
    9.105    4.0548
    9.150    4.1601
    9.195    3.8266
    9.240    4.2478
    9.285    3.9494
    9.330    4.1425
    9.375    4.2654
    9.420    3.8441
    9.465    4.5989
    9.510    4.4585
    9.555    4.3532
    9.600    4.6165
    9.645    4.1776
    9.690    4.4058
    9.735    4.0021
    9.780    4.5463
    9.825    4.4058
    9.870    3.9846
    9.915    4.4234
    9.960    4.5989
   10.005    4.5638
   10.050    4.2830
   10.095    4.6691
   10.140    3.8792
   10.185    4.4058
   10.230    3.9846
   10.275    4.2127
   10.320    4.6340
   10.365    4.1601
   10.410    4.5989
   10.455    4.2303
   10.500    3.8617
   10.545    3.8968
   10.590    4.0197
   10.635    4.0372
   10.680    3.9846
   10.725    4.6867
   10.770    4.1952
   10.815    4.4760
   10.860    3.9494
   10.905    4.0021
   10.950    4.1425
   10.995    3.9143
   11.040    4.3883
   11.085    4.0021
   11.130    4.4058
   11.175    4.0372
   11.220    4.1250
   11.265    4.0197
   11.310    4.2478
   11.355    3.5984
   11.400    3.5457
   11.445    3.6159
   11.490    3.8441
   11.535    4.0899
   11.580    3.7915
   11.625    3.7388
   11.670    3.7388
   11.715    4.0021
   11.760    3.5282
   11.805    3.5282
   11.850    4.0372
   11.895    3.7213
   11.940    3.9143
   11.985    3.7915
   12.030    3.9846
   12.075    3.8090
   12.120    3.5808
   12.165    3.8441
   12.210    3.7037
   12.255    3.4229
   12.300    3.6862
   12.345    3.6510
   12.390    3.2649
   12.435    3.4229
   12.480    3.6686
   12.525    3.7037
   12.570    3.2649
   12.615    3.5984
   12.660    3.6686
   12.705    3.9143
   12.750    3.4053
   12.795    3.3175
   12.840    3.3877
   12.885    3.4404
   12.930    3.0016
   12.975    3.6686
   13.020    3.3526
   13.065    3.6335
   13.110    3.6335
   13.155    3.6686
   13.200    3.7037
   13.245    3.5106
   13.290    3.4755
   13.335    3.5984
   13.380    3.1245
   13.425    3.3000
   13.470    4.0548
   13.515    3.0367
   13.560    3.5106
   13.605    3.7915
   13.650    3.3175
   13.695    3.4053
   13.740    3.6510
   13.785    3.4053
   13.830    3.4053
   13.875    3.4229
   13.920    3.4404
   13.965    3.7388
   14.010    4.0197
   14.055    3.4580
   14.100    3.4053
   14.145    3.8266
   14.190    3.5457
   14.235    3.5633
   14.280    3.5984
   14.325    3.5457
   14.370    3.0016
   14.415    3.7388
   14.460    3.5106
   14.505    3.7388
   14.550    3.5457
   14.595    3.5984
   14.640    3.7388
   14.685    3.8266
   14.730    3.5457
   14.775    3.3175
   14.820    3.7213
   14.865    3.1420
   14.910    3.5106
   14.955    3.7388
   15.000    3.6335
   15.045    3.4404
   15.090    3.7564
   15.135    3.6862
   15.180    3.4229
   15.225    3.4931
   15.270    3.3175
   15.315    3.1771
   15.360    3.7037
   15.405    3.4931
   15.450    3.4931
   15.495    3.6862
   15.540    3.8441
   15.585    3.5984
   15.630    3.5984
   15.675    3.4931
   15.720    3.1420
   15.765    2.8963
   15.810    3.4931
   15.855    3.6510
   15.900    3.5808
   15.945    3.4053
   15.990    3.3175
   16.035    3.2122
   16.080    3.4404
   16.125    3.2824
   16.170    3.7213
   16.215    3.8441
   16.260    3.7213
   16.305    3.4229
   16.350    3.6159
   16.395    3.3702
   16.440    3.6159
   16.485    3.0718
   16.530    3.6159
   16.575    3.4229
   16.620    3.5633
   16.665    3.6335
   16.710    3.5282
   16.755    3.4755
   16.800    3.3877
   16.845    3.3351
   16.890    3.3351
   16.935    3.1420
   16.980    3.4931
   17.025    3.5984
   17.070    3.2473
   17.115    3.2122
   17.160    3.8266
   17.205    2.9665
   17.250    3.7739
   17.295    3.4580
   17.340    3.5106
   17.385    3.5457
   17.430    3.6510
   17.475    3.4053
   17.520    3.4755
   17.565    3.5282
   17.610    3.2122
   17.655    3.6335
   17.700    3.3000
   17.745    3.5282
   17.790    3.0893
   17.835    3.4053
   17.880    3.6335
   17.925    3.6862
   17.970    3.7739
   18.015    3.6510
   18.060    3.0893
   18.105    3.3175
   18.150    3.8266
   18.195    3.2298
   18.240    3.1069
   18.285    3.1420
   18.330    3.3877
   18.375    3.3000
   18.420    3.2122
   18.465    3.2298
   18.510    3.5457
   18.555    3.3702
   18.600    4.0372
   18.645    3.8090
   18.690    3.5633
   18.735    3.2649
   18.780    3.6686
   18.825    3.6335
   18.870    3.3877
   18.915    3.1947
   18.960    3.4931
   19.005    3.4755
   19.050    3.4404
   19.095    3.4229
   19.140    3.4755
   19.185    3.4931
   19.230    3.7388
   19.275    3.4580
   19.320    3.6335
   19.365    3.4931
   19.410    3.7037
   19.455    3.5984
   19.500    3.7388
   19.545    3.6862
   19.590    3.5106
   19.635    3.6686
   19.680    3.8266
   19.725    3.6159
   19.770    3.5282
   19.815    3.3877
   19.860    3.8968
   19.905    4.0021
   19.950    3.4229
   19.995    3.4580
   20.040    3.8266
   20.085    3.8968
   20.130    3.3526
   20.175    3.8090
   20.220    3.4931
   20.265    3.7388
   20.310    3.6686
   20.355    3.3000
   20.400    3.6862
   20.445    3.8441
   20.490    3.2824
   20.535    3.4404
   20.580    3.3351
   20.625    3.1947
   20.670    3.1947
   20.715    3.7915
   20.760    3.2122
   20.805    3.6335
   20.850    3.8266
   20.895    3.7213
   20.940    4.1425
   20.985    3.6335
   21.030    3.4755
   21.075    3.5984
   21.120    3.9846
   21.165    4.1074
   21.210    3.6862
   21.255    3.6510
   21.300    3.5984
   21.345    3.7037
   21.390    3.8617
   21.435    3.7915
   21.480    4.0723
   21.525    3.5457
   21.570    3.4404
   21.615    3.8792
   21.660    3.4580
   21.705    3.4404
   21.750    3.4755
   21.795    3.3702
   21.840    3.5457
   21.885    3.2824
   21.930    3.6686
   21.975    3.7213
   22.020    3.9670
   22.065    3.7564
   22.110    3.8266
   22.155    3.8792
   22.200    3.5633
   22.245    3.5633
   22.290    4.0021
   22.335    3.8441
   22.380    3.5282
   22.425    3.7388
   22.470    4.0197
   22.515    3.4580
   22.560    3.7213
   22.605    3.7739
   22.650    3.8617
   22.695    3.8617
   22.740    3.5282
   22.785    3.5984
   22.830    3.4931
   22.875    3.5106
   22.920    3.7739
   22.965    3.5457
   23.010    3.8441
   23.055    3.7739
   23.100    3.9494
   23.145    3.4755
   23.190    3.5457
   23.235    3.9143
   23.280    3.9670
   23.325    4.0723
   23.370    3.8968
   23.415    3.6335
   23.460    3.8792
   23.505    3.8266
   23.550    3.5282
   23.595    3.3000
   23.640    3.9846
   23.685    3.7915
   23.730    3.7037
   23.775    3.7037
   23.820    3.7213
   23.865    3.8617
   23.910    3.9846
   23.955    3.8792
   24.000    3.7915
   24.045    3.4931
   24.090    3.6159
   24.135    3.4404
   24.180    3.9846
   24.225    3.3175
   24.270    3.8441
   24.315    3.6159
   24.360    3.6159
   24.405    3.8090
   24.450    3.5808
   24.495    3.5984
   24.540    3.7739
   24.585    3.6510
   24.630    3.4229
   24.675    3.4404
   24.720    3.3702
   24.765    3.4404
   24.810    3.9319
   24.855    4.0197
   24.900    3.6510
   24.945    3.4229
   24.990    3.5282
   25.035    3.6510
   25.080    3.3351
   25.125    3.5282
   25.170    3.7213
   25.215    3.3000
   25.260    3.4404
   25.305    3.6686
   25.350    3.4931
   25.395    3.6159
   25.440    3.5808
   25.485    3.3702
   25.530    3.7739
   25.575    3.5808
   25.620    3.6510
   25.665    3.4053
   25.710    3.5633
   25.755    3.4404
   25.800    3.2298
   25.845    3.9143
   25.890    3.3526
   25.935    3.4931
   25.980    3.3175
   26.025    3.4580
   26.070    3.3877
   26.115    3.8090
   26.160    3.8266
   26.205    3.4404
   26.250    3.3702
   26.295    3.3877
   26.340    3.5106
   26.385    3.6335
   26.430    3.3526
   26.475    3.4755
   26.520    3.4931
   26.565    3.6159
   26.610    3.5457
   26.655    3.6686
   26.700    3.6686
   26.745    3.3877
   26.790    3.1069
   26.835    3.6510
   26.880    3.2122
   26.925    3.6159
   26.970    3.5106
   27.015    3.2473
   27.060    3.5457
   27.105    3.4931
   27.150    3.0718
   27.195    3.4229
   27.240    3.6335
   27.285    3.1947
   27.330    3.5282
   27.375    3.3351
   27.420    3.4580
   27.465    3.6510
   27.510    3.3877
   27.555    3.3702
   27.600    3.3702
   27.645    3.3526
   27.690    3.4404
   27.735    3.4580
   27.780    3.5106
   27.825    3.4053
   27.870    3.2473
   27.915    3.2473
   27.960    3.6335
   28.005    3.3351
   28.050    3.2649
   28.095    3.3000
   28.140    3.1596
   28.185    3.2473
   28.230    3.1420
   28.275    3.4404
   28.320    3.3526
   28.365    3.6862
   28.410    3.7388
   28.455    3.2473
   28.500    3.4053
   28.545    2.9489
   28.590    3.4404
   28.635    3.5282
   28.680    3.2298
   28.725    2.9840
   28.770    3.2649
   28.815    3.0016
   28.860    3.1420
   28.905    3.4053
   28.950    2.8787
   28.995    3.0718
   29.040    3.2298
   29.085    3.3702
   29.130    3.5633
   29.175    3.0016
   29.220    3.5282
   29.265    3.0893
   29.310    3.5106
   29.355    3.0367
   29.400    3.4053
   29.445    3.2122
   29.490    3.2298
   29.535    3.0542
   29.580    3.2649
   29.625    2.9489
   29.670    2.7383
   29.715    3.1069
   29.760    3.3877
   29.805    3.0367
   29.850    2.7558
   29.895    2.7207
   29.940    3.2122
   29.985    3.0893
   30.030    3.2122
   30.075    3.4755
   30.120    3.2473
   30.165    3.3000
   30.210    2.9665
   30.255    2.8436
   30.300    2.9314
   30.345    3.2122
   30.390    3.0367
   30.435    2.8436
   30.480    3.0893
   30.525    3.0367
   30.570    2.6856
   30.615    3.4580
   30.660    3.0191
   30.705    2.8436
   30.750    3.1420
   30.795    3.1245
   30.840    3.0016
   30.885    2.7558
   30.930    2.9138
   30.975    3.0191
   31.020    2.8260
   31.065    3.1596
   31.110    3.3175
   31.155    3.0542
   31.200    3.1596
   31.245    3.5984
   31.290    2.9138
   31.335    2.7909
   31.380    3.0016
   31.425    3.1947
   31.470    2.9489
   31.515    3.1069
   31.560    2.8787
   31.605    2.7207
   31.650    3.0893
   31.695    2.8963
   31.740    2.9138
   31.785    3.1420
   31.830    2.7207
   31.875    3.1245
   31.920    3.0191
   31.965    2.8085
   32.010    3.0893
   32.055    2.9314
   32.100    2.8963
   32.145    2.7032
   32.190    3.0016
   32.235    2.8963
   32.280    2.8963
   32.325    2.8260
   32.370    2.5452
   32.415    2.9314
   32.460    3.1069
   32.505    2.8612
   32.550    3.1069
   32.595    2.7207
   32.640    2.7032
   32.685    3.0191
   32.730    2.8787
   32.775    2.5628
   32.820    2.7032
   32.865    2.8787
   32.910    2.8787
   32.955    3.0542
   33.000    2.7383
   33.045    2.8787
   33.090    2.7383
   33.135    2.8085
   33.180    2.5628
   33.225    2.6330
   33.270    2.9665
   33.315    2.5276
   33.360    2.9665
   33.405    2.8612
   33.450    2.4925
   33.495    2.8612
   33.540    2.8963
   33.585    2.9314
   33.630    2.6856
   33.675    2.3872
   33.720    2.9489
   33.765    3.0191
   33.810    2.5803
   33.855    2.5628
   33.900    2.9665
   33.945    2.8260
   33.990    2.7032
   34.035    2.9138
   34.080    2.5803
   34.125    2.5452
   34.170    2.8963
   34.215    2.6681
   34.260    2.7032
   34.305    2.8260
   34.350    2.7032
   34.395    2.6154
   34.440    2.6505
   34.485    2.7558
   34.530    2.8436
   34.575    2.6505
   34.620    2.8260
   34.665    2.8612
   34.710    2.8963
   34.755    2.5452
   34.800    2.7207
   34.845    2.6154
   34.890    2.7207
   34.935    2.7558
   34.980    2.7734
   35.025    3.0191
   35.070    2.6681
   35.115    2.3697
   35.160    2.5452
   35.205    2.5101
   35.250    2.9138
   35.295    2.5276
   35.340    2.4925
   35.385    2.5452
   35.430    2.8787
   35.475    2.2292
   35.520    2.7032
   35.565    2.6681
   35.610    2.5803
   35.655    2.5101
   35.700    2.6505
   35.745    2.2468
   35.790    2.5628
   35.835    2.5276
   35.880    2.5979
   35.925    2.5628
   35.970    2.4574
   36.015    2.6154
   36.060    2.7558
   36.105    2.4574
   36.150    2.5101
   36.195    2.7558
   36.240    2.8436
   36.285    2.5101
   36.330    2.5276
   36.375    3.0542
   36.420    2.5276
   36.465    2.7207
   36.510    2.5101
   36.555    2.8787
   36.600    2.4925
   36.645    2.5101
   36.690    2.5803
   36.735    2.4574
   36.780    2.3346
   36.825    2.8260
   36.870    2.6154
   36.915    2.2468
   36.960    2.6154
   37.005    2.3170
   37.050    2.3170
   37.095    2.6856
   37.140    2.3521
   37.185    2.5803
   37.230    2.6330
   37.275    2.4399
   37.320    2.5276
   37.365    2.5101
   37.410    2.4750
   37.455    2.3170
   37.500    2.6856
   37.545    2.3521
   37.590    2.5276
   37.635    2.3697
   37.680    2.3346
   37.725    2.5276
   37.770    2.3697
   37.815    2.4925
   37.860    2.5979
   37.905    2.4574
   37.950    2.7734
   37.995    2.5628
   38.040    2.5628
   38.085    2.4750
   38.130    2.5101
   38.175    2.5276
   38.220    2.3697
   38.265    2.5979
   38.310    2.5101
   38.355    2.2995
   38.400    2.1239
   38.445    2.6681
   38.490    2.1941
   38.535    2.3521
   38.580    2.4048
   38.625    2.3521
   38.670    2.7032
   38.715    2.3697
   38.760    2.6505
   38.805    2.3346
   38.850    2.5101
   38.895    2.2819
   38.940    2.4223
   38.985    2.5276
   39.030    2.6330
   39.075    2.7383
   39.120    2.6505
   39.165    2.3521
   39.210    2.6681
   39.255    2.2468
   39.300    2.2117
   39.345    2.6330
   39.390    2.1766
   39.435    2.5979
   39.480    2.3872
   39.525    2.3521
   39.570    2.5628
   39.615    2.2819
   39.660    2.1590
   39.705    2.7207
   39.750    2.7032
   39.795    2.6505
   39.840    2.3521
   39.885    2.5452
   39.930    2.7558
   39.975    2.2643
   40.020    2.5101
   40.065    2.0888
   40.110    1.9484
   40.155    2.3697
   40.200    2.3697
   40.245    2.0362
   40.290    2.5101
   40.335    2.5803
   40.380    2.5276
   40.425    2.6154
   40.470    2.3346
   40.515    2.3521
   40.560    2.3170
   40.605    2.2468
   40.650    2.2643
   40.695    2.5803
   40.740    2.3346
   40.785    2.5979
   40.830    2.4925
   40.875    2.6856
   40.920    2.5276
   40.965    2.5452
   41.010    2.4574
   41.055    2.6330
   41.100    2.3346
   41.145    2.5452
   41.190    2.8260
   41.235    2.5803
   41.280    2.4750
   41.325    2.4750
   41.370    2.4048
   41.415    2.2468
   41.460    2.4048
   41.505    2.4574
   41.550    2.5276
   41.595    2.5276
   41.640    2.5101
   41.685    2.5276
   41.730    2.4750
   41.775    2.5452
   41.820    2.3170
   41.865    2.0011
   41.910    2.4223
   41.955    2.3872
   42.000    2.3697
   42.045    2.3170
   42.090    2.4048
   42.135    2.5101
   42.180    2.3872
   42.225    2.2292
   42.270    2.1941
   42.315    2.4925
   42.360    2.0713
   42.405    2.4048
   42.450    2.1415
   42.495    2.1941
   42.540    2.5101
   42.585    2.6856
   42.630    2.2995
   42.675    2.5276
   42.720    2.2995
   42.765    2.2468
   42.810    2.2819
   42.855    2.1415
   42.900    2.1415
   42.945    2.5276
   42.990    2.2995
   43.035    2.2643
   43.080    2.4399
   43.125    2.4399
   43.170    2.2643
   43.215    2.2819
   43.260    2.2643
   43.305    2.3872
   43.350    2.2995
   43.395    2.3872
   43.440    2.6154
   43.485    2.1415
   43.530    2.4223
   43.575    2.4048
   43.620    2.0186
   43.665    2.4750
   43.710    2.2819
   43.755    2.2995
   43.800    2.4574
   43.845    2.2468
   43.890    2.4574
   43.935    2.4223
   43.980    2.2995
   44.025    2.4048
   44.070    2.1766
   44.115    2.2643
   44.160    2.5803
   44.205    2.2995
   44.250    2.4750
   44.295    2.4925
   44.340    2.1941
   44.385    2.3872
   44.430    2.1239
   44.475    2.2819
   44.520    2.2468
   44.565    2.3697
   44.610    2.3872
   44.655    2.4399
   44.700    2.3697
   44.745    2.4399
   44.790    2.4750
   44.835    2.3697
   44.880    2.2995
   44.925    2.1239
   44.970    2.2643
   45.015    2.1415
   45.060    2.3872
   45.105    2.3872
   45.150    2.5101
   45.195    2.1941
   45.240    2.5979
   45.285    2.2995
   45.330    2.3521
   45.375    2.5628
   45.420    2.1590
   45.465    2.3872
   45.510    2.1064
   45.555    2.2995
   45.600    2.5452
   45.645    2.6505
   45.690    2.2995
   45.735    2.0713
   45.780    2.3170
   45.825    2.2643
   45.870    2.2117
   45.915    2.4048
   45.960    2.2468
   46.005    2.3170
   46.050    2.1766
   46.095    2.1415
   46.140    2.6154
   46.185    2.0011
   46.230    2.2643
   46.275    2.3170
   46.320    2.1766
   46.365    2.5628
   46.410    2.2117
   46.455    2.2292
   46.500    2.2995
   46.545    2.2468
   46.590    2.2995
   46.635    2.2468
   46.680    2.0537
   46.725    2.3346
   46.770    2.1415
   46.815    2.3521
   46.860    2.4750
   46.905    2.0713
   46.950    2.1415
   46.995    2.0011
   47.040    2.3521
   47.085    2.1590
   47.130    2.0537
   47.175    2.2819
   47.220    2.2643
   47.265    2.1766
   47.310    2.3521
   47.355    2.2819
   47.400    2.5803
   47.445    2.3170
   47.490    2.2292
   47.535    2.0888
   47.580    2.2995
   47.625    2.2468
   47.670    2.3346
   47.715    1.9308
   47.760    2.3872
   47.805    2.2643
   47.850    2.0713
   47.895    2.1590
   47.940    2.4574
   47.985    2.4223
   48.030    2.1415
   48.075    2.2117
   48.120    2.3346
   48.165    2.7383
   48.210    2.1064
   48.255    2.3170
   48.300    2.1766
   48.345    2.1766
   48.390    2.3872
   48.435    2.3697
   48.480    2.0537
   48.525    2.3697
   48.570    2.1239
   48.615    2.4750
   48.660    2.0186
   48.705    2.2995
   48.750    2.2995
   48.795    1.9308
   48.840    2.2643
   48.885    2.2292
   48.930    2.2819
   48.975    2.2468
   49.020    1.8606
   49.065    2.1766
   49.110    2.4048
   49.155    2.1941
   49.200    2.1941
   49.245    2.1590
   49.290    2.1941
   49.335    2.3697
   49.380    2.3697
   49.425    2.1766
   49.470    2.0888
   49.515    2.1766
   49.560    2.3346
   49.605    2.2819
   49.650    2.4048
   49.695    2.1766
   49.740    1.9659
   49.785    2.0888
   49.830    2.1941
   49.875    2.2117
   49.920    1.9659
   49.965    2.1239
   49.980    2.2468