File: data/PXRD/PXRD_KE-321D_Cu-Ka1_capillary-1mm_3s-deg_thick.xyd
    1.500    3.2122
    1.545    3.0718
    1.590    3.0542
    1.635    2.6681
    1.680    2.6856
    1.725    2.6154
    1.770    2.7909
    1.815    2.2819
    1.860    2.1766
    1.905    2.2995
    1.950    2.1941
    1.995    2.1239
    2.040    2.3346
    2.085    2.0011
    2.130    1.9484
    2.175    2.1239
    2.220    2.0186
    2.265    1.8255
    2.310    1.8431
    2.355    2.1766
    2.400    2.1590
    2.445    2.0011
    2.490    2.2995
    2.535    1.8255
    2.580    2.1941
    2.625    2.5101
    2.670    2.2995
    2.715    2.3872
    2.760    2.7032
    2.805    2.2995
    2.850    2.8612
    2.895    2.7032
    2.940    2.8260
    2.985    3.0016
    3.030    3.2122
    3.075    3.2122
    3.120    3.1245
    3.165    3.7213
    3.210    4.1250
    3.255    4.2303
    3.300    4.8095
    3.345    5.2835
    3.390    5.2835
    3.435    5.9856
    3.480    6.0207
    3.525    6.9510
    3.570    7.7234
    3.615    9.0223
    3.660   10.1983
    3.705   12.7084
    3.750   15.4292
    3.795   21.5201
    3.840   27.0493
    3.885   15.1308
    3.930    4.6516
    3.975    2.0011
    4.020    1.6149
    4.065    1.2814
    4.110    1.3516
    4.155    1.3165
    4.200    1.1058
    4.245    1.0356
    4.290    1.0883
    4.335    0.9830
    4.380    0.9830
    4.425    0.8952
    4.470    1.0005
    4.515    0.8250
    4.560    0.9654
    4.605    1.0707
    4.650    1.1761
    4.695    0.9830
    4.740    1.0707
    4.785    1.1761
    4.830    0.9479
    4.875    1.2287
    4.920    1.2989
    4.965    1.1761
    5.010    1.1410
    5.055    1.2463
    5.100    1.3165
    5.145    1.5622
    5.190    1.5271
    5.235    1.5271
    5.280    1.5447
    5.325    1.4745
    5.370    2.3697
    5.415    2.8260
    5.460    3.0718
    5.505    2.3170
    5.550    1.3165
    5.595    1.0532
    5.640    0.9479
    5.685    0.8425
    5.730    1.0181
    5.775    0.8425
    5.820    1.0532
    5.865    0.8425
    5.910    1.0181
    5.955    0.8777
    6.000    0.8601
    6.045    0.8952
    6.090    0.9479
    6.135    1.0883
    6.180    0.8425
    6.225    0.7899
    6.270    0.9128
    6.315    0.8601
    6.360    1.0707
    6.405    0.9479
    6.450    0.8777
    6.495    0.7548
    6.540    0.8425
    6.585    1.1234
    6.630    0.9654
    6.675    1.1410
    6.720    0.9303
    6.765    1.1234
    6.810    1.1585
    6.855    0.8250
    6.900    0.8952
    6.945    0.7021
    6.990    0.9830
    7.035    0.9654
    7.080    0.8250
    7.125    0.8250
    7.170    1.1058
    7.215    1.0181
    7.260    1.1234
    7.305    0.9303
    7.350    1.0883
    7.395    1.1410
    7.440    0.9479
    7.485    1.0707
    7.530    0.8601
    7.575    1.2287
    7.620    1.1585
    7.665    1.2463
    7.710    1.3691
    7.755    1.4218
    7.800    1.4042
    7.845    1.0707
    7.890    0.9479
    7.935    0.8601
    7.980    1.1585
    8.025    0.9479
    8.070    0.9128
    8.115    0.8952
    8.160    0.6144
    8.205    1.2112
    8.250    0.9303
    8.295    0.8952
    8.340    1.1234
    8.385    1.0181
    8.430    0.8250
    8.475    0.9479
    8.520    0.9479
    8.565    1.1585
    8.610    0.9654
    8.655    1.1761
    8.700    1.1936
    8.745    1.3516
    8.790    0.9303
    8.835    0.9128
    8.880    1.1410
    8.925    0.9479
    8.970    0.9303
    9.015    0.9830
    9.060    1.0883
    9.105    1.1058
    9.150    1.1234
    9.195    1.0883
    9.240    1.0883
    9.285    1.1936
    9.330    1.0707
    9.375    1.2989
    9.420    1.5447
    9.465    1.8957
    9.510    2.0186
    9.555    1.8080
    9.600    1.4394
    9.645    1.2989
    9.690    0.9479
    9.735    1.1234
    9.780    1.0005
    9.825    0.8952
    9.870    0.9479
    9.915    1.0356
    9.960    1.0181
   10.005    1.0883
   10.050    1.1410
   10.095    1.1234
   10.140    1.3516
   10.185    1.3867
   10.230    1.7202
   10.275    1.6324
   10.320    1.6675
   10.365    1.2814
   10.410    1.1058
   10.455    1.0181
   10.500    0.7197
   10.545    1.1761
   10.590    1.1058
   10.635    1.1410
   10.680    1.0532
   10.725    1.0356
   10.770    1.0707
   10.815    1.0532
   10.860    1.0883
   10.905    0.9303
   10.950    1.0883
   10.995    1.1761
   11.040    1.0181
   11.085    1.1585
   11.130    0.8952
   11.175    0.9830
   11.220    0.8601
   11.265    1.0356
   11.310    0.8601
   11.355    0.9303
   11.400    0.9830
   11.445    1.0883
   11.490    1.0181
   11.535    0.9830
   11.580    0.9479
   11.625    1.2638
   11.670    1.2287
   11.715    1.0883
   11.760    1.1761
   11.805    0.9654
   11.850    0.9479
   11.895    0.9654
   11.940    0.8601
   11.985    0.8074
   12.030    1.0883
   12.075    0.7899
   12.120    0.9479
   12.165    0.9830
   12.210    1.0707
   12.255    1.1410
   12.300    1.0532
   12.345    1.2112
   12.390    1.0356
   12.435    0.9654
   12.480    0.9128
   12.525    0.9654
   12.570    0.7372
   12.615    1.2112
   12.660    0.8777
   12.705    0.9303
   12.750    1.0005
   12.795    1.0883
   12.840    1.1058
   12.885    1.0532
   12.930    1.1761
   12.975    1.2638
   13.020    1.1234
   13.065    0.9830
   13.110    0.8777
   13.155    0.7899
   13.200    0.8250
   13.245    0.9128
   13.290    0.8952
   13.335    0.8601
   13.380    0.9303
   13.425    1.0532
   13.470    1.0532
   13.515    1.0356
   13.560    0.8952
   13.605    1.0181
   13.650    0.9830
   13.695    0.9479
   13.740    0.8250
   13.785    0.9303
   13.830    0.9830
   13.875    0.8952
   13.920    0.9303
   13.965    0.8777
   14.010    0.9830
   14.055    0.9479
   14.100    1.0883
   14.145    1.0005
   14.190    0.9830
   14.235    0.8250
   14.280    0.8074
   14.325    0.7548
   14.370    0.8250
   14.415    0.6670
   14.460    0.9479
   14.505    0.8777
   14.550    0.8074
   14.595    1.0181
   14.640    0.8425
   14.685    0.8074
   14.730    0.8250
   14.775    0.9128
   14.820    0.7899
   14.865    0.9479
   14.910    0.8777
   14.955    0.7723
   15.000    0.8425
   15.045    1.1936
   15.090    1.0005
   15.135    1.0883
   15.180    1.1234
   15.225    0.8952
   15.270    0.9830
   15.315    0.7372
   15.360    0.8250
   15.405    1.0532
   15.450    1.0356
   15.495    1.0181
   15.540    0.8074
   15.585    0.8425
   15.630    0.7723
   15.675    0.9128
   15.720    0.8952
   15.765    1.0005
   15.810    1.0707
   15.855    0.8074
   15.900    0.7899
   15.945    0.8250
   15.990    1.0181
   16.035    1.0707
   16.080    1.0532
   16.125    0.9479
   16.170    0.9303
   16.215    1.0532
   16.260    1.0707
   16.305    1.0356
   16.350    0.9830
   16.395    0.9303
   16.440    0.9479
   16.485    0.8250
   16.530    1.0005
   16.575    0.8777
   16.620    1.0356
   16.665    0.9303
   16.710    0.9654
   16.755    1.0532
   16.800    0.9128
   16.845    1.0181
   16.890    0.8074
   16.935    1.1410
   16.980    1.2112
   17.025    1.2989
   17.070    1.1058
   17.115    1.2638
   17.160    1.0356
   17.205    1.0005
   17.250    1.1410
   17.295    0.7723
   17.340    0.9128
   17.385    1.0181
   17.430    0.9479
   17.475    0.7372
   17.520    1.1585
   17.565    0.9654
   17.610    1.0532
   17.655    0.8601
   17.700    0.6495
   17.745    0.8601
   17.790    0.9654
   17.835    1.0532
   17.880    1.1410
   17.925    1.1585
   17.970    0.9654
   18.015    1.0356
   18.060    0.8601
   18.105    0.8952
   18.150    1.0005
   18.195    0.8425
   18.240    1.1936
   18.285    0.9479
   18.330    0.8425
   18.375    1.0356
   18.420    1.0883
   18.465    0.9128
   18.510    0.9128
   18.555    1.0005
   18.600    0.8250
   18.645    1.2287
   18.690    0.9303
   18.735    1.1585
   18.780    1.0707
   18.825    0.9479
   18.870    1.1761
   18.915    1.0005
   18.960    1.0532
   19.005    0.9654
   19.050    0.8601
   19.095    1.2989
   19.140    0.8952
   19.185    1.1585
   19.230    0.9830
   19.275    0.9303
   19.320    1.0356
   19.365    1.1761
   19.410    0.9479
   19.455    1.1410
   19.500    1.0883
   19.545    1.2463
   19.590    1.1936
   19.635    1.1410
   19.680    1.0707
   19.725    0.9479
   19.770    1.0883
   19.815    1.1234
   19.860    0.9479
   19.905    1.1585
   19.950    1.0707
   19.995    0.8952
   20.040    1.0883
   20.085    0.8952
   20.130    1.1058
   20.175    0.9654
   20.220    0.8250
   20.265    1.0005
   20.310    1.2814
   20.355    1.2814
   20.400    1.1410
   20.445    1.1410
   20.490    1.0707
   20.535    0.9303
   20.580    1.0005
   20.625    0.9830
   20.670    0.8952
   20.715    1.0356
   20.760    1.0181
   20.805    1.0707
   20.850    0.9830
   20.895    0.9830
   20.940    0.9830
   20.985    0.8952
   21.030    0.8952
   21.075    0.8952
   21.120    1.1234
   21.165    0.9303
   21.210    0.9830
   21.255    1.0707
   21.300    1.0005
   21.345    1.0532
   21.390    0.9303
   21.435    0.8425
   21.480    0.8777
   21.525    0.9479
   21.570    0.8777
   21.615    1.0356
   21.660    1.0883
   21.705    1.1410
   21.750    0.9479
   21.795    1.0356
   21.840    1.2989
   21.885    1.2287
   21.930    1.1761
   21.975    0.9479
   22.020    1.0181
   22.065    0.9830
   22.110    1.0532
   22.155    1.0707
   22.200    0.9128
   22.245    1.0883
   22.290    0.9654
   22.335    0.9654
   22.380    0.9830
   22.425    1.1058
   22.470    1.5622
   22.515    1.3340
   22.560    1.1761
   22.605    1.2638
   22.650    1.2287
   22.695    1.0707
   22.740    1.0005
   22.785    1.1058
   22.830    1.0005
   22.875    1.5622
   22.920    1.2112
   22.965    1.0356
   23.010    1.1585
   23.055    1.1410
   23.100    0.9654
   23.145    1.0181
   23.190    1.0883
   23.235    1.1058
   23.280    0.9654
   23.325    1.1058
   23.370    1.0005
   23.415    1.0707
   23.460    0.9654
   23.505    1.2814
   23.550    1.0181
   23.595    0.9303
   23.640    1.0532
   23.685    1.0707
   23.730    0.8952
   23.775    1.1234
   23.820    0.8601
   23.865    1.1761
   23.910    1.1936
   23.955    1.0883
   24.000    0.8952
   24.045    1.1234
   24.090    0.8952
   24.135    0.9128
   24.180    0.9303
   24.225    0.9830
   24.270    0.9303
   24.315    0.6670
   24.360    0.9830
   24.405    0.9128
   24.450    0.9830
   24.495    0.7723
   24.540    1.0707
   24.585    0.9830
   24.630    0.9830
   24.675    0.9479
   24.720    0.8952
   24.765    0.9128
   24.810    1.0005
   24.855    1.3165
   24.900    0.8074
   24.945    1.1058
   24.990    0.9479
   25.035    1.0356
   25.080    0.8777
   25.125    1.0356
   25.170    0.7899
   25.215    1.0707
   25.260    1.0707
   25.305    0.9479
   25.350    0.9303
   25.395    1.0356
   25.440    0.9830
   25.485    0.9303
   25.530    0.8777
   25.575    1.0356
   25.620    0.9654
   25.665    0.8601
   25.710    1.1234
   25.755    1.0181
   25.800    1.0532
   25.845    1.1410
   25.890    0.7197
   25.935    0.9128
   25.980    1.0707
   26.025    0.9654
   26.070    1.0181
   26.115    0.9654
   26.160    0.6670
   26.205    1.0707
   26.250    0.9303
   26.295    1.0181
   26.340    0.9303
   26.385    1.0181
   26.430    1.0707
   26.475    0.9303
   26.520    1.0883
   26.565    0.8601
   26.610    1.0005
   26.655    1.0181
   26.700    0.9303
   26.745    1.0883
   26.790    0.9128
   26.835    0.8952
   26.880    0.8952
   26.925    1.0005
   26.970    0.9303
   27.015    1.0707
   27.060    1.0532
   27.105    0.8250
   27.150    1.0181
   27.195    0.8777
   27.240    0.9303
   27.285    1.0005
   27.330    0.7548
   27.375    0.7899
   27.420    0.9830
   27.465    0.8250
   27.510    0.8952
   27.555    1.0707
   27.600    0.9830
   27.645    1.2112
   27.690    1.0181
   27.735    0.9830
   27.780    0.9128
   27.825    1.1058
   27.870    0.9479
   27.915    0.9479
   27.960    0.8952
   28.005    0.8777
   28.050    1.0532
   28.095    0.8074
   28.140    0.9830
   28.185    0.9654
   28.230    1.0181
   28.275    1.1234
   28.320    1.1234
   28.365    0.8952
   28.410    0.8250
   28.455    1.1936
   28.500    0.9830
   28.545    1.0005
   28.590    1.0532
   28.635    0.8952
   28.680    0.9303
   28.725    0.8425
   28.770    0.9479
   28.815    1.0356
   28.860    0.7548
   28.905    0.9303
   28.950    0.9479
   28.995    0.7723
   29.040    0.8601
   29.085    0.6846
   29.130    0.8777
   29.175    0.8952
   29.220    0.9303
   29.265    0.8777
   29.310    1.0181
   29.355    1.0532
   29.400    0.6670
   29.445    0.9479
   29.490    0.9303
   29.535    0.8250
   29.580    0.9479
   29.625    0.9128
   29.670    0.9303
   29.715    0.9830
   29.760    0.9303
   29.805    0.9479
   29.850    0.8777
   29.895    0.7372
   29.940    1.0005
   29.985    0.8777
   30.030    0.9303
   30.075    0.8250
   30.120    0.8601
   30.165    0.9479
   30.210    1.0005
   30.255    0.6846
   30.300    0.9830
   30.345    0.9830
   30.390    0.9654
   30.435    0.8425
   30.480    0.9128
   30.525    0.8074
   30.570    0.7723
   30.615    0.9830
   30.660    0.8777
   30.705    0.8952
   30.750    1.0005
   30.795    0.9830
   30.840    0.8074
   30.885    0.7548
   30.930    0.7723
   30.975    0.8952
   31.020    0.8250
   31.065    1.0707
   31.110    0.6670
   31.155    0.8074
   31.200    0.9479
   31.245    0.8952
   31.290    0.9654
   31.335    1.0005
   31.380    0.9303
   31.425    0.8074
   31.470    0.8074
   31.515    0.9479
   31.560    0.8425
   31.605    0.8601
   31.650    0.6670
   31.695    1.1058
   31.740    0.9479
   31.785    0.9128
   31.830    0.9479
   31.875    0.8250
   31.920    0.8250
   31.965    0.8601
   32.010    0.8777
   32.055    1.0181
   32.100    0.9128
   32.145    1.0181
   32.190    0.8952
   32.235    0.8074
   32.280    0.9303
   32.325    1.0181
   32.370    0.8425
   32.415    0.6846
   32.460    0.9128
   32.505    0.8074
   32.550    0.9128
   32.595    0.8074
   32.640    1.0532
   32.685    0.7548
   32.730    0.8074
   32.775    0.6495
   32.820    1.0532
   32.865    0.7899
   32.910    0.9479
   32.955    0.8952
   33.000    0.7723
   33.045    0.6495
   33.090    0.8601
   33.135    0.9654
   33.180    0.7197
   33.225    0.8074
   33.270    0.8777
   33.315    0.7899
   33.360    0.8601
   33.405    0.7723
   33.450    0.9654
   33.495    0.8777
   33.540    0.9654
   33.585    0.7372
   33.630    0.7548
   33.675    0.8777
   33.720    0.7021
   33.765    0.8425
   33.810    0.7021
   33.855    1.0005
   33.900    0.9654
   33.945    0.8250
   33.990    1.0181
   34.035    0.7899
   34.080    1.0005
   34.125    0.9654
   34.170    0.7021
   34.215    0.9479
   34.260    0.8425
   34.305    0.8777
   34.350    0.8952
   34.395    0.7021
   34.440    0.8601
   34.485    0.7197
   34.530    0.6670
   34.575    0.7723
   34.620    0.8601
   34.665    0.8425
   34.710    0.8250
   34.755    0.9303
   34.800    0.7899
   34.845    0.7723
   34.890    0.9479
   34.935    1.0005
   34.980    0.8425
   35.025    0.7723
   35.070    0.7723
   35.115    0.7548
   35.160    0.7197
   35.205    0.6319
   35.250    1.1234
   35.295    0.7548
   35.340    0.7899
   35.385    0.7723
   35.430    0.9830
   35.475    0.8425
   35.520    0.7021
   35.565    0.9128
   35.610    0.9479
   35.655    0.7548
   35.700    0.8777
   35.745    0.7548
   35.790    0.9830
   35.835    0.8250
   35.880    0.8425
   35.925    0.9654
   35.970    0.8074
   36.015    0.6495
   36.060    0.7372
   36.105    0.7372
   36.150    0.8074
   36.195    0.7723
   36.240    0.8074
   36.285    0.6846
   36.330    0.8601
   36.375    0.7723
   36.420    0.8074
   36.465    0.7723
   36.510    0.8425
   36.555    0.6670
   36.600    0.9303
   36.645    0.6846
   36.690    0.8952
   36.735    0.8074
   36.780    0.7899
   36.825    0.6670
   36.870    0.9830
   36.915    0.8952
   36.960    0.9654
   37.005    0.8952
   37.050    0.7021
   37.095    0.7723
   37.140    0.7372
   37.185    0.9303
   37.230    0.8250
   37.275    0.8425
   37.320    0.9128
   37.365    0.7899
   37.410    0.8074
   37.455    0.8074
   37.500    0.6495
   37.545    0.8952
   37.590    0.6846
   37.635    0.9128
   37.680    0.9479
   37.725    0.8601
   37.770    0.9654
   37.815    0.8074
   37.860    0.6670
   37.905    0.8425
   37.950    0.7548
   37.995    0.8250
   38.040    0.8952
   38.085    0.7899
   38.130    0.7723
   38.175    0.7197
   38.220    0.9654
   38.265    0.7723
   38.310    0.9128
   38.355    0.7548
   38.400    0.7548
   38.445    0.6846
   38.490    0.6319
   38.535    0.8250
   38.580    0.7899
   38.625    0.8074
   38.670    0.7723
   38.715    0.8601
   38.760    0.9128
   38.805    1.0005
   38.850    0.7372
   38.895    0.8425
   38.940    0.7548
   38.985    0.7021
   39.030    0.7723
   39.075    0.8952
   39.120    0.7372
   39.165    0.7372
   39.210    0.6495
   39.255    0.8425
   39.300    0.7548
   39.345    0.8777
   39.390    0.8074
   39.435    0.6846
   39.480    0.8074
   39.525    0.8425
   39.570    0.7548
   39.615    0.6495
   39.660    0.7723
   39.705    0.7548
   39.750    0.8777
   39.795    0.7899
   39.840    0.9303
   39.885    0.7021
   39.930    1.0356
   39.975    0.8777
   40.020    0.9303
   40.065    0.7723
   40.110    0.8074
   40.155    0.6319
   40.200    0.8425
   40.245    0.6319
   40.290    0.7197
   40.335    0.8425
   40.380    0.8601
   40.425    0.8601
   40.470    0.6846
   40.515    0.7899
   40.560    0.6846
   40.605    0.7372
   40.650    0.9128
   40.695    0.7021
   40.740    0.7723
   40.785    0.6319
   40.830    0.7021
   40.875    0.7197
   40.920    0.8074
   40.965    0.6495
   41.010    0.6846
   41.055    0.7548
   41.100    0.7021
   41.145    0.8425
   41.190    0.9479
   41.235    0.7021
   41.280    0.7197
   41.325    0.7372
   41.370    0.8250
   41.415    0.7548
   41.460    0.7899
   41.505    0.8074
   41.550    0.6495
   41.595    0.8601
   41.640    0.5793
   41.685    0.7548
   41.730    0.6846
   41.775    0.8250
   41.820    0.8074
   41.865    0.7723
   41.910    0.8250
   41.955    0.8074
   42.000    0.7197
   42.045    0.8425
   42.090    0.8952
   42.135    0.9128
   42.180    0.7197
   42.225    0.7548
   42.270    0.7197
   42.315    0.6319
   42.360    0.8250
   42.405    0.8601
   42.450    0.7548
   42.495    0.8074
   42.540    0.8601
   42.585    0.8425
   42.630    0.7197
   42.675    1.0532
   42.720    0.7372
   42.765    0.6670
   42.810    0.6846
   42.855    0.7723
   42.900    0.6846
   42.945    0.7372
   42.990    0.6846
   43.035    0.6144
   43.080    0.8250
   43.125    0.8425
   43.170    0.6846
   43.215    0.8601
   43.260    0.8777
   43.305    0.8601
   43.350    0.6319
   43.395    0.8250
   43.440    0.8777
   43.485    0.8777
   43.530    0.7372
   43.575    0.8074
   43.620    0.6495
   43.665    0.8777
   43.710    0.9830
   43.755    0.7197
   43.800    0.6495
   43.845    0.9830
   43.890    0.9303
   43.935    0.6319
   43.980    0.6846
   44.025    0.7548
   44.070    0.8074
   44.115    0.8601
   44.160    0.6846
   44.205    0.6670
   44.250    0.8425
   44.295    0.7021
   44.340    0.5793
   44.385    0.7021
   44.430    0.7899
   44.475    0.7372
   44.520    0.6670
   44.565    0.7548
   44.610    0.7372
   44.655    0.6670
   44.700    0.5968
   44.745    0.6495
   44.790    0.7372
   44.835    0.9479
   44.880    0.6846
   44.925    0.7197
   44.970    0.6846
   45.015    0.9303
   45.060    0.9303
   45.105    0.7372
   45.150    0.7197
   45.195    0.6670
   45.240    0.7197
   45.285    0.7899
   45.330    0.6846
   45.375    0.5793
   45.420    0.7372
   45.465    0.7723
   45.510    0.8425
   45.555    0.6144
   45.600    0.6846
   45.645    0.9303
   45.690    0.7899
   45.735    0.7899
   45.780    0.8952
   45.825    0.7899
   45.870    0.6495
   45.915    0.7723
   45.960    0.5441
   46.005    0.7372
   46.050    0.8777
   46.095    0.5617
   46.140    0.8074
   46.185    0.7548
   46.230    0.5441
   46.275    0.6144
   46.320    0.6670
   46.365    0.7723
   46.410    0.8074
   46.455    0.7021
   46.500    0.6846
   46.545    0.6846
   46.590    0.7899
   46.635    0.6495
   46.680    0.8074
   46.725    0.8250
   46.770    0.8250
   46.815    0.8250
   46.860    0.7723
   46.905    0.7197
   46.950    0.5441
   46.995    0.6144
   47.040    0.7548
   47.085    0.7197
   47.130    0.6144
   47.175    0.8601
   47.220    0.6846
   47.265    0.8601
   47.310    0.8250
   47.355    0.7021
   47.400    0.5090
   47.445    0.6319
   47.490    0.7372
   47.535    0.8250
   47.580    0.8601
   47.625    0.6319
   47.670    0.6144
   47.715    0.7723
   47.760    0.7899
   47.805    0.7372
   47.850    0.7548
   47.895    0.7197
   47.940    0.7197
   47.985    0.8074
   48.030    0.7197
   48.075    0.7372
   48.120    0.7372
   48.165    0.6846
   48.210    0.7899
   48.255    0.7899
   48.300    0.7021
   48.345    0.8074
   48.390    0.7372
   48.435    0.7548
   48.480    0.7548
   48.525    0.7548
   48.570    0.6670
   48.615    0.7899
   48.660    0.7548
   48.705    0.5793
   48.750    0.5266
   48.795    0.7548
   48.840    0.6670
   48.885    0.8601
   48.930    0.5090
   48.975    0.7723
   49.020    0.8777
   49.065    0.7197
   49.110    0.6670
   49.155    0.7197
   49.200    0.7197
   49.245    0.7372
   49.290    0.9128
   49.335    0.6319
   49.380    0.7723
   49.425    0.7372
   49.470    0.8952
   49.515    0.9303
   49.560    0.9830
   49.605    0.5266
   49.650    0.6670
   49.695    0.7021
   49.740    0.7197
   49.785    0.7021
   49.830    0.5968
   49.875    0.6319
   49.920    0.7021
   49.965    0.7548
   49.980    0.7723