File: data/PXRD/PXRD_KE-107_Cu-Ka1_capillary-1mm_5s-deg.xyd
    1.500   20.4318
    1.530   20.3476
    1.560   20.5898
    1.590   20.1159
    1.620   19.4734
    1.650   18.8942
    1.680   19.5893
    1.710   18.4518
    1.740   18.1675
    1.770   17.5777
    1.800   17.8726
    1.830   17.0090
    1.860   17.3881
    1.890   17.1143
    1.920   17.2828
    1.950   17.0827
    1.980   17.1459
    2.010   17.2933
    2.040   16.4824
    2.070   16.4613
    2.100   15.9558
    2.130   16.4824
    2.160   16.0400
    2.190   16.9352
    2.220   16.5982
    2.250   17.0405
    2.280   16.4929
    2.310   16.9774
    2.340   17.3986
    2.370   17.7462
    2.400   17.4724
    2.430   18.0305
    2.460   18.9679
    2.490   18.5361
    2.520   19.9579
    2.550   20.0316
    2.580   20.1580
    2.610   20.0421
    2.640   20.9373
    2.670   21.4534
    2.700   22.6330
    2.730   23.3491
    2.760   22.7909
    2.790   23.9810
    2.820   25.8452
    2.850   26.3296
    2.880   28.0253
    2.910   29.6472
    2.940   30.0790
    2.970   32.4697
    3.000   34.5340
    3.030   36.7878
    3.060   38.6625
    3.090   41.6535
    3.120   44.0337
    3.150   47.3091
    3.180   49.4576
    3.210   55.5450
    3.240   58.1043
    3.270   64.4128
    3.300   71.3639
    3.330   79.4102
    3.360   88.2991
    3.390   99.2312
    3.420  108.9310
    3.450  113.7336
    3.480  108.6045
    3.510   91.3428
    3.540   74.1864
    3.570   57.6619
    3.600   47.4460
    3.630   41.7694
    3.660   38.2938
    3.690   37.3354
    3.720   37.8726
    3.750   39.3260
    3.780   40.1474
    3.810   43.2333
    3.840   43.5071
    3.870   45.7925
    3.900   47.1827
    3.930   49.9315
    3.960   52.0906
    3.990   51.1743
    4.020   50.8583
    4.050   48.7309
    4.080   47.6777
    4.110   43.9916
    4.140   40.1474
    4.170   36.3244
    4.200   31.5113
    4.230   27.4776
    4.260   24.4866
    4.290   21.7904
    4.320   19.3470
    4.350   16.6193
    4.380   15.8083
    4.410   13.3965
    4.440   12.9963
    4.470   11.5113
    4.500   10.5213
    4.530   10.2686
    4.560    9.6788
    4.590    8.9731
    4.620    8.5097
    4.650    8.0674
    4.680    8.0358
    4.710    7.6251
    4.740    8.0042
    4.770    7.2775
    4.800    7.3091
    4.830    7.2459
    4.860    6.9932
    4.890    7.0142
    4.920    7.1722
    4.950    6.8984
    4.980    6.6667
    5.010    6.4771
    5.040    6.1401
    5.070    6.7299
    5.100    6.2981
    5.130    6.1401
    5.160    6.5403
    5.190    6.6667
    5.220    6.1822
    5.250    6.1822
    5.280    6.0137
    5.310    6.5087
    5.340    6.6035
    5.370    6.3823
    5.400    5.8347
    5.430    5.9084
    5.460    5.7925
    5.490    5.9294
    5.520    5.4976
    5.550    5.5608
    5.580    5.6029
    5.610    5.6661
    5.640    5.5398
    5.670    5.6872
    5.700    5.4660
    5.730    5.9926
    5.760    5.6661
    5.790    5.5398
    5.820    5.9610
    5.850    5.6767
    5.880    5.6451
    5.910    5.6345
    5.940    5.5292
    5.970    5.4660
    6.000    5.4344
    6.030    5.7504
    6.060    5.7925
    6.090    5.6345
    6.120    5.6767
    6.150    5.6345
    6.180    5.6556
    6.210    5.9821
    6.240    5.8873
    6.270    5.6451
    6.300    6.1085
    6.330    5.9821
    6.360    6.4034
    6.390    6.0874
    6.420    6.1401
    6.450    6.7509
    6.480    6.1295
    6.510    6.5613
    6.540    6.8036
    6.570    6.4034
    6.600    7.2880
    6.630    7.2143
    6.660    7.4671
    6.690    8.0358
    6.720    8.1833
    6.750    9.5103
    6.780    9.6577
    6.810   10.1843
    6.840   11.0163
    6.870   12.7330
    6.900   13.6809
    6.930   14.9763
    6.960   15.0079
    6.990   14.9974
    7.020   13.2070
    7.050   11.0479
    7.080    9.4471
    7.110    8.4466
    7.140    7.3723
    7.170    6.9616
    7.200    6.6983
    7.230    6.6351
    7.260    6.6035
    7.290    6.7193
    7.320    6.4982
    7.350    6.4876
    7.380    5.8873
    7.410    6.6245
    7.440    6.6561
    7.470    6.1717
    7.500    6.0242
    7.530    6.7930
    7.560    6.4876
    7.590    6.6667
    7.620    7.0985
    7.650    7.0037
    7.680    6.8457
    7.710    7.4355
    7.740    7.2670
    7.770    7.3723
    7.800    7.0774
    7.830    7.7514
    7.860    7.9200
    7.890    8.1938
    7.920    8.2043
    7.950    8.7309
    7.980    8.5519
    8.010    8.7625
    8.040    8.9521
    8.070    9.2048
    8.100    8.8468
    8.130    9.4155
    8.160    9.1627
    8.190    8.4466
    8.220    8.9310
    8.250    8.5519
    8.280    8.7941
    8.310    8.2675
    8.340    8.1727
    8.370    8.1517
    8.400    7.5408
    8.430    7.6883
    8.460    7.3196
    8.490    7.5092
    8.520    7.0985
    8.550    7.0037
    8.580    6.8457
    8.610    6.6561
    8.640    6.7299
    8.670    6.2770
    8.700    6.4350
    8.730    6.3191
    8.760    5.4660
    8.790    6.0769
    8.820    5.8978
    8.850    6.1822
    8.880    6.1295
    8.910    6.1085
    8.940    5.6977
    8.970    5.9084
    9.000    5.5398
    9.030    5.5292
    9.060    5.4555
    9.090    5.3081
    9.120    5.3502
    9.150    5.5187
    9.180    5.2343
    9.210    5.0553
    9.240    5.7820
    9.270    5.4344
    9.300    5.2238
    9.330    5.4555
    9.360    5.1395
    9.390    5.2027
    9.420    5.5082
    9.450    5.3607
    9.480    5.3818
    9.510    4.9921
    9.540    5.0658
    9.570    5.0026
    9.600    5.1395
    9.630    5.0342
    9.660    5.5608
    9.690    5.2133
    9.720    5.2343
    9.750    5.0869
    9.780    5.3081
    9.810    5.4344
    9.840    5.1817
    9.870    5.0342
    9.900    4.9289
    9.930    5.3291
    9.960    5.2238
    9.990    5.0132
   10.020    5.1080
   10.050    4.9605
   10.080    5.2238
   10.110    5.4344
   10.140    5.4871
   10.170    5.0132
   10.200    4.8341
   10.230    5.2238
   10.260    5.6029
   10.290    5.2554
   10.320    5.5082
   10.350    5.5187
   10.380    5.8662
   10.410    5.6029
   10.440    5.7399
   10.470    5.6767
   10.500    5.6661
   10.530    5.7715
   10.560    5.3607
   10.590    5.4028
   10.620    5.2870
   10.650    5.2449
   10.680    5.2238
   10.710    5.2449
   10.740    5.1501
   10.770    5.2765
   10.800    4.8868
   10.830    5.0448
   10.860    5.3923
   10.890    5.0974
   10.920    5.1922
   10.950    5.4660
   10.980    4.8657
   11.010    4.9184
   11.040    4.9500
   11.070    5.0764
   11.100    5.0132
   11.130    5.2659
   11.160    5.1185
   11.190    5.1395
   11.220    4.9184
   11.250    5.3818
   11.280    4.9710
   11.310    4.9921
   11.340    5.4134
   11.370    4.9921
   11.400    5.0658
   11.430    5.2343
   11.460    5.2659
   11.490    5.0342
   11.520    5.4344
   11.550    5.0764
   11.580    4.7499
   11.610    5.5819
   11.640    5.3291
   11.670    5.3818
   11.700    4.9394
   11.730    4.9394
   11.760    5.1080
   11.790    5.4239
   11.820    5.3712
   11.850    5.4450
   11.880    5.5608
   11.910    5.6767
   11.940    5.3712
   11.970    5.0132
   12.000    5.3291
   12.030    5.6135
   12.060    5.5082
   12.090    5.4766
   12.120    5.0974
   12.150    5.2765
   12.180    5.6767
   12.210    5.6135
   12.240    5.5608
   12.270    5.4555
   12.300    5.4871
   12.330    5.5292
   12.360    5.4450
   12.390    5.7083
   12.420    5.7504
   12.450    5.9294
   12.480    5.7293
   12.510    5.8031
   12.540    5.4660
   12.570    5.6029
   12.600    5.0869
   12.630    5.4660
   12.660    5.3291
   12.690    5.8768
   12.720    5.2870
   12.750    5.4134
   12.780    4.9921
   12.810    5.0974
   12.840    5.4766
   12.870    5.1395
   12.900    5.4450
   12.930    5.2343
   12.960    5.0342
   12.990    5.3923
   13.020    5.0869
   13.050    5.2975
   13.080    5.3607
   13.110    5.1185
   13.140    5.5924
   13.170    5.1080
   13.200    5.4555
   13.230    5.2870
   13.260    5.3502
   13.290    5.4134
   13.320    5.4450
   13.350    5.4871
   13.380    5.4239
   13.410    5.2449
   13.440    5.1817
   13.470    5.2554
   13.500    5.1185
   13.530    5.2975
   13.560    5.4766
   13.590    5.2133
   13.620    5.2133
   13.650    4.7920
   13.680    5.5608
   13.710    5.3607
   13.740    5.0974
   13.770    5.1711
   13.800    5.0553
   13.830    5.3081
   13.860    5.2133
   13.890    5.1185
   13.920    5.2554
   13.950    5.4239
   13.980    5.1185
   14.010    4.8341
   14.040    5.1606
   14.070    4.8763
   14.100    5.3502
   14.130    5.0553
   14.160    4.9289
   14.190    4.9078
   14.220    4.8236
   14.250    5.0658
   14.280    4.9289
   14.310    5.2870
   14.340    5.3397
   14.370    5.1501
   14.400    4.9921
   14.430    4.8447
   14.460    4.8973
   14.490    5.0026
   14.520    4.8657
   14.550    5.2133
   14.580    5.0026
   14.610    4.8025
   14.640    5.1185
   14.670    4.8657
   14.700    4.4234
   14.730    5.0553
   14.760    4.9184
   14.790    4.9184
   14.820    4.8868
   14.850    5.1711
   14.880    5.2870
   14.910    4.8236
   14.940    4.9289
   14.970    4.9710
   15.000    4.8763
   15.030    4.9921
   15.060    5.1922
   15.090    5.0974
   15.120    4.9184
   15.150    4.9605
   15.180    4.7393
   15.210    4.8657
   15.240    4.6972
   15.270    5.1080
   15.300    4.6445
   15.330    5.1817
   15.360    5.1922
   15.390    5.3607
   15.420    5.3712
   15.450    5.0132
   15.480    5.0448
   15.510    4.7604
   15.540    4.7604
   15.570    5.1290
   15.600    5.4976
   15.630    5.0764
   15.660    4.8973
   15.690    5.2133
   15.720    5.1711
   15.750    5.2133
   15.780    5.0342
   15.810    5.2765
   15.840    5.2449
   15.870    5.1817
   15.900    5.2027
   15.930    5.3818
   15.960    5.2343
   15.990    5.0237
   16.020    5.2238
   16.050    4.9184
   16.080    4.7393
   16.110    5.1290
   16.140    5.2133
   16.170    5.0132
   16.200    5.4555
   16.230    5.4450
   16.260    5.2238
   16.290    5.0342
   16.320    4.9289
   16.350    5.2975
   16.380    5.6451
   16.410    5.3081
   16.440    5.3081
   16.470    4.8973
   16.500    5.2449
   16.530    4.9921
   16.560    4.7920
   16.590    5.4976
   16.620    4.9710
   16.650    5.0026
   16.680    4.9184
   16.710    5.1185
   16.740    4.9921
   16.770    4.8341
   16.800    5.0026
   16.830    4.9816
   16.860    4.8657
   16.890    5.1185
   16.920    4.8868
   16.950    4.9816
   16.980    4.8973
   17.010    5.0132
   17.040    5.3186
   17.070    4.7393
   17.100    4.6445
   17.130    5.2765
   17.160    5.3818
   17.190    5.1080
   17.220    4.8868
   17.250    5.6451
   17.280    4.9394
   17.310    5.0553
   17.340    4.6340
   17.370    5.1395
   17.400    5.2554
   17.430    5.2975
   17.460    4.6867
   17.490    5.3923
   17.520    4.9394
   17.550    4.8025
   17.580    5.2343
   17.610    4.9289
   17.640    5.2449
   17.670    5.0132
   17.700    5.0026
   17.730    5.0553
   17.760    5.2870
   17.790    5.0869
   17.820    5.2449
   17.850    5.2870
   17.880    5.1185
   17.910    5.3397
   17.940    5.1395
   17.970    5.2659
   18.000    5.7715
   18.030    5.0764
   18.060    4.8868
   18.090    5.1185
   18.120    4.9605
   18.150    4.8657
   18.180    5.0132
   18.210    5.3397
   18.240    4.9500
   18.270    4.9921
   18.300    5.4344
   18.330    4.8973
   18.360    5.4450
   18.390    4.8447
   18.420    5.3186
   18.450    5.2975
   18.480    5.0237
   18.510    5.0869
   18.540    4.9605
   18.570    5.1606
   18.600    4.9184
   18.630    5.1817
   18.660    5.0764
   18.690    5.2554
   18.720    5.3186
   18.750    5.1290
   18.780    5.1290
   18.810    5.0553
   18.840    4.9184
   18.870    5.4344
   18.900    4.9500
   18.930    5.4976
   18.960    5.1922
   18.990    5.0764
   19.020    5.4976
   19.050    5.2554
   19.080    5.1290
   19.110    5.3712
   19.140    4.9394
   19.170    5.4660
   19.200    5.2554
   19.230    5.2343
   19.260    5.2449
   19.290    5.3607
   19.320    5.3923
   19.350    5.4239
   19.380    5.2765
   19.410    5.1501
   19.440    5.1290
   19.470    5.3502
   19.500    5.3291
   19.530    5.3607
   19.560    5.2133
   19.590    5.4976
   19.620    5.5187
   19.650    5.6029
   19.680    5.4555
   19.710    5.3923
   19.740    5.6872
   19.770    5.3081
   19.800    5.8347
   19.830    5.5503
   19.860    5.8662
   19.890    5.4766
   19.920    5.4344
   19.950    5.4450
   19.980    5.6872
   20.010    5.4766
   20.040    5.5714
   20.070    5.5503
   20.100    5.4028
   20.130    5.9189
   20.160    5.6240
   20.190    5.4871
   20.220    5.1501
   20.250    5.6345
   20.280    5.4871
   20.310    5.6977
   20.340    5.4344
   20.370    5.6661
   20.400    5.6135
   20.430    5.6872
   20.460    5.2343
   20.490    5.8031
   20.520    5.6767
   20.550    5.4239
   20.580    5.4660
   20.610    5.5187
   20.640    5.5503
   20.670    5.8241
   20.700    5.6661
   20.730    5.6977
   20.760    5.8241
   20.790    5.5398
   20.820    5.5819
   20.850    5.2659
   20.880    5.7083
   20.910    5.7609
   20.940    5.4450
   20.970    5.7925
   21.000    5.5819
   21.030    5.7715
   21.060    6.0137
   21.090    5.2027
   21.120    5.6556
   21.150    5.6767
   21.180    5.5082
   21.210    5.6977
   21.240    5.4555
   21.270    5.3607
   21.300    5.8978
   21.330    5.5082
   21.360    5.7083
   21.390    5.6872
   21.420    5.2659
   21.450    5.4450
   21.480    5.6661
   21.510    5.9505
   21.540    5.5187
   21.570    5.5819
   21.600    5.3502
   21.630    5.5503
   21.660    5.6977
   21.690    5.9084
   21.720    5.5187
   21.750    5.9400
   21.780    5.4976
   21.810    5.7083
   21.840    5.3186
   21.870    5.3818
   21.900    5.7820
   21.930    5.6661
   21.960    5.7083
   21.990    5.7083
   22.020    5.9505
   22.050    5.3923
   22.080    5.6029
   22.110    5.9189
   22.140    5.7504
   22.170    5.8768
   22.200    5.9084
   22.230    5.5292
   22.260    5.4660
   22.290    5.6451
   22.320    5.8031
   22.350    5.8768
   22.380    5.6767
   22.410    5.3923
   22.440    5.4766
   22.470    5.7188
   22.500    5.9084
   22.530    5.5608
   22.560    5.7293
   22.590    5.6872
   22.620    5.6240
   22.650    5.5819
   22.680    5.5082
   22.710    6.1611
   22.740    5.5608
   22.770    5.6029
   22.800    5.5714
   22.830    5.1185
   22.860    5.3397
   22.890    5.3397
   22.920    5.6767
   22.950    5.7925
   22.980    5.7609
   23.010    5.7188
   23.040    5.3397
   23.070    5.5608
   23.100    5.2554
   23.130    6.0769
   23.160    5.5819
   23.190    5.4239
   23.220    5.7188
   23.250    5.5608
   23.280    5.0026
   23.310    5.5082
   23.340    5.4871
   23.370    5.1395
   23.400    5.6135
   23.430    5.4134
   23.460    5.2870
   23.490    5.0658
   23.520    5.4766
   23.550    5.4555
   23.580    5.3607
   23.610    5.4344
   23.640    5.2659
   23.670    5.2554
   23.700    5.3502
   23.730    5.3818
   23.760    5.3923
   23.790    5.9505
   23.820    5.2449
   23.850    5.1080
   23.880    5.6451
   23.910    5.1501
   23.940    5.6872
   23.970    5.5292
   24.000    5.6767
   24.030    5.3186
   24.060    5.3081
   24.090    5.2975
   24.120    5.3712
   24.150    5.2765
   24.180    5.5398
   24.210    5.4028
   24.240    5.3186
   24.270    5.4239
   24.300    5.4660
   24.330    5.2133
   24.360    5.2238
   24.390    5.3818
   24.420    5.3923
   24.450    5.4344
   24.480    5.6451
   24.510    5.1501
   24.540    5.1922
   24.570    5.1606
   24.600    5.3291
   24.630    5.1817
   24.660    5.3502
   24.690    4.9500
   24.720    5.2554
   24.750    5.3502
   24.780    5.4450
   24.810    5.3607
   24.840    5.3502
   24.870    5.0448
   24.900    5.3186
   24.930    5.2343
   24.960    4.9184
   24.990    5.1080
   25.020    4.8552
   25.050    5.2133
   25.080    4.9500
   25.110    5.0132
   25.140    4.9710
   25.170    5.3502
   25.200    5.0026
   25.230    4.9605
   25.260    4.8341
   25.290    5.4239
   25.320    5.0764
   25.350    4.6340
   25.380    5.0658
   25.410    4.8973
   25.440    4.9605
   25.470    4.9184
   25.500    4.9394
   25.530    5.2554
   25.560    4.7288
   25.590    5.1922
   25.620    4.7920
   25.650    4.7499
   25.680    4.8131
   25.710    5.0974
   25.740    5.0237
   25.770    4.9921
   25.800    5.0132
   25.830    5.1606
   25.860    4.8025
   25.890    4.9921
   25.920    4.9394
   25.950    4.6445
   25.980    4.8763
   26.010    5.3818
   26.040    4.8447
   26.070    5.4871
   26.100    5.2659
   26.130    5.1922
   26.160    5.0658
   26.190    4.8236
   26.220    4.7393
   26.250    4.8025
   26.280    4.6867
   26.310    5.0658
   26.340    4.7815
   26.370    5.0869
   26.400    4.8447
   26.430    5.1290
   26.460    4.8763
   26.490    4.8131
   26.520    4.5392
   26.550    5.0237
   26.580    5.0974
   26.610    4.8236
   26.640    4.8236
   26.670    4.5392
   26.700    4.6445
   26.730    4.7393
   26.760    4.2865
   26.790    4.5603
   26.820    5.1711
   26.850    5.3291
   26.880    4.8657
   26.910    4.9816
   26.940    4.8552
   26.970    4.9605
   27.000    4.9605
   27.030    5.0658
   27.060    4.7499
   27.090    4.5287
   27.120    4.7709
   27.150    4.9289
   27.180    4.7815
   27.210    4.9500
   27.240    4.7288
   27.270    4.7077
   27.300    4.5814
   27.330    5.0553
   27.360    4.6551
   27.390    4.5287
   27.420    4.5498
   27.450    5.2133
   27.480    4.8447
   27.510    4.7920
   27.540    4.7709
   27.570    4.9710
   27.600    4.9078
   27.630    4.7920
   27.660    4.8657
   27.690    4.5708
   27.720    4.6551
   27.750    5.0764
   27.780    4.5814
   27.810    4.3602
   27.840    4.8025
   27.870    4.6445
   27.900    5.0132
   27.930    4.7393
   27.960    4.6656
   27.990    5.0553
   28.020    4.8973
   28.050    5.1501
   28.080    5.0237
   28.110    4.9184
   28.140    4.7393
   28.170    5.1080
   28.200    4.9078
   28.230    5.0342
   28.260    4.9500
   28.290    5.2238
   28.320    4.6972
   28.350    4.7288
   28.380    4.6656
   28.410    4.9078
   28.440    4.8447
   28.470    4.7077
   28.500    5.0132
   28.530    4.6656
   28.560    5.0237
   28.590    4.9500
   28.620    4.8763
   28.650    5.1290
   28.680    4.6551
   28.710    4.5919
   28.740    4.5919
   28.770    4.7604
   28.800    4.8236
   28.830    4.6867
   28.860    4.8657
   28.890    4.6445
   28.920    5.1290
   28.950    4.6445
   28.980    4.7604
   29.010    4.9078
   29.040    4.5603
   29.070    4.6024
   29.100    4.6445
   29.130    4.6235
   29.160    4.2654
   29.190    4.6867
   29.220    4.6235
   29.250    4.4234
   29.280    4.4655
   29.310    4.5498
   29.340    5.0869
   29.370    4.4971
   29.400    4.4760
   29.430    4.5814
   29.460    4.6130
   29.490    4.4655
   29.520    4.1811
   29.550    4.2549
   29.580    5.0026
   29.610    4.4655
   29.640    4.7499
   29.670    4.2549
   29.700    4.3391
   29.730    4.6445
   29.760    4.3813
   29.790    4.3286
   29.820    3.9810
   29.850    4.6972
   29.880    4.3813
   29.910    4.7815
   29.940    4.4234
   29.970    4.7288
   30.000    4.5392
   30.030    4.5603
   30.060    4.4234
   30.090    5.0132
   30.120    4.4339
   30.150    4.6235
   30.180    4.2759
   30.210    4.5498
   30.240    4.1496
   30.270    4.4655
   30.300    4.7499
   30.330    4.3075
   30.360    4.3497
   30.390    4.5603
   30.420    4.6761
   30.450    4.4128
   30.480    4.5708
   30.510    4.2654
   30.540    4.4760
   30.570    4.3391
   30.600    4.4339
   30.630    4.2759
   30.660    4.3497
   30.690    4.4339
   30.720    4.4866
   30.750    4.0337
   30.780    4.3075
   30.810    4.1706
   30.840    4.1496
   30.870    4.3497
   30.900    4.2549
   30.930    4.0969
   30.960    4.5708
   30.990    4.4760
   31.020    4.6340
   31.050    4.4444
   31.080    4.1390
   31.110    4.1390
   31.140    4.2654
   31.170    4.4655
   31.200    4.4234
   31.230    4.1074
   31.260    4.3497
   31.290    4.3497
   31.320    4.5603
   31.350    4.3707
   31.380    4.6867
   31.410    4.9710
   31.440    4.2654
   31.470    4.3707
   31.500    4.5603
   31.530    4.3813
   31.560    4.2759
   31.590    4.3918
   31.620    4.2759
   31.650    4.3181
   31.680    4.3181
   31.710    4.2865
   31.740    4.1285
   31.770    4.4760
   31.800    4.5814
   31.830    4.6445
   31.860    4.6024
   31.890    4.3813
   31.920    4.3813
   31.950    4.4655
   31.980    4.0969
   32.010    4.0548
   32.040    4.3181
   32.070    4.6130
   32.100    4.8025
   32.130    4.6235
   32.160    4.1074
   32.190    4.4128
   32.220    4.2022
   32.250    4.1601
   32.280    4.4866
   32.310    4.1496
   32.340    4.2549
   32.370    4.3181
   32.400    4.5392
   32.430    3.9705
   32.460    4.0337
   32.490    4.1917
   32.520    4.1601
   32.550    3.9494
   32.580    4.0758
   32.610    4.1180
   32.640    4.2970
   32.670    3.9810
   32.700    3.9810
   32.730    4.1601
   32.760    4.1601
   32.790    4.0548
   32.820    4.0232
   32.850    3.9705
   32.880    4.2970
   32.910    4.3497
   32.940    4.2549
   32.970    4.1917
   33.000    4.0969
   33.030    4.2127
   33.060    4.0653
   33.090    4.3286
   33.120    4.0126
   33.150    4.0442
   33.180    4.4339
   33.210    4.4866
   33.240    3.9810
   33.270    3.7809
   33.300    4.2233
   33.330    4.2443
   33.360    3.9179
   33.390    4.3181
   33.420    4.0864
   33.450    4.2549
   33.480    4.0969
   33.510    3.9389
   33.540    4.0758
   33.570    3.8652
   33.600    4.1811
   33.630    3.9179
   33.660    4.1180
   33.690    3.9810
   33.720    4.1180
   33.750    4.2022
   33.780    4.3813
   33.810    4.0969
   33.840    4.2127
   33.870    4.1285
   33.900    4.4550
   33.930    3.7704
   33.960    4.2443
   33.990    3.8125
   34.020    4.0337
   34.050    3.8441
   34.080    3.7177
   34.110    3.8231
   34.140    4.0969
   34.170    4.0126
   34.200    3.8547
   34.230    3.9073
   34.260    3.8441
   34.290    3.8020
   34.320    4.0864
   34.350    3.8020
   34.380    3.7388
   34.410    3.4439
   34.440    3.8231
   34.470    3.9705
   34.500    3.7072
   34.530    3.8968
   34.560    3.8125
   34.590    3.8757
   34.620    3.7915
   34.650    4.2233
   34.680    4.1074
   34.710    3.7177
   34.740    3.8757
   34.770    3.9389
   34.800    3.6862
   34.830    3.8968
   34.860    3.7388
   34.890    3.7599
   34.920    3.7072
   34.950    3.9600
   34.980    4.1074
   35.010    3.8863
   35.040    3.8020
   35.070    3.9494
   35.100    3.9179
   35.130    3.8125
   35.160    3.7388
   35.190    3.8547
   35.220    3.6756
   35.250    3.7809
   35.280    3.8020
   35.310    3.8020
   35.340    3.8336
   35.370    3.9284
   35.400    3.6019
   35.430    3.9073
   35.460    3.8441
   35.490    3.6756
   35.520    3.7599
   35.550    3.6124
   35.580    3.9600
   35.610    3.6967
   35.640    3.7283
   35.670    3.6756
   35.700    3.9705
   35.730    3.7599
   35.760    3.8547
   35.790    3.6335
   35.820    3.5176
   35.850    3.6967
   35.880    4.0021
   35.910    3.6546
   35.940    3.6862
   35.970    3.5703
   36.000    3.6546
   36.030    3.6862
   36.060    3.9284
   36.090    3.7177
   36.120    3.8863
   36.150    3.7177
   36.180    3.9600
   36.210    3.7599
   36.240    3.8441
   36.270    3.7704
   36.300    3.5914
   36.330    3.8757
   36.360    3.3070
   36.390    3.5492
   36.420    3.7599
   36.450    3.5914
   36.480    3.9494
   36.510    3.4544
   36.540    3.7388
   36.570    3.7915
   36.600    3.4650
   36.630    3.5387
   36.660    3.4755
   36.690    3.4650
   36.720    3.5282
   36.750    3.7177
   36.780    3.8968
   36.810    3.4755
   36.840    3.5914
   36.870    3.4229
   36.900    3.5176
   36.930    3.5282
   36.960    3.4123
   36.990    3.6651
   37.020    3.6967
   37.050    3.7283
   37.080    3.7072
   37.110    3.5492
   37.140    3.7493
   37.170    3.6651
   37.200    3.5808
   37.230    3.5282
   37.260    3.6546
   37.290    3.6651
   37.320    3.3070
   37.350    3.7283
   37.380    3.5282
   37.410    3.5282
   37.440    3.4018
   37.470    3.7177
   37.500    3.4544
   37.530    3.6651
   37.560    3.6335
   37.590    3.4229
   37.620    3.7809
   37.650    3.6440
   37.680    3.4123
   37.710    3.9705
   37.740    3.5598
   37.770    3.4439
   37.800    3.2754
   37.830    3.5914
   37.860    3.1174
   37.890    3.5387
   37.920    3.4860
   37.950    3.7177
   37.980    3.5492
   38.010    3.5492
   38.040    3.6335
   38.070    3.5176
   38.100    3.6124
   38.130    3.5914
   38.160    3.7283
   38.190    3.2649
   38.220    3.6124
   38.250    3.5598
   38.280    3.6230
   38.310    3.3491
   38.340    3.7388
   38.370    3.5598
   38.400    3.3070
   38.430    3.6651
   38.460    3.7177
   38.490    3.5598
   38.520    3.7704
   38.550    3.3597
   38.580    3.5282
   38.610    3.6230
   38.640    3.6862
   38.670    3.6546
   38.700    3.7177
   38.730    3.4334
   38.760    3.4650
   38.790    3.4650
   38.820    3.6756
   38.850    3.4123
   38.880    3.5703
   38.910    3.6651
   38.940    3.5176
   38.970    3.6440
   39.000    3.2438
   39.030    3.5071
   39.060    3.5808
   39.090    3.8336
   39.120    3.5914
   39.150    3.7177
   39.180    3.4650
   39.210    3.4123
   39.240    3.5387
   39.270    3.5071
   39.300    3.2122
   39.330    3.7072
   39.360    3.6230
   39.390    3.6862
   39.420    3.5387
   39.450    3.5914
   39.480    3.5703
   39.510    3.6019
   39.540    3.6440
   39.570    3.4860
   39.600    3.5071
   39.630    3.4123
   39.660    3.0858
   39.690    3.5071
   39.720    3.5387
   39.750    3.6862
   39.780    3.3702
   39.810    3.4439
   39.840    3.1174
   39.870    3.4544
   39.900    3.6756
   39.930    3.2965
   39.960    3.4860
   39.990    3.2649