File: data/PXRD/PXRD_KE-017_Cu-Ka1_capillary-1mm_5s-deg.xyd
    1.500   33.2280
    1.530   32.5118
    1.560   31.4376
    1.590   30.2264
    1.620   29.2154
    1.650   28.2991
    1.680   28.1727
    1.710   26.4666
    1.740   25.9084
    1.770   25.1290
    1.800   25.2027
    1.830   23.6756
    1.860   23.4229
    1.890   22.0748
    1.920   22.5382
    1.950   21.4850
    1.980   21.0532
    2.010   21.1901
    2.040   19.8947
    2.070   19.9052
    2.100   19.5577
    2.130   19.1153
    2.160   18.9679
    2.190   18.4097
    2.220   17.7778
    2.250   17.3776
    2.280   17.6409
    2.310   17.8515
    2.340   16.7457
    2.370   16.6509
    2.400   16.1137
    2.430   16.1559
    2.460   15.8820
    2.490   16.3139
    2.520   15.6925
    2.550   15.5872
    2.580   15.6503
    2.610   14.4602
    2.640   14.9026
    2.670   14.2075
    2.700   15.0922
    2.730   13.7651
    2.760   13.9758
    2.790   13.7019
    2.820   13.7862
    2.850   13.7230
    2.880   13.3439
    2.910   13.4071
    2.940   14.0179
    2.970   12.5434
    3.000   12.3328
    3.030   13.5861
    3.060   12.6909
    3.090   12.7646
    3.120   12.7436
    3.150   12.4381
    3.180   13.0911
    3.210   12.1116
    3.240   11.7852
    3.270   12.1432
    3.300   12.1116
    3.330   11.6904
    3.360   11.3428
    3.390   11.6798
    3.420   11.6061
    3.450   11.5745
    3.480   11.9326
    3.510   11.5850
    3.540   11.6166
    3.570   11.6272
    3.600   11.1638
    3.630   10.9742
    3.660   11.3428
    3.690   11.5745
    3.720   11.2375
    3.750   11.1954
    3.780   11.3428
    3.810   10.7320
    3.840   10.8583
    3.870   10.9847
    3.900   10.9953
    3.930   10.5951
    3.960   10.7425
    3.990   11.2796
    4.020   10.3002
    4.050   10.6688
    4.080   10.0790
    4.110   10.6266
    4.140   10.6372
    4.170   10.2159
    4.200   10.9005
    4.230   10.6688
    4.260   10.5108
    4.290   10.3528
    4.320    9.8368
    4.350   10.2896
    4.380   10.1632
    4.410    9.9947
    4.440   10.5740
    4.470   10.1632
    4.500    9.7946
    4.530   10.4476
    4.560   10.1843
    4.590    9.8262
    4.620   10.0474
    4.650   10.2580
    4.680   10.5003
    4.710    9.6156
    4.740   10.0053
    4.770    9.7314
    4.800    9.3312
    4.830    9.9105
    4.860   10.0685
    4.890    9.8157
    4.920   10.0369
    4.950    9.9421
    4.980    9.8578
    5.010    9.8262
    5.040    9.9737
    5.070    9.9737
    5.100    9.6367
    5.130    9.5313
    5.160    9.4260
    5.190    9.7630
    5.220    9.9210
    5.250    9.7630
    5.280   10.3002
    5.310   10.2686
    5.340    9.9947
    5.370    9.7946
    5.400    9.5313
    5.430   10.0895
    5.460   10.0263
    5.490   10.1738
    5.520   10.4897
    5.550   10.2370
    5.580   10.5740
    5.610   10.6793
    5.640   11.2586
    5.670   10.3528
    5.700   10.5845
    5.730   10.3107
    5.760   10.2896
    5.790    9.8262
    5.820   10.8794
    5.850   10.2159
    5.880   10.0790
    5.910   10.3212
    5.940   11.3112
    5.970   11.4481
    6.000   11.4060
    6.030   13.0068
    6.060   12.4487
    6.090   13.9442
    6.120   14.5761
    6.150   14.5550
    6.180   14.5024
    6.210   13.2491
    6.240   10.0790
    6.270    9.6682
    6.300    9.3523
    6.330    8.8889
    6.360    9.4787
    6.390    9.5419
    6.420    9.4576
    6.450    9.5945
    6.480    9.6261
    6.510    9.2259
    6.540    9.2575
    6.570    8.7625
    6.600    9.3944
    6.630    9.0469
    6.660    9.0785
    6.690    9.6577
    6.720    8.9837
    6.750    8.8573
    6.780    9.1522
    6.810    9.0469
    6.840    9.3418
    6.870    8.6993
    6.900    8.9837
    6.930    9.5208
    6.960    9.0153
    6.990    9.4260
    7.020    9.0995
    7.050    9.2259
    7.080    9.5419
    7.110    9.0995
    7.140    9.4997
    7.170    9.7736
    7.200    9.0153
    7.230    9.7420
    7.260    9.5524
    7.290    9.7420
    7.320    9.0047
    7.350    8.9310
    7.380    9.3207
    7.410   10.0790
    7.440    9.2364
    7.470    9.0047
    7.500    9.9842
    7.530    8.9521
    7.560    8.7520
    7.590    8.9310
    7.620    9.3944
    7.650    9.6472
    7.680    9.3523
    7.710    9.4997
    7.740    9.1311
    7.770    9.0047
    7.800    9.3944
    7.830    9.3734
    7.860    9.6051
    7.890    9.3523
    7.920    9.0995
    7.950    9.2575
    7.980    9.0153
    8.010    9.7209
    8.040    9.3839
    8.070    8.8152
    8.100    9.6367
    8.130    9.1627
    8.160    9.2575
    8.190    9.0153
    8.220    9.7736
    8.250    9.5524
    8.280    9.2786
    8.310    9.2154
    8.340    9.6998
    8.370    9.7630
    8.400    9.4787
    8.430    9.3839
    8.460    9.3418
    8.490    9.9947
    8.520    9.7209
    8.550    9.0047
    8.580    9.6577
    8.610    9.5945
    8.640    8.7309
    8.670    9.1732
    8.700    9.1101
    8.730    9.5208
    8.760    9.0785
    8.790    9.3523
    8.820    9.3839
    8.850    9.4155
    8.880    9.7630
    8.910    9.7420
    8.940    9.5524
    8.970    9.2786
    9.000    9.1627
    9.030    9.2680
    9.060    9.7314
    9.090    9.4892
    9.120    9.8684
    9.150    9.4050
    9.180    9.6577
    9.210   10.3423
    9.240   10.1211
    9.270   10.9953
    9.300   10.8162
    9.330   11.2796
    9.360   11.0163
    9.390   12.5540
    9.420   13.0279
    9.450   13.8178
    9.480   15.7557
    9.510   15.0606
    9.540   13.5018
    9.570   11.8062
    9.600   10.8689
    9.630   10.1316
    9.660   11.3639
    9.690   10.5213
    9.720   10.6161
    9.750    9.9737
    9.780    9.7841
    9.810    9.8052
    9.840    9.6261
    9.870    9.2364
    9.900    9.1627
    9.930    9.1101
    9.960    9.6472
    9.990    9.3312
   10.020    9.5629
   10.050    9.7209
   10.080    9.5103
   10.110    9.6261
   10.140    9.8578
   10.170    9.1101
   10.200    9.5208
   10.230    9.4471
   10.260    9.6472
   10.290    9.8368
   10.320   10.2370
   10.350   10.1738
   10.380   10.2896
   10.410    9.9210
   10.440   10.3318
   10.470   10.2159
   10.500   10.4581
   10.530   10.6793
   10.560   10.7846
   10.590   10.5108
   10.620   10.2370
   10.650   10.9531
   10.680   11.2480
   10.710   11.5745
   10.740   12.7541
   10.770   14.2917
   10.800   15.0500
   10.830   15.0079
   10.860   13.5756
   10.890   11.6061
   10.920   11.5745
   10.950   11.5219
   10.980   11.1638
   11.010   11.5429
   11.040   11.2164
   11.070   10.8268
   11.100   10.5740
   11.130   10.4687
   11.160   10.6056
   11.190    9.8473
   11.220    9.5313
   11.250    9.3312
   11.280    9.9947
   11.310   10.1738
   11.340    9.4681
   11.370    9.5629
   11.400    9.0469
   11.430    9.3418
   11.460    9.2891
   11.490    9.2364
   11.520    9.2996
   11.550    9.6472
   11.580    9.7314
   11.610    9.6367
   11.640   10.0579
   11.670   10.0158
   11.700    9.8999
   11.730   10.3423
   11.760   11.2796
   11.790   11.5324
   11.820   11.6377
   11.850   11.2902
   11.880   10.4792
   11.910    9.9737
   11.940    9.2259
   11.970    9.6261
   12.000    9.5629
   12.030    9.3628
   12.060    9.2470
   12.090    9.4787
   12.120    9.8684
   12.150    9.3207
   12.180    9.6788
   12.210    9.3628
   12.240    9.2996
   12.270    9.5735
   12.300    9.5840
   12.330    9.1311
   12.360    9.2680
   12.390    9.1838
   12.420    9.3628
   12.450    9.0258
   12.480    8.6993
   12.510    8.9415
   12.540    8.4466
   12.570    8.5729
   12.600    8.6467
   12.630    8.9415
   12.660    8.5203
   12.690    9.0469
   12.720    8.5203
   12.750    8.7309
   12.780    8.7204
   12.810    8.6993
   12.840    9.1206
   12.870    9.0785
   12.900    9.0258
   12.930    8.9942
   12.960    9.3839
   12.990    9.7946
   13.020    9.7525
   13.050    9.8262
   13.080    9.9105
   13.110   10.3423
   13.140    9.8473
   13.170    9.7209
   13.200    8.9415
   13.230    8.9310
   13.260    8.6572
   13.290    8.7098
   13.320    9.0574
   13.350    9.0995
   13.380    8.7520
   13.410    8.9942
   13.440    8.3202
   13.470    8.5729
   13.500    8.6783
   13.530    8.6783
   13.560    8.9415
   13.590    8.3202
   13.620    8.2780
   13.650    8.3834
   13.680    8.1727
   13.710    8.4781
   13.740    8.7098
   13.770    8.4887
   13.800    8.5940
   13.830    8.7414
   13.860    8.6151
   13.890    8.6151
   13.920    8.6783
   13.950    8.6572
   13.980    8.8994
   14.010    8.8257
   14.040    8.5308
   14.070    8.4676
   14.100    8.5940
   14.130    8.6572
   14.160    8.2043
   14.190    8.4676
   14.220    8.8046
   14.250    8.4676
   14.280    8.5729
   14.310    8.7098
   14.340    8.7520
   14.370    8.6993
   14.400    8.2991
   14.430    8.7204
   14.460    8.6993
   14.490    8.5097
   14.520    8.8994
   14.550    9.0258
   14.580    9.0785
   14.610    8.8784
   14.640    8.7309
   14.670    8.8362
   14.700    9.2364
   14.730    9.0469
   14.760    9.0258
   14.790    8.9521
   14.820    9.3207
   14.850    9.1732
   14.880    9.2680
   14.910    8.6467
   14.940    8.9837
   14.970    8.9415
   15.000    9.2575
   15.030    8.5729
   15.060    9.2259
   15.090    8.4676
   15.120    8.4466
   15.150    9.0785
   15.180    8.7941
   15.210    8.6993
   15.240    8.4992
   15.270    8.7414
   15.300    8.6993
   15.330    8.8362
   15.360    9.0785
   15.390    8.8784
   15.420    8.7309
   15.450    9.0258
   15.480    8.5097
   15.510    9.1627
   15.540    9.1732
   15.570    9.0995
   15.600    8.7625
   15.630    8.1727
   15.660    9.0574
   15.690    8.6467
   15.720    8.6677
   15.750    9.4365
   15.780    9.0890
   15.810    8.6045
   15.840    8.3412
   15.870    8.9415
   15.900    8.7204
   15.930    8.7309
   15.960    9.2259
   15.990    9.0047
   16.020    8.4150
   16.050    8.6677
   16.080    8.3518
   16.110    8.7625
   16.140    9.0363
   16.170    9.1522
   16.200    9.5103
   16.230    9.5419
   16.260    9.8894
   16.290    9.6893
   16.320    9.5208
   16.350    9.7314
   16.380    9.0047
   16.410    8.8678
   16.440    9.3944
   16.470    8.7098
   16.500    8.7730
   16.530    8.2780
   16.560    9.0258
   16.590    8.4360
   16.620    8.5835
   16.650    8.6256
   16.680    8.6572
   16.710    8.4992
   16.740    8.7520
   16.770    8.6993
   16.800    8.6572
   16.830    9.3839
   16.860    8.6572
   16.890    9.2996
   16.920    8.7730
   16.950    9.1101
   16.980    8.7309
   17.010    8.9837
   17.040    8.8784
   17.070    9.1627
   17.100    9.2680
   17.130    9.3734
   17.160    9.1311
   17.190    9.0153
   17.220    9.3523
   17.250    9.3523
   17.280    9.1101
   17.310    8.5729
   17.340    8.9205
   17.370    8.9837
   17.400    8.9100
   17.430    8.6045
   17.460    8.3412
   17.490    8.6256
   17.520    8.6361
   17.550    8.8046
   17.580    8.9100
   17.610    8.8046
   17.640    8.8889
   17.670    9.1417
   17.700    8.7520
   17.730    8.8573
   17.760    9.2575
   17.790    9.6998
   17.820    9.8789
   17.850    9.6788
   17.880    9.5103
   17.910    9.4576
   17.940    9.7841
   17.970   10.1843
   18.000    9.8578
   18.030    9.8684
   18.060    9.7420
   18.090   10.1211
   18.120    9.1522
   18.150    9.4050
   18.180    9.1943
   18.210    8.9310
   18.240    8.8468
   18.270    9.1417
   18.300    9.0995
   18.330    8.9310
   18.360    8.9100
   18.390    8.7309
   18.420    8.9626
   18.450    9.3102
   18.480    8.8152
   18.510    8.5624
   18.540    8.8784
   18.570    9.2259
   18.600    9.0047
   18.630    9.0995
   18.660    9.4681
   18.690    9.2259
   18.720    8.9521
   18.750    9.5313
   18.780    9.1943
   18.810    9.0995
   18.840    9.4997
   18.870    9.2996
   18.900    9.5735
   18.930    8.7625
   18.960    9.2154
   18.990    8.9731
   19.020    8.8468
   19.050    8.8784
   19.080    8.6467
   19.110    9.0258
   19.140    8.3518
   19.170    8.7309
   19.200    8.7520
   19.230    8.3939
   19.260    8.8994
   19.290    8.8994
   19.320    9.4260
   19.350    8.8468
   19.380    8.9521
   19.410    8.7625
   19.440    9.3628
   19.470    8.8257
   19.500    8.5308
   19.530    8.9521
   19.560    9.2259
   19.590    8.8257
   19.620    8.4992
   19.650    8.6993
   19.680    8.6993
   19.710    8.5624
   19.740    8.9205
   19.770    9.0995
   19.800    9.0469
   19.830    8.7836
   19.860    8.8362
   19.890    8.4360
   19.920    8.1622
   19.950    8.8678
   19.980    8.7941
   20.010    9.1311
   20.040    8.8994
   20.070    8.4781
   20.100    8.6783
   20.130    8.7836
   20.160    8.4571
   20.190    8.6256
   20.220    8.8678
   20.250    8.6256
   20.280    9.0363
   20.310    8.8257
   20.340    8.6783
   20.370    9.2470
   20.400    9.0995
   20.430    8.8573
   20.460    8.3412
   20.490    9.2470
   20.520    9.3628
   20.550    9.0363
   20.580    9.1417
   20.610    9.3102
   20.640    9.2996
   20.670    8.9837
   20.700    9.2786
   20.730    8.8678
   20.760    8.9521
   20.790    8.7836
   20.820    9.1101
   20.850    8.6572
   20.880    8.4676
   20.910    8.6993
   20.940    8.6256
   20.970    9.1101
   21.000    8.4992
   21.030    8.7520
   21.060    8.4044
   21.090    9.0679
   21.120    8.6151
   21.150    8.9731
   21.180    8.6361
   21.210    8.4571
   21.240    8.8468
   21.270    9.6577
   21.300    8.8046
   21.330    8.5729
   21.360    9.0258
   21.390    8.9942
   21.420    8.8152
   21.450    9.1732
   21.480    9.3839
   21.510    8.7414
   21.540    9.1101
   21.570    8.8889
   21.600    8.9521
   21.630    9.0995
   21.660    8.9310
   21.690    9.4365
   21.720    8.7730
   21.750    9.3734
   21.780    8.5729
   21.810    8.6783
   21.840    9.3839
   21.870    9.3628
   21.900    8.8362
   21.930    8.7098
   21.960    9.0890
   21.990    8.6045
   22.020    8.6572
   22.050    9.3207
   22.080    9.0469
   22.110    9.0469
   22.140    8.8046
   22.170    9.0995
   22.200    9.3102
   22.230    9.0785
   22.260    8.7414
   22.290    9.2154
   22.320    9.3523
   22.350    9.6051
   22.380    9.0047
   22.410    8.8046
   22.440    9.2364
   22.470    8.7836
   22.500    9.1627
   22.530    9.2154
   22.560    9.4050
   22.590    9.0890
   22.620    9.5840
   22.650    9.3207
   22.680    9.3207
   22.710    9.2154
   22.740    9.2048
   22.770    9.2891
   22.800    8.8362
   22.830    9.0153
   22.860    9.2364
   22.890    8.9837
   22.920    9.6682
   22.950    8.9626
   22.980    9.4050
   23.010    8.9731
   23.040    9.1206
   23.070    9.0363
   23.100    8.9731
   23.130    9.2154
   23.160    9.4365
   23.190    9.3523
   23.220    9.1838
   23.250    8.6888
   23.280    9.5208
   23.310    9.0153
   23.340    8.8889
   23.370    8.9521
   23.400    8.3623
   23.430    9.2996
   23.460    8.5519
   23.490    9.2048
   23.520    9.1943
   23.550    8.7730
   23.580    9.2048
   23.610    9.3734
   23.640    9.1732
   23.670    9.1732
   23.700    9.4576
   23.730    9.5313
   23.760    9.4471
   23.790    9.0890
   23.820    9.2470
   23.850    9.1732
   23.880    9.0785
   23.910    9.0785
   23.940    8.9626
   23.970    8.7309
   24.000    8.8784
   24.030    8.7520
   24.060    8.3939
   24.090    9.3102
   24.120    8.5097
   24.150    8.8362
   24.180    9.1732
   24.210    8.6151
   24.240    8.5308
   24.270    8.7730
   24.300    8.5624
   24.330    8.8152
   24.360    8.5729
   24.390    8.6993
   24.420    8.8784
   24.450    8.7520
   24.480    8.9205
   24.510    8.8468
   24.540    8.9942
   24.570    9.0258
   24.600    8.5519
   24.630    8.5097
   24.660    8.5203
   24.690    9.0469
   24.720    9.2891
   24.750    8.8994
   24.780    9.1101
   24.810    9.2996
   24.840    8.7730
   24.870    8.8257
   24.900    8.9310
   24.930    8.6361
   24.960    9.1838
   24.990    9.4365
   25.020    8.8362
   25.050    8.7098
   25.080    8.6783
   25.110    9.3207
   25.140    8.7625
   25.170    9.0574
   25.200    8.9415
   25.230    8.5097
   25.260    8.4150
   25.290    8.7625
   25.320    8.2780
   25.350    8.4255
   25.380    8.3728
   25.410    8.5097
   25.440    8.6572
   25.470    8.4781
   25.500    8.8046
   25.530    8.6045
   25.560    8.6677
   25.590    8.6045
   25.620    8.4571
   25.650    8.8573
   25.680    8.6888
   25.710    8.6993
   25.740    8.8046
   25.770    8.5097
   25.800    8.8994
   25.830    8.4150
   25.860    8.7520
   25.890    8.8784
   25.920    8.8468
   25.950    8.5835
   25.980    8.3096
   26.010    8.3834
   26.040    8.8468
   26.070    8.7414
   26.100    8.3728
   26.130    8.4992
   26.160    8.7836
   26.190    8.7836
   26.220    8.2886
   26.250    8.6783
   26.280    8.3939
   26.310    9.0785
   26.340    9.1943
   26.370    8.7730
   26.400    8.6256
   26.430    8.7625
   26.460    8.5413
   26.490    8.5308
   26.520    8.6045
   26.550    8.9837
   26.580    8.2149
   26.610    8.7625
   26.640    8.4676
   26.670    8.5729
   26.700    8.5729
   26.730    8.5413
   26.760    8.5729
   26.790    8.5729
   26.820    8.4466
   26.850    8.6151
   26.880    8.6888
   26.910    8.6783
   26.940    8.6572
   26.970    8.0569
   27.000    8.2886
   27.030    8.5519
   27.060    8.3518
   27.090    8.3623
   27.120    8.1306
   27.150    8.5413
   27.180    8.5097
   27.210    8.2780
   27.240    8.1517
   27.270    8.9942
   27.300    8.0779
   27.330    8.2675
   27.360    8.5835
   27.390    8.3939
   27.420    8.4360
   27.450    8.4781
   27.480    8.1727
   27.510    8.4781
   27.540    8.2570
   27.570    8.4781
   27.600    7.9516
   27.630    8.4255
   27.660    8.2149
   27.690    8.4887
   27.720    8.4992
   27.750    8.0779
   27.780    8.2149
   27.810    8.2359
   27.840    8.1201
   27.870    8.2359
   27.900    8.3307
   27.930    8.3096
   27.960    8.4571
   27.990    8.4992
   28.020    8.5729
   28.050    8.4255
   28.080    7.9937
   28.110    8.0990
   28.140    8.1727
   28.170    7.7620
   28.200    8.1622
   28.230    7.8568
   28.260    7.9410
   28.290    8.0674
   28.320    8.0779
   28.350    8.1938
   28.380    7.9937
   28.410    8.0358
   28.440    8.2254
   28.470    8.0779
   28.500    8.2780
   28.530    8.0147
   28.560    8.1938
   28.590    7.8989
   28.620    7.9094
   28.650    8.2780
   28.680    8.0253
   28.710    7.5092
   28.740    7.8989
   28.770    8.0569
   28.800    8.0253
   28.830    7.8989
   28.860    7.8673
   28.890    7.7199
   28.920    7.4144
   28.950    7.9831
   28.980    8.2043
   29.010    8.0990
   29.040    8.3728
   29.070    8.2675
   29.100    7.7199
   29.130    7.6567
   29.160    7.6145
   29.190    8.0779
   29.220    7.6040
   29.250    7.7409
   29.280    7.9305
   29.310    7.7936
   29.340    7.7620
   29.370    7.8884
   29.400    7.8462
   29.430    7.5092
   29.460    7.9621
   29.490    7.7304
   29.520    7.7830
   29.550    7.8673
   29.580    7.6145
   29.610    7.7830
   29.640    7.9094
   29.670    7.8884
   29.700    7.3934
   29.730    7.7936
   29.760    7.7620
   29.790    7.6461
   29.820    7.4355
   29.850    7.3196
   29.880    7.6567
   29.910    7.8041
   29.940    7.6461
   29.970    8.0042
   30.000    8.2043
   30.030    7.6356
   30.060    7.9094
   30.090    8.4150
   30.120    7.7830
   30.150    8.1095
   30.180    7.8568
   30.210    8.0885
   30.240    8.0358
   30.270    8.1833
   30.300    7.8462
   30.330    7.5619
   30.360    7.3934
   30.390    7.4460
   30.420    8.1411
   30.450    7.7936
   30.480    8.1306
   30.510    7.9831
   30.540    7.5197
   30.570    7.4987
   30.600    7.7409
   30.630    7.8462
   30.660    7.5197
   30.690    8.0463
   30.720    7.4987
   30.750    7.5829
   30.780    7.4144
   30.810    7.3091
   30.840    7.6145
   30.870    7.8989
   30.900    7.7409
   30.930    7.1617
   30.960    7.2670
   30.990    7.2143
   31.020    7.6145
   31.050    8.0253
   31.080    7.4882
   31.110    7.3934
   31.140    7.7093
   31.170    7.4039
   31.200    7.1301
   31.230    7.5513
   31.260    7.6356
   31.290    7.5829
   31.320    7.8568
   31.350    7.6461
   31.380    7.2986
   31.410    7.4882
   31.440    7.5092
   31.470    7.4776
   31.500    7.2459
   31.530    7.6461
   31.560    7.5724
   31.590    7.4566
   31.620    7.8041
   31.650    7.0248
   31.680    7.6461
   31.710    7.4987
   31.740    7.0879
   31.770    7.6567
   31.800    7.3407
   31.830    7.0774
   31.860    7.4144
   31.890    7.8884
   31.920    7.4144
   31.950    7.1301
   31.980    7.3723
   32.010    7.3512
   32.040    7.7936
   32.070    7.2670
   32.100    7.1617
   32.130    6.7825
   32.160    7.0353
   32.190    7.2354
   32.220    7.4355
   32.250    7.3407
   32.280    7.4039
   32.310    7.0142
   32.340    7.0037
   32.370    7.7725
   32.400    7.6040
   32.430    7.2249
   32.460    7.1827
   32.490    7.0563
   32.520    7.3407
   32.550    7.3934
   32.580    7.1301
   32.610    7.4355
   32.640    7.2880
   32.670    7.4250
   32.700    6.5929
   32.730    7.0353
   32.760    7.2249
   32.790    6.9405
   32.820    7.3091
   32.850    7.4987
   32.880    7.2670
   32.910    7.4671
   32.940    7.1195
   32.970    7.1406
   33.000    7.0248
   33.030    7.3934
   33.060    6.9616
   33.090    7.6145
   33.120    6.7930
   33.150    7.6356
   33.180    7.3512
   33.210    6.8352
   33.240    7.0985
   33.270    7.2880
   33.300    7.0248
   33.330    6.8246
   33.360    7.2880
   33.390    7.4987
   33.420    7.2565
   33.450    7.2670
   33.480    6.9616
   33.510    7.2986
   33.540    6.9510
   33.570    7.2143
   33.600    7.2143
   33.630    7.2459
   33.660    7.4460
   33.690    7.2249
   33.720    7.3302
   33.750    7.3091
   33.780    7.2775
   33.810    7.3512
   33.840    6.9932
   33.870    6.8457
   33.900    7.2354
   33.930    7.9200
   33.960    7.1827
   33.990    7.1301
   34.020    7.0985
   34.050    7.2249
   34.080    7.1722
   34.110    7.2354
   34.140    7.2038
   34.170    7.2038
   34.200    6.7825
   34.230    7.4250
   34.260    7.1722
   34.290    7.0879
   34.320    7.1195
   34.350    7.3407
   34.380    7.5408
   34.410    7.0985
   34.440    7.2565
   34.470    7.2670
   34.500    6.9826
   34.530    7.4671
   34.560    6.7299
   34.590    6.9616
   34.620    6.8773
   34.650    7.2775
   34.680    6.7193
   34.710    6.8878
   34.740    7.2986
   34.770    7.2459
   34.800    6.6983
   34.830    6.6877
   34.860    7.0669
   34.890    7.0563
   34.920    6.9826
   34.950    7.2986
   34.980    6.8141
   35.010    7.3723
   35.040    6.8562
   35.070    7.1722
   35.100    6.8668
   35.130    6.9300
   35.160    6.9721
   35.190    6.9932
   35.220    7.0458
   35.250    6.7299
   35.280    6.9194
   35.310    6.9089
   35.340    7.1511
   35.370    7.3512
   35.400    7.0985
   35.430    6.6035
   35.460    7.0248
   35.490    7.0458
   35.520    6.8878
   35.550    6.4455
   35.580    6.7930
   35.610    6.9826
   35.640    6.6877
   35.670    6.7299
   35.700    7.2670
   35.730    6.7088
   35.760    6.8878
   35.790    6.9089
   35.820    7.0248
   35.850    6.6983
   35.880    6.8352
   35.910    6.9721
   35.940    7.1406
   35.970    6.7615
   36.000    7.0458
   36.030    7.3407
   36.060    6.8352
   36.090    6.6561
   36.120    7.2670
   36.150    6.8562
   36.180    6.6667
   36.210    6.8352
   36.240    6.7509
   36.270    6.6351
   36.300    7.2986
   36.330    6.8773
   36.360    6.9405
   36.390    7.2986
   36.420    6.5192
   36.450    6.8562
   36.480    6.5929
   36.510    6.8668
   36.540    6.6561
   36.570    6.6140
   36.600    6.8984
   36.630    6.6667
   36.660    6.5298
   36.690    6.5613
   36.720    7.0669
   36.750    6.8036
   36.780    6.8878
   36.810    6.8141
   36.840    6.8773
   36.870    6.9089
   36.900    6.8773
   36.930    6.3086
   36.960    6.6456
   36.990    6.6667
   37.020    7.0458
   37.050    6.4139
   37.080    6.9089
   37.110    6.9089
   37.140    6.7930
   37.170    6.9616
   37.200    6.7930
   37.230    6.4034
   37.260    6.4982
   37.290    6.9089
   37.320    6.7720
   37.350    6.5719
   37.380    6.5824
   37.410    6.6456
   37.440    6.8246
   37.470    6.9826
   37.500    6.8141
   37.530    6.9510
   37.560    6.9194
   37.590    7.1195
   37.620    6.8668
   37.650    6.9405
   37.680    6.6877
   37.710    6.6456
   37.740    6.7615
   37.770    6.9721
   37.800    6.9932
   37.830    6.4876
   37.860    6.4560
   37.890    6.5508
   37.920    6.9405
   37.950    6.7299
   37.980    6.8457
   38.010    6.5929
   38.040    6.5929
   38.070    6.6983
   38.100    7.0563
   38.130    6.7193
   38.160    6.4771
   38.190    6.2138
   38.220    6.4876
   38.250    6.4771
   38.280    6.8246
   38.310    6.6561
   38.340    6.7509
   38.370    7.0248
   38.400    6.5192
   38.430    6.4034
   38.460    6.7088
   38.490    6.8246
   38.520    6.8878
   38.550    6.8036
   38.580    6.6351
   38.610    6.1401
   38.640    6.7825
   38.670    6.6245
   38.700    6.8352
   38.730    6.6140
   38.760    6.3402
   38.790    6.5508
   38.820    6.8141
   38.850    6.4876
   38.880    6.6561
   38.910    6.9932
   38.940    6.1927
   38.970    6.3718
   39.000    6.6351
   39.030    7.0774
   39.060    6.5929
   39.090    7.1090
   39.120    6.3718
   39.150    6.5824
   39.180    6.9932
   39.210    6.5087
   39.240    6.5824
   39.270    6.2349
   39.300    6.7615
   39.330    6.5403
   39.360    7.0142
   39.390    6.7930
   39.420    6.4350
   39.450    6.7193
   39.480    6.6351
   39.510    6.3718
   39.540    6.6456
   39.570    7.0458
   39.600    6.7299
   39.630    6.5298
   39.660    6.8878
   39.690    6.6035
   39.720    6.7509
   39.750    6.6772
   39.780    6.6351
   39.810    6.3718
   39.840    7.0563
   39.870    6.6772
   39.900    6.4455
   39.930    6.6877
   39.960    6.4666
   39.990    5.9926