File: data/PXRD/PXRD_Blank_Co-Ka1_film-3mm_3s-deg.xyd
    1.500    3.1211
    1.545    2.8714
    1.590    2.8357
    1.635    2.7644
    1.680    2.5504
    1.725    2.4077
    1.770    2.4612
    1.815    2.2650
    1.860    2.4255
    1.905    1.9797
    1.950    1.9797
    1.995    2.0332
    2.040    2.1580
    2.085    2.4434
    2.130    2.0510
    2.175    1.9440
    2.220    1.8905
    2.265    2.0867
    2.310    1.9797
    2.355    1.7657
    2.400    1.6765
    2.445    1.7121
    2.490    1.6586
    2.535    1.5695
    2.580    1.5516
    2.625    1.7300
    2.670    1.9262
    2.715    1.5695
    2.760    1.7657
    2.805    1.5516
    2.850    1.8727
    2.895    1.5160
    2.940    1.5873
    2.985    1.4446
    3.030    1.5873
    3.075    1.7300
    3.120    1.4981
    3.165    1.6943
    3.210    1.5516
    3.255    1.3554
    3.300    1.3198
    3.345    1.4625
    3.390    1.6765
    3.435    1.3019
    3.480    1.3554
    3.525    1.8013
    3.570    1.5160
    3.615    1.4446
    3.660    1.4625
    3.705    1.4268
    3.750    1.7478
    3.795    1.8905
    3.840    1.7835
    3.885    1.3733
    3.930    1.7478
    3.975    1.4268
    4.020    1.6586
    4.065    1.4803
    4.110    1.6586
    4.155    1.4803
    4.200    1.5695
    4.245    1.3376
    4.290    1.3376
    4.335    1.6230
    4.380    1.3019
    4.425    1.5338
    4.470    1.5160
    4.515    1.3733
    4.560    1.5160
    4.605    1.3554
    4.650    1.4090
    4.695    1.3911
    4.740    1.5695
    4.785    1.6408
    4.830    1.5516
    4.875    1.4446
    4.920    1.5338
    4.965    1.4090
    5.010    1.6051
    5.055    1.7835
    5.100    1.6765
    5.145    1.2663
    5.190    1.7478
    5.235    1.5873
    5.280    1.4446
    5.325    1.6765
    5.370    1.6051
    5.415    1.5695
    5.460    1.5516
    5.505    1.6408
    5.550    1.6230
    5.595    1.4625
    5.640    1.6051
    5.685    1.5695
    5.730    1.4625
    5.775    1.7121
    5.820    1.7121
    5.865    1.4625
    5.910    1.6943
    5.955    1.4803
    6.000    1.6586
    6.045    1.8727
    6.090    1.8192
    6.135    1.7657
    6.180    1.9618
    6.225    1.8013
    6.270    2.0153
    6.315    1.9975
    6.360    1.9083
    6.405    1.9440
    6.450    2.1580
    6.495    1.9797
    6.540    1.8192
    6.585    1.9440
    6.630    2.0867
    6.675    2.1402
    6.720    1.8727
    6.765    1.9975
    6.810    1.8905
    6.855    1.6408
    6.900    1.8905
    6.945    1.6943
    6.990    1.6230
    7.035    1.7121
    7.080    1.8192
    7.125    1.6408
    7.170    1.4625
    7.215    1.4625
    7.260    1.4268
    7.305    1.6408
    7.350    1.2841
    7.395    1.3198
    7.440    1.4268
    7.485    1.5160
    7.530    1.3376
    7.575    1.5695
    7.620    1.3733
    7.665    1.4803
    7.710    1.4446
    7.755    1.3554
    7.800    1.3733
    7.845    1.6408
    7.890    1.2128
    7.935    1.1949
    7.980    1.1593
    8.025    1.3198
    8.070    1.1771
    8.115    1.4625
    8.160    1.4981
    8.205    1.0701
    8.250    1.1414
    8.295    1.1593
    8.340    1.2306
    8.385    1.0166
    8.430    1.0523
    8.475    1.1771
    8.520    1.1593
    8.565    1.1949
    8.610    1.2306
    8.655    0.9809
    8.700    1.1414
    8.745    1.1414
    8.790    1.0166
    8.835    1.3554
    8.880    1.0166
    8.925    0.9631
    8.970    1.3376
    9.015    0.8561
    9.060    1.0701
    9.105    0.9988
    9.150    0.9988
    9.195    1.0523
    9.240    0.9988
    9.285    1.1949
    9.330    1.1058
    9.375    0.8204
    9.420    0.8561
    9.465    1.1236
    9.510    0.9274
    9.555    1.0166
    9.600    1.1593
    9.645    0.9631
    9.690    1.0701
    9.735    1.0879
    9.780    0.9809
    9.825    0.7491
    9.870    1.0344
    9.915    0.9631
    9.960    0.8026
   10.005    0.8026
   10.050    0.9274
   10.095    1.0523
   10.140    0.9809
   10.185    0.9809
   10.230    0.8026
   10.275    0.9809
   10.320    0.7847
   10.365    0.9809
   10.410    0.8739
   10.455    1.0701
   10.500    0.8382
   10.545    0.8739
   10.590    0.8026
   10.635    0.8382
   10.680    1.0879
   10.725    1.0166
   10.770    0.8382
   10.815    0.8204
   10.860    0.9631
   10.905    0.8561
   10.950    0.9631
   10.995    0.7312
   11.040    0.8561
   11.085    0.6599
   11.130    0.8561
   11.175    0.8739
   11.220    1.0166
   11.265    0.8026
   11.310    0.8739
   11.355    0.7491
   11.400    0.8382
   11.445    0.9988
   11.490    0.8382
   11.535    0.8204
   11.580    0.7134
   11.625    0.6956
   11.670    0.7847
   11.715    0.8561
   11.760    0.9809
   11.805    0.8382
   11.850    0.8026
   11.895    0.9096
   11.940    0.8382
   11.985    0.8561
   12.030    0.8561
   12.075    0.8026
   12.120    0.8917
   12.165    1.1058
   12.210    0.6777
   12.255    0.8204
   12.300    0.8739
   12.345    0.9809
   12.390    0.7847
   12.435    0.8917
   12.480    0.9452
   12.525    0.8739
   12.570    0.6599
   12.615    0.8204
   12.660    0.8382
   12.705    0.8382
   12.750    0.9631
   12.795    0.9452
   12.840    1.0879
   12.885    0.9452
   12.930    0.9988
   12.975    0.8382
   13.020    0.9631
   13.065    0.8917
   13.110    0.7669
   13.155    0.7669
   13.200    1.0344
   13.245    1.0344
   13.290    1.0879
   13.335    0.8026
   13.380    0.9096
   13.425    0.8204
   13.470    0.9988
   13.515    0.8204
   13.560    1.0166
   13.605    0.8917
   13.650    0.8026
   13.695    0.7312
   13.740    0.9809
   13.785    0.8382
   13.830    1.0344
   13.875    1.1058
   13.920    0.8739
   13.965    0.8382
   14.010    0.9809
   14.055    0.6599
   14.100    0.8204
   14.145    0.8917
   14.190    0.8204
   14.235    0.8204
   14.280    1.1058
   14.325    0.9809
   14.370    0.7491
   14.415    0.8026
   14.460    0.7491
   14.505    0.8561
   14.550    0.7669
   14.595    0.9096
   14.640    0.7847
   14.685    0.7134
   14.730    0.8739
   14.775    0.8739
   14.820    0.6777
   14.865    0.9452
   14.910    0.9988
   14.955    0.5707
   15.000    0.9274
   15.045    0.8026
   15.090    1.0879
   15.135    0.9096
   15.180    0.9096
   15.225    0.9631
   15.270    0.6599
   15.315    0.9988
   15.360    0.8204
   15.405    0.7312
   15.450    0.9096
   15.495    0.8026
   15.540    0.9988
   15.585    0.9274
   15.630    0.8561
   15.675    0.8204
   15.720    0.8204
   15.765    0.8917
   15.810    0.7312
   15.855    0.7669
   15.900    0.7312
   15.945    0.8204
   15.990    0.5886
   16.035    0.8382
   16.080    0.8739
   16.125    0.8739
   16.170    0.8026
   16.215    0.8917
   16.260    0.8382
   16.305    0.9452
   16.350    0.9988
   16.395    0.7847
   16.440    0.8561
   16.485    0.7847
   16.530    0.7312
   16.575    0.8917
   16.620    0.9274
   16.665    0.6956
   16.710    0.8739
   16.755    0.8561
   16.800    0.6956
   16.845    0.9096
   16.890    0.8917
   16.935    1.0879
   16.980    0.8917
   17.025    0.7312
   17.070    1.2128
   17.115    0.7491
   17.160    0.8739
   17.205    0.8739
   17.250    0.6777
   17.295    0.9988
   17.340    0.9631
   17.385    0.7491
   17.430    0.8382
   17.475    0.8382
   17.520    0.8561
   17.565    0.8739
   17.610    0.5707
   17.655    0.7312
   17.700    0.8026
   17.745    0.8026
   17.790    0.8026
   17.835    0.7669
   17.880    0.7669
   17.925    0.9452
   17.970    0.8917
   18.015    0.8917
   18.060    0.9096
   18.105    0.8026
   18.150    0.7491
   18.195    0.8382
   18.240    0.7491
   18.285    0.6777
   18.330    0.5707
   18.375    0.7491
   18.420    0.7134
   18.465    0.8917
   18.510    0.9631
   18.555    0.7847
   18.600    0.9809
   18.645    0.7134
   18.690    0.7312
   18.735    0.7491
   18.780    0.6956
   18.825    0.7491
   18.870    0.7491
   18.915    0.9274
   18.960    0.7669
   19.005    0.8026
   19.050    0.6421
   19.095    0.5350
   19.140    0.8917
   19.185    0.8382
   19.230    0.6421
   19.275    0.8561
   19.320    0.7669
   19.365    0.8382
   19.410    0.8026
   19.455    0.7847
   19.500    0.6777
   19.545    0.8204
   19.590    0.7312
   19.635    0.7312
   19.680    0.8204
   19.725    0.7669
   19.770    0.7134
   19.815    0.8739
   19.860    0.8026
   19.905    0.8382
   19.950    0.7847
   19.995    0.7669
   20.040    0.7134
   20.085    0.7669
   20.130    0.7134
   20.175    0.7312
   20.220    0.7847
   20.265    0.7491
   20.310    0.7669
   20.355    0.8026
   20.400    0.6956
   20.445    0.7491
   20.490    0.7491
   20.535    0.8204
   20.580    0.6421
   20.625    0.7312
   20.670    0.7312
   20.715    0.7847
   20.760    0.7491
   20.805    0.8026
   20.850    0.7312
   20.895    0.7134
   20.940    0.7669
   20.985    0.6421
   21.030    0.8382
   21.075    0.7491
   21.120    0.8026
   21.165    0.6242
   21.210    0.7491
   21.255    0.7669
   21.300    0.6421
   21.345    0.6421
   21.390    0.8204
   21.435    0.7134
   21.480    0.6956
   21.525    0.6777
   21.570    0.8739
   21.615    0.7312
   21.660    0.7134
   21.705    0.9631
   21.750    0.7669
   21.795    0.6421
   21.840    0.7669
   21.885    0.7312
   21.930    0.7491
   21.975    0.7847
   22.020    0.8204
   22.065    0.6242
   22.110    0.8917
   22.155    0.7669
   22.200    0.9809
   22.245    0.7134
   22.290    0.8917
   22.335    0.9096
   22.380    0.6599
   22.425    0.8739
   22.470    0.5886
   22.515    0.7134
   22.560    0.7847
   22.605    0.6242
   22.650    0.8917
   22.695    0.6956
   22.740    0.7491
   22.785    0.8739
   22.830    0.5350
   22.875    0.9096
   22.920    0.7134
   22.965    0.7491
   23.010    0.6421
   23.055    0.7134
   23.100    0.7491
   23.145    0.5350
   23.190    0.6421
   23.235    0.8382
   23.280    0.6777
   23.325    0.6599
   23.370    0.6064
   23.415    0.9096
   23.460    0.7134
   23.505    0.4815
   23.550    0.7669
   23.595    0.8917
   23.640    0.7491
   23.685    0.8204
   23.730    0.4637
   23.775    0.6777
   23.820    0.5886
   23.865    0.7134
   23.910    0.4994
   23.955    0.7669
   24.000    0.5172
   24.045    0.6064
   24.090    0.6421
   24.135    0.7134
   24.180    0.7669
   24.225    0.6421
   24.270    0.6599
   24.315    0.6242
   24.360    0.6242
   24.405    0.4637
   24.450    0.7134
   24.495    0.4815
   24.540    0.7491
   24.585    0.6956
   24.630    0.6064
   24.675    0.6242
   24.720    0.6064
   24.765    0.7134
   24.810    0.5172
   24.855    0.5172
   24.900    0.5529
   24.945    0.5529
   24.990    0.6242
   25.035    0.6956
   25.080    0.5886
   25.125    0.6599
   25.170    0.5886
   25.215    0.4637
   25.260    0.6956
   25.305    0.4994
   25.350    0.5350
   25.395    0.6421
   25.440    0.6242
   25.485    0.6242
   25.530    0.5707
   25.575    0.6599
   25.620    0.6064
   25.665    0.5707
   25.710    0.6777
   25.755    0.5529
   25.800    0.5886
   25.845    0.7669
   25.890    0.6421
   25.935    0.4994
   25.980    0.6421
   26.025    0.4994
   26.070    0.7134
   26.115    0.6599
   26.160    0.5172
   26.205    0.7134
   26.250    0.4637
   26.295    0.7847
   26.340    0.6064
   26.385    0.5886
   26.430    0.5886
   26.475    0.4994
   26.520    0.5529
   26.565    0.5707
   26.610    0.4994
   26.655    0.6421
   26.700    0.6777
   26.745    0.5172
   26.790    0.5707
   26.835    0.5886
   26.880    0.5707
   26.925    0.4994
   26.970    0.5529
   27.015    0.5707
   27.060    0.5350
   27.105    0.4815
   27.150    0.6421
   27.195    0.6242
   27.240    0.6242
   27.285    0.4815
   27.330    0.4815
   27.375    0.5707
   27.420    0.4994
   27.465    0.5529
   27.510    0.6777
   27.555    0.5529
   27.600    0.4280
   27.645    0.4994
   27.690    0.5886
   27.735    0.3567
   27.780    0.5529
   27.825    0.4459
   27.870    0.5707
   27.915    0.6064
   27.960    0.3924
   28.005    0.5886
   28.050    0.5707
   28.095    0.5529
   28.140    0.5172
   28.185    0.5172
   28.230    0.4637
   28.275    0.5350
   28.320    0.4815
   28.365    0.5529
   28.410    0.6599
   28.455    0.5707
   28.500    0.5707
   28.545    0.6777
   28.590    0.5172
   28.635    0.5886
   28.680    0.5350
   28.725    0.5529
   28.770    0.4815
   28.815    0.3567
   28.860    0.5529
   28.905    0.3924
   28.950    0.4815
   28.995    0.6421
   29.040    0.5350
   29.085    0.5350
   29.130    0.3924
   29.175    0.5707
   29.220    0.3924
   29.265    0.4102
   29.310    0.5350
   29.355    0.3567
   29.400    0.4815
   29.445    0.4280
   29.490    0.4637
   29.535    0.3745
   29.580    0.4459
   29.625    0.4637
   29.670    0.3924
   29.715    0.4994
   29.760    0.4459
   29.805    0.5886
   29.850    0.4637
   29.895    0.5707
   29.940    0.4637
   29.985    0.4459
   30.030    0.3032
   30.075    0.4637
   30.120    0.6421
   30.165    0.3924
   30.210    0.4815
   30.255    0.3745
   30.300    0.5172
   30.345    0.4280
   30.390    0.4102
   30.435    0.3567
   30.480    0.4637
   30.525    0.4815
   30.570    0.5350
   30.615    0.3745
   30.660    0.3745
   30.705    0.5529
   30.750    0.4637
   30.795    0.3745
   30.840    0.3924
   30.885    0.5172
   30.930    0.4994
   30.975    0.5886
   31.020    0.4280
   31.065    0.4815
   31.110    0.4280
   31.155    0.3210
   31.200    0.5886
   31.245    0.4280
   31.290    0.3567
   31.335    0.4637
   31.380    0.4459
   31.425    0.4637
   31.470    0.5707
   31.515    0.4102
   31.560    0.5172
   31.605    0.4815
   31.650    0.3924
   31.695    0.5172
   31.740    0.4994
   31.785    0.2675
   31.830    0.3567
   31.875    0.4280
   31.920    0.3210
   31.965    0.4102
   32.010    0.4102
   32.055    0.4280
   32.100    0.3745
   32.145    0.4102
   32.190    0.4637
   32.235    0.5529
   32.280    0.4637
   32.325    0.4102
   32.370    0.3567
   32.415    0.2854
   32.460    0.5707
   32.505    0.4280
   32.550    0.3924
   32.595    0.2854
   32.640    0.3389
   32.685    0.4637
   32.730    0.3567
   32.775    0.4102
   32.820    0.3389
   32.865    0.3389
   32.910    0.6064
   32.955    0.4280
   33.000    0.4459
   33.045    0.3924
   33.090    0.3924
   33.135    0.3210
   33.180    0.2854
   33.225    0.3745
   33.270    0.5172
   33.315    0.3924
   33.360    0.3745
   33.405    0.3745
   33.450    0.3389
   33.495    0.3567
   33.540    0.3924
   33.585    0.3389
   33.630    0.4459
   33.675    0.3389
   33.720    0.3567
   33.765    0.3567
   33.810    0.4280
   33.855    0.2854
   33.900    0.3745
   33.945    0.5886
   33.990    0.2854
   34.035    0.3389
   34.080    0.3389
   34.125    0.4815
   34.170    0.4280
   34.215    0.3389
   34.260    0.4102
   34.305    0.4102
   34.350    0.3745
   34.395    0.3032
   34.440    0.3032
   34.485    0.3567
   34.530    0.3567
   34.575    0.3567
   34.620    0.4815
   34.665    0.3745
   34.710    0.4102
   34.755    0.4459
   34.800    0.3389
   34.845    0.4102
   34.890    0.2675
   34.935    0.3032
   34.980    0.3567
   35.025    0.3210
   35.070    0.3745
   35.115    0.2675
   35.160    0.3210
   35.205    0.3389
   35.250    0.3389
   35.295    0.3389
   35.340    0.3032
   35.385    0.1962
   35.430    0.2497
   35.475    0.3745
   35.520    0.3389
   35.565    0.3032
   35.610    0.2854
   35.655    0.2497
   35.700    0.3032
   35.745    0.2675
   35.790    0.2675
   35.835    0.3924
   35.880    0.4102
   35.925    0.3745
   35.970    0.3567
   36.015    0.2140
   36.060    0.2675
   36.105    0.2675
   36.150    0.4102
   36.195    0.2497
   36.240    0.2497
   36.285    0.2675
   36.330    0.4102
   36.375    0.3389
   36.420    0.2140
   36.465    0.3032
   36.510    0.2854
   36.555    0.2497
   36.600    0.2497
   36.645    0.3389
   36.690    0.2497
   36.735    0.2675
   36.780    0.2675
   36.825    0.3032
   36.870    0.2319
   36.915    0.2854
   36.960    0.2497
   37.005    0.2675
   37.050    0.2319
   37.095    0.3032
   37.140    0.3210
   37.185    0.3210
   37.230    0.2854
   37.275    0.2497
   37.320    0.2140
   37.365    0.3210
   37.410    0.2497
   37.455    0.1605
   37.500    0.3567
   37.545    0.3389
   37.590    0.4280
   37.635    0.3032
   37.680    0.2319
   37.725    0.3389
   37.770    0.3389
   37.815    0.1783
   37.860    0.1783
   37.905    0.3032
   37.950    0.2497
   37.995    0.2675
   38.040    0.4102
   38.085    0.1605
   38.130    0.2675
   38.175    0.2140
   38.220    0.2675
   38.265    0.2319
   38.310    0.2140
   38.355    0.2497
   38.400    0.1962
   38.445    0.2675
   38.490    0.1605
   38.535    0.3210
   38.580    0.2319
   38.625    0.1783
   38.670    0.2497
   38.715    0.2854
   38.760    0.4459
   38.805    0.2497
   38.850    0.3210
   38.895    0.2497
   38.940    0.1962
   38.985    0.1962
   39.030    0.1962
   39.075    0.2675
   39.120    0.2854
   39.165    0.3389
   39.210    0.2140
   39.255    0.1962
   39.300    0.2319
   39.345    0.2675
   39.390    0.1783
   39.435    0.3032
   39.480    0.2497
   39.525    0.1605
   39.570    0.1427
   39.615    0.1605
   39.660    0.2319
   39.705    0.1962
   39.750    0.2319
   39.795    0.1962
   39.840    0.2497
   39.885    0.2140
   39.930    0.1783
   39.975    0.2140
   40.020    0.2675
   40.065    0.2675
   40.110    0.1605
   40.155    0.2319
   40.200    0.1070
   40.245    0.1962
   40.290    0.1962
   40.335    0.2497
   40.380    0.2497
   40.425    0.2497
   40.470    0.2319
   40.515    0.1962
   40.560    0.1962
   40.605    0.2140
   40.650    0.2497
   40.695    0.1962
   40.740    0.2497
   40.785    0.1962
   40.830    0.3389
   40.875    0.2497
   40.920    0.2854
   40.965    0.2140
   41.010    0.2319
   41.055    0.1427
   41.100    0.3032
   41.145    0.1783
   41.190    0.2140
   41.235    0.2319
   41.280    0.1427
   41.325    0.1248
   41.370    0.2497
   41.415    0.2140
   41.460    0.1783
   41.505    0.1070
   41.550    0.3210
   41.595    0.2140
   41.640    0.1783
   41.685    0.3567
   41.730    0.1962
   41.775    0.1962
   41.820    0.1783
   41.865    0.2854
   41.910    0.2319
   41.955    0.2319
   42.000    0.2854
   42.045    0.2675
   42.090    0.1962
   42.135    0.2497
   42.180    0.1783
   42.225    0.1248
   42.270    0.2497
   42.315    0.2675
   42.360    0.1962
   42.405    0.2319
   42.450    0.1962
   42.495    0.1427
   42.540    0.2140
   42.585    0.3032
   42.630    0.3032
   42.675    0.2497
   42.720    0.2497
   42.765    0.1962
   42.810    0.1427
   42.855    0.2140
   42.900    0.1783
   42.945    0.2854
   42.990    0.1783
   43.035    0.2319
   43.080    0.1783
   43.125    0.1962
   43.170    0.1248
   43.215    0.1962
   43.260    0.1605
   43.305    0.1605
   43.350    0.2854
   43.395    0.1962
   43.440    0.1427
   43.485    0.2319
   43.530    0.1605
   43.575    0.1962
   43.620    0.1605
   43.665    0.1248
   43.710    0.2675
   43.755    0.1962
   43.800    0.2319
   43.845    0.1962
   43.890    0.2675
   43.935    0.2140
   43.980    0.2140
   44.025    0.1605
   44.070    0.1783
   44.115    0.2497
   44.160    0.1248
   44.205    0.2497
   44.250    0.2140
   44.295    0.2497
   44.340    0.2319
   44.385    0.2140
   44.430    0.2140
   44.475    0.1605
   44.520    0.2854
   44.565    0.1427
   44.610    0.1783
   44.655    0.2319
   44.700    0.1783
   44.745    0.1427
   44.790    0.2140
   44.835    0.1427
   44.880    0.0892
   44.925    0.2675
   44.970    0.1605
   45.015    0.3210
   45.060    0.1962
   45.105    0.1962
   45.150    0.1248
   45.195    0.2319
   45.240    0.2497
   45.285    0.2319
   45.330    0.2140
   45.375    0.2319
   45.420    0.1248
   45.465    0.1962
   45.510    0.2497
   45.555    0.1962
   45.600    0.1783
   45.645    0.1427
   45.690    0.2140
   45.735    0.1248
   45.780    0.1783
   45.825    0.1070
   45.870    0.1070
   45.915    0.1427
   45.960    0.1427
   46.005    0.1248
   46.050    0.1605
   46.095    0.2319
   46.140    0.2140
   46.185    0.1070
   46.230    0.1070
   46.275    0.1962
   46.320    0.1605
   46.365    0.1070
   46.410    0.1962
   46.455    0.1248
   46.500    0.1783
   46.545    0.2497
   46.590    0.1962
   46.635    0.1605
   46.680    0.1605
   46.725    0.2854
   46.770    0.1962
   46.815    0.1783
   46.860    0.1783
   46.905    0.1605
   46.950    0.2140
   46.995    0.1783
   47.040    0.2140
   47.085    0.1605
   47.130    0.1783
   47.175    0.1605
   47.220    0.1783
   47.265    0.2319
   47.310    0.1783
   47.355    0.1783
   47.400    0.1427
   47.445    0.1248
   47.490    0.1427
   47.535    0.1605
   47.580    0.1605
   47.625    0.1427
   47.670    0.2140
   47.715    0.1783
   47.760    0.1070
   47.805    0.1962
   47.850    0.1427
   47.895    0.1427
   47.940    0.1605
   47.985    0.1248
   48.030    0.2140
   48.075    0.1605
   48.120    0.2140
   48.165    0.2497
   48.210    0.0535
   48.255    0.1427
   48.300    0.1427
   48.345    0.1248
   48.390    0.1962
   48.435    0.1427
   48.480    0.1070
   48.525    0.2319
   48.570    0.1783
   48.615    0.1605
   48.660    0.2319
   48.705    0.1248
   48.750    0.1605
   48.795    0.1605
   48.840    0.0713
   48.885    0.1605
   48.930    0.1783
   48.975    0.1427
   49.020    0.0892
   49.065    0.2140
   49.110    0.1783
   49.155    0.1962
   49.200    0.1962
   49.245    0.1427
   49.290    0.1783
   49.335    0.1248
   49.380    0.1427
   49.425    0.2497
   49.470    0.2140
   49.515    0.1427
   49.560    0.0892
   49.605    0.1427
   49.650    0.1962
   49.695    0.1248
   49.740    0.1427
   49.785    0.1070
   49.830    0.1248
   49.875    0.1427
   49.920    0.1427
   49.965    0.1962
   50.010    0.1605
   50.055    0.1783
   50.100    0.0713
   50.145    0.1427
   50.190    0.1605
   50.235    0.1605
   50.280    0.1248
   50.325    0.1427
   50.370    0.1070
   50.415    0.1783
   50.460    0.1605
   50.505    0.1248
   50.550    0.1605
   50.595    0.1605
   50.640    0.1427
   50.685    0.1427
   50.730    0.1783
   50.775    0.2140
   50.820    0.1605
   50.865    0.1605
   50.910    0.1427
   50.955    0.2140
   51.000    0.1248
   51.045    0.1783
   51.090    0.1427
   51.135    0.1248
   51.180    0.1070
   51.225    0.1783
   51.270    0.1248
   51.315    0.1427
   51.360    0.1783
   51.405    0.1783
   51.450    0.2319
   51.495    0.1427
   51.540    0.1962
   51.585    0.1605
   51.630    0.0892
   51.675    0.1248
   51.720    0.1605
   51.765    0.1427
   51.810    0.1248
   51.855    0.1783
   51.900    0.1783
   51.945    0.1962
   51.990    0.1783
   52.035    0.1962
   52.080    0.1248
   52.125    0.2319
   52.170    0.1070
   52.215    0.2319
   52.260    0.1605
   52.305    0.1605
   52.350    0.1427
   52.395    0.1070
   52.440    0.2675
   52.485    0.1427
   52.530    0.1962
   52.575    0.2854
   52.620    0.0713
   52.665    0.0892
   52.710    0.1427
   52.755    0.1605
   52.800    0.1427
   52.845    0.0892
   52.890    0.1962
   52.935    0.1248
   52.980    0.1605
   53.025    0.1427
   53.070    0.0892
   53.115    0.1605
   53.160    0.0892
   53.205    0.1605
   53.250    0.1248
   53.295    0.1248
   53.340    0.1248
   53.385    0.0713
   53.430    0.2140
   53.475    0.1070
   53.520    0.0713
   53.565    0.0713
   53.610    0.1427
   53.655    0.0713
   53.700    0.1427
   53.745    0.1070
   53.790    0.0713
   53.835    0.0892
   53.880    0.1427
   53.925    0.1248
   53.970    0.1605
   54.015    0.2140
   54.060    0.1248
   54.105    0.1783
   54.150    0.1605
   54.195    0.1427
   54.240    0.1070
   54.285    0.1070
   54.330    0.1605
   54.375    0.1427
   54.420    0.1248
   54.465    0.1427
   54.510    0.1605
   54.555    0.0535
   54.600    0.1427
   54.645    0.0892
   54.690    0.1783
   54.735    0.1248
   54.780    0.1783
   54.825    0.1248
   54.870    0.1783
   54.915    0.2140
   54.960    0.1248
   55.005    0.1783
   55.050    0.1248
   55.095    0.1070
   55.140    0.1605
   55.185    0.1427
   55.230    0.0713
   55.275    0.1248
   55.320    0.1070
   55.365    0.1605
   55.410    0.1070
   55.455    0.1248
   55.500    0.1070
   55.545    0.1962
   55.590    0.0892
   55.635    0.1962
   55.680    0.0892
   55.725    0.0892
   55.770    0.1783
   55.815    0.0713
   55.860    0.1605
   55.905    0.1605
   55.950    0.1783
   55.995    0.1070
   56.040    0.1248
   56.085    0.1070
   56.130    0.1427
   56.175    0.0892
   56.220    0.0892
   56.265    0.0713
   56.310    0.1427
   56.355    0.1605
   56.400    0.1427
   56.445    0.0892
   56.490    0.1427
   56.535    0.0713
   56.580    0.0892
   56.625    0.1605
   56.670    0.1605
   56.715    0.1605
   56.760    0.1605
   56.805    0.0892
   56.850    0.0892
   56.895    0.0713
   56.940    0.0713
   56.985    0.1070
   57.030    0.1605
   57.075    0.0713
   57.120    0.1248
   57.165    0.0713
   57.210    0.0892
   57.255    0.1605
   57.300    0.0713
   57.345    0.1605
   57.390    0.1070
   57.435    0.0535
   57.480    0.1427
   57.525    0.1070
   57.570    0.1427
   57.615    0.1070
   57.660    0.0892
   57.705    0.1248
   57.750    0.0892
   57.795    0.0713
   57.840    0.1248
   57.885    0.1605
   57.930    0.0535
   57.975    0.1248
   58.020    0.1070
   58.065    0.1070
   58.110    0.1605
   58.155    0.1248
   58.200    0.0892
   58.245    0.1248
   58.290    0.1070
   58.335    0.1248
   58.380    0.0713
   58.425    0.1783
   58.470    0.0535
   58.515    0.1605
   58.560    0.1248
   58.605    0.0892
   58.650    0.0892
   58.695    0.0713
   58.740    0.1070
   58.785    0.1605
   58.830    0.0713
   58.875    0.1962
   58.920    0.0892
   58.965    0.0892
   59.010    0.1070
   59.055    0.1248
   59.100    0.0713
   59.145    0.1427
   59.190    0.0713
   59.235    0.1427
   59.280    0.1248
   59.325    0.0892
   59.370    0.0713
   59.415    0.0713
   59.460    0.0535
   59.505    0.0535
   59.550    0.1248
   59.595    0.1070
   59.640    0.0892
   59.685    0.1070
   59.730    0.1248
   59.775    0.0892
   59.820    0.1427
   59.865    0.0892
   59.910    0.1070
   59.955    0.0713
   59.985    0.1427