File: data/PXRD/PXRD_KE-310_Cu-Ka1_capillary-1mm_3s-deg.xyd
    1.500    5.7925
    1.530    5.7574
    1.560    5.6170
    1.590    5.4415
    1.620    5.0377
    1.650    4.9675
    1.680    5.0553
    1.710    5.1080
    1.740    4.9324
    1.770    4.6867
    1.800    5.0026
    1.830    4.7744
    1.860    4.6867
    1.890    4.8622
    1.920    4.6165
    1.950    4.5287
    1.980    4.6340
    2.010    4.3883
    2.040    3.7915
    2.070    4.1776
    2.100    4.6165
    2.130    4.1074
    2.160    4.0723
    2.190    4.3005
    2.220    3.8968
    2.250    4.2127
    2.280    3.6159
    2.310    3.7213
    2.340    4.0548
    2.370    4.0021
    2.400    4.0899
    2.430    3.7037
    2.460    3.5457
    2.490    3.8968
    2.520    3.7037
    2.550    3.5633
    2.580    3.6510
    2.610    3.8266
    2.640    3.6686
    2.670    3.7037
    2.700    3.5106
    2.730    3.5808
    2.760    3.3526
    2.790    3.6335
    2.820    3.1947
    2.850    3.8090
    2.880    3.7388
    2.910    3.2122
    2.940    3.5633
    2.970    3.6335
    3.000    4.0723
    3.030    3.6159
    3.060    4.0372
    3.090    4.5287
    3.120    4.5287
    3.150    4.3181
    3.180    4.9324
    3.210    5.1431
    3.240    5.7223
    3.270    6.0207
    3.300    6.2313
    3.330    7.2670
    3.360    7.6532
    3.390    8.3377
    3.420    8.9170
    3.450    9.9351
    3.480   11.2691
    3.510   12.4978
    3.540   14.2005
    3.570   16.4121
    3.600   18.4659
    3.630   21.6079
    3.660   25.0132
    3.690   30.1562
    3.720   35.6503
    3.750   44.3567
    3.780   58.4167
    3.810   80.9373
    3.840   95.7346
    3.870   70.9847
    3.900   34.5445
    3.930   11.0233
    3.960    5.4766
    3.990    4.3883
    4.020    3.7915
    4.050    3.2298
    4.080    3.1596
    4.110    3.1245
    4.140    2.8963
    4.170    2.8963
    4.200    3.0367
    4.230    2.8612
    4.260    2.8260
    4.290    2.5803
    4.320    2.5979
    4.350    2.5276
    4.380    2.8963
    4.410    2.6856
    4.440    2.8436
    4.470    2.8787
    4.500    2.8436
    4.530    2.4048
    4.560    2.5979
    4.590    2.4574
    4.620    2.5452
    4.650    2.4925
    4.680    2.6681
    4.710    2.7207
    4.740    2.5803
    4.770    2.4925
    4.800    2.5628
    4.830    2.6154
    4.860    2.2995
    4.890    2.7558
    4.920    2.5628
    4.950    3.1420
    4.980    2.8436
    5.010    2.6681
    5.040    3.0367
    5.070    2.8612
    5.100    3.1069
    5.130    3.7037
    5.160    4.1074
    5.190    4.8271
    5.220    5.0904
    5.250    5.3010
    5.280    6.6175
    5.310    8.1095
    5.340    9.5138
    5.370   11.1638
    5.400   14.1478
    5.430   21.2568
    5.460   25.4695
    5.490   20.5722
    5.520   11.0409
    5.550    4.5287
    5.580    3.4053
    5.610    2.8260
    5.640    2.4574
    5.670    2.4750
    5.700    2.3697
    5.730    2.3170
    5.760    2.3521
    5.790    2.3521
    5.820    2.5979
    5.850    2.6505
    5.880    2.3521
    5.910    2.3697
    5.940    2.4223
    5.970    2.4048
    6.000    2.3697
    6.030    2.2117
    6.060    2.3697
    6.090    2.1064
    6.120    2.5101
    6.150    2.1590
    6.180    2.1415
    6.210    2.4223
    6.240    2.1941
    6.270    2.5979
    6.300    2.3697
    6.330    2.4223
    6.360    2.1766
    6.390    2.3521
    6.420    2.3872
    6.450    2.8436
    6.480    2.6505
    6.510    2.6856
    6.540    3.3877
    6.570    3.2298
    6.600    3.6335
    6.630    4.8798
    6.660    5.0202
    6.690    6.7930
    6.720    6.4771
    6.750    5.4590
    6.780    3.1947
    6.810    2.1941
    6.840    2.4750
    6.870    2.2468
    6.900    2.3521
    6.930    2.3521
    6.960    2.3346
    6.990    2.3521
    7.020    2.4574
    7.050    2.4399
    7.080    2.4399
    7.110    2.2995
    7.140    2.3697
    7.170    2.2643
    7.200    2.3521
    7.230    2.0011
    7.260    2.0713
    7.290    2.2117
    7.320    2.2292
    7.350    2.2292
    7.380    2.1239
    7.410    2.5276
    7.440    2.4223
    7.470    2.5101
    7.500    2.6681
    7.530    2.4750
    7.560    2.6856
    7.590    3.0718
    7.620    3.1771
    7.650    3.8792
    7.680    4.4058
    7.710    5.8101
    7.740    6.9861
    7.770    7.3372
    7.800    5.5117
    7.830    3.7388
    7.860    2.5452
    7.890    2.2292
    7.920    2.1415
    7.950    2.4750
    7.980    2.1766
    8.010    2.3170
    8.040    2.1941
    8.070    2.2468
    8.100    2.1064
    8.130    2.0362
    8.160    2.0713
    8.190    2.0537
    8.220    2.3521
    8.250    1.9133
    8.280    2.0362
    8.310    2.1064
    8.340    2.1941
    8.370    2.1239
    8.400    1.6851
    8.430    2.0362
    8.460    2.0888
    8.490    2.2819
    8.520    2.2819
    8.550    2.1941
    8.580    2.4925
    8.610    2.6330
    8.640    2.6856
    8.670    2.6330
    8.700    2.6681
    8.730    2.4925
    8.760    2.3170
    8.790    2.1590
    8.820    2.3697
    8.850    2.1239
    8.880    2.0186
    8.910    2.0888
    8.940    2.2468
    8.970    1.9308
    9.000    1.9308
    9.030    2.0362
    9.060    2.2819
    9.090    1.8957
    9.120    2.1590
    9.150    2.0537
    9.180    2.0713
    9.210    2.1590
    9.240    2.4399
    9.270    1.9659
    9.300    2.6154
    9.330    2.7032
    9.360    3.0191
    9.390    3.9143
    9.420    4.6340
    9.450    5.9856
    9.480    7.1441
    9.510   10.5670
    9.540   10.5845
    9.570    7.0563
    9.600    3.6510
    9.630    2.4399
    9.660    2.4048
    9.690    2.6154
    9.720    2.0186
    9.750    2.0186
    9.780    2.1590
    9.810    2.1941
    9.840    1.7904
    9.870    2.1766
    9.900    1.9835
    9.930    2.1590
    9.960    1.8431
    9.990    2.0888
   10.020    2.0362
   10.050    2.4223
   10.080    2.2819
   10.110    2.0011
   10.140    2.4399
   10.170    2.4925
   10.200    2.8260
   10.230    3.4229
   10.260    3.9143
   10.290    5.3537
   10.320    4.9851
   10.350    3.3000
   10.380    2.3521
   10.410    2.0537
   10.440    2.1239
   10.470    2.2292
   10.500    2.0537
   10.530    2.2468
   10.560    2.0713
   10.590    2.0362
   10.620    2.0011
   10.650    2.2643
   10.680    2.1590
   10.710    2.0186
   10.740    2.0713
   10.770    2.1239
   10.800    2.0011
   10.830    1.9835
   10.860    2.1239
   10.890    2.7207
   10.920    2.9840
   10.950    3.1771
   10.980    4.2830
   11.010    4.9851
   11.040    4.7042
   11.070    3.4229
   11.100    2.4399
   11.130    2.3170
   11.160    2.1766
   11.190    2.0362
   11.220    2.2819
   11.250    1.8431
   11.280    2.0186
   11.310    2.2292
   11.340    1.7378
   11.370    2.0362
   11.400    1.9835
   11.430    1.8957
   11.460    2.1064
   11.490    2.0362
   11.520    2.3697
   11.550    2.1941
   11.580    2.7734
   11.610    3.1245
   11.640    4.2127
   11.670    5.4766
   11.700    5.1255
   11.730    4.0372
   11.760    3.0016
   11.790    2.6856
   11.820    1.7729
   11.850    2.1239
   11.880    2.0362
   11.910    1.7904
   11.940    1.9835
   11.970    2.1590
   12.000    1.6675
   12.030    1.9484
   12.060    1.9835
   12.090    2.0011
   12.120    1.9133
   12.150    1.9835
   12.180    1.9659
   12.210    2.2117
   12.240    2.1590
   12.270    2.4574
   12.300    2.5803
   12.330    2.6505
   12.360    2.4223
   12.390    2.2292
   12.420    2.0888
   12.450    1.8782
   12.480    2.1941
   12.510    1.9133
   12.540    1.7904
   12.570    1.9835
   12.600    1.8957
   12.630    1.9133
   12.660    1.8782
   12.690    2.1766
   12.720    1.9133
   12.750    1.9484
   12.780    1.9484
   12.810    2.1766
   12.840    2.1766
   12.870    2.8085
   12.900    3.2298
   12.930    4.0548
   12.960    3.5282
   12.990    3.0367
   13.020    2.1590
   13.050    1.8080
   13.080    1.9659
   13.110    1.8606
   13.140    1.7553
   13.170    1.9835
   13.200    2.0537
   13.230    1.9133
   13.260    1.7378
   13.290    2.0362
   13.320    1.8957
   13.350    2.2117
   13.380    1.8606
   13.410    2.0362
   13.440    2.4925
   13.470    2.5979
   13.500    2.7558
   13.530    2.6154
   13.560    2.6330
   13.590    2.2292
   13.620    1.9484
   13.650    1.8431
   13.680    1.7904
   13.710    2.0186
   13.740    2.1590
   13.770    1.9659
   13.800    2.0888
   13.830    1.7904
   13.860    1.8080
   13.890    1.7904
   13.920    1.8080
   13.950    1.7553
   13.980    2.2468
   14.010    2.9138
   14.040    3.3702
   14.070    3.4931
   14.100    3.3175
   14.130    2.6681
   14.160    2.2643
   14.190    1.8255
   14.220    1.9835
   14.250    2.0186
   14.280    1.9308
   14.310    1.6675
   14.340    2.0186
   14.370    1.9308
   14.400    1.8080
   14.430    1.8606
   14.460    1.8431
   14.490    1.8080
   14.520    1.6500
   14.550    1.8957
   14.580    2.0186
   14.610    2.0713
   14.640    2.0011
   14.670    2.2292
   14.700    1.9308
   14.730    1.7553
   14.760    1.9835
   14.790    2.0537
   14.820    1.9133
   14.850    1.9484
   14.880    2.0362
   14.910    1.6675
   14.940    2.0011
   14.970    2.1590
   15.000    2.0888
   15.030    1.9308
   15.060    1.8606
   15.090    2.3697
   15.120    2.3346
   15.150    2.2995
   15.180    2.2819
   15.210    2.0537
   15.240    1.5798
   15.270    1.8255
   15.300    1.8080
   15.330    1.9835
   15.360    1.9308
   15.390    1.9659
   15.420    1.8080
   15.450    1.8782
   15.480    1.9308
   15.510    2.1415
   15.540    1.7729
   15.570    1.9133
   15.600    1.9133
   15.630    1.8606
   15.660    1.9308
   15.690    1.8957
   15.720    2.0713
   15.750    1.9308
   15.780    1.9659
   15.810    1.9308
   15.840    2.0186
   15.870    1.7378
   15.900    1.7904
   15.930    2.1064
   15.960    1.9659
   15.990    2.0537
   16.020    1.8782
   16.050    2.1941
   16.080    2.4399
   16.110    2.4223
   16.140    2.0888
   16.170    2.1766
   16.200    2.0186
   16.230    1.8431
   16.260    2.0888
   16.290    1.7729
   16.320    1.9835
   16.350    2.1064
   16.380    2.1239
   16.410    1.9659
   16.440    2.1064
   16.470    2.0537
   16.500    2.0888
   16.530    1.9835
   16.560    2.4750
   16.590    2.4399
   16.620    2.3521
   16.650    2.1064
   16.680    2.0888
   16.710    1.9659
   16.740    1.7202
   16.770    2.2995
   16.800    2.0362
   16.830    1.9484
   16.860    1.9484
   16.890    1.9133
   16.920    2.0362
   16.950    2.0186
   16.980    2.7383
   17.010    3.0367
   17.040    3.3175
   17.070    3.3351
   17.100    2.6505
   17.130    2.5452
   17.160    1.9659
   17.190    1.7729
   17.220    1.9308
   17.250    1.8255
   17.280    2.1064
   17.310    1.8255
   17.340    2.0537
   17.370    1.9835
   17.400    2.1766
   17.430    2.0537
   17.460    2.4048
   17.490    2.5452
   17.520    2.4048
   17.550    1.8606
   17.580    2.0888
   17.610    1.9484
   17.640    1.7729
   17.670    2.0186
   17.700    1.6324
   17.730    1.8431
   17.760    2.2819
   17.790    2.1766
   17.820    1.9659
   17.850    1.9133
   17.880    2.4399
   17.910    2.4399
   17.940    2.2468
   17.970    2.0713
   18.000    2.0186
   18.030    1.7904
   18.060    1.9659
   18.090    1.8431
   18.120    2.1766
   18.150    1.7378
   18.180    2.2117
   18.210    2.2468
   18.240    2.0186
   18.270    2.2117
   18.300    2.2292
   18.330    2.4925
   18.360    2.4048
   18.390    2.1766
   18.420    2.1415
   18.450    1.8957
   18.480    1.9659
   18.510    1.9835
   18.540    2.1766
   18.570    1.9133
   18.600    2.0713
   18.630    1.8606
   18.660    2.1415
   18.690    1.6851
   18.720    1.7378
   18.750    2.0888
   18.780    2.1766
   18.810    2.5101
   18.840    2.1064
   18.870    2.2292
   18.900    1.8080
   18.930    1.8782
   18.960    1.9133
   18.990    1.9133
   19.020    1.9659
   19.050    1.9308
   19.080    2.1064
   19.110    1.9308
   19.140    1.9308
   19.170    2.0713
   19.200    2.1064
   19.230    2.0362
   19.260    1.8782
   19.290    1.8606
   19.320    2.1239
   19.350    2.0186
   19.380    2.0362
   19.410    2.1941
   19.440    1.8957
   19.470    2.1941
   19.500    1.9659
   19.530    2.3521
   19.560    2.4750
   19.590    2.3521
   19.620    2.5276
   19.650    2.2643
   19.680    2.0362
   19.710    2.1590
   19.740    1.8080
   19.770    2.0537
   19.800    2.1239
   19.830    2.4048
   19.860    2.0011
   19.890    2.0537
   19.920    1.8255
   19.950    2.0362
   19.980    2.2819
   20.010    1.9133
   20.040    2.0713
   20.070    2.0186
   20.100    1.8080
   20.130    2.0011
   20.160    2.2643
   20.190    1.9308
   20.220    1.7553
   20.250    2.1941
   20.280    2.2995
   20.310    2.5452
   20.340    2.6856
   20.370    3.3877
   20.400    2.8787
   20.430    2.4750
   20.460    2.3697
   20.490    2.1415
   20.520    1.7378
   20.550    1.7904
   20.580    2.0713
   20.610    2.1941
   20.640    2.0537
   20.670    1.7729
   20.700    2.1415
   20.730    2.0713
   20.760    1.9133
   20.790    2.1239
   20.820    1.7027
   20.850    2.1590
   20.880    2.0362
   20.910    2.2643
   20.940    2.0537
   20.970    1.8957
   21.000    2.0713
   21.030    2.0011
   21.060    2.0713
   21.090    2.0362
   21.120    1.9484
   21.150    2.0888
   21.180    2.1766
   21.210    2.1064
   21.240    1.7202
   21.270    2.0186
   21.300    1.9308
   21.330    2.0888
   21.360    1.7378
   21.390    2.1590
   21.420    1.8782
   21.450    2.0186
   21.480    2.1766
   21.510    1.9659
   21.540    2.2468
   21.570    1.8782
   21.600    1.9484
   21.630    2.0537
   21.660    2.0713
   21.690    2.1415
   21.720    2.0011
   21.750    2.0713
   21.780    2.2995
   21.810    2.4574
   21.840    2.3170
   21.870    2.5452
   21.900    2.3170
   21.930    2.0011
   21.960    2.2292
   21.990    2.1590
   22.020    2.0537
   22.050    2.1766
   22.080    2.0011
   22.110    2.0011
   22.140    2.0888
   22.170    1.9659
   22.200    2.2117
   22.230    2.2643
   22.260    2.0713
   22.290    2.2643
   22.320    2.3521
   22.350    2.1766
   22.380    2.2117
   22.410    2.1590
   22.440    2.1415
   22.470    2.7207
   22.500    2.9840
   22.530    3.3175
   22.560    3.0367
   22.590    2.7383
   22.620    2.9665
   22.650    2.3346
   22.680    2.4574
   22.710    1.9484
   22.740    2.1064
   22.770    1.8782
   22.800    2.1590
   22.830    2.7558
   22.860    2.7558
   22.890    3.5106
   22.920    3.2824
   22.950    3.1947
   22.980    2.0713
   23.010    2.2117
   23.040    2.1941
   23.070    2.0713
   23.100    2.2117
   23.130    2.1239
   23.160    2.1415
   23.190    2.0537
   23.220    2.4048
   23.250    2.4925
   23.280    2.1941
   23.310    2.1766
   23.340    2.1239
   23.370    2.0888
   23.400    2.0537
   23.430    2.2995
   23.460    2.1941
   23.490    2.1064
   23.520    1.9308
   23.550    1.8431
   23.580    2.0011
   23.610    2.1239
   23.640    2.1766
   23.670    2.2819
   23.700    2.0186
   23.730    2.2995
   23.760    2.0888
   23.790    2.2995
   23.820    2.1064
   23.850    2.2468
   23.880    2.4574
   23.910    2.2819
   23.940    2.5628
   23.970    2.0011
   24.000    2.4048
   24.030    1.8957
   24.060    1.9133
   24.090    2.0713
   24.120    1.8957
   24.150    2.1239
   24.180    2.1239
   24.210    2.1590
   24.240    1.9835
   24.270    1.7904
   24.300    1.9308
   24.330    2.0537
   24.360    1.8606
   24.390    2.2292
   24.420    2.0888
   24.450    2.0537
   24.480    2.1239
   24.510    2.3170
   24.540    2.1941
   24.570    1.9308
   24.600    2.0888
   24.630    2.0888
   24.660    1.7904
   24.690    2.1941
   24.720    1.8957
   24.750    1.7378
   24.780    2.1766
   24.810    1.7729
   24.840    1.8782
   24.870    2.2292
   24.900    2.3346
   24.930    1.8080
   24.960    2.0186
   24.990    2.1239
   25.020    2.3170
   25.050    1.9835
   25.080    1.8080
   25.110    2.3697
   25.140    1.9308
   25.170    2.0362
   25.200    2.2117
   25.230    2.1590
   25.260    2.0713
   25.290    2.1766
   25.320    2.2819
   25.350    1.9659
   25.380    1.9659
   25.410    1.9133
   25.440    2.0888
   25.470    2.2117
   25.500    2.1239
   25.530    2.0537
   25.560    1.8431
   25.590    2.0537
   25.620    1.8080
   25.650    2.3872
   25.680    2.1239
   25.710    2.0186
   25.740    2.1239
   25.770    2.7734
   25.800    2.7734
   25.830    2.6681
   25.860    2.4925
   25.890    2.1766
   25.920    2.2643
   25.950    2.3170
   25.980    1.8606
   26.010    1.8080
   26.040    2.1064
   26.070    1.8782
   26.100    1.9835
   26.130    2.0011
   26.160    1.8782
   26.190    2.2468
   26.220    2.0537
   26.250    2.0186
   26.280    1.9484
   26.310    2.0888
   26.340    2.0011
   26.370    1.8606
   26.400    1.9835
   26.430    2.1415
   26.460    1.9484
   26.490    1.9659
   26.520    2.1766
   26.550    1.8606
   26.580    1.7027
   26.610    2.1064
   26.640    1.7729
   26.670    1.8431
   26.700    2.1415
   26.730    1.8957
   26.760    2.3872
   26.790    2.0011
   26.820    2.0888
   26.850    1.7378
   26.880    2.0011
   26.910    2.2292
   26.940    2.3697
   26.970    2.2995
   27.000    2.1766
   27.030    2.3346
   27.060    2.2292
   27.090    2.1415
   27.120    2.0888
   27.150    1.8255
   27.180    1.7027
   27.210    1.9133
   27.240    1.9484
   27.270    1.8431
   27.300    1.9308
   27.330    1.8957
   27.360    1.8606
   27.390    1.6500
   27.420    1.8255
   27.450    1.8255
   27.480    1.8080
   27.510    1.7553
   27.540    2.1941
   27.570    1.8431
   27.600    1.8782
   27.630    2.0713
   27.660    2.0888
   27.690    1.7378
   27.720    2.2292
   27.750    1.8782
   27.780    1.9484
   27.810    1.8431
   27.840    1.8782
   27.870    1.7904
   27.900    1.7027
   27.930    2.1239
   27.960    1.9133
   27.990    2.0888
   28.020    1.8782
   28.050    1.7904
   28.080    1.8782
   28.110    2.1766
   28.140    1.8957
   28.170    2.3346
   28.200    2.1941
   28.230    2.0713
   28.260    1.7904
   28.290    1.8080
   28.320    1.8957
   28.350    2.0011
   28.380    1.9484
   28.410    2.0537
   28.440    2.2292
   28.470    2.0537
   28.500    2.2819
   28.530    1.7729
   28.560    1.7729
   28.590    2.0713
   28.620    1.6851
   28.650    1.5973
   28.680    1.9835
   28.710    1.8957
   28.740    1.8255
   28.770    2.1064
   28.800    1.6675
   28.830    1.7729
   28.860    1.6149
   28.890    1.8606
   28.920    1.9484
   28.950    1.9308
   28.980    2.1415
   29.010    1.9133
   29.040    1.9308
   29.070    1.7202
   29.100    1.7553
   29.130    1.9659
   29.160    1.6149
   29.190    1.7027
   29.220    1.7378
   29.250    1.9484
   29.280    2.1941
   29.310    2.1766
   29.340    1.8957
   29.370    2.2468
   29.400    1.8782
   29.430    1.8080
   29.460    1.7378
   29.490    1.7027
   29.520    1.8431
   29.550    1.8431
   29.580    1.7729
   29.610    1.9484
   29.640    1.7027
   29.670    1.7027
   29.700    2.0888
   29.730    1.5622
   29.760    1.7202
   29.790    1.8431
   29.820    1.8080
   29.850    1.8431
   29.880    2.0011
   29.910    1.7553
   29.940    1.7729
   29.970    1.7378
   30.000    2.0011
   30.030    1.5447
   30.060    2.0186
   30.090    2.0011
   30.120    1.7904
   30.150    2.0186
   30.180    1.7904
   30.210    1.6851
   30.240    1.8080
   30.270    1.8957
   30.300    2.1064
   30.330    1.6851
   30.360    1.6149
   30.390    1.7202
   30.420    1.8782
   30.450    1.9133
   30.480    1.8255
   30.510    2.0186
   30.540    1.7553
   30.570    1.8606
   30.600    1.8957
   30.630    1.8606
   30.660    1.8431
   30.690    1.8255
   30.720    1.7378
   30.750    1.8957
   30.780    1.7729
   30.810    1.6149
   30.840    1.7904
   30.870    1.6324
   30.900    1.7202
   30.930    1.5798
   30.960    1.6851
   30.990    1.8080
   31.020    1.5271
   31.050    1.6851
   31.080    1.4042
   31.110    1.5973
   31.140    1.5798
   31.170    1.9308
   31.200    1.5973
   31.230    1.7378
   31.260    1.8080
   31.290    1.7553
   31.320    1.8782
   31.350    2.0011
   31.380    1.7553
   31.410    1.8431
   31.440    1.6851
   31.470    1.7027
   31.500    1.8431
   31.530    1.9835
   31.560    1.7202
   31.590    1.9133
   31.620    1.6500
   31.650    1.7202
   31.680    1.7027
   31.710    1.7027
   31.740    1.9484
   31.770    1.5973
   31.800    1.7378
   31.830    1.7027
   31.860    1.5622
   31.890    1.7027
   31.920    1.8606
   31.950    1.6675
   31.980    1.5096
   32.010    1.5447
   32.040    1.5096
   32.070    1.8255
   32.100    1.4218
   32.130    1.5798
   32.160    1.7378
   32.190    1.8431
   32.220    1.6500
   32.250    1.5798
   32.280    1.5622
   32.310    1.6851
   32.340    1.8782
   32.370    1.6675
   32.400    1.5271
   32.430    1.7553
   32.460    1.5447
   32.490    1.5798
   32.520    1.4569
   32.550    1.7553
   32.580    1.7904
   32.610    1.4745
   32.640    1.7378
   32.670    1.5271
   32.700    1.7027
   32.730    1.4042
   32.760    1.7729
   32.790    1.8606
   32.820    1.6500
   32.850    1.8431
   32.880    1.6324
   32.910    1.5096
   32.940    1.8255
   32.970    1.7027
   33.000    1.3340
   33.030    1.7027
   33.060    1.6675
   33.090    1.5096
   33.120    1.4218
   33.150    1.6851
   33.180    1.7378
   33.210    1.5096
   33.240    1.6149
   33.270    1.7378
   33.300    1.4745
   33.330    1.4569
   33.360    1.6675
   33.390    1.5096
   33.420    1.6851
   33.450    1.6324
   33.480    1.2638
   33.510    1.5447
   33.540    1.5798
   33.570    1.6149
   33.600    1.5271
   33.630    1.5622
   33.660    1.5096
   33.690    1.5622
   33.720    1.2463
   33.750    1.5973
   33.780    1.7202
   33.810    1.7202
   33.840    1.5447
   33.870    1.7729
   33.900    1.7904
   33.930    1.7904
   33.960    1.6851
   33.990    1.5447
   34.020    1.4394
   34.050    1.2814
   34.080    1.4745
   34.110    1.6851
   34.140    1.6500
   34.170    1.3340
   34.200    1.4394
   34.230    1.4569
   34.260    1.3867
   34.290    1.4218
   34.320    1.2112
   34.350    1.4920
   34.380    1.2989
   34.410    1.7553
   34.440    1.4042
   34.470    1.3516
   34.500    1.3165
   34.530    1.2463
   34.560    1.4218
   34.590    1.5798
   34.620    1.5096
   34.650    1.5798
   34.680    1.4745
   34.710    1.4920
   34.740    1.2814
   34.770    1.5973
   34.800    1.6500
   34.830    1.8080
   34.860    1.4042
   34.890    1.2638
   34.920    1.3516
   34.950    1.4042
   34.980    1.4042
   35.010    1.4745
   35.040    1.5973
   35.070    1.4394
   35.100    1.5798
   35.130    1.4920
   35.160    1.2989
   35.190    1.2638
   35.220    1.3165
   35.250    1.3691
   35.280    1.2638
   35.310    1.3867
   35.340    1.4920
   35.370    1.4042
   35.400    1.3340
   35.430    1.4394
   35.460    1.4745
   35.490    1.3691
   35.520    1.5447
   35.550    1.5271
   35.580    1.4569
   35.610    1.2814
   35.640    1.1410
   35.670    1.3691
   35.700    1.5447
   35.730    1.6324
   35.760    1.4569
   35.790    1.5798
   35.820    1.2638
   35.850    1.4218
   35.880    1.4218
   35.910    1.5096
   35.940    1.4569
   35.970    1.4042
   36.000    1.4218
   36.030    1.2287
   36.060    1.5798
   36.090    1.4569
   36.120    1.3165
   36.150    1.5798
   36.180    1.4394
   36.210    1.3867
   36.240    1.4920
   36.270    1.4218
   36.300    1.2638
   36.330    1.4569
   36.360    1.2814
   36.390    1.3516
   36.420    1.2814
   36.450    1.3165
   36.480    1.1936
   36.510    1.4218
   36.540    1.4569
   36.570    1.4745
   36.600    1.3691
   36.630    1.3867
   36.660    1.4920
   36.690    1.3867
   36.720    1.3691
   36.750    1.2989
   36.780    1.4218
   36.810    1.1761
   36.840    1.4394
   36.870    1.2463
   36.900    1.2112
   36.930    1.2287
   36.960    1.5798
   36.990    1.5096
   37.020    1.3340
   37.050    1.3340
   37.080    1.5447
   37.110    1.5096
   37.140    1.4218
   37.170    1.0883
   37.200    1.1585
   37.230    1.0883
   37.260    1.2463
   37.290    1.5973
   37.320    1.2112
   37.350    1.3691
   37.380    1.2638
   37.410    1.2287
   37.440    1.3165
   37.470    1.5096
   37.500    1.5096
   37.530    1.1585
   37.560    1.3691
   37.590    1.4218
   37.620    1.1234
   37.650    1.1936
   37.680    1.2638
   37.710    1.3165
   37.740    1.0532
   37.770    1.0883
   37.800    1.2989
   37.830    1.4218
   37.860    1.2638
   37.890    1.1410
   37.920    1.5798
   37.950    1.2989
   37.980    1.1936
   38.010    1.3516
   38.040    1.3340
   38.070    1.1761
   38.100    1.3516
   38.130    1.3165
   38.160    1.3340
   38.190    1.0883
   38.220    1.4920
   38.250    1.1234
   38.280    1.4042
   38.310    1.3867
   38.340    1.4920
   38.370    1.1058
   38.400    1.2814
   38.430    1.2287
   38.460    1.2638
   38.490    1.0356
   38.520    1.3340
   38.550    1.1585
   38.580    1.1410
   38.610    1.2112
   38.640    1.2463
   38.670    1.1936
   38.700    1.0883
   38.730    1.1234
   38.760    1.2638
   38.790    1.1410
   38.820    1.2989
   38.850    1.5096
   38.880    0.9830
   38.910    1.2989
   38.940    1.1585
   38.970    1.2287
   39.000    1.1585
   39.030    1.2463
   39.060    1.1410
   39.090    1.3867
   39.120    1.1585
   39.150    1.3691
   39.180    1.2287
   39.210    1.4218
   39.240    1.2989
   39.270    1.3867
   39.300    1.4394
   39.330    1.4745
   39.360    1.2814
   39.390    1.1410
   39.420    1.1761
   39.450    1.2463
   39.480    1.3340
   39.510    1.3165
   39.540    1.1410
   39.570    1.2814
   39.600    1.3165
   39.630    1.1410
   39.660    1.4569
   39.690    1.0883
   39.720    1.2989
   39.750    1.3165
   39.780    1.0356
   39.810    1.1058
   39.840    1.2638
   39.870    1.2814
   39.900    1.1410
   39.930    1.1585
   39.960    1.1585
   39.990    1.1058