File: data/PXRD/PXRD_KE-202_Cu-Ka1_capillary-1mm_5s-deg.xyd
    1.500   17.5671
    1.530   17.3670
    1.560   17.0721
    1.590   17.0511
    1.620   17.0090
    1.650   15.9136
    1.680   15.4081
    1.710   15.0816
    1.740   14.9447
    1.770   14.5761
    1.800   14.3023
    1.830   13.7757
    1.860   13.5545
    1.890   12.9015
    1.920   13.5229
    1.950   12.7751
    1.980   12.7330
    2.010   12.2591
    2.040   11.7641
    2.070   11.2691
    2.100   11.4060
    2.130   11.9010
    2.160   10.9742
    2.190   10.8794
    2.220   10.7109
    2.250   10.2686
    2.280   10.3528
    2.310   10.2159
    2.340   10.0579
    2.370   10.1843
    2.400    9.6367
    2.430    9.9631
    2.460    9.3312
    2.490    9.4365
    2.520    9.1522
    2.550    9.2259
    2.580    9.4997
    2.610    9.2470
    2.640    8.8678
    2.670    9.0047
    2.700    8.8678
    2.730    9.0258
    2.760    8.7836
    2.790    9.2154
    2.820    8.7836
    2.850    9.3207
    2.880    9.5103
    2.910    8.9626
    2.940    9.3523
    2.970   10.2054
    3.000   10.2580
    3.030   10.5740
    3.060   11.1743
    3.090   11.8378
    3.120   12.4592
    3.150   13.2175
    3.180   13.7757
    3.210   15.0500
    3.240   16.5140
    3.270   18.3570
    3.300   20.4529
    3.330   22.6856
    3.360   25.4028
    3.390   28.4360
    3.420   31.2164
    3.450   33.4913
    3.480   36.2612
    3.510   35.9874
    3.540   38.8626
    3.570   41.4639
    3.600   45.8873
    3.630   55.3555
    3.660   61.5061
    3.690   73.7125
    3.720   88.7204
    3.750  107.8041
    3.780  137.9989
    3.810  195.4187
    3.840  271.1427
    3.870  258.1991
    3.900  139.3892
    3.930   23.6967
    3.960   11.9958
    3.990   11.4165
    4.020   11.1111
    4.050   10.8162
    4.080    9.8262
    4.110    9.4471
    4.140    9.1417
    4.170    9.1627
    4.200    8.6572
    4.230    7.6461
    4.260    7.3934
    4.290    7.5197
    4.320    6.9721
    4.350    6.5719
    4.380    6.2559
    4.410    5.9610
    4.440    6.2033
    4.470    6.0453
    4.500    5.5503
    4.530    5.4134
    4.560    5.6135
    4.590    5.5082
    4.620    5.5082
    4.650    5.5608
    4.680    5.3818
    4.710    5.4134
    4.740    5.4450
    4.770    5.3818
    4.800    5.7083
    4.830    5.3607
    4.860    5.1817
    4.890    5.2449
    4.920    5.5187
    4.950    5.8241
    4.980    6.4244
    5.010    6.3191
    5.040    6.5192
    5.070    6.6983
    5.100    7.3196
    5.130    8.0358
    5.160    8.7414
    5.190    9.7209
    5.220   11.2164
    5.250   12.3539
    5.280   15.0606
    5.310   17.8304
    5.340   22.0326
    5.370   26.3928
    5.400   34.9552
    5.430   50.7425
    5.460   71.2164
    5.490   68.4781
    5.520   39.7472
    5.550    8.9415
    5.580    4.8973
    5.610    5.0658
    5.640    5.2659
    5.670    4.7393
    5.700    4.6867
    5.730    4.7288
    5.760    4.9078
    5.790    4.5076
    5.820    4.6024
    5.850    4.3286
    5.880    4.5498
    5.910    4.9710
    5.940    4.6445
    5.970    4.5919
    6.000    4.4550
    6.030    4.6235
    6.060    4.4866
    6.090    4.5708
    6.120    4.7815
    6.150    4.7393
    6.180    4.3286
    6.210    4.8341
    6.240    4.3181
    6.270    4.3602
    6.300    4.4866
    6.330    4.6445
    6.360    4.8236
    6.390    4.9921
    6.420    5.1501
    6.450    5.0026
    6.480    6.1611
    6.510    5.9821
    6.540    6.3296
    6.570    7.1301
    6.600    8.3728
    6.630    9.8262
    6.660   12.4908
    6.690   16.9352
    6.720   19.6946
    6.750   16.0190
    6.780    7.7304
    6.810    4.9605
    6.840    4.8868
    6.870    5.0553
    6.900    5.2449
    6.930    5.3607
    6.960    5.1185
    6.990    5.3923
    7.020    5.1080
    7.050    5.0026
    7.080    4.5182
    7.110    4.7393
    7.140    4.5919
    7.170    4.2759
    7.200    4.6024
    7.230    4.3286
    7.260    4.4444
    7.290    4.2443
    7.320    4.2654
    7.350    4.7709
    7.380    4.2127
    7.410    4.3918
    7.440    4.3602
    7.470    4.5919
    7.500    4.9921
    7.530    5.0658
    7.560    5.2449
    7.590    5.7188
    7.620    6.7088
    7.650    7.8778
    7.680    8.8152
    7.710   11.2270
    7.740   16.1453
    7.770   18.8204
    7.800   15.9663
    7.830    7.1406
    7.860    4.6235
    7.890    4.3391
    7.920    4.4550
    7.950    4.3391
    7.980    4.2549
    8.010    4.4234
    8.040    4.5392
    8.070    4.3075
    8.100    4.4971
    8.130    4.2338
    8.160    4.5919
    8.190    4.1706
    8.220    4.2338
    8.250    4.4655
    8.280    4.2127
    8.310    4.3602
    8.340    4.4339
    8.370    4.6130
    8.400    4.4128
    8.430    4.2654
    8.460    4.2759
    8.490    4.2970
    8.520    4.8131
    8.550    4.3918
    8.580    4.3602
    8.610    4.7604
    8.640    4.8236
    8.670    5.5398
    8.700    5.7293
    8.730    5.1395
    8.760    4.7604
    8.790    3.8441
    8.820    3.9284
    8.850    4.0864
    8.880    3.9389
    8.910    4.0337
    8.940    4.1601
    8.970    4.1811
    9.000    4.0758
    9.030    3.9179
    9.060    4.0442
    9.090    3.5598
    9.120    4.0653
    9.150    4.3286
    9.180    4.2022
    9.210    4.2549
    9.240    4.2865
    9.270    4.8025
    9.300    4.7393
    9.330    5.7820
    9.360    6.3296
    9.390    7.8041
    9.420   10.0895
    9.450   13.1964
    9.480   19.3786
    9.510   29.6367
    9.540   31.3533
    9.570   21.7588
    9.600    7.8884
    9.630    4.2443
    9.660    3.9810
    9.690    4.1074
    9.720    3.8652
    9.750    4.0864
    9.780    3.5492
    9.810    3.9494
    9.840    4.1285
    9.870    3.7177
    9.900    3.8652
    9.930    4.0969
    9.960    4.0021
    9.990    3.4966
   10.020    4.2233
   10.050    4.1285
   10.080    4.2127
   10.110    4.0758
   10.140    5.0974
   10.170    5.1185
   10.200    5.9716
   10.230    7.7093
   10.260   11.1427
   10.290   13.4702
   10.320   12.6804
   10.350    8.3623
   10.380    4.6656
   10.410    3.7599
   10.440    3.6756
   10.470    3.5914
   10.500    3.8125
   10.530    3.9073
   10.560    3.7809
   10.590    3.9073
   10.620    3.9073
   10.650    3.6230
   10.680    3.8231
   10.710    3.8441
   10.740    3.6756
   10.770    3.8968
   10.800    4.0969
   10.830    4.2443
   10.860    4.6130
   10.890    4.8341
   10.920    5.9189
   10.950    7.2038
   10.980   10.3002
   11.010   12.3328
   11.040   11.6166
   11.070    7.5513
   11.100    4.0021
   11.130    3.7704
   11.160    3.9073
   11.190    3.6967
   11.220    3.8863
   11.250    3.6335
   11.280    3.8125
   11.310    3.8441
   11.340    3.6546
   11.370    3.7493
   11.400    3.8020
   11.430    3.6335
   11.460    4.1180
   11.490    3.8547
   11.520    4.0232
   11.550    4.6024
   11.580    5.3081
   11.610    6.6456
   11.640    9.0258
   11.670   12.4487
   11.700   13.0279
   11.730    9.8368
   11.760    5.3397
   11.790    4.0337
   11.820    3.8652
   11.850    3.9284
   11.880    3.7177
   11.910    3.6230
   11.940    3.7704
   11.970    3.6756
   12.000    3.7809
   12.030    3.5598
   12.060    3.4229
   12.090    3.7177
   12.120    3.6546
   12.150    4.1917
   12.180    3.5598
   12.210    3.7177
   12.240    4.0864
   12.270    4.3602
   12.300    4.8236
   12.330    5.1290
   12.360    4.9184
   12.390    3.8968
   12.420    3.5176
   12.450    3.9810
   12.480    3.7072
   12.510    3.5492
   12.540    3.5598
   12.570    3.6862
   12.600    3.8441
   12.630    3.7599
   12.660    3.7177
   12.690    3.6862
   12.720    3.7704
   12.750    3.8336
   12.780    4.0864
   12.810    4.1706
   12.840    4.4760
   12.870    6.0032
   12.900    8.2359
   12.930    9.5313
   12.960    8.7730
   12.990    5.9716
   13.020    4.0021
   13.050    3.7915
   13.080    3.4860
   13.110    3.6230
   13.140    3.6335
   13.170    3.7177
   13.200    3.6335
   13.230    3.5387
   13.260    3.6756
   13.290    3.3913
   13.320    3.7809
   13.350    3.8968
   13.380    3.9600
   13.410    4.0969
   13.440    4.6445
   13.470    5.3186
   13.500    6.5508
   13.530    6.5613
   13.560    5.8978
   13.590    4.3707
   13.620    3.5387
   13.650    3.7493
   13.680    3.6124
   13.710    3.4966
   13.740    3.8968
   13.770    3.6862
   13.800    3.7388
   13.830    3.5914
   13.860    3.5387
   13.890    3.6862
   13.920    3.9179
   13.950    4.0969
   13.980    4.7709
   14.010    5.7820
   14.040    7.5408
   14.070    8.7730
   14.100    7.9200
   14.130    5.4660
   14.160    3.9073
   14.190    3.4860
   14.220    3.5282
   14.250    3.4544
   14.280    3.8336
   14.310    3.6124
   14.340    3.4544
   14.370    3.7072
   14.400    3.6756
   14.430    3.5071
   14.460    3.5914
   14.490    3.3913
   14.520    3.6019
   14.550    3.5492
   14.580    3.6546
   14.610    3.5914
   14.640    3.6019
   14.670    3.5808
   14.700    3.8231
   14.730    3.4018
   14.760    3.4123
   14.790    3.5071
   14.820    3.9600
   14.850    3.4966
   14.880    3.5703
   14.910    3.5914
   14.940    3.5387
   14.970    3.6862
   15.000    3.3807
   15.030    3.4966
   15.060    4.2022
   15.090    4.1074
   15.120    4.8973
   15.150    4.7499
   15.180    3.9494
   15.210    3.6967
   15.240    3.5282
   15.270    3.4755
   15.300    3.4650
   15.330    3.6651
   15.360    3.3702
   15.390    3.7493
   15.420    3.8125
   15.450    3.3913
   15.480    3.5492
   15.510    3.6440
   15.540    3.4229
   15.570    3.6335
   15.600    3.6651
   15.630    3.5598
   15.660    3.6546
   15.690    3.5387
   15.720    3.3913
   15.750    3.4229
   15.780    3.8125
   15.810    3.9179
   15.840    3.7493
   15.870    3.6862
   15.900    3.7493
   15.930    3.4860
   15.960    3.7915
   15.990    3.4123
   16.020    3.6230
   16.050    3.8231
   16.080    4.3918
   16.110    4.7709
   16.140    4.5287
   16.170    3.8757
   16.200    3.4860
   16.230    3.6967
   16.260    3.8968
   16.290    3.4755
   16.320    3.7599
   16.350    3.5808
   16.380    3.5914
   16.410    3.4755
   16.440    3.6967
   16.470    3.9916
   16.500    3.8020
   16.530    4.2338
   16.560    5.0764
   16.590    5.2554
   16.620    4.7499
   16.650    4.0021
   16.680    3.8547
   16.710    3.6335
   16.740    3.5282
   16.770    3.5176
   16.800    3.8336
   16.830    3.6019
   16.860    3.5387
   16.890    3.7599
   16.920    3.9073
   16.950    4.3075
   16.980    5.0553
   17.010    7.0458
   17.040    8.1306
   17.070    7.7725
   17.100    5.6661
   17.130    4.2865
   17.160    3.4334
   17.190    3.5703
   17.220    3.8757
   17.250    3.7177
   17.280    3.5914
   17.310    3.6546
   17.340    3.8863
   17.370    3.6124
   17.400    3.4860
   17.430    3.7809
   17.460    4.6445
   17.490    4.8763
   17.520    4.1811
   17.550    4.0969
   17.580    3.5703
   17.610    3.6019
   17.640    3.4334
   17.670    3.3175
   17.700    3.4229
   17.730    3.5282
   17.760    3.4018
   17.790    3.9179
   17.820    3.8125
   17.850    3.6756
   17.880    3.7493
   17.910    4.7183
   17.940    4.5498
   17.970    4.4971
   18.000    3.7599
   18.030    3.6651
   18.060    3.7599
   18.090    3.6230
   18.120    3.4650
   18.150    3.6651
   18.180    3.5703
   18.210    3.7072
   18.240    3.7493
   18.270    3.8547
   18.300    4.0232
   18.330    4.6235
   18.360    5.0026
   18.390    4.5603
   18.420    3.8441
   18.450    3.6019
   18.480    3.8863
   18.510    3.6756
   18.540    3.4544
   18.570    3.3070
   18.600    3.7388
   18.630    3.6546
   18.660    3.7388
   18.690    3.7704
   18.720    3.9494
   18.750    3.6019
   18.780    4.2654
   18.810    4.1074
   18.840    3.7177
   18.870    3.8652
   18.900    3.5703
   18.930    4.3602
   18.960    4.3181
   18.990    4.6551
   19.020    3.8968
   19.050    3.7809
   19.080    3.7177
   19.110    3.9916
   19.140    3.5176
   19.170    4.2338
   19.200    3.8968
   19.230    4.0653
   19.260    3.6967
   19.290    3.6756
   19.320    3.3386
   19.350    3.6546
   19.380    3.6335
   19.410    3.6756
   19.440    3.5703
   19.470    3.5176
   19.500    3.7177
   19.530    4.5603
   19.560    4.9289
   19.590    5.1606
   19.620    4.9710
   19.650    4.1706
   19.680    3.5598
   19.710    3.6440
   19.740    3.5598
   19.770    3.9284
   19.800    3.6756
   19.830    3.7072
   19.860    3.6651
   19.890    3.6967
   19.920    3.8863
   19.950    4.0232
   19.980    3.7704
   20.010    4.0021
   20.040    3.5598
   20.070    3.6440
   20.100    3.7809
   20.130    3.6335
   20.160    3.9494
   20.190    3.5598
   20.220    3.9284
   20.250    3.7283
   20.280    4.1496
   20.310    5.7293
   20.340    6.7720
   20.370    7.0248
   20.400    6.4244
   20.430    5.0974
   20.460    4.1285
   20.490    3.8863
   20.520    3.7283
   20.550    3.5492
   20.580    3.8020
   20.610    3.6335
   20.640    3.6862
   20.670    3.8336
   20.700    3.7388
   20.730    3.6546
   20.760    3.6756
   20.790    3.8863
   20.820    3.8336
   20.850    3.6019
   20.880    3.9389
   20.910    3.7283
   20.940    3.6756
   20.970    3.9916
   21.000    3.6124
   21.030    3.5492
   21.060    3.9179
   21.090    3.5071
   21.120    3.8336
   21.150    3.4860
   21.180    3.6124
   21.210    3.6756
   21.240    4.0021
   21.270    3.8231
   21.300    3.5703
   21.330    3.4439
   21.360    3.6756
   21.390    3.7283
   21.420    3.6124
   21.450    3.8968
   21.480    3.5808
   21.510    3.8441
   21.540    3.7388
   21.570    3.4018
   21.600    3.7072
   21.630    3.4650
   21.660    3.3807
   21.690    3.5492
   21.720    3.6019
   21.750    3.7072
   21.780    4.1390
   21.810    4.5603
   21.840    4.8341
   21.870    5.0448
   21.900    4.6656
   21.930    3.8125
   21.960    3.7599
   21.990    3.6124
   22.020    3.6756
   22.050    3.7493
   22.080    3.9600
   22.110    3.5598
   22.140    4.4234
   22.170    4.5498
   22.200    4.8236
   22.230    4.4550
   22.260    4.2022
   22.290    3.9073
   22.320    3.6967
   22.350    3.4229
   22.380    3.8968
   22.410    3.9073
   22.440    3.6546
   22.470    4.8868
   22.500    5.9926
   22.530    7.4144
   22.560    7.4144
   22.590    6.1927
   22.620    5.1711
   22.650    3.7809
   22.680    3.7072
   22.710    3.6230
   22.740    3.7072
   22.770    4.0337
   22.800    4.2654
   22.830    5.2238
   22.860    6.7404
   22.890    7.7725
   22.920    6.8352
   22.950    5.5398
   22.980    4.3813
   23.010    4.0548
   23.040    3.9073
   23.070    4.1074
   23.100    4.0021
   23.130    4.3918
   23.160    4.2549
   23.190    4.6130
   23.220    5.1711
   23.250    4.7815
   23.280    4.2127
   23.310    4.0337
   23.340    3.7283
   23.370    3.8863
   23.400    3.5598
   23.430    3.5492
   23.460    3.8757
   23.490    3.7493
   23.520    3.6440
   23.550    3.5598
   23.580    4.0758
   23.610    3.8336
   23.640    3.8652
   23.670    3.6862
   23.700    3.9073
   23.730    3.8547
   23.760    3.6440
   23.790    3.7388
   23.820    3.8757
   23.850    4.2970
   23.880    4.5392
   23.910    4.8657
   23.940    4.6551
   23.970    3.9284
   24.000    3.8231
   24.030    3.7599
   24.060    3.7388
   24.090    3.7283
   24.120    3.7493
   24.150    3.8231
   24.180    3.5808
   24.210    3.2859
   24.240    3.7599
   24.270    3.8547
   24.300    3.6440
   24.330    3.7809
   24.360    3.7493
   24.390    3.4123
   24.420    3.6124
   24.450    3.8757
   24.480    4.1074
   24.510    3.8336
   24.540    3.8863
   24.570    3.7388
   24.600    3.9916
   24.630    3.7072
   24.660    3.7072
   24.690    3.7388
   24.720    3.5914
   24.750    3.8020
   24.780    3.1806
   24.810    3.5808
   24.840    3.7493
   24.870    3.9705
   24.900    3.6546
   24.930    3.8547
   24.960    3.5703
   24.990    3.3597
   25.020    3.6124
   25.050    3.7072
   25.080    3.4755
   25.110    3.7493
   25.140    3.8336
   25.170    4.3602
   25.200    3.9705
   25.230    3.8547
   25.260    3.7915
   25.290    3.6546
   25.320    3.4439
   25.350    3.6230
   25.380    3.4860
   25.410    3.7072
   25.440    3.7809
   25.470    3.9916
   25.500    4.0021
   25.530    4.1706
   25.560    3.5071
   25.590    3.6967
   25.620    3.6335
   25.650    3.6019
   25.680    3.7388
   25.710    4.0864
   25.740    5.0974
   25.770    5.7609
   25.800    6.4982
   25.830    6.1401
   25.860    5.0132
   25.890    3.9494
   25.920    3.4123
   25.950    3.4439
   25.980    3.4966
   26.010    3.5071
   26.040    3.4650
   26.070    3.6440
   26.100    3.5071
   26.130    3.9179
   26.160    3.6230
   26.190    3.5282
   26.220    3.3491
   26.250    3.4544
   26.280    3.4966
   26.310    3.5176
   26.340    4.0126
   26.370    3.9494
   26.400    4.1285
   26.430    4.4444
   26.460    4.3181
   26.490    3.9179
   26.520    3.5282
   26.550    3.4544
   26.580    3.4123
   26.610    3.2122
   26.640    3.3070
   26.670    3.1806
   26.700    3.5176
   26.730    3.1912
   26.760    3.4650
   26.790    3.4544
   26.820    3.4860
   26.850    3.4650
   26.880    3.4966
   26.910    3.7493
   26.940    3.8547
   26.970    4.3918
   27.000    4.4760
   27.030    4.5392
   27.060    4.2338
   27.090    4.0758
   27.120    3.4229
   27.150    3.5387
   27.180    3.5071
   27.210    3.4966
   27.240    3.1912
   27.270    3.3491
   27.300    3.7388
   27.330    3.4860
   27.360    3.4650
   27.390    3.4334
   27.420    3.4755
   27.450    3.4966
   27.480    3.6019
   27.510    3.8441
   27.540    4.2654
   27.570    4.2443
   27.600    4.3813
   27.630    4.0126
   27.660    3.8231
   27.690    3.2543
   27.720    3.4966
   27.750    3.4860
   27.780    3.4439
   27.810    3.7704
   27.840    3.8547
   27.870    3.8125
   27.900    4.1390
   27.930    4.3602
   27.960    4.3181
   27.990    4.1390
   28.020    4.3707
   28.050    4.1180
   28.080    3.8863
   28.110    4.3813
   28.140    4.6445
   28.170    4.7604
   28.200    4.4023
   28.230    3.8020
   28.260    3.6651
   28.290    3.3281
   28.320    3.5282
   28.350    3.4229
   28.380    4.1390
   28.410    4.4128
   28.440    4.4444
   28.470    4.3075
   28.500    3.9600
   28.530    3.5598
   28.560    3.3491
   28.590    3.5492
   28.620    3.3175
   28.650    3.1912
   28.680    3.5808
   28.710    3.4018
   28.740    3.5703
   28.770    3.1174
   28.800    3.2227
   28.830    3.2438
   28.860    3.1912
   28.890    3.6967
   28.920    3.9600
   28.950    4.2549
   28.980    4.2654
   29.010    3.6967
   29.040    3.6019
   29.070    3.2438
   29.100    3.4439
   29.130    3.3175
   29.160    3.6862
   29.190    3.7704
   29.220    3.8441
   29.250    4.2338
   29.280    4.0864
   29.310    3.9916
   29.340    3.6546
   29.370    3.6546
   29.400    3.5071
   29.430    3.3913
   29.460    3.4123
   29.490    3.5703
   29.520    3.4123
   29.550    3.4229
   29.580    2.9910
   29.610    3.4229
   29.640    3.2227
   29.670    2.9805
   29.700    3.4123
   29.730    3.7283
   29.760    3.7809
   29.790    3.8125
   29.820    3.5071
   29.850    3.4966
   29.880    3.4650
   29.910    3.4544
   29.940    3.0964
   29.970    3.1280
   30.000    3.3597
   30.030    3.5282
   30.060    3.2227
   30.090    3.5282
   30.120    3.6756
   30.150    3.1280
   30.180    3.2649
   30.210    3.5914
   30.240    3.4229
   30.270    3.4755
   30.300    3.4018
   30.330    3.1806
   30.360    3.4860
   30.390    3.5598
   30.420    3.1280
   30.450    3.2017
   30.480    3.2017
   30.510    3.3070
   30.540    3.6967
   30.570    3.7915
   30.600    3.7809
   30.630    3.6967
   30.660    3.4966
   30.690    3.3281
   30.720    3.2543
   30.750    3.1806
   30.780    3.1174
   30.810    3.1701
   30.840    3.4650
   30.870    3.4650
   30.900    3.2859
   30.930    3.3281
   30.960    3.2122
   30.990    3.2017
   31.020    3.3386
   31.050    3.4229
   31.080    3.2649
   31.110    3.3175
   31.140    2.9910
   31.170    3.2859
   31.200    3.2649
   31.230    3.1385
   31.260    3.3597
   31.290    3.3386
   31.320    3.4123
   31.350    3.5703
   31.380    3.8441
   31.410    3.6862
   31.440    3.2543
   31.470    3.3807
   31.500    3.2227
   31.530    3.1912
   31.560    3.3597
   31.590    3.2333
   31.620    3.2649
   31.650    3.6651
   31.680    3.3597
   31.710    3.3597
   31.740    3.4966
   31.770    3.5282
   31.800    3.4544
   31.830    3.5492
   31.860    3.5703
   31.890    3.6862
   31.920    3.2859
   31.950    3.6335
   31.980    3.4966
   32.010    4.0864
   32.040    4.5919
   32.070    5.1922
   32.100    4.9605
   32.130    4.6445
   32.160    4.0548
   32.190    3.6967
   32.220    3.4229
   32.250    3.0753
   32.280    3.2543
   32.310    3.2754
   32.340    3.3491
   32.370    3.2333
   32.400    3.0648
   32.430    3.1596
   32.460    3.3807
   32.490    2.8963
   32.520    3.2965
   32.550    3.1174
   32.580    3.3702
   32.610    3.3913
   32.640    3.1596
   32.670    3.2333
   32.700    3.2122
   32.730    3.2965
   32.760    3.2649
   32.790    3.0332
   32.820    3.2438
   32.850    3.4860
   32.880    3.5914
   32.910    3.6967
   32.940    3.2754
   32.970    3.3070
   33.000    3.0226
   33.030    3.2965
   33.060    3.2227
   33.090    3.0858
   33.120    2.9595
   33.150    2.9805
   33.180    3.0964
   33.210    3.1280
   33.240    3.2227
   33.270    3.1596
   33.300    2.9700
   33.330    3.0226
   33.360    3.3281
   33.390    2.9700
   33.420    3.0332
   33.450    3.2017
   33.480    2.9595
   33.510    3.0437
   33.540    3.2017
   33.570    3.5176
   33.600    3.3597
   33.630    2.9805
   33.660    3.1912
   33.690    3.1385
   33.720    3.3597
   33.750    3.6230
   33.780    4.0442
   33.810    4.1074
   33.840    4.2549
   33.870    4.2127
   33.900    3.9916
   33.930    3.6124
   33.960    3.7283
   33.990    3.0121
   34.020    3.2965
   34.050    3.1069
   34.080    3.1174
   34.110    3.2754
   34.140    3.3281
   34.170    3.2859
   34.200    3.2017
   34.230    3.0753
   34.260    3.3807
   34.290    3.2649
   34.320    3.2333
   34.350    2.9279
   34.380    3.1069
   34.410    2.8752
   34.440    2.8436
   34.470    3.1280
   34.500    3.0437
   34.530    3.0858
   34.560    3.1912
   34.590    3.1069
   34.620    2.9068
   34.650    2.8436
   34.680    3.2649
   34.710    2.9910
   34.740    3.4544
   34.770    3.2227
   34.800    3.3491
   34.830    2.9489
   34.860    3.2649
   34.890    2.5382
   34.920    3.1385
   34.950    2.9700
   34.980    2.7067
   35.010    3.0648
   35.040    2.8225
   35.070    3.0226
   35.100    2.8647
   35.130    3.1490
   35.160    2.9279
   35.190    3.2122
   35.220    3.0121
   35.250    3.2333
   35.280    2.9700
   35.310    3.1596
   35.340    2.8436
   35.370    3.0226
   35.400    2.7383
   35.430    3.0226
   35.460    2.8436
   35.490    3.0542
   35.520    2.9595
   35.550    2.8541
   35.580    3.2122
   35.610    3.3913
   35.640    2.9595
   35.670    3.2649
   35.700    3.1280
   35.730    3.1174
   35.760    3.0226
   35.790    3.2227
   35.820    2.7593
   35.850    3.0542
   35.880    3.2438
   35.910    3.2122
   35.940    3.1806
   35.970    2.8647
   36.000    3.0121
   36.030    3.0542
   36.060    2.7488
   36.090    3.0648
   36.120    2.8541
   36.150    2.8331
   36.180    3.0753
   36.210    3.0858
   36.240    2.9173
   36.270    2.9068
   36.300    2.8963
   36.330    2.8647
   36.360    2.6646
   36.390    3.1490
   36.420    3.3913
   36.450    2.8120
   36.480    2.8963
   36.510    2.8752
   36.540    3.1596
   36.570    3.2754
   36.600    3.1280
   36.630    3.2649
   36.660    3.1596
   36.690    3.0437
   36.720    3.3070
   36.750    2.7593
   36.780    3.0226
   36.810    2.8541
   36.840    2.8752
   36.870    2.9384
   36.900    3.0121
   36.930    3.1280
   36.960    2.8857
   36.990    3.1385
   37.020    3.1490
   37.050    3.2122
   37.080    3.3175
   37.110    3.0648
   37.140    2.7488
   37.170    3.2649
   37.200    2.7067
   37.230    3.0016
   37.260    2.7278
   37.290    2.8015
   37.320    2.6856
   37.350    2.9279
   37.380    2.9068
   37.410    2.7699
   37.440    3.1385
   37.470    3.1385
   37.500    2.9595
   37.530    3.0964
   37.560    2.9489
   37.590    2.6962
   37.620    2.7067
   37.650    3.1490
   37.680    2.9700
   37.710    3.0332
   37.740    2.9279
   37.770    2.9068
   37.800    3.1174
   37.830    3.1280
   37.860    3.0964
   37.890    3.2649
   37.920    3.1806
   37.950    2.8752
   37.980    2.9910
   38.010    3.2754
   38.040    2.9173
   38.070    2.9384
   38.100    2.8857
   38.130    2.9700
   38.160    2.8541
   38.190    2.7593
   38.220    2.9068
   38.250    2.9910
   38.280    2.7278
   38.310    2.9068
   38.340    3.0016
   38.370    2.8225
   38.400    3.0858
   38.430    2.7488
   38.460    2.7383
   38.490    2.9279
   38.520    2.9595
   38.550    3.2965
   38.580    3.1490
   38.610    3.1280
   38.640    3.2122
   38.670    3.1912
   38.700    3.0753
   38.730    2.8752
   38.760    2.9489
   38.790    2.9700
   38.820    2.7067
   38.850    2.9279
   38.880    2.7699
   38.910    2.7593
   38.940    2.7593
   38.970    2.7488
   39.000    2.7488
   39.030    2.7699
   39.060    2.7067
   39.090    2.8225
   39.120    3.1280
   39.150    2.9910
   39.180    2.8963
   39.210    3.1280
   39.240    2.9384
   39.270    3.1490
   39.300    3.0858
   39.330    2.6646
   39.360    2.9068
   39.390    2.9384
   39.420    3.0016
   39.450    3.0016
   39.480    2.8120
   39.510    2.8752
   39.540    2.6962
   39.570    2.9279
   39.600    3.0437
   39.630    3.0648
   39.660    2.9595
   39.690    3.0753
   39.720    3.0016
   39.750    2.5698
   39.780    3.1912
   39.810    2.9173
   39.840    3.0542
   39.870    3.2122
   39.900    2.9489
   39.930    2.8752
   39.960    2.9068
   39.990    2.9595