File: data/PXRD/PXRD_KE-065_Cu-Ka1_film-3mm_5s-deg.xyd
    1.500   12.0590
    1.530   12.0800
    1.560   12.0800
    1.590   11.2375
    1.620   11.6588
    1.650   11.6482
    1.680   11.3849
    1.710   10.7952
    1.740   11.0900
    1.770   10.9426
    1.800   10.4792
    1.830   11.2059
    1.860   10.0158
    1.890   10.9321
    1.920   10.1316
    1.950    9.6893
    1.980    9.6472
    2.010    9.2470
    2.040    9.6367
    2.070    9.7209
    2.100    9.5208
    2.130    9.3418
    2.160    9.1732
    2.190    9.2996
    2.220    8.8257
    2.250    9.0047
    2.280    9.1943
    2.310    8.9942
    2.340    8.5624
    2.370    8.7098
    2.400    8.9415
    2.430    8.4044
    2.460    9.0679
    2.490    8.6151
    2.520    8.4571
    2.550    8.8468
    2.580    8.6677
    2.610    8.1095
    2.640    8.4992
    2.670    8.0463
    2.700    8.5097
    2.730    8.7730
    2.760    8.3412
    2.790    7.7725
    2.820    8.7098
    2.850    8.4044
    2.880    8.5097
    2.910    9.1838
    2.940    9.0047
    2.970    9.2786
    3.000    9.9842
    3.030   10.2264
    3.060   10.3107
    3.090   11.4271
    3.120   11.3639
    3.150   12.1643
    3.180   12.9963
    3.210   14.3128
    3.240   14.2075
    3.270   16.6509
    3.300   17.7357
    3.330   19.8842
    3.360   21.6430
    3.390   24.9289
    3.420   27.7093
    3.450   31.5219
    3.480   34.1864
    3.510   34.7446
    3.540   30.6477
    3.570   24.8868
    3.600   18.9363
    3.630   16.0400
    3.660   13.7757
    3.690   12.6488
    3.720   12.0906
    3.750   12.1748
    3.780   12.3012
    3.810   12.3012
    3.840   12.4803
    3.870   13.4281
    3.900   13.7125
    3.930   14.3444
    3.960   15.0816
    3.990   16.1243
    4.020   15.8820
    4.050   16.9036
    4.080   17.5040
    4.110   16.9563
    4.140   17.4408
    4.170   16.5456
    4.200   15.9874
    4.230   15.4081
    4.260   15.4924
    4.290   14.5340
    4.320   13.7230
    4.350   11.8589
    4.380   11.3849
    4.410   10.5951
    4.440    9.9105
    4.470    9.4155
    4.500    9.1101
    4.530    8.5413
    4.560    7.8462
    4.590    7.7620
    4.620    7.8462
    4.650    7.3934
    4.680    7.3828
    4.710    7.2986
    4.740    7.0879
    4.770    7.2459
    4.800    7.1406
    4.830    7.5724
    4.860    7.2880
    4.890    7.2354
    4.920    7.3512
    4.950    7.2670
    4.980    7.3091
    5.010    7.3407
    5.040    7.3618
    5.070    7.9200
    5.100    7.9200
    5.130    7.4250
    5.160    7.6672
    5.190    7.3934
    5.220    7.2565
    5.250    7.4460
    5.280    8.0674
    5.310    8.4781
    5.340    8.0358
    5.370    7.7936
    5.400    7.9516
    5.430    8.2991
    5.460    8.2043
    5.490    8.7836
    5.520    8.4992
    5.550    8.3834
    5.580    8.1306
    5.610    8.1201
    5.640    8.9626
    5.670    8.6045
    5.700    8.3307
    5.730    8.0885
    5.760    7.8462
    5.790    8.2991
    5.820    8.1833
    5.850    8.0779
    5.880    7.5935
    5.910    7.7199
    5.940    7.0985
    5.970    6.6351
    6.000    7.1617
    6.030    6.5508
    6.060    6.8562
    6.090    6.6772
    6.120    6.6667
    6.150    7.1511
    6.180    6.7404
    6.210    6.5929
    6.240    6.2243
    6.270    6.4771
    6.300    6.3086
    6.330    6.5192
    6.360    6.3823
    6.390    6.3823
    6.420    6.1611
    6.450    6.4666
    6.480    6.0453
    6.510    6.2349
    6.540    6.1295
    6.570    6.1611
    6.600    6.1085
    6.630    6.0769
    6.660    5.9294
    6.690    6.2033
    6.720    6.3296
    6.750    6.3296
    6.780    6.7088
    6.810    6.3402
    6.840    6.4982
    6.870    6.4666
    6.900    7.5408
    6.930    7.2249
    6.960    7.9621
    6.990    7.9937
    7.020    8.0463
    7.050    7.8146
    7.080    6.8352
    7.110    6.8668
    7.140    6.2665
    7.170    6.3507
    7.200    5.9294
    7.230    5.3502
    7.260    5.7609
    7.290    5.4028
    7.320    5.2238
    7.350    5.8452
    7.380    5.3397
    7.410    5.4555
    7.440    5.4871
    7.470    5.2659
    7.500    5.1606
    7.530    5.2870
    7.560    5.4134
    7.590    5.3291
    7.620    4.8657
    7.650    5.0026
    7.680    4.7920
    7.710    5.3712
    7.740    5.0974
    7.770    5.2449
    7.800    5.3291
    7.830    4.9710
    7.860    5.2870
    7.890    4.9500
    7.920    5.5608
    7.950    5.2554
    7.980    5.3923
    8.010    5.3502
    8.040    4.7709
    8.070    5.2870
    8.100    5.2238
    8.130    5.0974
    8.160    5.0342
    8.190    5.2343
    8.220    5.4766
    8.250    5.3923
    8.280    5.0764
    8.310    5.1711
    8.340    5.4028
    8.370    5.2765
    8.400    5.5187
    8.430    5.4450
    8.460    4.7393
    8.490    5.1606
    8.520    5.0974
    8.550    4.8341
    8.580    4.8025
    8.610    4.8552
    8.640    4.7920
    8.670    4.6551
    8.700    4.7393
    8.730    4.4971
    8.760    4.7920
    8.790    4.6130
    8.820    4.8657
    8.850    4.6340
    8.880    4.8973
    8.910    4.3707
    8.940    4.6235
    8.970    4.6972
    9.000    4.6130
    9.030    4.2022
    9.060    4.5076
    9.090    4.4866
    9.120    4.3391
    9.150    4.4866
    9.180    4.4444
    9.210    4.4550
    9.240    4.4023
    9.270    4.0864
    9.300    4.2865
    9.330    4.3286
    9.360    4.4339
    9.390    4.5603
    9.420    4.0758
    9.450    4.5076
    9.480    4.3813
    9.510    3.9916
    9.540    4.4339
    9.570    4.0864
    9.600    4.0548
    9.630    4.6867
    9.660    3.9916
    9.690    4.3075
    9.720    4.1285
    9.750    4.3707
    9.780    4.1496
    9.810    4.1180
    9.840    4.2443
    9.870    4.1917
    9.900    4.4128
    9.930    4.5287
    9.960    4.3918
    9.990    3.7915
   10.020    4.0653
   10.050    4.1917
   10.080    4.0548
   10.110    4.4128
   10.140    4.1074
   10.170    4.2654
   10.200    4.4760
   10.230    4.5919
   10.260    4.2233
   10.290    4.4339
   10.320    4.2970
   10.350    4.1074
   10.380    4.3602
   10.410    4.6867
   10.440    4.5708
   10.470    4.6235
   10.500    4.3813
   10.530    4.6551
   10.560    4.4339
   10.590    4.8341
   10.620    4.2654
   10.650    4.2865
   10.680    4.3391
   10.710    4.4655
   10.740    4.4760
   10.770    4.4339
   10.800    4.2338
   10.830    4.4655
   10.860    4.3286
   10.890    4.4339
   10.920    4.3181
   10.950    4.8025
   10.980    4.8341
   11.010    4.1811
   11.040    4.6972
   11.070    4.5919
   11.100    4.2022
   11.130    4.4866
   11.160    4.5498
   11.190    4.3918
   11.220    4.2549
   11.250    4.4128
   11.280    4.3497
   11.310    4.2549
   11.340    4.2970
   11.370    4.3707
   11.400    4.5603
   11.430    4.5076
   11.460    4.5076
   11.490    4.4339
   11.520    4.5498
   11.550    4.6340
   11.580    4.6656
   11.610    4.1706
   11.640    4.4444
   11.670    4.5076
   11.700    4.1917
   11.730    4.1917
   11.760    4.3602
   11.790    4.4866
   11.820    4.3813
   11.850    4.2654
   11.880    4.4550
   11.910    4.2654
   11.940    4.2654
   11.970    4.2549
   12.000    4.6340
   12.030    4.1601
   12.060    4.4866
   12.090    4.1496
   12.120    4.2443
   12.150    4.5076
   12.180    4.4655
   12.210    4.3813
   12.240    4.3813
   12.270    4.3181
   12.300    4.2443
   12.330    4.3391
   12.360    4.6761
   12.390    4.1917
   12.420    4.1496
   12.450    4.2233
   12.480    4.0232
   12.510    4.0864
   12.540    4.2233
   12.570    3.9600
   12.600    4.1917
   12.630    4.2865
   12.660    4.3497
   12.690    4.4866
   12.720    4.2759
   12.750    4.0548
   12.780    4.2549
   12.810    3.8547
   12.840    4.3391
   12.870    4.4444
   12.900    4.3286
   12.930    4.2654
   12.960    4.0758
   12.990    4.1074
   13.020    4.1706
   13.050    4.2338
   13.080    4.2127
   13.110    4.0864
   13.140    3.9284
   13.170    4.3286
   13.200    4.3602
   13.230    3.9916
   13.260    4.2022
   13.290    4.0337
   13.320    3.9284
   13.350    4.3918
   13.380    3.9810
   13.410    4.0232
   13.440    4.2549
   13.470    4.2654
   13.500    4.3602
   13.530    4.1706
   13.560    4.1496
   13.590    4.2022
   13.620    3.9179
   13.650    4.2865
   13.680    4.0337
   13.710    4.2970
   13.740    4.1496
   13.770    4.1180
   13.800    4.0021
   13.830    4.7077
   13.860    4.1706
   13.890    4.2443
   13.920    4.5498
   13.950    4.4023
   13.980    3.9916
   14.010    4.0337
   14.040    4.0021
   14.070    4.4866
   14.100    4.2759
   14.130    4.2549
   14.160    4.4760
   14.190    4.3286
   14.220    4.1390
   14.250    4.3075
   14.280    4.1706
   14.310    4.1180
   14.340    4.4444
   14.370    4.2127
   14.400    4.4655
   14.430    4.4866
   14.460    4.3813
   14.490    4.4866
   14.520    4.3707
   14.550    4.4234
   14.580    4.4655
   14.610    4.4023
   14.640    4.2338
   14.670    4.3391
   14.700    4.2022
   14.730    4.4971
   14.760    4.4339
   14.790    4.0126
   14.820    4.3813
   14.850    4.1811
   14.880    4.2865
   14.910    4.5708
   14.940    3.9284
   14.970    3.9705
   15.000    4.1390
   15.030    4.1811
   15.060    4.1390
   15.090    3.8968
   15.120    4.1706
   15.150    4.1706
   15.180    4.2338
   15.210    3.7915
   15.240    4.2338
   15.270    4.3075
   15.300    4.1496
   15.330    4.1285
   15.360    4.1074
   15.390    3.9179
   15.420    3.8968
   15.450    3.9179
   15.480    4.2127
   15.510    3.8863
   15.540    3.9494
   15.570    4.3707
   15.600    4.4023
   15.630    4.0758
   15.660    4.3391
   15.690    3.9810
   15.720    4.1285
   15.750    3.8652
   15.780    3.5808
   15.810    3.8863
   15.840    4.1917
   15.870    4.0653
   15.900    3.8652
   15.930    4.2233
   15.960    3.9810
   15.990    4.0442
   16.020    4.0969
   16.050    3.9600
   16.080    3.9284
   16.110    4.3286
   16.140    4.1390
   16.170    3.9179
   16.200    4.3075
   16.230    4.3918
   16.260    4.0442
   16.290    4.4866
   16.320    4.0126
   16.350    4.1496
   16.380    3.9073
   16.410    4.0864
   16.440    4.1180
   16.470    4.2233
   16.500    3.8757
   16.530    3.9705
   16.560    3.6440
   16.590    3.7493
   16.620    4.0758
   16.650    3.9494
   16.680    3.5914
   16.710    3.9389
   16.740    3.8336
   16.770    3.7704
   16.800    3.8757
   16.830    4.0442
   16.860    4.0337
   16.890    3.9916
   16.920    3.9810
   16.950    3.9916
   16.980    4.0969
   17.010    3.8652
   17.040    3.7599
   17.070    3.9073
   17.100    4.0232
   17.130    4.1180
   17.160    4.0442
   17.190    4.0232
   17.220    3.7915
   17.250    3.7283
   17.280    3.7704
   17.310    4.0653
   17.340    3.8125
   17.370    3.8547
   17.400    3.8336
   17.430    4.1285
   17.460    3.8968
   17.490    4.0442
   17.520    4.0337
   17.550    3.8547
   17.580    3.6335
   17.610    3.8125
   17.640    4.1496
   17.670    4.2022
   17.700    3.9073
   17.730    3.9389
   17.760    4.1811
   17.790    4.1496
   17.820    4.0653
   17.850    3.8863
   17.880    3.9389
   17.910    3.9494
   17.940    4.1180
   17.970    3.9073
   18.000    4.4339
   18.030    4.0864
   18.060    4.0337
   18.090    3.9916
   18.120    4.1285
   18.150    4.3918
   18.180    3.8231
   18.210    3.8020
   18.240    3.9810
   18.270    3.6651
   18.300    3.8863
   18.330    3.8757
   18.360    3.8547
   18.390    4.0548
   18.420    3.9916
   18.450    3.8336
   18.480    3.8757
   18.510    4.0653
   18.540    3.8652
   18.570    3.9600
   18.600    3.8863
   18.630    4.0548
   18.660    4.2549
   18.690    3.9073
   18.720    3.9284
   18.750    4.2970
   18.780    4.0969
   18.810    4.1180
   18.840    4.2022
   18.870    3.7072
   18.900    3.8652
   18.930    4.0337
   18.960    3.7809
   18.990    4.1180
   19.020    4.1496
   19.050    3.7915
   19.080    4.1285
   19.110    3.7072
   19.140    4.0442
   19.170    3.8652
   19.200    4.0126
   19.230    4.0337
   19.260    4.0758
   19.290    4.1811
   19.320    3.9705
   19.350    4.1706
   19.380    3.7809
   19.410    4.0232
   19.440    3.8757
   19.470    3.6651
   19.500    4.1180
   19.530    3.5914
   19.560    3.9705
   19.590    3.7809
   19.620    3.8336
   19.650    3.7388
   19.680    4.1390
   19.710    3.8652
   19.740    3.5914
   19.770    3.7072
   19.800    4.0021
   19.830    4.0442
   19.860    4.0126
   19.890    3.8968
   19.920    3.8336
   19.950    3.8968
   19.980    3.9810
   20.010    3.5914
   20.040    4.2549
   20.070    3.5914
   20.100    3.8125
   20.130    3.8652
   20.160    3.6967
   20.190    3.8547
   20.220    3.8441
   20.250    3.6967
   20.280    3.6756
   20.310    3.7177
   20.340    3.9810
   20.370    3.8336
   20.400    4.1496
   20.430    3.7493
   20.460    3.4018
   20.490    4.0548
   20.520    3.9600
   20.550    4.0653
   20.580    3.8020
   20.610    3.7915
   20.640    4.0548
   20.670    3.7283
   20.700    3.4650
   20.730    3.8336
   20.760    3.8020
   20.790    3.5282
   20.820    3.7599
   20.850    3.3807
   20.880    3.4650
   20.910    3.9073
   20.940    3.7072
   20.970    3.6967
   21.000    3.5808
   21.030    3.6230
   21.060    3.8125
   21.090    3.7388
   21.120    3.6440
   21.150    3.8652
   21.180    3.8757
   21.210    4.0232
   21.240    3.6546
   21.270    3.9073
   21.300    3.7704
   21.330    3.7809
   21.360    4.0653
   21.390    3.9494
   21.420    3.9705
   21.450    3.8125
   21.480    3.6335
   21.510    3.5176
   21.540    3.6862
   21.570    3.8231
   21.600    3.7493
   21.630    3.6124
   21.660    3.7388
   21.690    3.9916
   21.720    3.6335
   21.750    3.8863
   21.780    3.6019
   21.810    3.7177
   21.840    3.6124
   21.870    3.6019
   21.900    3.8020
   21.930    3.7072
   21.960    3.6967
   21.990    3.9073
   22.020    3.7599
   22.050    3.7388
   22.080    3.6440
   22.110    3.3702
   22.140    3.5492
   22.170    3.7177
   22.200    3.7388
   22.230    3.5176
   22.260    3.8020
   22.290    3.5598
   22.320    3.5703
   22.350    3.4860
   22.380    3.6862
   22.410    3.5492
   22.440    3.6124
   22.470    3.6546
   22.500    3.5492
   22.530    3.5808
   22.560    3.5071
   22.590    3.9600
   22.620    3.4544
   22.650    3.3597
   22.680    3.8757
   22.710    3.4123
   22.740    3.4650
   22.770    3.6335
   22.800    3.6651
   22.830    3.2754
   22.860    3.4229
   22.890    3.7072
   22.920    3.3175
   22.950    3.4650
   22.980    3.3597
   23.010    3.5282
   23.040    3.5387
   23.070    3.2227
   23.100    3.3702
   23.130    3.6967
   23.160    3.4229
   23.190    3.3386
   23.220    3.6967
   23.250    3.4860
   23.280    3.8125
   23.310    3.3913
   23.340    3.3702
   23.370    3.3491
   23.400    3.3702
   23.430    3.2649
   23.460    3.3597
   23.490    3.3913
   23.520    3.3070
   23.550    3.4229
   23.580    3.3386
   23.610    3.4650
   23.640    3.2754
   23.670    3.3913
   23.700    3.5387
   23.730    2.9068
   23.760    3.4229
   23.790    3.1912
   23.820    3.3597
   23.850    3.1174
   23.880    3.2859
   23.910    3.5703
   23.940    3.2227
   23.970    3.4860
   24.000    3.1596
   24.030    3.2649
   24.060    3.5071
   24.090    3.1912
   24.120    3.2438
   24.150    3.1069
   24.180    3.1385
   24.210    3.3070
   24.240    3.2754
   24.270    3.0964
   24.300    3.2543
   24.330    3.1596
   24.360    3.2438
   24.390    3.0648
   24.420    3.4755
   24.450    3.1701
   24.480    3.1701
   24.510    3.4650
   24.540    3.3070
   24.570    3.3386
   24.600    3.0226
   24.630    3.2122
   24.660    3.3702
   24.690    3.3702
   24.720    3.3913
   24.750    3.2438
   24.780    3.3597
   24.810    3.3807
   24.840    3.2965
   24.870    3.4966
   24.900    3.2017
   24.930    3.0542
   24.960    3.1069
   24.990    3.1912
   25.020    3.2754
   25.050    3.3597
   25.080    2.9489
   25.110    3.2333
   25.140    3.0332
   25.170    3.0121
   25.200    2.9279
   25.230    3.2017
   25.260    3.2649
   25.290    3.4439
   25.320    3.6019
   25.350    3.0226
   25.380    3.1385
   25.410    3.0753
   25.440    3.0858
   25.470    3.1174
   25.500    2.8541
   25.530    3.0753
   25.560    3.1280
   25.590    3.1069
   25.620    3.1174
   25.650    3.1596
   25.680    2.8963
   25.710    3.1912
   25.740    2.8647
   25.770    3.1596
   25.800    3.1069
   25.830    2.9173
   25.860    2.9279
   25.890    3.3070
   25.920    2.9279
   25.950    3.0753
   25.980    2.8963
   26.010    3.0858
   26.040    2.8963
   26.070    2.9384
   26.100    2.9595
   26.130    3.0858
   26.160    3.0753
   26.190    2.8331
   26.220    3.0648
   26.250    3.0016
   26.280    3.0226
   26.310    2.9384
   26.340    2.8752
   26.370    3.0332
   26.400    2.9068
   26.430    2.6751
   26.460    2.8436
   26.490    2.8963
   26.520    2.8120
   26.550    2.9384
   26.580    3.0858
   26.610    2.6435
   26.640    3.0753
   26.670    2.9173
   26.700    2.9068
   26.730    2.8225
   26.760    2.8541
   26.790    2.8015
   26.820    2.9489
   26.850    3.1280
   26.880    3.0332
   26.910    2.8436
   26.940    2.5171
   26.970    2.9805
   27.000    3.0542
   27.030    2.9173
   27.060    2.6330
   27.090    3.0437
   27.120    2.6224
   27.150    2.5908
   27.180    2.9279
   27.210    2.8752
   27.240    2.9173
   27.270    2.9489
   27.300    2.8436
   27.330    2.6224
   27.360    3.0964
   27.390    2.8541
   27.420    2.6119
   27.450    2.7804
   27.480    2.7699
   27.510    3.0016
   27.540    3.0226
   27.570    2.8752
   27.600    2.8541
   27.630    2.9173
   27.660    2.6435
   27.690    2.6330
   27.720    2.5382
   27.750    2.7278
   27.780    2.8225
   27.810    2.7909
   27.840    2.4434
   27.870    2.4855
   27.900    2.6962
   27.930    2.6224
   27.960    2.7488
   27.990    3.2333
   28.020    2.6540
   28.050    3.0437
   28.080    2.9279
   28.110    2.5171
   28.140    2.3591
   28.170    2.5066
   28.200    2.8752
   28.230    2.8963
   28.260    2.7278
   28.290    2.9910
   28.320    2.6224
   28.350    2.7488
   28.380    2.8857
   28.410    2.7804
   28.440    2.6962
   28.470    2.9910
   28.500    2.6224
   28.530    2.5592
   28.560    2.6224
   28.590    2.5066
   28.620    2.7172
   28.650    2.5276
   28.680    2.6751
   28.710    2.6540
   28.740    2.4223
   28.770    2.7488
   28.800    2.4855
   28.830    2.9489
   28.860    2.5276
   28.890    2.5066
   28.920    2.5171
   28.950    2.7383
   28.980    2.6014
   29.010    2.8436
   29.040    2.6224
   29.070    2.6962
   29.100    2.4855
   29.130    2.7172
   29.160    2.7067
   29.190    2.7804
   29.220    2.6224
   29.250    2.7488
   29.280    2.4961
   29.310    2.4539
   29.340    2.5803
   29.370    2.4329
   29.400    2.5698
   29.430    2.4750
   29.460    2.4855
   29.490    2.7804
   29.520    2.6540
   29.550    2.5382
   29.580    2.4223
   29.610    2.4223
   29.640    2.6119
   29.670    2.4118
   29.700    2.5487
   29.730    2.3591
   29.760    2.5171
   29.790    2.4750
   29.820    2.4118
   29.850    2.3697
   29.880    2.3170
   29.910    2.3802
   29.940    2.4118
   29.970    2.4118
   30.000    2.7067
   30.030    2.3275
   30.060    2.3591
   30.090    2.3697
   30.120    2.3381
   30.150    2.4961
   30.180    2.1906
   30.210    2.0221
   30.240    2.1801
   30.270    2.1590
   30.300    2.2854
   30.330    2.4855
   30.360    2.3381
   30.390    2.4118
   30.420    2.4013
   30.450    2.6119
   30.480    2.3486
   30.510    2.1590
   30.540    2.5803
   30.570    2.3591
   30.600    2.2538
   30.630    2.4118
   30.660    2.4118
   30.690    2.3065
   30.720    2.4645
   30.750    2.2222
   30.780    2.4961
   30.810    2.2433
   30.840    2.4013
   30.870    2.3802
   30.900    2.0958
   30.930    2.2012
   30.960    2.2433
   30.990    2.3170
   31.020    2.1590
   31.050    2.2538
   31.080    2.3065
   31.110    2.3381
   31.140    2.1696
   31.170    2.2433
   31.200    2.3591
   31.230    2.2328
   31.260    2.5382
   31.290    2.4539
   31.320    2.1485
   31.350    2.2012
   31.380    2.2538
   31.410    2.1380
   31.440    2.2328
   31.470    2.1801
   31.500    2.2643
   31.530    2.0642
   31.560    2.1906
   31.590    2.3486
   31.620    2.1380
   31.650    2.4645
   31.680    2.2328
   31.710    2.2012
   31.740    2.3065
   31.770    2.0748
   31.800    2.2328
   31.830    2.0853
   31.860    2.2433
   31.890    2.2328
   31.920    2.0432
   31.950    2.1274
   31.980    2.0221
   32.010    2.2117
   32.040    2.2959
   32.070    2.6330
   32.100    2.6330
   32.130    2.3907
   32.160    2.3170
   32.190    2.1380
   32.220    2.2012
   32.250    2.0853
   32.280    2.1801
   32.310    2.2749
   32.340    2.3591
   32.370    1.7904
   32.400    2.3381
   32.430    2.2749
   32.460    2.1380
   32.490    2.0853
   32.520    2.1906
   32.550    2.1696
   32.580    1.9379
   32.610    1.9484
   32.640    1.9905
   32.670    2.0748
   32.700    2.2328
   32.730    1.9695
   32.760    2.0958
   32.790    2.0958
   32.820    2.2538
   32.850    2.0958
   32.880    2.0116
   32.910    2.2222
   32.940    1.8852
   32.970    2.2222
   33.000    1.9379
   33.030    1.9379
   33.060    2.0853
   33.090    2.0748
   33.120    2.2854
   33.150    2.1169
   33.180    1.9063
   33.210    2.0432
   33.240    2.3486
   33.270    2.1590
   33.300    2.2117
   33.330    1.9695
   33.360    2.2328
   33.390    2.2959
   33.420    2.0221
   33.450    2.0853
   33.480    1.9589
   33.510    1.9800
   33.540    2.0958
   33.570    2.1169
   33.600    1.8747
   33.630    2.0116
   33.660    2.0958
   33.690    1.7904
   33.720    2.0642
   33.750    2.1274
   33.780    2.0116
   33.810    2.2854
   33.840    2.1801
   33.870    2.3170
   33.900    1.8641
   33.930    2.0748
   33.960    2.0958
   33.990    1.8325
   34.020    2.0958
   34.050    2.0642
   34.080    1.9484
   34.110    2.0853
   34.140    2.2222
   34.170    2.3802
   34.200    1.7799
   34.230    2.1169
   34.260    1.9695
   34.290    2.1064
   34.320    2.2222
   34.350    1.9379
   34.380    2.0642
   34.410    1.9168
   34.440    2.1274
   34.470    2.0432
   34.500    1.9800
   34.530    1.8957
   34.560    1.8325
   34.590    1.9379
   34.620    2.0116
   34.650    2.2538
   34.680    1.8957
   34.710    1.9589
   34.740    1.8536
   34.770    2.0537
   34.800    1.8325
   34.830    2.1801
   34.860    2.0011
   34.890    1.9905
   34.920    2.0853
   34.950    2.0748
   34.980    2.0326
   35.010    1.9695
   35.040    1.9273
   35.070    1.7799
   35.100    2.1169
   35.130    1.9484
   35.160    1.8852
   35.190    1.9695
   35.220    1.9589
   35.250    1.9063
   35.280    1.9168
   35.310    2.0853
   35.340    2.1380
   35.370    2.1696
   35.400    1.9589
   35.430    2.0642
   35.460    2.1380
   35.490    1.9168
   35.520    1.7694
   35.550    2.0642
   35.580    1.8115
   35.610    1.9695
   35.640    1.9379
   35.670    2.0432
   35.700    2.0326
   35.730    1.9484
   35.760    2.1274
   35.790    2.0326
   35.820    2.0642
   35.850    1.9168
   35.880    2.1064
   35.910    2.0432
   35.940    2.0011
   35.970    1.9063
   36.000    1.8957
   36.030    1.8957
   36.060    1.8115
   36.090    1.9800
   36.120    1.9589
   36.150    2.0432
   36.180    1.8957
   36.210    1.8115
   36.240    1.9379
   36.270    1.9063
   36.300    1.9695
   36.330    1.9379
   36.360    1.8747
   36.390    2.0537
   36.420    1.9063
   36.450    1.9379
   36.480    1.8852
   36.510    2.0537
   36.540    1.6956
   36.570    1.9484
   36.600    1.8220
   36.630    2.0326
   36.660    2.0958
   36.690    1.8641
   36.720    1.8325
   36.750    1.9063
   36.780    1.8852
   36.810    1.7694
   36.840    1.9168
   36.870    1.8641
   36.900    2.0537
   36.930    1.8009
   36.960    1.8852
   36.990    1.8536
   37.020    1.8009
   37.050    1.8957
   37.080    1.8009
   37.110    1.8115
   37.140    1.9273
   37.170    1.9800
   37.200    1.9063
   37.230    1.7904
   37.260    2.0748
   37.290    2.0642
   37.320    1.8220
   37.350    2.0326
   37.380    1.8852
   37.410    1.8957
   37.440    1.6851
   37.470    1.9905
   37.500    2.0326
   37.530    1.9905
   37.560    1.8957
   37.590    1.9379
   37.620    2.0853
   37.650    2.0748
   37.680    1.8325
   37.710    1.7272
   37.740    1.7694
   37.770    2.2538
   37.800    1.9800
   37.830    2.0011
   37.860    2.0221
   37.890    1.9905
   37.920    2.0432
   37.950    2.0432
   37.980    1.9379
   38.010    1.8009
   38.040    1.9063
   38.070    1.8115
   38.100    1.8220
   38.130    1.7799
   38.160    1.7378
   38.190    1.9168
   38.220    1.9063
   38.250    1.9484
   38.280    1.9273
   38.310    2.0011
   38.340    1.9905
   38.370    1.8747
   38.400    1.7483
   38.430    1.8957
   38.460    2.0958
   38.490    1.8009
   38.520    1.9695
   38.550    1.9063
   38.580    1.7799
   38.610    1.9273
   38.640    2.0642
   38.670    1.8536
   38.700    2.1169
   38.730    1.8852
   38.760    2.0011
   38.790    1.9063
   38.820    1.8431
   38.850    2.1169
   38.880    1.8009
   38.910    1.6114
   38.940    1.9273
   38.970    1.8325
   39.000    1.9589
   39.030    2.0958
   39.060    1.8852
   39.090    1.7904
   39.120    2.0011
   39.150    1.7904
   39.180    1.9589
   39.210    1.7799
   39.240    2.0011
   39.270    1.8431
   39.300    1.5482
   39.330    1.8536
   39.360    1.8957
   39.390    1.8536
   39.420    1.8957
   39.450    1.9063
   39.480    1.6219
   39.510    1.9905
   39.540    1.5798
   39.570    1.8536
   39.600    1.7904
   39.630    1.8431
   39.660    1.7694
   39.690    1.8325
   39.720    1.8009
   39.750    1.8747
   39.780    1.7588
   39.810    1.7799
   39.840    1.8641
   39.870    1.8325
   39.900    1.9589
   39.930    1.6956
   39.960    1.7588
   39.990    1.7062