File: data/PXRD/PXRD_KE-165_Cu-Ka1_capillary-1mm_5s-deg.xyd
    1.500   28.7941
    1.530   27.9410
    1.560   27.6567
    1.590   25.7715
    1.620   25.2975
    1.650   23.7177
    1.680   23.4229
    1.710   23.0437
    1.740   21.6640
    1.770   20.3791
    1.800   19.7472
    1.830   19.0205
    1.860   19.6525
    1.890   18.4834
    1.920   17.4092
    1.950   17.0616
    1.980   16.6614
    2.010   16.0927
    2.040   15.6609
    2.070   14.8499
    2.100   14.7025
    2.130   14.3233
    2.160   14.0600
    2.190   13.2491
    2.220   13.1754
    2.250   13.1016
    2.280   12.8699
    2.310   12.0906
    2.340   11.3955
    2.370   11.8799
    2.400   11.4271
    2.430   11.6904
    2.460   11.8273
    2.490   11.4060
    2.520   10.7425
    2.550   11.1006
    2.580   10.3002
    2.610   10.0895
    2.640   10.6477
    2.670    9.7841
    2.700   10.0790
    2.730    9.8999
    2.760   10.2264
    2.790    9.4892
    2.820    9.1206
    2.850    9.3523
    2.880    9.2680
    2.910    8.9205
    2.940    8.9205
    2.970    9.1943
    3.000    9.0574
    3.030    8.7309
    3.060    8.9521
    3.090    9.1943
    3.120    8.7204
    3.150    8.2991
    3.180    8.8468
    3.210    8.6045
    3.240    9.0047
    3.270    8.5097
    3.300    8.7098
    3.330    8.6783
    3.360    8.6572
    3.390    8.8362
    3.420    8.8889
    3.450    8.7204
    3.480    9.2364
    3.510    8.9310
    3.540    8.9205
    3.570    9.1732
    3.600    9.1522
    3.630    9.3312
    3.660    9.6261
    3.690    9.9315
    3.720   10.1948
    3.750   10.7004
    3.780   11.1532
    3.810   11.7641
    3.840   13.8915
    3.870   16.9036
    3.900   15.5977
    3.930   11.6166
    3.960    7.3196
    3.990    6.7088
    4.020    6.7088
    4.050    7.0563
    4.080    6.7930
    4.110    6.7615
    4.140    6.4244
    4.170    6.4034
    4.200    7.0879
    4.230    6.7193
    4.260    6.6667
    4.290    6.6877
    4.320    6.7720
    4.350    7.0774
    4.380    6.3086
    4.410    6.2770
    4.440    6.8562
    4.470    6.6772
    4.500    6.3296
    4.530    6.3086
    4.560    6.3086
    4.590    6.4034
    4.620    6.2770
    4.650    5.9400
    4.680    5.9505
    4.710    6.5192
    4.740    6.1295
    4.770    6.4771
    4.800    6.3191
    4.830    6.4034
    4.860    6.0979
    4.890    6.4982
    4.920    6.0137
    4.950    6.3928
    4.980    6.2033
    5.010    6.2981
    5.040    6.5192
    5.070    6.0769
    5.100    6.4771
    5.130    6.3928
    5.160    6.3718
    5.190    6.2875
    5.220    6.0032
    5.250    6.3928
    5.280    6.5087
    5.310    6.6772
    5.340    6.4034
    5.370    6.7193
    5.400    6.7509
    5.430    7.1511
    5.460    6.6667
    5.490    7.3618
    5.520    7.8778
    5.550    6.3086
    5.580    6.1611
    5.610    6.2243
    5.640    5.7609
    5.670    6.1717
    5.700    5.9084
    5.730    6.0664
    5.760    5.7188
    5.790    6.3718
    5.820    6.2981
    5.850    5.6661
    5.880    5.8557
    5.910    6.2559
    5.940    5.7925
    5.970    6.2033
    6.000    5.8557
    6.030    6.2559
    6.060    5.6240
    6.090    6.1717
    6.120    6.1506
    6.150    6.1822
    6.180    6.1822
    6.210    6.0664
    6.240    5.9084
    6.270    5.7820
    6.300    5.4344
    6.330    5.8241
    6.360    6.0137
    6.390    5.4766
    6.420    6.2349
    6.450    5.5714
    6.480    5.8978
    6.510    5.7399
    6.540    6.1717
    6.570    5.5924
    6.600    6.2981
    6.630    6.0874
    6.660    5.9084
    6.690    6.4560
    6.720    6.2243
    6.750    6.1717
    6.780    6.0453
    6.810    6.0348
    6.840    5.7609
    6.870    5.9716
    6.900    5.6345
    6.930    6.0664
    6.960    5.8136
    6.990    5.7399
    7.020    5.8031
    7.050    5.6345
    7.080    5.7504
    7.110    6.0137
    7.140    6.0137
    7.170    5.9505
    7.200    5.8557
    7.230    5.9400
    7.260    5.9716
    7.290    5.9400
    7.320    5.8768
    7.350    5.8557
    7.380    6.1085
    7.410    6.0558
    7.440    5.7188
    7.470    5.7715
    7.500    6.7825
    7.530    6.4139
    7.560    5.6240
    7.590    5.8241
    7.620    5.9505
    7.650    6.0769
    7.680    6.1190
    7.710    6.4139
    7.740    6.4560
    7.770    6.0558
    7.800    6.4244
    7.830    6.1927
    7.860    6.3507
    7.890    5.9294
    7.920    6.2454
    7.950    6.0348
    7.980    6.2033
    8.010    6.1401
    8.040    5.8452
    8.070    5.8978
    8.100    5.9610
    8.130    6.0979
    8.160    6.1190
    8.190    6.4666
    8.220    6.0769
    8.250    5.5608
    8.280    5.9716
    8.310    6.0032
    8.340    6.2033
    8.370    6.5087
    8.400    6.2243
    8.430    6.1506
    8.460    6.3612
    8.490    6.1295
    8.520    5.8241
    8.550    6.3718
    8.580    6.0137
    8.610    6.1506
    8.640    6.1506
    8.670    5.9610
    8.700    6.3928
    8.730    5.9400
    8.760    6.2454
    8.790    5.8662
    8.820    5.9294
    8.850    6.1717
    8.880    5.7820
    8.910    6.5403
    8.940    6.4560
    8.970    6.0348
    9.000    6.0558
    9.030    6.0769
    9.060    6.3507
    9.090    6.1506
    9.120    5.8031
    9.150    6.0137
    9.180    6.2454
    9.210    6.1506
    9.240    6.2454
    9.270    6.1822
    9.300    6.2454
    9.330    6.4771
    9.360    6.4034
    9.390    6.6561
    9.420    6.5613
    9.450    6.2770
    9.480    6.3612
    9.510    6.7615
    9.540    6.8352
    9.570    7.0248
    9.600    6.8984
    9.630    6.5087
    9.660    6.2875
    9.690    6.3191
    9.720    5.9821
    9.750    6.3718
    9.780    5.9084
    9.810    6.1506
    9.840    6.0453
    9.870    6.4876
    9.900    5.8768
    9.930    6.3823
    9.960    6.5403
    9.990    6.5508
   10.020    6.2033
   10.050    6.0242
   10.080    6.3191
   10.110    6.1611
   10.140    6.1401
   10.170    6.0032
   10.200    6.1927
   10.230    5.8136
   10.260    6.5613
   10.290    6.6561
   10.320    6.0979
   10.350    6.3507
   10.380    6.2770
   10.410    5.8347
   10.440    6.1190
   10.470    6.0769
   10.500    6.3191
   10.530    6.0348
   10.560    5.9084
   10.590    6.2770
   10.620    6.4034
   10.650    5.8347
   10.680    6.1085
   10.710    6.2243
   10.740    6.0032
   10.770    6.2138
   10.800    5.8557
   10.830    6.4876
   10.860    5.9610
   10.890    6.3086
   10.920    5.9189
   10.950    5.8662
   10.980    6.1506
   11.010    6.3296
   11.040    5.9189
   11.070    5.9821
   11.100    5.7715
   11.130    5.7504
   11.160    6.0348
   11.190    6.0242
   11.220    6.4244
   11.250    6.1822
   11.280    5.7820
   11.310    5.9926
   11.340    5.8873
   11.370    6.2981
   11.400    5.9400
   11.430    5.7715
   11.460    5.8768
   11.490    5.9400
   11.520    5.8241
   11.550    5.7504
   11.580    5.6767
   11.610    5.9505
   11.640    5.8873
   11.670    6.0769
   11.700    6.0769
   11.730    6.4560
   11.760    5.7609
   11.790    6.3718
   11.820    5.8662
   11.850    5.7820
   11.880    5.7293
   11.910    5.8557
   11.940    6.0664
   11.970    5.8347
   12.000    5.7504
   12.030    5.9294
   12.060    5.8136
   12.090    5.5187
   12.120    5.1290
   12.150    5.8136
   12.180    5.7715
   12.210    5.9294
   12.240    5.5187
   12.270    5.5187
   12.300    5.9189
   12.330    5.7820
   12.360    5.9294
   12.390    5.4555
   12.420    5.6767
   12.450    5.4976
   12.480    5.6872
   12.510    5.6767
   12.540    5.4766
   12.570    5.7293
   12.600    5.7820
   12.630    5.7504
   12.660    5.1501
   12.690    5.6135
   12.720    5.6767
   12.750    5.2027
   12.780    5.4976
   12.810    5.6661
   12.840    6.0032
   12.870    5.3607
   12.900    5.5714
   12.930    5.4871
   12.960    5.9189
   12.990    5.1606
   13.020    5.6556
   13.050    5.7715
   13.080    5.4555
   13.110    5.7399
   13.140    5.7399
   13.170    5.2027
   13.200    5.7609
   13.230    5.4028
   13.260    5.2765
   13.290    5.4239
   13.320    5.3502
   13.350    5.6135
   13.380    5.4976
   13.410    5.4450
   13.440    5.4976
   13.470    5.6451
   13.500    5.5187
   13.530    5.9610
   13.560    6.0242
   13.590    5.7293
   13.620    5.5714
   13.650    5.2975
   13.680    5.4239
   13.710    5.4450
   13.740    5.6556
   13.770    5.6661
   13.800    5.6135
   13.830    5.4766
   13.860    5.4028
   13.890    5.3607
   13.920    5.3818
   13.950    5.2554
   13.980    5.5924
   14.010    5.7715
   14.040    5.8978
   14.070    5.6029
   14.100    5.5714
   14.130    5.6240
   14.160    5.8136
   14.190    5.3607
   14.220    5.2133
   14.250    5.8452
   14.280    5.6135
   14.310    5.4134
   14.340    5.3186
   14.370    5.4766
   14.400    5.3081
   14.430    5.3186
   14.460    5.5292
   14.490    5.4344
   14.520    5.5608
   14.550    5.6977
   14.580    5.6135
   14.610    5.3712
   14.640    5.5819
   14.670    5.8241
   14.700    5.6135
   14.730    5.7820
   14.760    5.4134
   14.790    5.2659
   14.820    5.5398
   14.850    5.3081
   14.880    5.6767
   14.910    5.6556
   14.940    5.5608
   14.970    5.6240
   15.000    5.5503
   15.030    5.4344
   15.060    5.5292
   15.090    5.3712
   15.120    5.5819
   15.150    5.7083
   15.180    5.9505
   15.210    5.6240
   15.240    5.4555
   15.270    5.7609
   15.300    5.8031
   15.330    5.4134
   15.360    5.4660
   15.390    5.2343
   15.420    5.7925
   15.450    5.4871
   15.480    5.5608
   15.510    5.5398
   15.540    5.6345
   15.570    5.6767
   15.600    5.8136
   15.630    5.9294
   15.660    5.3818
   15.690    5.6451
   15.720    5.3502
   15.750    5.3818
   15.780    5.7820
   15.810    5.4660
   15.840    5.6556
   15.870    5.9294
   15.900    5.8241
   15.930    5.9716
   15.960    6.0874
   15.990    6.1401
   16.020    6.2559
   16.050    6.1401
   16.080    6.3086
   16.110    6.3296
   16.140    6.3612
   16.170    6.1506
   16.200    6.1717
   16.230    6.2033
   16.260    6.0137
   16.290    5.9926
   16.320    5.8347
   16.350    5.9926
   16.380    5.8031
   16.410    5.7504
   16.440    5.9505
   16.470    5.9084
   16.500    5.8662
   16.530    5.5608
   16.560    5.6767
   16.590    5.8662
   16.620    5.4344
   16.650    5.8241
   16.680    5.3923
   16.710    5.7083
   16.740    5.7715
   16.770    5.3818
   16.800    5.3712
   16.830    5.5924
   16.860    5.6556
   16.890    5.3502
   16.920    5.4766
   16.950    6.1927
   16.980    5.7293
   17.010    5.9505
   17.040    5.4028
   17.070    6.1401
   17.100    5.8241
   17.130    5.5082
   17.160    5.4555
   17.190    5.5924
   17.220    5.8978
   17.250    5.6451
   17.280    5.5503
   17.310    5.1817
   17.340    5.5714
   17.370    5.5292
   17.400    5.5292
   17.430    5.5503
   17.460    5.2238
   17.490    5.5398
   17.520    5.4450
   17.550    6.0453
   17.580    5.6029
   17.610    5.8031
   17.640    5.5924
   17.670    5.3923
   17.700    6.1717
   17.730    5.8347
   17.760    5.2870
   17.790    5.4028
   17.820    5.6872
   17.850    5.6977
   17.880    5.6767
   17.910    5.6977
   17.940    5.4555
   17.970    5.8557
   18.000    6.0137
   18.030    5.4344
   18.060    5.5924
   18.090    5.5292
   18.120    5.5398
   18.150    5.7820
   18.180    5.3712
   18.210    5.5398
   18.240    5.5503
   18.270    5.7188
   18.300    5.6872
   18.330    5.8136
   18.360    5.3291
   18.390    5.4134
   18.420    5.6135
   18.450    6.2243
   18.480    5.7820
   18.510    5.6240
   18.540    5.7399
   18.570    5.2975
   18.600    5.6451
   18.630    5.1922
   18.660    5.6556
   18.690    5.8031
   18.720    5.4766
   18.750    5.8031
   18.780    5.5924
   18.810    5.4134
   18.840    5.5187
   18.870    5.5292
   18.900    5.3607
   18.930    5.6240
   18.960    5.6345
   18.990    5.5608
   19.020    5.4555
   19.050    5.7504
   19.080    5.3502
   19.110    5.2870
   19.140    5.5608
   19.170    5.6977
   19.200    5.6977
   19.230    5.6661
   19.260    5.8031
   19.290    5.9926
   19.320    5.4239
   19.350    5.6135
   19.380    5.5819
   19.410    5.4976
   19.440    5.7293
   19.470    5.8241
   19.500    5.7083
   19.530    5.6556
   19.560    5.5292
   19.590    5.5714
   19.620    5.4344
   19.650    5.4871
   19.680    5.9084
   19.710    5.2449
   19.740    5.4239
   19.770    5.6977
   19.800    5.8031
   19.830    5.9084
   19.860    6.0032
   19.890    5.5398
   19.920    5.8347
   19.950    5.6029
   19.980    5.6345
   20.010    5.7293
   20.040    5.5292
   20.070    5.5924
   20.100    5.3502
   20.130    5.8136
   20.160    5.8031
   20.190    6.0558
   20.220    5.5924
   20.250    5.4766
   20.280    5.7820
   20.310    5.2870
   20.340    5.5503
   20.370    6.4139
   20.400    5.5924
   20.430    5.8873
   20.460    5.3607
   20.490    5.4134
   20.520    5.9400
   20.550    5.9610
   20.580    5.9294
   20.610    5.2659
   20.640    5.6661
   20.670    5.7925
   20.700    5.5714
   20.730    5.6029
   20.760    5.6451
   20.790    5.6872
   20.820    5.5608
   20.850    5.5187
   20.880    5.9294
   20.910    5.8557
   20.940    5.5819
   20.970    5.8031
   21.000    5.6029
   21.030    5.7820
   21.060    5.5503
   21.090    5.3607
   21.120    5.3502
   21.150    5.6661
   21.180    5.8768
   21.210    5.6767
   21.240    5.7820
   21.270    5.3291
   21.300    5.6345
   21.330    5.1080
   21.360    5.7820
   21.390    5.8136
   21.420    5.6240
   21.450    5.6977
   21.480    5.6556
   21.510    5.5714
   21.540    5.7293
   21.570    5.9084
   21.600    5.6977
   21.630    5.6240
   21.660    5.2027
   21.690    5.6767
   21.720    5.6661
   21.750    5.8662
   21.780    6.0242
   21.810    5.6767
   21.840    6.3086
   21.870    5.6029
   21.900    5.5398
   21.930    5.6345
   21.960    5.6977
   21.990    5.5714
   22.020    6.0453
   22.050    6.1506
   22.080    5.5924
   22.110    5.6451
   22.140    5.7925
   22.170    5.7609
   22.200    5.7504
   22.230    5.6345
   22.260    5.5819
   22.290    5.9610
   22.320    5.6135
   22.350    5.3818
   22.380    5.6872
   22.410    5.6451
   22.440    5.0658
   22.470    5.8031
   22.500    5.8557
   22.530    6.0348
   22.560    6.0453
   22.590    5.6556
   22.620    5.9821
   22.650    5.6135
   22.680    5.7399
   22.710    5.7399
   22.740    5.5714
   22.770    5.9400
   22.800    5.3818
   22.830    5.6661
   22.860    6.1295
   22.890    5.8347
   22.920    6.0242
   22.950    5.7609
   22.980    5.5292
   23.010    5.7609
   23.040    5.5608
   23.070    5.9294
   23.100    5.8873
   23.130    5.6661
   23.160    5.4134
   23.190    5.8557
   23.220    5.8978
   23.250    5.4450
   23.280    5.3397
   23.310    5.5608
   23.340    5.4028
   23.370    5.6240
   23.400    5.8978
   23.430    5.9084
   23.460    5.6556
   23.490    5.3712
   23.520    5.9400
   23.550    5.4239
   23.580    5.5398
   23.610    5.7293
   23.640    5.5503
   23.670    5.6767
   23.700    5.6240
   23.730    5.5819
   23.760    5.6345
   23.790    5.6977
   23.820    5.7083
   23.850    5.2765
   23.880    5.6977
   23.910    5.5503
   23.940    5.4028
   23.970    5.6135
   24.000    5.9189
   24.030    5.9189
   24.060    5.7925
   24.090    5.7083
   24.120    5.5819
   24.150    5.8452
   24.180    5.5082
   24.210    5.4450
   24.240    5.8873
   24.270    5.7609
   24.300    5.6767
   24.330    5.6135
   24.360    5.5292
   24.390    5.6451
   24.420    5.3291
   24.450    5.4660
   24.480    5.8241
   24.510    5.6767
   24.540    5.6556
   24.570    5.4660
   24.600    5.2765
   24.630    5.5819
   24.660    5.7293
   24.690    5.4239
   24.720    5.5714
   24.750    5.2027
   24.780    5.5819
   24.810    5.6767
   24.840    5.7293
   24.870    5.3081
   24.900    5.3186
   24.930    5.3186
   24.960    5.1922
   24.990    5.5187
   25.020    5.5608
   25.050    5.3397
   25.080    5.5503
   25.110    5.3607
   25.140    5.7609
   25.170    5.6661
   25.200    5.3607
   25.230    5.7609
   25.260    5.5819
   25.290    5.5819
   25.320    5.2027
   25.350    5.4344
   25.380    5.4976
   25.410    5.4134
   25.440    5.6345
   25.470    5.1395
   25.500    5.8452
   25.530    5.3397
   25.560    5.6029
   25.590    5.8978
   25.620    5.5608
   25.650    5.1817
   25.680    5.3923
   25.710    5.1711
   25.740    5.5503
   25.770    5.6767
   25.800    5.5292
   25.830    5.4976
   25.860    5.7504
   25.890    5.5503
   25.920    5.6872
   25.950    5.6872
   25.980    5.5819
   26.010    5.6872
   26.040    5.2027
   26.070    5.5398
   26.100    5.2870
   26.130    5.2027
   26.160    5.2765
   26.190    5.4555
   26.220    5.6135
   26.250    5.5082
   26.280    5.1922
   26.310    5.3712
   26.340    5.3291
   26.370    5.1395
   26.400    5.2027
   26.430    5.7293
   26.460    5.3712
   26.490    5.5714
   26.520    5.2765
   26.550    5.5187
   26.580    5.3607
   26.610    5.2133
   26.640    5.4976
   26.670    5.0237
   26.700    5.4450
   26.730    5.3607
   26.760    5.4028
   26.790    5.1395
   26.820    5.2449
   26.850    5.5608
   26.880    5.0026
   26.910    5.5082
   26.940    5.3397
   26.970    5.6556
   27.000    5.3081
   27.030    5.6345
   27.060    5.1922
   27.090    5.3923
   27.120    5.4871
   27.150    5.4239
   27.180    5.1817
   27.210    5.4660
   27.240    5.1185
   27.270    5.2659
   27.300    5.1606
   27.330    5.4976
   27.360    5.1606
   27.390    5.4450
   27.420    5.0342
   27.450    5.5608
   27.480    5.2765
   27.510    5.2027
   27.540    5.1606
   27.570    5.4239
   27.600    5.0553
   27.630    5.0553
   27.660    5.3397
   27.690    5.4871
   27.720    5.0448
   27.750    5.7083
   27.780    5.1922
   27.810    5.2133
   27.840    5.2975
   27.870    5.0553
   27.900    5.4028
   27.930    5.2659
   27.960    5.1501
   27.990    5.0974
   28.020    4.9078
   28.050    5.1501
   28.080    5.1395
   28.110    5.1290
   28.140    4.9500
   28.170    5.4344
   28.200    5.2975
   28.230    5.2238
   28.260    5.2870
   28.290    5.2870
   28.320    5.1501
   28.350    5.0342
   28.380    5.2238
   28.410    5.2449
   28.440    5.1922
   28.470    5.1817
   28.500    4.9289
   28.530    5.3818
   28.560    4.9816
   28.590    5.2870
   28.620    4.9816
   28.650    5.2238
   28.680    4.8131
   28.710    5.0658
   28.740    4.9078
   28.770    5.2238
   28.800    5.4239
   28.830    5.1290
   28.860    5.3081
   28.890    5.3186
   28.920    5.0026
   28.950    5.0026
   28.980    5.0448
   29.010    5.0132
   29.040    5.4028
   29.070    5.1290
   29.100    5.0764
   29.130    5.3923
   29.160    4.9289
   29.190    5.0764
   29.220    4.8763
   29.250    4.9605
   29.280    5.0237
   29.310    4.9078
   29.340    5.0448
   29.370    5.1817
   29.400    5.0658
   29.430    5.4450
   29.460    5.0026
   29.490    5.0974
   29.520    5.1080
   29.550    4.7815
   29.580    4.9816
   29.610    4.8973
   29.640    4.8763
   29.670    4.9184
   29.700    5.1395
   29.730    5.2449
   29.760    4.8447
   29.790    4.8763
   29.820    4.8447
   29.850    5.1606
   29.880    4.8657
   29.910    5.0026
   29.940    4.8763
   29.970    4.8973
   30.000    4.7920
   30.030    4.8341
   30.060    4.9816
   30.090    5.1501
   30.120    5.2449
   30.150    5.1395
   30.180    5.0342
   30.210    4.8552
   30.240    5.0237
   30.270    4.9921
   30.300    5.0974
   30.330    5.2343
   30.360    4.9078
   30.390    4.8341
   30.420    4.9184
   30.450    5.0553
   30.480    5.0132
   30.510    5.1711
   30.540    4.7393
   30.570    5.0237
   30.600    5.0764
   30.630    5.1185
   30.660    4.8868
   30.690    4.8973
   30.720    4.7183
   30.750    4.9921
   30.780    4.6656
   30.810    5.2765
   30.840    5.0869
   30.870    5.0869
   30.900    4.7604
   30.930    4.8763
   30.960    4.9394
   30.990    5.0448
   31.020    4.9289
   31.050    4.8868
   31.080    4.9921
   31.110    4.6130
   31.140    4.5392
   31.170    5.0448
   31.200    4.8973
   31.230    4.8025
   31.260    5.1817
   31.290    5.0974
   31.320    4.9605
   31.350    4.8131
   31.380    5.2449
   31.410    5.1817
   31.440    5.0342
   31.470    4.7499
   31.500    4.8447
   31.530    4.7815
   31.560    5.0132
   31.590    4.7709
   31.620    4.8552
   31.650    5.2133
   31.680    5.1185
   31.710    4.9710
   31.740    4.7288
   31.770    4.9921
   31.800    4.7393
   31.830    4.7393
   31.860    5.0869
   31.890    5.0237
   31.920    5.0448
   31.950    5.1290
   31.980    4.4971
   32.010    5.4555
   32.040    5.4555
   32.070    5.0448
   32.100    4.8447
   32.130    4.7288
   32.160    4.8657
   32.190    4.8236
   32.220    4.7709
   32.250    4.6656
   32.280    5.3291
   32.310    4.7709
   32.340    4.6235
   32.370    4.6972
   32.400    4.9078
   32.430    4.8131
   32.460    4.5603
   32.490    4.7393
   32.520    4.8447
   32.550    4.7499
   32.580    4.8552
   32.610    4.6130
   32.640    4.5182
   32.670    4.8025
   32.700    4.5182
   32.730    4.6656
   32.760    4.6235
   32.790    4.8236
   32.820    4.8341
   32.850    4.7709
   32.880    4.3391
   32.910    4.7815
   32.940    4.2865
   32.970    4.6024
   33.000    4.6867
   33.030    4.7920
   33.060    4.7920
   33.090    4.4655
   33.120    4.9710
   33.150    4.5498
   33.180    4.5287
   33.210    4.5182
   33.240    4.7709
   33.270    4.3602
   33.300    4.3918
   33.330    4.3286
   33.360    4.6551
   33.390    4.6867
   33.420    4.2443
   33.450    4.2759
   33.480    4.3181
   33.510    4.6972
   33.540    4.4760
   33.570    4.5287
   33.600    5.0553
   33.630    4.4655
   33.660    4.2443
   33.690    4.5919
   33.720    4.5392
   33.750    4.6761
   33.780    4.6024
   33.810    4.6445
   33.840    4.4866
   33.870    4.5076
   33.900    4.3391
   33.930    4.3918
   33.960    4.4971
   33.990    4.7815
   34.020    4.2443
   34.050    4.9605
   34.080    4.4023
   34.110    5.0974
   34.140    4.4550
   34.170    4.5182
   34.200    4.6024
   34.230    4.5708
   34.260    4.3075
   34.290    4.7183
   34.320    4.4234
   34.350    4.3918
   34.380    4.4866
   34.410    4.4023
   34.440    4.5392
   34.470    4.7393
   34.500    4.3391
   34.530    4.4444
   34.560    4.4971
   34.590    4.5287
   34.620    4.5076
   34.650    4.4655
   34.680    4.4760
   34.710    4.4866
   34.740    4.3918
   34.770    4.0232
   34.800    4.5287
   34.830    4.3181
   34.860    4.4550
   34.890    4.3602
   34.920    4.4655
   34.950    4.4760
   34.980    4.2654
   35.010    4.2127
   35.040    4.4023
   35.070    4.4234
   35.100    4.2970
   35.130    4.3391
   35.160    4.4023
   35.190    4.3707
   35.220    4.3813
   35.250    4.2338
   35.280    4.4550
   35.310    4.3707
   35.340    4.2970
   35.370    4.0337
   35.400    4.2865
   35.430    4.2338
   35.460    4.0021
   35.490    4.4444
   35.520    4.2549
   35.550    4.5392
   35.580    4.2338
   35.610    4.4128
   35.640    4.2549
   35.670    4.2759
   35.700    4.4760
   35.730    4.1811
   35.760    4.6024
   35.790    4.4655
   35.820    4.4023
   35.850    4.3918
   35.880    4.2338
   35.910    4.2233
   35.940    4.3813
   35.970    3.9705
   36.000    4.5498
   36.030    4.6867
   36.060    4.1390
   36.090    4.4234
   36.120    4.2970
   36.150    4.0126
   36.180    4.2022
   36.210    4.3181
   36.240    4.2127
   36.270    3.8547
   36.300    4.1706
   36.330    4.3707
   36.360    4.3918
   36.390    4.0021
   36.420    4.1285
   36.450    4.4023
   36.480    4.4760
   36.510    4.2759
   36.540    4.0758
   36.570    4.2338
   36.600    4.3497
   36.630    4.3813
   36.660    4.2022
   36.690    4.2865
   36.720    4.2443
   36.750    4.0969
   36.780    4.2338
   36.810    4.4550
   36.840    4.1285
   36.870    4.4339
   36.900    4.5814
   36.930    4.2443
   36.960    4.1285
   36.990    4.4234
   37.020    4.2022
   37.050    4.4655
   37.080    4.2549
   37.110    4.0864
   37.140    4.2759
   37.170    4.0442
   37.200    4.0864
   37.230    4.3918
   37.260    4.2759
   37.290    4.0126
   37.320    4.0864
   37.350    4.3181
   37.380    4.1601
   37.410    4.6024
   37.440    4.1706
   37.470    4.1601
   37.500    4.2233
   37.530    4.3707
   37.560    3.8547
   37.590    4.1074
   37.620    4.1917
   37.650    4.1706
   37.680    4.0969
   37.710    4.0337
   37.740    4.0232
   37.770    4.1285
   37.800    4.1706
   37.830    4.1180
   37.860    4.1285
   37.890    4.5182
   37.920    4.0232
   37.950    3.9600
   37.980    4.2233
   38.010    4.4655
   38.040    4.1706
   38.070    4.3181
   38.100    4.2654
   38.130    4.1917
   38.160    4.1601
   38.190    4.0442
   38.220    4.2654
   38.250    4.1706
   38.280    4.4339
   38.310    4.0864
   38.340    4.2233
   38.370    3.9810
   38.400    3.9916
   38.430    4.3707
   38.460    4.2759
   38.490    3.9705
   38.520    4.2022
   38.550    4.2338
   38.580    4.0548
   38.610    4.2022
   38.640    4.0758
   38.670    4.1601
   38.700    4.3602
   38.730    4.2865
   38.760    4.1285
   38.790    4.0758
   38.820    4.3391
   38.850    4.2338
   38.880    4.4866
   38.910    4.3813
   38.940    4.5603
   38.970    4.0653
   39.000    4.2549
   39.030    4.7499
   39.060    4.7393
   39.090    4.5392
   39.120    4.7077
   39.150    4.5814
   39.180    4.7183
   39.210    4.6656
   39.240    4.6656
   39.270    4.5919
   39.300    4.4550
   39.330    4.5392
   39.360    4.2865
   39.390    4.3602
   39.420    4.2865
   39.450    4.3497
   39.480    4.6130
   39.510    4.3181
   39.540    4.3075
   39.570    4.3497
   39.600    4.3813
   39.630    4.1285
   39.660    4.2759
   39.690    4.1074
   39.720    3.7915
   39.750    4.1811
   39.780    3.9179
   39.810    4.1917
   39.840    4.2549
   39.870    3.8968
   39.900    4.0126
   39.930    4.0126
   39.960    3.8547
   39.990    3.9179