File: data/PXRD/PXRD_KE-205_Cu-Ka1_capillary-1mm_5s-deg.xyd
    1.500    7.2775
    1.530    7.2986
    1.560    7.5935
    1.590    7.2670
    1.620    7.4776
    1.650    6.9405
    1.680    6.1506
    1.710    6.6140
    1.740    6.2770
    1.770    6.4771
    1.800    6.4244
    1.830    6.1085
    1.860    5.8452
    1.890    5.6240
    1.920    5.6240
    1.950    5.4660
    1.980    5.4871
    2.010    5.2765
    2.040    4.9500
    2.070    5.1711
    2.100    4.8973
    2.130    4.9605
    2.160    4.8868
    2.190    4.7709
    2.220    4.6235
    2.250    4.2654
    2.280    4.6235
    2.310    4.5708
    2.340    4.4550
    2.370    4.2654
    2.400    4.2654
    2.430    4.3497
    2.460    4.0021
    2.490    4.1706
    2.520    4.0337
    2.550    3.9810
    2.580    3.7388
    2.610    4.1706
    2.640    3.7493
    2.670    3.7915
    2.700    4.2759
    2.730    3.7704
    2.760    3.8757
    2.790    3.6440
    2.820    3.7704
    2.850    3.6019
    2.880    3.5914
    2.910    3.4439
    2.940    3.4860
    2.970    3.5176
    3.000    3.3913
    3.030    3.3070
    3.060    3.4123
    3.090    3.6440
    3.120    3.4860
    3.150    3.2543
    3.180    3.4755
    3.210    3.3491
    3.240    3.0648
    3.270    3.3175
    3.300    3.1280
    3.330    3.1385
    3.360    3.1174
    3.390    3.3070
    3.420    2.8963
    3.450    3.2649
    3.480    2.8120
    3.510    2.8647
    3.540    2.9595
    3.570    3.1280
    3.600    2.9805
    3.630    2.8857
    3.660    2.6962
    3.690    2.7909
    3.720    2.8541
    3.750    2.8752
    3.780    2.9910
    3.810    2.7172
    3.840    2.7909
    3.870    2.9595
    3.900    2.8752
    3.930    2.5803
    3.960    2.8331
    3.990    2.7488
    4.020    2.8225
    4.050    2.8331
    4.080    2.8647
    4.110    2.8436
    4.140    2.7804
    4.170    2.6856
    4.200    2.6119
    4.230    2.5803
    4.260    2.9805
    4.290    2.7488
    4.320    2.7804
    4.350    2.5487
    4.380    2.6119
    4.410    2.5382
    4.440    2.4961
    4.470    2.7383
    4.500    2.7172
    4.530    2.7278
    4.560    2.6856
    4.590    2.9068
    4.620    2.7804
    4.650    2.6962
    4.680    2.8752
    4.710    2.9910
    4.740    2.9068
    4.770    2.8331
    4.800    2.6962
    4.830    2.9068
    4.860    2.6435
    4.890    2.7383
    4.920    2.2959
    4.950    2.8120
    4.980    2.6540
    5.010    2.5698
    5.040    2.6014
    5.070    2.6962
    5.100    2.7172
    5.130    2.5171
    5.160    2.4013
    5.190    2.5066
    5.220    2.5276
    5.250    2.4434
    5.280    2.5066
    5.310    2.6119
    5.340    2.2959
    5.370    2.5276
    5.400    2.2643
    5.430    2.2433
    5.460    2.2643
    5.490    2.7593
    5.520    2.5171
    5.550    2.7488
    5.580    2.7383
    5.610    2.7909
    5.640    2.6856
    5.670    2.6646
    5.700    2.8120
    5.730    2.6962
    5.760    2.8436
    5.790    3.0121
    5.820    2.8120
    5.850    2.8857
    5.880    2.8331
    5.910    2.7909
    5.940    2.7278
    5.970    2.7804
    6.000    3.0332
    6.030    3.0332
    6.060    2.8331
    6.090    3.2649
    6.120    3.1912
    6.150    2.9489
    6.180    3.2754
    6.210    3.1385
    6.240    3.4439
    6.270    3.5808
    6.300    3.8968
    6.330    3.9284
    6.360    4.0126
    6.390    4.6867
    6.420    4.8341
    6.450    4.7077
    6.480    5.3291
    6.510    5.2449
    6.540    5.7399
    6.570    5.8241
    6.600    5.7820
    6.630    6.1822
    6.660    6.2770
    6.690    5.9821
    6.720    5.7925
    6.750    5.4660
    6.780    5.7820
    6.810    5.8241
    6.840    5.5398
    6.870    5.2554
    6.900    4.9078
    6.930    4.7709
    6.960    5.2027
    6.990    4.6445
    7.020    5.1606
    7.050    4.9289
    7.080    4.8131
    7.110    4.3918
    7.140    4.3602
    7.170    4.4550
    7.200    4.5287
    7.230    4.0548
    7.260    4.0864
    7.290    4.0337
    7.320    3.9284
    7.350    4.5182
    7.380    3.8757
    7.410    4.0337
    7.440    3.7493
    7.470    3.4334
    7.500    3.9073
    7.530    4.0442
    7.560    3.7599
    7.590    3.9810
    7.620    3.8441
    7.650    3.9916
    7.680    3.7915
    7.710    3.7388
    7.740    3.6546
    7.770    3.6019
    7.800    3.2859
    7.830    3.1806
    7.860    2.9805
    7.890    3.4018
    7.920    2.8963
    7.950    2.7804
    7.980    2.6014
    8.010    2.7909
    8.040    2.6856
    8.070    2.8752
    8.100    2.9805
    8.130    3.0016
    8.160    3.2543
    8.190    3.4860
    8.220    3.3913
    8.250    3.4123
    8.280    3.8652
    8.310    3.7493
    8.340    4.2970
    8.370    3.9916
    8.400    4.1390
    8.430    4.0969
    8.460    4.0126
    8.490    3.8863
    8.520    3.7493
    8.550    3.5387
    8.580    3.6756
    8.610    3.3491
    8.640    3.0858
    8.670    3.1806
    8.700    3.0964
    8.730    2.9489
    8.760    2.9489
    8.790    3.0648
    8.820    2.6751
    8.850    2.7699
    8.880    2.8647
    8.910    2.7593
    8.940    2.6751
    8.970    2.5698
    9.000    2.5698
    9.030    2.4223
    9.060    2.5698
    9.090    2.3907
    9.120    2.4750
    9.150    2.2854
    9.180    2.3275
    9.210    2.0642
    9.240    2.4223
    9.270    2.1064
    9.300    2.2538
    9.330    2.4750
    9.360    2.2222
    9.390    2.1380
    9.420    2.0116
    9.450    2.0221
    9.480    2.2328
    9.510    2.3697
    9.540    2.2328
    9.570    2.2854
    9.600    2.0748
    9.630    2.0642
    9.660    2.2012
    9.690    2.1169
    9.720    2.0958
    9.750    2.2012
    9.780    1.9589
    9.810    2.0116
    9.840    2.2538
    9.870    2.1064
    9.900    2.2222
    9.930    2.0958
    9.960    2.1485
    9.990    2.2012
   10.020    2.4013
   10.050    2.1485
   10.080    2.3170
   10.110    2.2012
   10.140    2.1590
   10.170    2.0221
   10.200    2.1485
   10.230    2.1274
   10.260    2.0432
   10.290    2.4329
   10.320    2.1696
   10.350    2.1906
   10.380    2.1906
   10.410    2.7172
   10.440    2.4961
   10.470    2.7172
   10.500    2.6646
   10.530    2.5908
   10.560    2.5066
   10.590    2.5382
   10.620    2.1696
   10.650    2.5592
   10.680    2.5908
   10.710    2.6330
   10.740    2.4855
   10.770    2.6224
   10.800    2.6856
   10.830    2.7067
   10.860    2.3486
   10.890    2.7488
   10.920    2.3591
   10.950    2.6330
   10.980    2.4223
   11.010    2.1906
   11.040    2.2433
   11.070    2.4118
   11.100    2.2749
   11.130    2.0853
   11.160    1.9695
   11.190    2.1801
   11.220    1.8641
   11.250    2.3065
   11.280    2.0537
   11.310    1.9695
   11.340    2.0537
   11.370    2.1801
   11.400    2.2854
   11.430    2.0642
   11.460    2.2749
   11.490    2.2643
   11.520    2.3170
   11.550    2.5276
   11.580    2.1590
   11.610    2.1696
   11.640    2.0326
   11.670    2.0011
   11.700    2.2538
   11.730    2.1485
   11.760    2.1485
   11.790    2.1485
   11.820    2.3591
   11.850    2.1380
   11.880    2.0326
   11.910    2.1064
   11.940    2.0537
   11.970    2.0011
   12.000    2.0326
   12.030    2.1590
   12.060    2.2538
   12.090    2.0432
   12.120    2.2959
   12.150    2.2117
   12.180    1.7483
   12.210    2.1485
   12.240    2.1801
   12.270    2.1380
   12.300    2.0221
   12.330    2.1485
   12.360    2.1380
   12.390    2.0958
   12.420    2.1696
   12.450    2.0011
   12.480    2.2538
   12.510    1.9273
   12.540    2.0642
   12.570    2.3486
   12.600    2.1485
   12.630    2.1380
   12.660    2.3170
   12.690    2.3697
   12.720    2.0432
   12.750    1.8641
   12.780    2.0958
   12.810    2.0642
   12.840    2.0958
   12.870    1.9905
   12.900    2.1485
   12.930    2.0642
   12.960    1.9905
   12.990    2.2538
   13.020    2.1696
   13.050    1.9168
   13.080    1.9063
   13.110    2.1801
   13.140    2.1169
   13.170    2.1485
   13.200    2.1274
   13.230    1.9063
   13.260    1.7799
   13.290    2.2538
   13.320    1.9273
   13.350    2.1590
   13.380    1.9695
   13.410    1.8852
   13.440    1.9168
   13.470    2.1485
   13.500    1.8641
   13.530    2.0537
   13.560    2.0537
   13.590    1.9695
   13.620    2.0432
   13.650    2.1064
   13.680    2.1064
   13.710    1.7904
   13.740    2.0221
   13.770    2.0432
   13.800    1.9905
   13.830    1.7799
   13.860    1.9589
   13.890    1.9379
   13.920    1.8009
   13.950    1.9168
   13.980    2.1801
   14.010    2.0326
   14.040    2.0011
   14.070    1.9063
   14.100    1.8431
   14.130    2.1274
   14.160    1.9695
   14.190    2.1169
   14.220    2.0432
   14.250    2.1485
   14.280    2.0642
   14.310    2.2012
   14.340    2.1590
   14.370    2.1169
   14.400    2.2328
   14.430    2.0116
   14.460    2.3381
   14.490    2.3907
   14.520    2.0642
   14.550    2.3697
   14.580    2.4118
   14.610    2.2749
   14.640    2.1801
   14.670    2.2433
   14.700    2.6014
   14.730    2.5803
   14.760    2.3275
   14.790    2.3486
   14.820    2.5908
   14.850    2.4118
   14.880    2.2959
   14.910    2.2959
   14.940    2.4223
   14.970    2.5803
   15.000    2.2854
   15.030    2.4013
   15.060    2.1169
   15.090    2.2222
   15.120    2.3802
   15.150    2.6962
   15.180    2.4329
   15.210    2.3907
   15.240    2.3381
   15.270    2.5592
   15.300    2.5592
   15.330    2.0853
   15.360    2.2854
   15.390    2.6962
   15.420    2.4223
   15.450    2.4645
   15.480    2.1064
   15.510    2.3802
   15.540    2.4539
   15.570    2.2117
   15.600    2.1169
   15.630    2.3697
   15.660    2.2854
   15.690    2.2222
   15.720    2.3381
   15.750    2.0958
   15.780    2.1169
   15.810    2.2328
   15.840    2.2117
   15.870    2.1485
   15.900    2.0958
   15.930    2.1274
   15.960    1.9800
   15.990    2.2328
   16.020    2.2433
   16.050    2.3065
   16.080    2.2222
   16.110    2.1169
   16.140    2.1696
   16.170    2.0642
   16.200    2.2959
   16.230    2.4118
   16.260    2.3275
   16.290    2.1380
   16.320    2.2959
   16.350    2.3591
   16.380    2.4223
   16.410    2.2222
   16.440    2.3275
   16.470    2.2959
   16.500    2.3907
   16.530    2.5698
   16.560    2.3381
   16.590    2.3275
   16.620    2.5698
   16.650    2.7172
   16.680    2.4645
   16.710    2.1169
   16.740    2.4223
   16.770    2.3697
   16.800    2.2959
   16.830    2.1906
   16.860    2.3486
   16.890    2.0748
   16.920    2.4855
   16.950    2.2749
   16.980    2.3381
   17.010    2.4750
   17.040    2.3907
   17.070    2.2643
   17.100    2.2222
   17.130    2.2538
   17.160    2.4329
   17.190    2.5487
   17.220    2.4645
   17.250    2.3907
   17.280    2.2328
   17.310    2.3170
   17.340    2.4118
   17.370    2.3697
   17.400    2.3486
   17.430    2.3907
   17.460    2.2222
   17.490    2.3802
   17.520    2.3591
   17.550    2.2328
   17.580    2.1485
   17.610    2.2433
   17.640    2.2117
   17.670    2.2222
   17.700    2.2328
   17.730    2.4118
   17.760    2.1274
   17.790    2.2222
   17.820    2.0116
   17.850    2.3275
   17.880    2.2222
   17.910    1.9379
   17.940    2.0853
   17.970    2.1274
   18.000    2.3486
   18.030    2.0011
   18.060    2.2328
   18.090    2.0537
   18.120    2.2222
   18.150    2.1485
   18.180    2.2328
   18.210    2.2328
   18.240    2.3170
   18.270    2.4750
   18.300    2.2222
   18.330    1.9695
   18.360    1.8747
   18.390    2.3275
   18.420    2.3065
   18.450    2.2328
   18.480    2.3907
   18.510    2.1590
   18.540    2.2643
   18.570    2.2222
   18.600    2.2749
   18.630    2.5276
   18.660    2.2749
   18.690    2.4118
   18.720    2.2538
   18.750    2.6540
   18.780    2.4118
   18.810    2.6646
   18.840    2.6014
   18.870    2.6224
   18.900    2.5592
   18.930    2.7699
   18.960    2.7804
   18.990    2.8541
   19.020    2.9279
   19.050    2.7488
   19.080    2.8015
   19.110    2.6224
   19.140    3.0121
   19.170    3.1280
   19.200    2.9279
   19.230    2.9384
   19.260    2.9595
   19.290    3.0016
   19.320    2.9489
   19.350    3.0648
   19.380    2.5803
   19.410    2.7804
   19.440    2.6962
   19.470    2.7593
   19.500    2.9384
   19.530    2.7804
   19.560    2.9384
   19.590    2.6224
   19.620    2.8752
   19.650    2.7383
   19.680    2.9068
   19.710    2.8120
   19.740    2.6962
   19.770    2.7593
   19.800    2.8752
   19.830    2.7909
   19.860    3.0016
   19.890    2.8015
   19.920    2.7067
   19.950    2.8436
   19.980    2.6014
   20.010    2.6224
   20.040    2.7067
   20.070    2.7909
   20.100    2.9595
   20.130    2.9489
   20.160    2.8120
   20.190    3.0437
   20.220    2.9595
   20.250    3.0858
   20.280    2.5803
   20.310    2.8015
   20.340    2.9173
   20.370    2.7067
   20.400    2.9910
   20.430    2.6751
   20.460    2.8541
   20.490    2.8436
   20.520    2.8120
   20.550    2.7699
   20.580    2.7172
   20.610    2.7593
   20.640    2.9805
   20.670    2.7067
   20.700    2.6330
   20.730    2.8331
   20.760    2.6646
   20.790    2.4750
   20.820    2.5698
   20.850    2.8331
   20.880    2.3907
   20.910    2.6224
   20.940    2.8120
   20.970    2.6330
   21.000    2.7383
   21.030    2.6856
   21.060    2.5171
   21.090    2.6646
   21.120    2.6435
   21.150    2.7593
   21.180    2.5382
   21.210    2.7488
   21.240    2.6435
   21.270    2.5487
   21.300    2.5487
   21.330    2.5803
   21.360    2.6224
   21.390    2.5592
   21.420    2.6014
   21.450    2.5803
   21.480    2.4013
   21.510    2.6014
   21.540    2.4539
   21.570    2.4645
   21.600    2.6856
   21.630    2.2854
   21.660    2.1801
   21.690    2.5592
   21.720    2.2222
   21.750    2.4539
   21.780    2.3802
   21.810    2.4329
   21.840    2.2328
   21.870    1.9905
   21.900    2.2117
   21.930    2.2328
   21.960    2.3275
   21.990    2.3907
   22.020    2.0853
   22.050    2.2222
   22.080    2.2538
   22.110    2.2117
   22.140    2.0537
   22.170    2.3065
   22.200    2.2222
   22.230    2.0958
   22.260    2.1906
   22.290    1.9905
   22.320    2.2433
   22.350    2.2538
   22.380    2.0326
   22.410    1.8852
   22.440    1.8325
   22.470    2.3486
   22.500    2.0011
   22.530    1.7799
   22.560    1.9905
   22.590    2.3697
   22.620    2.1485
   22.650    2.0432
   22.680    2.1801
   22.710    2.0432
   22.740    1.8431
   22.770    1.8957
   22.800    1.9063
   22.830    1.9800
   22.860    2.1380
   22.890    1.8325
   22.920    1.9589
   22.950    2.1064
   22.980    1.9379
   23.010    2.0011
   23.040    1.8852
   23.070    2.1696
   23.100    2.0011
   23.130    2.0958
   23.160    1.9905
   23.190    2.0011
   23.220    2.1064
   23.250    2.2328
   23.280    1.9168
   23.310    2.1274
   23.340    2.0326
   23.370    2.1590
   23.400    2.1801
   23.430    2.0537
   23.460    2.2433
   23.490    2.0748
   23.520    1.9063
   23.550    2.1696
   23.580    1.7483
   23.610    2.1380
   23.640    1.9168
   23.670    2.0642
   23.700    1.9168
   23.730    2.3065
   23.760    2.1380
   23.790    1.8852
   23.820    2.2328
   23.850    2.0853
   23.880    1.9379
   23.910    2.0642
   23.940    1.8641
   23.970    1.8431
   24.000    2.1696
   24.030    2.0958
   24.060    2.0326
   24.090    1.9905
   24.120    1.8852
   24.150    2.0116
   24.180    2.0853
   24.210    2.1169
   24.240    1.9695
   24.270    2.0853
   24.300    2.0221
   24.330    2.0116
   24.360    1.7483
   24.390    2.0958
   24.420    1.9905
   24.450    1.9063
   24.480    1.9695
   24.510    2.1274
   24.540    1.9168
   24.570    2.0537
   24.600    2.0221
   24.630    1.9905
   24.660    1.9800
   24.690    2.0432
   24.720    1.8431
   24.750    1.8431
   24.780    2.0011
   24.810    1.8852
   24.840    1.9905
   24.870    1.8852
   24.900    1.7272
   24.930    2.2222
   24.960    1.8747
   24.990    1.9905
   25.020    1.6956
   25.050    2.1274
   25.080    1.9273
   25.110    1.8009
   25.140    1.8536
   25.170    1.6746
   25.200    1.8009
   25.230    1.9800
   25.260    1.9273
   25.290    1.6535
   25.320    1.9800
   25.350    2.0748
   25.380    1.9695
   25.410    1.8220
   25.440    1.8220
   25.470    1.7694
   25.500    1.8957
   25.530    1.9379
   25.560    1.9379
   25.590    1.9273
   25.620    1.7378
   25.650    1.7588
   25.680    1.7167
   25.710    2.0326
   25.740    1.9273
   25.770    1.6324
   25.800    1.8325
   25.830    1.8641
   25.860    1.6535
   25.890    1.6114
   25.920    1.7378
   25.950    1.7378
   25.980    1.8431
   26.010    1.6430
   26.040    1.8852
   26.070    1.9589
   26.100    1.8641
   26.130    1.8431
   26.160    1.6324
   26.190    1.8536
   26.220    1.9484
   26.250    1.8009
   26.280    1.7483
   26.310    1.6430
   26.340    1.7588
   26.370    1.7588
   26.400    1.6008
   26.430    1.7272
   26.460    1.9484
   26.490    1.8641
   26.520    1.7799
   26.550    1.6008
   26.580    1.7694
   26.610    1.7062
   26.640    1.9168
   26.670    1.7799
   26.700    1.7167
   26.730    1.6640
   26.760    1.6851
   26.790    1.6535
   26.820    1.7588
   26.850    1.6956
   26.880    1.6219
   26.910    1.6851
   26.940    1.7588
   26.970    1.5377
   27.000    1.6746
   27.030    1.5587
   27.060    1.6535
   27.090    1.7483
   27.120    1.4955
   27.150    1.8536
   27.180    1.6746
   27.210    1.6956
   27.240    1.7799
   27.270    1.5903
   27.300    1.5166
   27.330    1.5798
   27.360    1.7799
   27.390    1.6746
   27.420    1.7483
   27.450    1.6746
   27.480    1.4955
   27.510    1.6324
   27.540    1.5377
   27.570    1.7167
   27.600    1.6746
   27.630    1.6114
   27.660    1.6008
   27.690    1.7483
   27.720    1.7588
   27.750    1.8220
   27.780    1.5061
   27.810    1.8641
   27.840    1.7904
   27.870    1.6640
   27.900    1.7272
   27.930    1.7588
   27.960    1.6324
   27.990    1.6640
   28.020    1.6640
   28.050    1.6219
   28.080    1.5377
   28.110    1.5903
   28.140    1.6219
   28.170    1.4113
   28.200    1.5587
   28.230    1.5903
   28.260    1.4007
   28.290    1.5271
   28.320    1.6640
   28.350    1.5587
   28.380    1.5377
   28.410    1.6324
   28.440    1.7062
   28.470    1.6219
   28.500    1.6219
   28.530    1.6746
   28.560    1.3902
   28.590    1.3375
   28.620    1.4850
   28.650    1.5798
   28.680    1.4745
   28.710    1.7062
   28.740    1.6640
   28.770    1.3902
   28.800    1.4850
   28.830    1.4323
   28.860    1.4745
   28.890    1.6430
   28.920    1.5482
   28.950    1.6219
   28.980    1.4745
   29.010    1.5482
   29.040    1.5903
   29.070    1.5482
   29.100    1.5061
   29.130    1.6851
   29.160    1.6324
   29.190    1.5271
   29.220    1.2954
   29.250    1.5587
   29.280    1.6114
   29.310    1.3691
   29.340    1.4745
   29.370    1.6008
   29.400    1.5587
   29.430    1.5271
   29.460    1.4113
   29.490    1.4534
   29.520    1.4218
   29.550    1.4218
   29.580    1.5903
   29.610    1.4850
   29.640    1.3797
   29.670    1.3270
   29.700    1.3902
   29.730    1.5692
   29.760    1.5482
   29.790    1.6114
   29.820    1.5377
   29.850    1.5061
   29.880    1.4007
   29.910    1.3270
   29.940    1.4007
   29.970    1.3902
   30.000    1.4323
   30.030    1.3902
   30.060    1.2638
   30.090    1.4007
   30.120    1.4007
   30.150    1.4534
   30.180    1.5587
   30.210    1.3165
   30.240    1.6746
   30.270    1.4113
   30.300    1.4007
   30.330    1.3586
   30.360    1.4429
   30.390    1.2849
   30.420    1.4534
   30.450    1.3586
   30.480    1.2638
   30.510    1.4745
   30.540    1.3586
   30.570    1.4007
   30.600    1.3902
   30.630    1.2428
   30.660    1.4218
   30.690    1.3586
   30.720    1.4639
   30.750    1.3902
   30.780    1.3375
   30.810    1.4218
   30.840    1.2322
   30.870    1.3481
   30.900    1.3691
   30.930    1.2638
   30.960    1.3165
   30.990    1.4007
   31.020    1.3165
   31.050    1.4745
   31.080    1.2638
   31.110    1.4850
   31.140    1.3691
   31.170    1.2533
   31.200    1.3797
   31.230    1.3691
   31.260    1.3165
   31.290    1.2849
   31.320    1.3691
   31.350    1.2112
   31.380    1.3165
   31.410    1.2849
   31.440    1.2849
   31.470    1.1796
   31.500    1.3165
   31.530    1.2533
   31.560    1.1690
   31.590    1.2533
   31.620    1.4534
   31.650    1.4639
   31.680    1.3375
   31.710    1.2322
   31.740    1.2849
   31.770    1.2006
   31.800    1.2428
   31.830    1.2533
   31.860    1.1901
   31.890    1.2217
   31.920    1.2849
   31.950    1.1796
   31.980    1.0742
   32.010    1.2112
   32.040    1.2533
   32.070    1.3165
   32.100    1.2112
   32.130    1.2533
   32.160    1.3060
   32.190    1.1269
   32.220    1.2217
   32.250    1.1585
   32.280    1.3691
   32.310    1.2533
   32.340    1.3165
   32.370    1.2638
   32.400    1.2954
   32.430    1.0953
   32.460    1.2533
   32.490    1.1269
   32.520    1.2428
   32.550    1.0953
   32.580    1.2428
   32.610    1.2217
   32.640    1.2006
   32.670    1.2322
   32.700    1.1164
   32.730    1.1690
   32.760    1.1796
   32.790    1.1269
   32.820    1.0321
   32.850    1.3060
   32.880    1.0532
   32.910    1.2428
   32.940    1.1480
   32.970    1.0953
   33.000    0.9268
   33.030    1.0637
   33.060    1.0005
   33.090    1.2533
   33.120    1.1585
   33.150    1.0216
   33.180    1.0848
   33.210    1.2112
   33.240    1.1585
   33.270    1.0742
   33.300    1.0111
   33.330    1.2112
   33.360    1.0953
   33.390    1.0953
   33.420    1.0532
   33.450    1.1901
   33.480    0.9795
   33.510    1.1269
   33.540    1.0848
   33.570    0.9268
   33.600    1.0953
   33.630    0.9268
   33.660    0.9689
   33.690    0.9689
   33.720    1.1690
   33.750    1.1269
   33.780    1.0216
   33.810    0.9268
   33.840    1.0321
   33.870    1.0742
   33.900    1.0848
   33.930    1.0532
   33.960    1.0216
   33.990    1.0321
   34.020    1.0637
   34.050    1.0111
   34.080    1.0532
   34.110    0.9479
   34.140    1.0742
   34.170    1.1585
   34.200    0.9900
   34.230    1.1796
   34.260    1.0111
   34.290    0.9900
   34.320    1.1269
   34.350    1.0637
   34.380    0.9900
   34.410    0.9900
   34.440    0.9584
   34.470    1.0427
   34.500    0.8741
   34.530    0.9795
   34.560    0.9479
   34.590    0.8741
   34.620    0.9900
   34.650    0.8952
   34.680    1.0005
   34.710    1.0637
   34.740    1.0216
   34.770    1.0321
   34.800    0.9795
   34.830    0.8531
   34.860    1.0532
   34.890    0.8531
   34.920    1.1058
   34.950    1.0216
   34.980    0.9057
   35.010    0.9689
   35.040    1.0005
   35.070    0.9689
   35.100    0.8636
   35.130    0.8425
   35.160    0.9900
   35.190    0.9373
   35.220    0.8741
   35.250    0.9479
   35.280    0.9584
   35.310    1.0005
   35.340    0.8110
   35.370    1.0637
   35.400    0.9900
   35.430    0.9584
   35.460    0.9057
   35.490    0.9373
   35.520    0.9057
   35.550    0.9689
   35.580    0.8320
   35.610    0.9373
   35.640    0.8952
   35.670    0.8847
   35.700    0.9163
   35.730    0.9479
   35.760    0.9900
   35.790    0.9689
   35.820    0.8952
   35.850    0.8636
   35.880    0.8215
   35.910    0.8320
   35.940    0.8425
   35.970    0.9373
   36.000    0.8320
   36.030    0.9268
   36.060    0.9795
   36.090    1.0111
   36.120    0.7583
   36.150    0.9584
   36.180    0.9057
   36.210    1.0111
   36.240    0.7688
   36.270    1.0427
   36.300    0.7478
   36.330    0.6951
   36.360    0.8215
   36.390    0.8215
   36.420    0.9584
   36.450    0.8215
   36.480    0.8320
   36.510    0.6740
   36.540    0.8215
   36.570    0.8320
   36.600    0.8004
   36.630    0.8636
   36.660    0.6846
   36.690    0.9057
   36.720    0.9057
   36.750    0.8110
   36.780    0.8741
   36.810    0.8004
   36.840    0.9795
   36.870    0.9163
   36.900    0.8952
   36.930    0.8215
   36.960    0.8320
   36.990    0.9057
   37.020    0.8425
   37.050    0.7267
   37.080    0.8636
   37.110    0.7583
   37.140    0.8110
   37.170    0.7688
   37.200    0.9268
   37.230    0.8636
   37.260    1.0005
   37.290    0.8847
   37.320    0.8741
   37.350    0.8531
   37.380    0.6635
   37.410    0.8636
   37.440    0.8004
   37.470    0.6530
   37.500    0.8531
   37.530    0.7794
   37.560    0.8847
   37.590    0.8110
   37.620    0.6951
   37.650    0.8110
   37.680    0.8741
   37.710    0.9268
   37.740    0.7688
   37.770    0.8110
   37.800    0.8215
   37.830    0.8636
   37.860    0.7267
   37.890    0.8215
   37.920    0.8425
   37.950    0.7478
   37.980    0.8847
   38.010    0.7372
   38.040    0.8110
   38.070    0.8847
   38.100    0.7267
   38.130    0.8215
   38.160    0.8531
   38.190    0.8110
   38.220    0.7688
   38.250    0.8110
   38.280    0.7583
   38.310    0.7372
   38.340    0.8741
   38.370    0.6951
   38.400    0.7794
   38.430    0.7372
   38.460    0.9057
   38.490    0.7267
   38.520    0.6214
   38.550    0.8215
   38.580    0.8741
   38.610    0.8952
   38.640    0.8004
   38.670    0.6951
   38.700    0.7899
   38.730    0.7794
   38.760    0.6951
   38.790    0.7056
   38.820    0.7372
   38.850    0.8110
   38.880    0.8215
   38.910    0.7372
   38.940    0.7688
   38.970    0.8425
   39.000    0.8320
   39.030    0.7899
   39.060    0.7583
   39.090    0.7478
   39.120    0.7267
   39.150    0.7899
   39.180    0.8952
   39.210    0.6214
   39.240    0.8425
   39.270    0.7688
   39.300    0.7478
   39.330    0.6951
   39.360    0.8004
   39.390    0.8636
   39.420    0.9268
   39.450    0.6740
   39.480    0.8004
   39.510    0.7688
   39.540    0.6951
   39.570    0.7583
   39.600    0.8952
   39.630    0.8531
   39.660    0.8741
   39.690    0.7899
   39.720    0.8320
   39.750    0.8110
   39.780    0.6846
   39.810    0.6530
   39.840    0.6740
   39.870    0.7162
   39.900    0.7162
   39.930    0.7372
   39.960    0.7583
   39.990    0.7583