File: data/PXRD/PXRD_KE-223_Co-Ka1_capillary-1mm_5s-deg.xyd
    1.500   19.6576
    1.530   19.3151
    1.560   18.1273
    1.590   17.1322
    1.620   16.0514
    1.650   14.6174
    1.680   14.7780
    1.710   13.3119
    1.740   12.8946
    1.770   12.3703
    1.800   11.8566
    1.830   10.7437
    1.860   10.5297
    1.890    9.9518
    1.920    8.8175
    1.950    8.5607
    1.980    7.9829
    2.010    8.2825
    2.040    7.8759
    2.070    7.2766
    2.100    7.4371
    2.130    6.9556
    2.160    6.8165
    2.190    6.0781
    2.220    5.9925
    2.250    5.7250
    2.280    5.5324
    2.310    5.1043
    2.340    4.7940
    2.370    4.7298
    2.400    4.5586
    2.430    4.7405
    2.460    4.2269
    2.490    4.3018
    2.520    4.1841
    2.550    3.5848
    2.580    3.6383
    2.610    3.7132
    2.640    3.4243
    2.670    3.2852
    2.700    3.6383
    2.730    3.1247
    2.760    3.0070
    2.790    2.8571
    2.820    3.1033
    2.850    2.7501
    2.880    2.8785
    2.910    2.6645
    2.940    2.8571
    2.970    2.8250
    3.000    2.6431
    3.030    2.5575
    3.060    2.2472
    3.090    2.3542
    3.120    2.3435
    3.150    2.3863
    3.180    2.1723
    3.210    2.2151
    3.240    2.0546
    3.270    1.9369
    3.300    2.0439
    3.330    1.9155
    3.360    2.0439
    3.390    1.9369
    3.420    1.8513
    3.450    1.7335
    3.480    1.9369
    3.510    2.1188
    3.540    1.7764
    3.570    1.6586
    3.600    1.7228
    3.630    1.6693
    3.660    1.6693
    3.690    1.7442
    3.720    1.7121
    3.750    1.5837
    3.780    1.5944
    3.810    1.6693
    3.840    1.4125
    3.870    1.7764
    3.900    1.4660
    3.930    1.5516
    3.960    1.6479
    3.990    1.7014
    4.020    1.6051
    4.050    1.5944
    4.080    1.6051
    4.110    1.7442
    4.140    1.2841
    4.170    1.5088
    4.200    1.5302
    4.230    1.4018
    4.260    1.4660
    4.290    1.6158
    4.320    1.1557
    4.350    1.3911
    4.380    1.4553
    4.410    1.3804
    4.440    1.3055
    4.470    1.2841
    4.500    1.5516
    4.530    1.2734
    4.560    1.3697
    4.590    1.3804
    4.620    1.2306
    4.650    1.3590
    4.680    1.3483
    4.710    1.1771
    4.740    1.1557
    4.770    1.1343
    4.800    1.3055
    4.830    1.0273
    4.860    1.3483
    4.890    1.2306
    4.920    1.2092
    4.950    1.2948
    4.980    1.3269
    5.010    1.1557
    5.040    1.1878
    5.070    1.1664
    5.100    1.1022
    5.130    1.0701
    5.160    1.1664
    5.190    1.1985
    5.220    1.2734
    5.250    1.0701
    5.280    1.1236
    5.310    1.1343
    5.340    1.2520
    5.370    1.0380
    5.400    1.2734
    5.430    1.1985
    5.460    1.2092
    5.490    1.0380
    5.520    1.0059
    5.550    1.0701
    5.580    1.1450
    5.610    1.0487
    5.640    1.1129
    5.670    1.1450
    5.700    0.9096
    5.730    0.9631
    5.760    0.9845
    5.790    1.1129
    5.820    1.0594
    5.850    1.1664
    5.880    1.1771
    5.910    1.0059
    5.940    1.0059
    5.970    1.0808
    6.000    1.1450
    6.030    1.1450
    6.060    0.9952
    6.090    1.1985
    6.120    1.0808
    6.150    0.9203
    6.180    1.0487
    6.210    1.0166
    6.240    0.9845
    6.270    1.0915
    6.300    1.1236
    6.330    1.1343
    6.360    1.0166
    6.390    1.0487
    6.420    1.1450
    6.450    0.9310
    6.480    1.0915
    6.510    1.1450
    6.540    1.0808
    6.570    0.9738
    6.600    0.8989
    6.630    1.1236
    6.660    1.2306
    6.690    1.1129
    6.720    0.9845
    6.750    1.1450
    6.780    1.1664
    6.810    1.0273
    6.840    0.9738
    6.870    0.9952
    6.900    1.0059
    6.930    0.8882
    6.960    0.8989
    6.990    0.9738
    7.020    0.9310
    7.050    0.9524
    7.080    1.1022
    7.110    1.0059
    7.140    1.0594
    7.170    1.1129
    7.200    1.0166
    7.230    0.9203
    7.260    0.8989
    7.290    0.9738
    7.320    0.8561
    7.350    0.9310
    7.380    1.0487
    7.410    1.0808
    7.440    0.8454
    7.470    1.0166
    7.500    0.9524
    7.530    0.9845
    7.560    0.9310
    7.590    0.8882
    7.620    1.0059
    7.650    0.8989
    7.680    0.8775
    7.710    0.8989
    7.740    0.8454
    7.770    1.0059
    7.800    0.9310
    7.830    0.9417
    7.860    1.0380
    7.890    0.9738
    7.920    0.9952
    7.950    0.9738
    7.980    1.0380
    8.010    1.0380
    8.040    1.1664
    8.070    1.1557
    8.100    1.1664
    8.130    1.0594
    8.160    1.0594
    8.190    0.9952
    8.220    1.0487
    8.250    1.1236
    8.280    1.1664
    8.310    1.1343
    8.340    0.9952
    8.370    1.0380
    8.400    1.0487
    8.430    1.2092
    8.460    1.1343
    8.490    1.1343
    8.520    1.1557
    8.550    1.3162
    8.580    1.1022
    8.610    1.3269
    8.640    1.3483
    8.670    1.3376
    8.700    1.1771
    8.730    1.1985
    8.760    1.0808
    8.790    1.1664
    8.820    1.1878
    8.850    1.2199
    8.880    1.3590
    8.910    1.2199
    8.940    1.2306
    8.970    1.2520
    9.000    1.2734
    9.030    1.3376
    9.060    1.1878
    9.090    1.2306
    9.120    1.1236
    9.150    1.1236
    9.180    1.3162
    9.210    1.1664
    9.240    1.2199
    9.270    1.1985
    9.300    1.1343
    9.330    1.0915
    9.360    0.9845
    9.390    1.1022
    9.420    1.2520
    9.450    1.2092
    9.480    1.2734
    9.510    1.1343
    9.540    1.1557
    9.570    0.9417
    9.600    1.2092
    9.630    0.9952
    9.660    1.1878
    9.690    1.1450
    9.720    1.1450
    9.750    1.1450
    9.780    0.9631
    9.810    1.1557
    9.840    1.1450
    9.870    0.9952
    9.900    1.1450
    9.930    1.0594
    9.960    0.8454
    9.990    0.9845
   10.020    0.7277
   10.050    1.0701
   10.080    1.1129
   10.110    0.8989
   10.140    1.1022
   10.170    1.0915
   10.200    0.9524
   10.230    1.0166
   10.260    0.9952
   10.290    0.9203
   10.320    0.8775
   10.350    0.9203
   10.380    0.9096
   10.410    1.0487
   10.440    0.8882
   10.470    0.9952
   10.500    1.1878
   10.530    1.1343
   10.560    0.9952
   10.590    0.9845
   10.620    0.9417
   10.650    0.8882
   10.680    0.8882
   10.710    1.0487
   10.740    0.9631
   10.770    0.9952
   10.800    1.0487
   10.830    0.9096
   10.860    1.0487
   10.890    0.9845
   10.920    0.9417
   10.950    0.8240
   10.980    0.8133
   11.010    0.8240
   11.040    0.9738
   11.070    0.9524
   11.100    0.9524
   11.130    0.6635
   11.160    0.9203
   11.190    0.7705
   11.220    0.8882
   11.250    0.8668
   11.280    0.8668
   11.310    0.9096
   11.340    0.7705
   11.370    0.8454
   11.400    0.8133
   11.430    0.7491
   11.460    0.8133
   11.490    1.0273
   11.520    1.0059
   11.550    0.9738
   11.580    0.9310
   11.610    0.9417
   11.640    0.9524
   11.670    0.8240
   11.700    0.8026
   11.730    0.9738
   11.760    0.9952
   11.790    1.0380
   11.820    0.9631
   11.850    0.7384
   11.880    0.7812
   11.910    0.8668
   11.940    0.8133
   11.970    0.9524
   12.000    0.7598
   12.030    0.9096
   12.060    1.0059
   12.090    0.9203
   12.120    0.9738
   12.150    0.8668
   12.180    0.8454
   12.210    0.6528
   12.240    0.8347
   12.270    0.9631
   12.300    0.8882
   12.330    0.9096
   12.360    0.8347
   12.390    0.8989
   12.420    0.7919
   12.450    0.8454
   12.480    1.0166
   12.510    0.6956
   12.540    0.8882
   12.570    0.7063
   12.600    0.7919
   12.630    0.8668
   12.660    1.0166
   12.690    0.9096
   12.720    0.7919
   12.750    0.7598
   12.780    0.8668
   12.810    0.8668
   12.840    0.7598
   12.870    0.7919
   12.900    0.9524
   12.930    0.8882
   12.960    0.8026
   12.990    0.7812
   13.020    0.6956
   13.050    0.7384
   13.080    0.7705
   13.110    0.7919
   13.140    0.8133
   13.170    0.7491
   13.200    0.8775
   13.230    0.7705
   13.260    0.7705
   13.290    0.7170
   13.320    0.7170
   13.350    0.8561
   13.380    0.8561
   13.410    0.8775
   13.440    0.8347
   13.470    0.7491
   13.500    0.7063
   13.530    0.6528
   13.560    0.7384
   13.590    0.8026
   13.620    0.6635
   13.650    0.7705
   13.680    0.8775
   13.710    0.7919
   13.740    0.6742
   13.770    0.7705
   13.800    0.7919
   13.830    0.8026
   13.860    0.6956
   13.890    0.7705
   13.920    0.8347
   13.950    0.8240
   13.980    0.8026
   14.010    0.8454
   14.040    0.7277
   14.070    0.7705
   14.100    0.7063
   14.130    0.8026
   14.160    0.7812
   14.190    0.8133
   14.220    0.7919
   14.250    0.7812
   14.280    0.9203
   14.310    0.8240
   14.340    0.8133
   14.370    0.9310
   14.400    0.7277
   14.430    0.6742
   14.460    0.8668
   14.490    0.7705
   14.520    0.7491
   14.550    0.7491
   14.580    0.7277
   14.610    0.7598
   14.640    0.8668
   14.670    0.8561
   14.700    0.7491
   14.730    0.8133
   14.760    0.7812
   14.790    0.7598
   14.820    0.8347
   14.850    0.7491
   14.880    0.6849
   14.910    0.7812
   14.940    0.7384
   14.970    0.8454
   15.000    0.7919
   15.030    0.8133
   15.060    0.7919
   15.090    0.8026
   15.120    0.9524
   15.150    0.8026
   15.180    0.6314
   15.210    0.6849
   15.240    0.7491
   15.270    0.6742
   15.300    0.8668
   15.330    0.8454
   15.360    0.6528
   15.390    0.8454
   15.420    0.7491
   15.450    0.7063
   15.480    0.8668
   15.510    0.6635
   15.540    0.7598
   15.570    0.7063
   15.600    0.7812
   15.630    0.7491
   15.660    0.7812
   15.690    0.7812
   15.720    0.8240
   15.750    0.7919
   15.780    0.6849
   15.810    0.5993
   15.840    0.5886
   15.870    0.7491
   15.900    0.8668
   15.930    0.7063
   15.960    0.6635
   15.990    0.8026
   16.020    0.6742
   16.050    0.7598
   16.080    0.7705
   16.110    0.6314
   16.140    0.7705
   16.170    0.7598
   16.200    0.6849
   16.230    0.8347
   16.260    0.5671
   16.290    0.7384
   16.320    0.6528
   16.350    0.6956
   16.380    0.7491
   16.410    0.9096
   16.440    0.7919
   16.470    0.8026
   16.500    0.7063
   16.530    0.7170
   16.560    0.7812
   16.590    0.7277
   16.620    0.6742
   16.650    0.7705
   16.680    0.8347
   16.710    0.8668
   16.740    0.8668
   16.770    0.7170
   16.800    0.7170
   16.830    0.8026
   16.860    0.7598
   16.890    0.7063
   16.920    0.8989
   16.950    0.7491
   16.980    0.8775
   17.010    0.6849
   17.040    0.8133
   17.070    0.9738
   17.100    0.6421
   17.130    0.5350
   17.160    0.6207
   17.190    0.9845
   17.220    0.8882
   17.250    0.7170
   17.280    0.6207
   17.310    0.7598
   17.340    0.7384
   17.370    0.8347
   17.400    0.7705
   17.430    0.7491
   17.460    0.6100
   17.490    0.6956
   17.520    0.7063
   17.550    0.7170
   17.580    0.7063
   17.610    0.7063
   17.640    0.6849
   17.670    0.7919
   17.700    0.7491
   17.730    0.7491
   17.760    0.7384
   17.790    0.7063
   17.820    0.7919
   17.850    0.8347
   17.880    0.8240
   17.910    0.6314
   17.940    0.8240
   17.970    0.8240
   18.000    0.7170
   18.030    0.8882
   18.060    0.6956
   18.090    0.9096
   18.120    0.8240
   18.150    0.7491
   18.180    0.9417
   18.210    0.7598
   18.240    0.7919
   18.270    0.7598
   18.300    0.6849
   18.330    0.7170
   18.360    0.7598
   18.390    0.6528
   18.420    0.8882
   18.450    0.8668
   18.480    0.6421
   18.510    0.7384
   18.540    0.7491
   18.570    0.7812
   18.600    0.7919
   18.630    0.7384
   18.660    0.7598
   18.690    0.7598
   18.720    0.8133
   18.750    0.5993
   18.780    0.8347
   18.810    0.7491
   18.840    0.7812
   18.870    0.8347
   18.900    0.8882
   18.930    0.6528
   18.960    0.9096
   18.990    0.8133
   19.020    0.7384
   19.050    0.7491
   19.080    0.7384
   19.110    0.8133
   19.140    0.7491
   19.170    0.7384
   19.200    0.7705
   19.230    0.7170
   19.260    0.7170
   19.290    0.7384
   19.320    0.7812
   19.350    0.6742
   19.380    0.7598
   19.410    0.8240
   19.440    0.7063
   19.470    0.8454
   19.500    0.7598
   19.530    0.8133
   19.560    0.7705
   19.590    0.7919
   19.620    0.7919
   19.650    0.9524
   19.680    0.7277
   19.710    0.8561
   19.740    0.9310
   19.770    0.6849
   19.800    0.7705
   19.830    0.8454
   19.860    0.7384
   19.890    0.7812
   19.920    0.7063
   19.950    0.8454
   19.980    0.6421
   20.010    0.8240
   20.040    0.7170
   20.070    0.6100
   20.100    0.8240
   20.130    0.6528
   20.160    0.8347
   20.190    0.7277
   20.220    0.6742
   20.250    0.8561
   20.280    0.7384
   20.310    0.7598
   20.340    0.7919
   20.370    0.7491
   20.400    0.9096
   20.430    0.8240
   20.460    0.6635
   20.490    0.7812
   20.520    0.7812
   20.550    0.7919
   20.580    0.8561
   20.610    0.8454
   20.640    0.8347
   20.670    0.6849
   20.700    0.7277
   20.730    0.6742
   20.760    0.8561
   20.790    0.8347
   20.820    0.8561
   20.850    0.9096
   20.880    0.8347
   20.910    0.9845
   20.940    0.8133
   20.970    0.9096
   21.000    0.7919
   21.030    0.7384
   21.060    0.8775
   21.090    0.7705
   21.120    0.8026
   21.150    0.6956
   21.180    0.8454
   21.210    0.7277
   21.240    0.7598
   21.270    0.8454
   21.300    0.8133
   21.330    0.8133
   21.360    0.6207
   21.390    0.8882
   21.420    0.8668
   21.450    0.7063
   21.480    0.8561
   21.510    0.8561
   21.540    0.7812
   21.570    0.6528
   21.600    0.7598
   21.630    0.9310
   21.660    0.8026
   21.690    0.8133
   21.720    0.8026
   21.750    0.7384
   21.780    0.9738
   21.810    0.9096
   21.840    0.8133
   21.870    0.7491
   21.900    0.8668
   21.930    0.8240
   21.960    0.7384
   21.990    0.9310
   22.020    0.7063
   22.050    0.7384
   22.080    0.6956
   22.110    0.8026
   22.140    0.7491
   22.170    0.8240
   22.200    0.7598
   22.230    0.8454
   22.260    0.8026
   22.290    0.6849
   22.320    0.9096
   22.350    0.5993
   22.380    0.7705
   22.410    0.8026
   22.440    0.7063
   22.470    0.8133
   22.500    0.7919
   22.530    0.9417
   22.560    0.7491
   22.590    0.6742
   22.620    0.8026
   22.650    0.7598
   22.680    0.8240
   22.710    0.6849
   22.740    0.8882
   22.770    0.8561
   22.800    0.7812
   22.830    0.7705
   22.860    0.8882
   22.890    0.7705
   22.920    0.8133
   22.950    0.9524
   22.980    0.9310
   23.010    0.8775
   23.040    0.8347
   23.070    0.7384
   23.100    0.7277
   23.130    0.6849
   23.160    0.9096
   23.190    0.7598
   23.220    0.9203
   23.250    0.6742
   23.280    0.8775
   23.310    0.6849
   23.340    0.8026
   23.370    0.6742
   23.400    0.7919
   23.430    0.7705
   23.460    0.8989
   23.490    0.8775
   23.520    0.8882
   23.550    0.7170
   23.580    0.7919
   23.610    0.7063
   23.640    0.8775
   23.670    0.8240
   23.700    0.8454
   23.730    0.8775
   23.760    0.7063
   23.790    0.8989
   23.820    0.8882
   23.850    0.8347
   23.880    0.7277
   23.910    0.7705
   23.940    0.8989
   23.970    0.7705
   24.000    0.8347
   24.030    0.9631
   24.060    0.7919
   24.090    0.9310
   24.120    0.7063
   24.150    0.8989
   24.180    0.9738
   24.210    0.7919
   24.240    0.7812
   24.270    0.8454
   24.300    0.7598
   24.330    0.6956
   24.360    0.9310
   24.390    0.9952
   24.420    0.8347
   24.450    0.8775
   24.480    0.8561
   24.510    0.7919
   24.540    0.9203
   24.570    0.8454
   24.600    0.7170
   24.630    0.9096
   24.660    0.7812
   24.690    0.8454
   24.720    0.7705
   24.750    0.8989
   24.780    0.8133
   24.810    0.7919
   24.840    0.7598
   24.870    0.8454
   24.900    0.8882
   24.930    0.9417
   24.960    0.7063
   24.990    0.6742
   25.020    0.7919
   25.050    0.8347
   25.080    0.8133
   25.110    0.9738
   25.140    0.8240
   25.170    0.7598
   25.200    1.0487
   25.230    0.9310
   25.260    0.7812
   25.290    0.6207
   25.320    0.6956
   25.350    0.9203
   25.380    0.8133
   25.410    0.6742
   25.440    0.8454
   25.470    0.7705
   25.500    0.8561
   25.530    0.8026
   25.560    0.6100
   25.590    0.8775
   25.620    0.7705
   25.650    0.6849
   25.680    0.6849
   25.710    0.7170
   25.740    0.8775
   25.770    0.7277
   25.800    0.8026
   25.830    0.7063
   25.860    0.6849
   25.890    0.8240
   25.920    0.9738
   25.950    0.7170
   25.980    0.7063
   26.010    0.6742
   26.040    0.7491
   26.070    0.8240
   26.100    0.8561
   26.130    0.8026
   26.160    0.7705
   26.190    0.6421
   26.220    0.7170
   26.250    0.7919
   26.280    0.8240
   26.310    0.8454
   26.340    0.7491
   26.370    0.7384
   26.400    0.8347
   26.430    0.7277
   26.460    0.7919
   26.490    0.7277
   26.520    0.7491
   26.550    0.7491
   26.580    0.8454
   26.610    0.8882
   26.640    0.7277
   26.670    0.7384
   26.700    0.7491
   26.730    0.8347
   26.760    0.7491
   26.790    0.6956
   26.820    0.7384
   26.850    0.6742
   26.880    0.7063
   26.910    0.7491
   26.940    0.7170
   26.970    0.7491
   27.000    0.5564
   27.030    0.7705
   27.060    0.7812
   27.090    0.8989
   27.120    0.7277
   27.150    0.8240
   27.180    0.7598
   27.210    0.7919
   27.240    0.6742
   27.270    0.7705
   27.300    0.8454
   27.330    0.8133
   27.360    0.7170
   27.390    0.6207
   27.420    0.7063
   27.450    0.7063
   27.480    0.6314
   27.510    0.8240
   27.540    0.7384
   27.570    0.7919
   27.600    0.6528
   27.630    0.7491
   27.660    0.7812
   27.690    0.6421
   27.720    0.7170
   27.750    0.7063
   27.780    0.7170
   27.810    0.7919
   27.840    0.7063
   27.870    0.8561
   27.900    0.7491
   27.930    0.6635
   27.960    0.7598
   27.990    0.8133
   28.020    0.8026
   28.050    0.9203
   28.080    0.6956
   28.110    0.7277
   28.140    0.7705
   28.170    0.7598
   28.200    0.6528
   28.230    0.6528
   28.260    0.8561
   28.290    0.7919
   28.320    0.7063
   28.350    0.7384
   28.380    0.7384
   28.410    0.6849
   28.440    0.7598
   28.470    0.8240
   28.500    0.7705
   28.530    0.7598
   28.560    0.8882
   28.590    0.6635
   28.620    0.7063
   28.650    0.8989
   28.680    0.7598
   28.710    0.6100
   28.740    0.6421
   28.770    0.7170
   28.800    0.7705
   28.830    0.7063
   28.860    0.6742
   28.890    0.7384
   28.920    0.6207
   28.950    0.8133
   28.980    0.6956
   29.010    0.6635
   29.040    0.8347
   29.070    0.7384
   29.100    0.6742
   29.130    0.8454
   29.160    0.7919
   29.190    0.7170
   29.220    0.6314
   29.250    0.8240
   29.280    0.7063
   29.310    0.7598
   29.340    0.7491
   29.370    0.7384
   29.400    0.5671
   29.430    0.6635
   29.460    0.6849
   29.490    0.5778
   29.520    0.7063
   29.550    0.6956
   29.580    0.6742
   29.610    0.8240
   29.640    0.6742
   29.670    0.6207
   29.700    0.5993
   29.730    0.6742
   29.760    0.6207
   29.790    0.7170
   29.820    0.5778
   29.850    0.8347
   29.880    0.5136
   29.910    0.7063
   29.940    0.7063
   29.970    0.6635
   30.000    0.5671
   30.030    0.7277
   30.060    0.7063
   30.090    0.8240
   30.120    0.7063
   30.150    0.7170
   30.180    0.5993
   30.210    0.5243
   30.240    0.6421
   30.270    0.6742
   30.300    0.6100
   30.330    0.7491
   30.360    0.5457
   30.390    0.6314
   30.420    0.6742
   30.450    0.6314
   30.480    0.6849
   30.510    0.6314
   30.540    0.5564
   30.570    0.7063
   30.600    0.5993
   30.630    0.6207
   30.660    0.7705
   30.690    0.7170
   30.720    0.6528
   30.750    0.5993
   30.780    0.6849
   30.810    0.6635
   30.840    0.8133
   30.870    0.7705
   30.900    0.6635
   30.930    0.6100
   30.960    0.5350
   30.990    0.5671
   31.020    0.5778
   31.050    0.5993
   31.080    0.6314
   31.110    0.5564
   31.140    0.6207
   31.170    0.6742
   31.200    0.6742
   31.230    0.6314
   31.260    0.5457
   31.290    0.5886
   31.320    0.5243
   31.350    0.6421
   31.380    0.6207
   31.410    0.7919
   31.440    0.5886
   31.470    0.6635
   31.500    0.6421
   31.530    0.5886
   31.560    0.6528
   31.590    0.5350
   31.620    0.7491
   31.650    0.6207
   31.680    0.5993
   31.710    0.7491
   31.740    0.5457
   31.770    0.6314
   31.800    0.5350
   31.830    0.5886
   31.860    0.5029
   31.890    0.5778
   31.920    0.6100
   31.950    0.5671
   31.980    0.6528
   32.010    0.5564
   32.040    0.6635
   32.070    0.6207
   32.100    0.5029
   32.130    0.6528
   32.160    0.5243
   32.190    0.6742
   32.220    0.6207
   32.250    0.6742
   32.280    0.6421
   32.310    0.4815
   32.340    0.5136
   32.370    0.6207
   32.400    0.6100
   32.430    0.5993
   32.460    0.6742
   32.490    0.5993
   32.520    0.6207
   32.550    0.5136
   32.580    0.5457
   32.610    0.5136
   32.640    0.5457
   32.670    0.6421
   32.700    0.6421
   32.730    0.5029
   32.760    0.5778
   32.790    0.5886
   32.820    0.5778
   32.850    0.5993
   32.880    0.4922
   32.910    0.5457
   32.940    0.6100
   32.970    0.6635
   33.000    0.4815
   33.030    0.6956
   33.060    0.5350
   33.090    0.5564
   33.120    0.5564
   33.150    0.6528
   33.180    0.4815
   33.210    0.6314
   33.240    0.4708
   33.270    0.5136
   33.300    0.5993
   33.330    0.5457
   33.360    0.7063
   33.390    0.4601
   33.420    0.6207
   33.450    0.5886
   33.480    0.5671
   33.510    0.5778
   33.540    0.5350
   33.570    0.5564
   33.600    0.5778
   33.630    0.5778
   33.660    0.5778
   33.690    0.5778
   33.720    0.6207
   33.750    0.5886
   33.780    0.5778
   33.810    0.5564
   33.840    0.5029
   33.870    0.5671
   33.900    0.6314
   33.930    0.5350
   33.960    0.4708
   33.990    0.5029
   34.020    0.5350
   34.050    0.6528
   34.080    0.5029
   34.110    0.5350
   34.140    0.6314
   34.170    0.6528
   34.200    0.6207
   34.230    0.5993
   34.260    0.5671
   34.290    0.4280
   34.320    0.4280
   34.350    0.5671
   34.380    0.6207
   34.410    0.6100
   34.440    0.5564
   34.470    0.5243
   34.500    0.5671
   34.530    0.4708
   34.560    0.4387
   34.590    0.6528
   34.620    0.5993
   34.650    0.5564
   34.680    0.5350
   34.710    0.4708
   34.740    0.6207
   34.770    0.5136
   34.800    0.5136
   34.830    0.6207
   34.860    0.5778
   34.890    0.5350
   34.920    0.5564
   34.950    0.4815
   34.980    0.5136
   35.010    0.5671
   35.040    0.5564
   35.070    0.6207
   35.100    0.4494
   35.130    0.4387
   35.160    0.6421
   35.190    0.5457
   35.220    0.4922
   35.250    0.4922
   35.280    0.5671
   35.310    0.5671
   35.340    0.6207
   35.370    0.4387
   35.400    0.5350
   35.430    0.6207
   35.460    0.5243
   35.490    0.5564
   35.520    0.5457
   35.550    0.3959
   35.580    0.4708
   35.610    0.5778
   35.640    0.5029
   35.670    0.4708
   35.700    0.4601
   35.730    0.5564
   35.760    0.5886
   35.790    0.5350
   35.820    0.4601
   35.850    0.5564
   35.880    0.5457
   35.910    0.4280
   35.940    0.5457
   35.970    0.5993
   36.000    0.4494
   36.030    0.4922
   36.060    0.5243
   36.090    0.5457
   36.120    0.5778
   36.150    0.5457
   36.180    0.5671
   36.210    0.5886
   36.240    0.5350
   36.270    0.4922
   36.300    0.6207
   36.330    0.4173
   36.360    0.5886
   36.390    0.4922
   36.420    0.5350
   36.450    0.4066
   36.480    0.5136
   36.510    0.4815
   36.540    0.5350
   36.570    0.4387
   36.600    0.4494
   36.630    0.5457
   36.660    0.4066
   36.690    0.5136
   36.720    0.5457
   36.750    0.5886
   36.780    0.4815
   36.810    0.5457
   36.840    0.4601
   36.870    0.5350
   36.900    0.4815
   36.930    0.5457
   36.960    0.4708
   36.990    0.5350
   37.020    0.5671
   37.050    0.5457
   37.080    0.4280
   37.110    0.4494
   37.140    0.4601
   37.170    0.3745
   37.200    0.3745
   37.230    0.4815
   37.260    0.3959
   37.290    0.3210
   37.320    0.4815
   37.350    0.3852
   37.380    0.4280
   37.410    0.4066
   37.440    0.4387
   37.470    0.4173
   37.500    0.4280
   37.530    0.5243
   37.560    0.3745
   37.590    0.4387
   37.620    0.3638
   37.650    0.5136
   37.680    0.3745
   37.710    0.5243
   37.740    0.3531
   37.770    0.4280
   37.800    0.4173
   37.830    0.3745
   37.860    0.4066
   37.890    0.4922
   37.920    0.5136
   37.950    0.4601
   37.980    0.5029
   38.010    0.5457
   38.040    0.4280
   38.070    0.4494
   38.100    0.4494
   38.130    0.4494
   38.160    0.5457
   38.190    0.3745
   38.220    0.4708
   38.250    0.3852
   38.280    0.5778
   38.310    0.4280
   38.340    0.3103
   38.370    0.4601
   38.400    0.4173
   38.430    0.4922
   38.460    0.4066
   38.490    0.4387
   38.520    0.5350
   38.550    0.3638
   38.580    0.3745
   38.610    0.5350
   38.640    0.4708
   38.670    0.4387
   38.700    0.4922
   38.730    0.5029
   38.760    0.2889
   38.790    0.4387
   38.820    0.4387
   38.850    0.4601
   38.880    0.4280
   38.910    0.2354
   38.940    0.3638
   38.970    0.3531
   39.000    0.3745
   39.030    0.3531
   39.060    0.3424
   39.090    0.3638
   39.120    0.4708
   39.150    0.4387
   39.180    0.5564
   39.210    0.3959
   39.240    0.3638
   39.270    0.4387
   39.300    0.3852
   39.330    0.3317
   39.360    0.4280
   39.390    0.3745
   39.420    0.3317
   39.450    0.3852
   39.480    0.4173
   39.510    0.3852
   39.540    0.3638
   39.570    0.3424
   39.600    0.3103
   39.630    0.4494
   39.660    0.3424
   39.690    0.3852
   39.720    0.4387
   39.750    0.3745
   39.780    0.4494
   39.810    0.2782
   39.840    0.3638
   39.870    0.3959
   39.900    0.2782
   39.930    0.4280
   39.960    0.2782
   39.990    0.4708