File: data/PXRD/PXRD_KE-098_Cu-Ka1_capillary-1mm_5s-deg.xyd
    1.500   20.4634
    1.530   20.0737
    1.560   20.3054
    1.590   19.6735
    1.620   19.1785
    1.650   18.4939
    1.680   18.7362
    1.710   17.8094
    1.740   18.2096
    1.770   17.8831
    1.800   17.7041
    1.830   17.5355
    1.860   17.3776
    1.890   17.0300
    1.920   17.5882
    1.950   17.4302
    1.980   17.1775
    2.010   16.8088
    2.040   16.3981
    2.070   16.8088
    2.100   16.8615
    2.130   16.5982
    2.160   16.8088
    2.190   16.3454
    2.220   17.0721
    2.250   16.9984
    2.280   18.2201
    2.310   18.4097
    2.340   17.4724
    2.370   18.1359
    2.400   18.2517
    2.430   18.6098
    2.460   18.8836
    2.490   18.9784
    2.520   19.4418
    2.550   20.4739
    2.580   21.3165
    2.610   20.8320
    2.640   21.8325
    2.670   22.5592
    2.700   22.7804
    2.730   23.3913
    2.760   24.8552
    2.790   26.1506
    2.820   26.6983
    2.850   28.4255
    2.880   29.5735
    2.910   31.8167
    2.940   32.1959
    2.970   34.0916
    3.000   35.7346
    3.030   38.2517
    3.060   40.5477
    3.090   43.1385
    3.120   45.3818
    3.150   47.9937
    3.180   52.0063
    3.210   55.7346
    3.240   61.1901
    3.270   67.2565
    3.300   72.9858
    3.330   80.7478
    3.360   90.8057
    3.390  101.4007
    3.420  113.2912
    3.450  120.0105
    3.480  116.7141
    3.510   99.6103
    3.540   76.6825
    3.570   59.5682
    3.600   49.7736
    3.630   45.1185
    3.660   41.2744
    3.690   41.1690
    3.720   42.0116
    3.750   42.4855
    3.780   43.6546
    3.810   44.8341
    3.840   46.5508
    3.870   48.4255
    3.900   50.7109
    3.930   50.8689
    3.960   52.7120
    3.990   51.3218
    4.020   49.4576
    4.050   47.0458
    4.080   44.0442
    4.110   40.0421
    4.140   35.0290
    4.170   32.4065
    4.200   28.6256
    4.230   25.5082
    4.260   22.2538
    4.290   19.8526
    4.320   18.4939
    4.350   16.0295
    4.380   14.5972
    4.410   12.8699
    4.440   12.7751
    4.470   11.6377
    4.500   10.9953
    4.530   10.0053
    4.560    9.8894
    4.590    9.4681
    4.620    8.9626
    4.650    8.7098
    4.680    8.1411
    4.710    7.8146
    4.740    7.8673
    4.770    7.9831
    4.800    7.8252
    4.830    7.4460
    4.860    7.1617
    4.890    6.9405
    4.920    7.5197
    4.950    7.0248
    4.980    6.9405
    5.010    7.0985
    5.040    6.6561
    5.070    6.7825
    5.100    6.6140
    5.130    6.9089
    5.160    6.1506
    5.190    6.5824
    5.220    6.3718
    5.250    6.1822
    5.280    6.5403
    5.310    6.2454
    5.340    6.6667
    5.370    6.3823
    5.400    6.1717
    5.430    6.4455
    5.460    6.0453
    5.490    5.9926
    5.520    6.0137
    5.550    6.2243
    5.580    6.0874
    5.610    5.4344
    5.640    5.8241
    5.670    6.0032
    5.700    6.2033
    5.730    5.7609
    5.760    5.2765
    5.790    5.7083
    5.820    5.8347
    5.850    5.8557
    5.880    5.3818
    5.910    5.5608
    5.940    5.7504
    5.970    5.9400
    6.000    5.2870
    6.030    5.8873
    6.060    5.9084
    6.090    5.4239
    6.120    6.2559
    6.150    6.0874
    6.180    6.2033
    6.210    5.7925
    6.240    5.9294
    6.270    6.0664
    6.300    5.9189
    6.330    6.2875
    6.360    6.2981
    6.390    6.4350
    6.420    6.7193
    6.450    6.2559
    6.480    6.5087
    6.510    6.5929
    6.540    6.9405
    6.570    7.5197
    6.600    7.3512
    6.630    7.6251
    6.660    7.6988
    6.690    8.5308
    6.720    8.8046
    6.750    9.0785
    6.780    9.9315
    6.810   10.6161
    6.840   11.2902
    6.870   12.5224
    6.900   13.7651
    6.930   15.1975
    6.960   15.2712
    6.990   15.6187
    7.020   13.8283
    7.050   11.5640
    7.080   10.0158
    7.110    8.8468
    7.140    7.5197
    7.170    7.4566
    7.200    7.0879
    7.230    7.1933
    7.260    6.5192
    7.290    6.8562
    7.320    6.5613
    7.350    6.6877
    7.380    6.9300
    7.410    7.1406
    7.440    6.5087
    7.470    6.8141
    7.500    6.5613
    7.530    7.3196
    7.560    7.1301
    7.590    7.4144
    7.620    7.0669
    7.650    7.6251
    7.680    7.8462
    7.710    8.1411
    7.740    7.5197
    7.770    7.6883
    7.800    8.2886
    7.830    8.1201
    7.860    8.1833
    7.890    9.1732
    7.920    8.9205
    7.950    9.4787
    7.980    8.8573
    8.010    8.9100
    8.040    8.7941
    8.070    9.5629
    8.100    8.9837
    8.130    9.3102
    8.160    9.3734
    8.190    8.8152
    8.220    8.3518
    8.250    8.6256
    8.280    8.4150
    8.310    8.4992
    8.340    8.2991
    8.370    7.7936
    8.400    8.1411
    8.430    7.9831
    8.460    7.2354
    8.490    7.2880
    8.520    7.3196
    8.550    7.3618
    8.580    6.9932
    8.610    6.5298
    8.640    6.6561
    8.670    6.7825
    8.700    6.4876
    8.730    5.9505
    8.760    6.0769
    8.790    6.1611
    8.820    6.3402
    8.850    6.0348
    8.880    6.0874
    8.910    5.6135
    8.940    5.9505
    8.970    5.4239
    9.000    5.8031
    9.030    5.2659
    9.060    5.5608
    9.090    5.6240
    9.120    5.7504
    9.150    5.3818
    9.180    5.8347
    9.210    5.5714
    9.240    5.6345
    9.270    5.6029
    9.300    5.2238
    9.330    5.6451
    9.360    5.4028
    9.390    5.6872
    9.420    5.4450
    9.450    5.3818
    9.480    5.3818
    9.510    5.4555
    9.540    5.4239
    9.570    5.2027
    9.600    5.5187
    9.630    5.4555
    9.660    5.1080
    9.690    5.6977
    9.720    5.7925
    9.750    5.3397
    9.780    5.3818
    9.810    5.7820
    9.840    5.3923
    9.870    5.4028
    9.900    5.4660
    9.930    5.4555
    9.960    5.5082
    9.990    5.4766
   10.020    5.5398
   10.050    5.4450
   10.080    5.5187
   10.110    5.5082
   10.140    5.1185
   10.170    5.4239
   10.200    5.7504
   10.230    5.5714
   10.260    6.0348
   10.290    5.6556
   10.320    5.5608
   10.350    5.9084
   10.380    5.9821
   10.410    5.8873
   10.440    6.2138
   10.470    5.9926
   10.500    6.0348
   10.530    5.9189
   10.560    5.8031
   10.590    5.2449
   10.620    5.3186
   10.650    5.6240
   10.680    5.4344
   10.710    5.5714
   10.740    5.5608
   10.770    5.7399
   10.800    5.2975
   10.830    5.6135
   10.860    5.6661
   10.890    5.4660
   10.920    5.4766
   10.950    5.1185
   10.980    5.4660
   11.010    5.6345
   11.040    5.7925
   11.070    5.5503
   11.100    5.1711
   11.130    5.5187
   11.160    5.1922
   11.190    5.4766
   11.220    5.3923
   11.250    5.5819
   11.280    5.3502
   11.310    5.3923
   11.340    5.5292
   11.370    5.4766
   11.400    5.4976
   11.430    5.5292
   11.460    5.3397
   11.490    5.3712
   11.520    5.4134
   11.550    5.8347
   11.580    5.6661
   11.610    5.3291
   11.640    5.4344
   11.670    5.5398
   11.700    5.4766
   11.730    5.2765
   11.760    5.8136
   11.790    5.5292
   11.820    5.8662
   11.850    5.8768
   11.880    5.4766
   11.910    5.5082
   11.940    6.0874
   11.970    5.6135
   12.000    5.6029
   12.030    5.8452
   12.060    5.7083
   12.090    5.9400
   12.120    5.6240
   12.150    5.6345
   12.180    5.4660
   12.210    5.6029
   12.240    5.8452
   12.270    6.3928
   12.300    5.9821
   12.330    5.6767
   12.360    5.8873
   12.390    5.7715
   12.420    5.9821
   12.450    5.5714
   12.480    5.6977
   12.510    5.7293
   12.540    5.8978
   12.570    5.3923
   12.600    5.9716
   12.630    5.8768
   12.660    5.4871
   12.690    5.5608
   12.720    5.4976
   12.750    5.9716
   12.780    5.8662
   12.810    5.4766
   12.840    5.5819
   12.870    5.4976
   12.900    5.3291
   12.930    5.3607
   12.960    5.7188
   12.990    5.7293
   13.020    5.4660
   13.050    5.6556
   13.080    5.8873
   13.110    5.5819
   13.140    5.5714
   13.170    5.3818
   13.200    5.7083
   13.230    5.7820
   13.260    5.6451
   13.290    5.6451
   13.320    5.8873
   13.350    5.3291
   13.380    5.3081
   13.410    5.3923
   13.440    5.8136
   13.470    5.7715
   13.500    5.5503
   13.530    5.5187
   13.560    5.6661
   13.590    5.7293
   13.620    5.3923
   13.650    5.2765
   13.680    5.3818
   13.710    5.3081
   13.740    5.5819
   13.770    5.1606
   13.800    5.6029
   13.830    5.4660
   13.860    5.4450
   13.890    5.4871
   13.920    5.2870
   13.950    5.0553
   13.980    5.3502
   14.010    5.2343
   14.040    5.6977
   14.070    5.6661
   14.100    5.0237
   14.130    5.2449
   14.160    5.4450
   14.190    5.6029
   14.220    5.1185
   14.250    5.4976
   14.280    5.4871
   14.310    5.2975
   14.340    5.1922
   14.370    5.2027
   14.400    5.2343
   14.430    5.2133
   14.460    5.0869
   14.490    5.2343
   14.520    4.9394
   14.550    5.3397
   14.580    4.9394
   14.610    5.1606
   14.640    5.1290
   14.670    5.4871
   14.700    5.0974
   14.730    5.1501
   14.760    5.0764
   14.790    5.2238
   14.820    5.1290
   14.850    4.8552
   14.880    5.0237
   14.910    5.3291
   14.940    5.0132
   14.970    5.2870
   15.000    5.2133
   15.030    5.0237
   15.060    5.1922
   15.090    5.2449
   15.120    5.5608
   15.150    4.9921
   15.180    5.2449
   15.210    5.3502
   15.240    4.9605
   15.270    5.3397
   15.300    5.2975
   15.330    5.6345
   15.360    5.0869
   15.390    5.5924
   15.420    5.2765
   15.450    5.4871
   15.480    5.3186
   15.510    5.0448
   15.540    5.3397
   15.570    5.1395
   15.600    5.3397
   15.630    5.5608
   15.660    5.6872
   15.690    5.2554
   15.720    5.1080
   15.750    4.9816
   15.780    5.2975
   15.810    5.2870
   15.840    5.3818
   15.870    5.2765
   15.900    5.2238
   15.930    5.1922
   15.960    5.4134
   15.990    5.1080
   16.020    5.5082
   16.050    5.5398
   16.080    5.4976
   16.110    5.1606
   16.140    5.2870
   16.170    5.2133
   16.200    5.2975
   16.230    5.3818
   16.260    4.9816
   16.290    5.3818
   16.320    5.3081
   16.350    5.3291
   16.380    5.3081
   16.410    5.2659
   16.440    5.2449
   16.470    5.1185
   16.500    5.3186
   16.530    5.0658
   16.560    5.0764
   16.590    5.3818
   16.620    5.3923
   16.650    5.1501
   16.680    4.7499
   16.710    5.1922
   16.740    5.7293
   16.770    5.1501
   16.800    4.7815
   16.830    5.0658
   16.860    5.0658
   16.890    5.2975
   16.920    5.4976
   16.950    5.5187
   16.980    5.3502
   17.010    5.0237
   17.040    5.0974
   17.070    5.2449
   17.100    5.3607
   17.130    4.9078
   17.160    5.4134
   17.190    5.4028
   17.220    5.2133
   17.250    5.2659
   17.280    5.0869
   17.310    4.9605
   17.340    5.3186
   17.370    5.2343
   17.400    5.1501
   17.430    5.4028
   17.460    5.4660
   17.490    5.2659
   17.520    5.0974
   17.550    5.2238
   17.580    5.2765
   17.610    4.8868
   17.640    5.0764
   17.670    5.2870
   17.700    5.5503
   17.730    5.1817
   17.760    5.4028
   17.790    5.5398
   17.820    5.0658
   17.850    5.1395
   17.880    5.0764
   17.910    5.4344
   17.940    5.1395
   17.970    5.4028
   18.000    5.2027
   18.030    5.1922
   18.060    5.4660
   18.090    5.0342
   18.120    5.5503
   18.150    5.2975
   18.180    5.2659
   18.210    5.8452
   18.240    5.4239
   18.270    5.7820
   18.300    5.3818
   18.330    5.1501
   18.360    5.0658
   18.390    5.1080
   18.420    5.2133
   18.450    5.0132
   18.480    5.2870
   18.510    5.2343
   18.540    5.2449
   18.570    5.4450
   18.600    5.5398
   18.630    5.0974
   18.660    5.2765
   18.690    5.3397
   18.720    5.5398
   18.750    4.8868
   18.780    5.4871
   18.810    5.6556
   18.840    5.6135
   18.870    5.6661
   18.900    5.2975
   18.930    5.8031
   18.960    5.4555
   18.990    5.3081
   19.020    5.8347
   19.050    5.5714
   19.080    5.6556
   19.110    5.1185
   19.140    5.2659
   19.170    5.4134
   19.200    5.6135
   19.230    5.6977
   19.260    5.6767
   19.290    5.8557
   19.320    5.5608
   19.350    5.5924
   19.380    5.7715
   19.410    5.6977
   19.440    5.4344
   19.470    5.4555
   19.500    5.8557
   19.530    5.3923
   19.560    5.9505
   19.590    5.5398
   19.620    6.0874
   19.650    5.4871
   19.680    5.8873
   19.710    5.7083
   19.740    5.6029
   19.770    5.8452
   19.800    5.4976
   19.830    5.8662
   19.860    5.6872
   19.890    6.3296
   19.920    5.6767
   19.950    5.8347
   19.980    6.0453
   20.010    5.6872
   20.040    5.7083
   20.070    5.9610
   20.100    6.0348
   20.130    5.8662
   20.160    5.8557
   20.190    6.0558
   20.220    6.3507
   20.250    5.7083
   20.280    5.8241
   20.310    5.9294
   20.340    5.9084
   20.370    5.5503
   20.400    5.9084
   20.430    5.6977
   20.460    6.0032
   20.490    6.0032
   20.520    5.8452
   20.550    6.1401
   20.580    5.8031
   20.610    5.9505
   20.640    5.7293
   20.670    5.9189
   20.700    5.5608
   20.730    5.9926
   20.760    5.9084
   20.790    5.6240
   20.820    5.6135
   20.850    5.9400
   20.880    5.7188
   20.910    6.0453
   20.940    6.1295
   20.970    6.0558
   21.000    5.8873
   21.030    5.9610
   21.060    5.8452
   21.090    6.0979
   21.120    6.1295
   21.150    5.9821
   21.180    5.8768
   21.210    5.5503
   21.240    6.1401
   21.270    5.7715
   21.300    5.9294
   21.330    5.5924
   21.360    5.9400
   21.390    5.8662
   21.420    5.9505
   21.450    6.1295
   21.480    5.7820
   21.510    5.7820
   21.540    5.7820
   21.570    5.9189
   21.600    5.9926
   21.630    5.9610
   21.660    5.8452
   21.690    5.6135
   21.720    5.7820
   21.750    6.0874
   21.780    6.2243
   21.810    5.7293
   21.840    5.8978
   21.870    5.8136
   21.900    6.2770
   21.930    6.3191
   21.960    6.2033
   21.990    6.0979
   22.020    6.1717
   22.050    5.5503
   22.080    5.6240
   22.110    6.0769
   22.140    5.9716
   22.170    6.1611
   22.200    6.2981
   22.230    5.9189
   22.260    6.1190
   22.290    6.1190
   22.320    5.8662
   22.350    6.1085
   22.380    6.2981
   22.410    5.9610
   22.440    5.8978
   22.470    6.1085
   22.500    5.9084
   22.530    6.0453
   22.560    5.9926
   22.590    5.8768
   22.620    6.1611
   22.650    6.0664
   22.680    5.9294
   22.710    5.8452
   22.740    5.9400
   22.770    5.7399
   22.800    5.9294
   22.830    6.0453
   22.860    6.2665
   22.890    5.9505
   22.920    6.0348
   22.950    5.7083
   22.980    5.9189
   23.010    5.4450
   23.040    5.8136
   23.070    5.7715
   23.100    5.7293
   23.130    5.7820
   23.160    5.8978
   23.190    5.8031
   23.220    5.7925
   23.250    5.8873
   23.280    5.9505
   23.310    6.0558
   23.340    5.8662
   23.370    5.9610
   23.400    6.0348
   23.430    5.7083
   23.460    6.0137
   23.490    5.6240
   23.520    5.6977
   23.550    5.8031
   23.580    5.6661
   23.610    5.6135
   23.640    5.6135
   23.670    5.8136
   23.700    5.9716
   23.730    5.3818
   23.760    5.7715
   23.790    5.6135
   23.820    5.8347
   23.850    5.5082
   23.880    5.5503
   23.910    5.6029
   23.940    5.7293
   23.970    5.5608
   24.000    5.9294
   24.030    5.6345
   24.060    5.3923
   24.090    5.6556
   24.120    5.2238
   24.150    5.9610
   24.180    5.4555
   24.210    5.8347
   24.240    5.9926
   24.270    5.7504
   24.300    5.6345
   24.330    5.2238
   24.360    5.4028
   24.390    5.5292
   24.420    5.4660
   24.450    5.5292
   24.480    5.4555
   24.510    5.3818
   24.540    5.7925
   24.570    5.4134
   24.600    5.6240
   24.630    5.6661
   24.660    5.7399
   24.690    5.4239
   24.720    5.7399
   24.750    5.3081
   24.780    5.4555
   24.810    5.7820
   24.840    5.7504
   24.870    5.2975
   24.900    5.6135
   24.930    5.4660
   24.960    5.4134
   24.990    5.3607
   25.020    5.3291
   25.050    5.2765
   25.080    5.2659
   25.110    5.6135
   25.140    4.9816
   25.170    5.0869
   25.200    5.5082
   25.230    5.4976
   25.260    5.2659
   25.290    5.4239
   25.320    5.3186
   25.350    5.1711
   25.380    5.4976
   25.410    5.3607
   25.440    5.3502
   25.470    5.6767
   25.500    5.4134
   25.530    5.9821
   25.560    5.2975
   25.590    5.4134
   25.620    5.1817
   25.650    5.3502
   25.680    5.6135
   25.710    5.0132
   25.740    5.0132
   25.770    5.3818
   25.800    5.0974
   25.830    5.0974
   25.860    5.4871
   25.890    5.4344
   25.920    5.0764
   25.950    5.0132
   25.980    5.2343
   26.010    4.8552
   26.040    4.8131
   26.070    4.9394
   26.100    5.2238
   26.130    5.1185
   26.160    5.1606
   26.190    5.1606
   26.220    5.2870
   26.250    4.8341
   26.280    5.2870
   26.310    4.9078
   26.340    5.0869
   26.370    5.2870
   26.400    5.3081
   26.430    5.4555
   26.460    5.4766
   26.490    5.2027
   26.520    5.3081
   26.550    5.1290
   26.580    4.8236
   26.610    5.2133
   26.640    4.6445
   26.670    5.0658
   26.700    5.4134
   26.730    5.0869
   26.760    4.9605
   26.790    5.4766
   26.820    4.8341
   26.850    5.2027
   26.880    5.1711
   26.910    5.1711
   26.940    5.1185
   26.970    5.4660
   27.000    5.2238
   27.030    5.4344
   27.060    5.4450
   27.090    4.7077
   27.120    4.7709
   27.150    4.9078
   27.180    4.9184
   27.210    5.0974
   27.240    4.9921
   27.270    5.1501
   27.300    4.7393
   27.330    5.2659
   27.360    4.9500
   27.390    5.2765
   27.420    4.9710
   27.450    4.8236
   27.480    4.9816
   27.510    4.8657
   27.540    4.7393
   27.570    5.0132
   27.600    5.1395
   27.630    5.0132
   27.660    5.1395
   27.690    4.7920
   27.720    4.8657
   27.750    4.9078
   27.780    5.1290
   27.810    5.1606
   27.840    5.0026
   27.870    4.7709
   27.900    4.9078
   27.930    5.0448
   27.960    5.3186
   27.990    5.3081
   28.020    5.4239
   28.050    4.9184
   28.080    4.8868
   28.110    5.3186
   28.140    5.1185
   28.170    5.0448
   28.200    4.5708
   28.230    5.2027
   28.260    5.0764
   28.290    5.3397
   28.320    5.0026
   28.350    5.0237
   28.380    5.0764
   28.410    5.2554
   28.440    5.3712
   28.470    5.1290
   28.500    5.1290
   28.530    4.6024
   28.560    4.7499
   28.590    4.8341
   28.620    4.8341
   28.650    5.1817
   28.680    5.2554
   28.710    4.7920
   28.740    5.2238
   28.770    4.6867
   28.800    4.7393
   28.830    4.9184
   28.860    4.6761
   28.890    5.2554
   28.920    5.0974
   28.950    5.1080
   28.980    5.1185
   29.010    5.2554
   29.040    4.7077
   29.070    5.0237
   29.100    4.6445
   29.130    4.8131
   29.160    5.0869
   29.190    5.0974
   29.220    4.7604
   29.250    4.8341
   29.280    5.2133
   29.310    4.7393
   29.340    4.6656
   29.370    4.8236
   29.400    4.9394
   29.430    4.6130
   29.460    4.7499
   29.490    4.8131
   29.520    4.5814
   29.550    4.7709
   29.580    4.6972
   29.610    4.8131
   29.640    4.4550
   29.670    4.4760
   29.700    4.6340
   29.730    5.0448
   29.760    4.8025
   29.790    4.6551
   29.820    4.8341
   29.850    4.4550
   29.880    4.6867
   29.910    4.2654
   29.940    4.5919
   29.970    4.7709
   30.000    4.6445
   30.030    4.6235
   30.060    4.4971
   30.090    5.1080
   30.120    4.8341
   30.150    5.0132
   30.180    4.8341
   30.210    4.9921
   30.240    4.8131
   30.270    4.5814
   30.300    4.4128
   30.330    4.9921
   30.360    4.5392
   30.390    4.8657
   30.420    4.7393
   30.450    4.9921
   30.480    4.7288
   30.510    4.6656
   30.540    4.4550
   30.570    4.5076
   30.600    4.7709
   30.630    4.5287
   30.660    4.4655
   30.690    4.4234
   30.720    4.6340
   30.750    4.7920
   30.780    4.7183
   30.810    4.7077
   30.840    4.9605
   30.870    4.4023
   30.900    4.4655
   30.930    4.6761
   30.960    4.7499
   30.990    4.6235
   31.020    4.6972
   31.050    4.7920
   31.080    4.4866
   31.110    4.7183
   31.140    4.8447
   31.170    4.6024
   31.200    4.7604
   31.230    4.7499
   31.260    4.6024
   31.290    4.8236
   31.320    4.4971
   31.350    4.6656
   31.380    4.4866
   31.410    4.7920
   31.440    4.4023
   31.470    4.7288
   31.500    4.4444
   31.530    4.7393
   31.560    4.5708
   31.590    4.4866
   31.620    4.7920
   31.650    4.6130
   31.680    4.7183
   31.710    4.8447
   31.740    4.8341
   31.770    4.8236
   31.800    4.7077
   31.830    4.9078
   31.860    5.1290
   31.890    4.6656
   31.920    5.1290
   31.950    5.0764
   31.980    5.2027
   32.010    4.7183
   32.040    5.1606
   32.070    4.8236
   32.100    4.8868
   32.130    4.9710
   32.160    4.5814
   32.190    4.7920
   32.220    4.6340
   32.250    4.3707
   32.280    4.3391
   32.310    4.5287
   32.340    4.3181
   32.370    4.4655
   32.400    4.2233
   32.430    4.6551
   32.460    4.3497
   32.490    4.5392
   32.520    4.3918
   32.550    4.6867
   32.580    4.3602
   32.610    4.1496
   32.640    4.5498
   32.670    4.3181
   32.700    4.0758
   32.730    4.6445
   32.760    4.0864
   32.790    4.3391
   32.820    4.3181
   32.850    4.3075
   32.880    4.3602
   32.910    4.4128
   32.940    4.4234
   32.970    4.2654
   33.000    4.4023
   33.030    4.4550
   33.060    4.2970
   33.090    4.5498
   33.120    4.5708
   33.150    4.1917
   33.180    4.2654
   33.210    4.5392
   33.240    4.4444
   33.270    4.0864
   33.300    4.2233
   33.330    4.4128
   33.360    3.9705
   33.390    4.2338
   33.420    4.1285
   33.450    4.3391
   33.480    4.2127
   33.510    4.3286
   33.540    4.3707
   33.570    4.5498
   33.600    4.5603
   33.630    4.1390
   33.660    4.3602
   33.690    4.0232
   33.720    4.0232
   33.750    4.3181
   33.780    4.6024
   33.810    4.5392
   33.840    4.4866
   33.870    4.2443
   33.900    4.6235
   33.930    4.4234
   33.960    4.4550
   33.990    4.2338
   34.020    4.3602
   34.050    4.1390
   34.080    4.0232
   34.110    4.1811
   34.140    4.1917
   34.170    4.3707
   34.200    3.9179
   34.230    4.2549
   34.260    4.0758
   34.290    4.5392
   34.320    3.8652
   34.350    4.1601
   34.380    4.1390
   34.410    4.0548
   34.440    4.2338
   34.470    4.1917
   34.500    4.0337
   34.530    4.1706
   34.560    3.9916
   34.590    4.1496
   34.620    4.2233
   34.650    4.1285
   34.680    4.2127
   34.710    4.0548
   34.740    3.9494
   34.770    4.1074
   34.800    3.9916
   34.830    4.2759
   34.860    4.1706
   34.890    3.8125
   34.920    3.9073
   34.950    3.8968
   34.980    4.0442
   35.010    4.0653
   35.040    4.0442
   35.070    4.0758
   35.100    4.0758
   35.130    4.1496
   35.160    3.9916
   35.190    4.1496
   35.220    4.1496
   35.250    4.0758
   35.280    4.2654
   35.310    4.2127
   35.340    4.0126
   35.370    3.9600
   35.400    4.2233
   35.430    4.2022
   35.460    4.3602
   35.490    4.1496
   35.520    4.3075
   35.550    4.1390
   35.580    3.7915
   35.610    3.7493
   35.640    4.3497
   35.670    3.9284
   35.700    4.0653
   35.730    4.1496
   35.760    3.9494
   35.790    3.9389
   35.820    3.9073
   35.850    3.7283
   35.880    4.1180
   35.910    3.8020
   35.940    4.3075
   35.970    3.7915
   36.000    4.2127
   36.030    3.9494
   36.060    3.9284
   36.090    3.7493
   36.120    4.0442
   36.150    3.9600
   36.180    4.0126
   36.210    3.9389
   36.240    3.9389
   36.270    3.7809
   36.300    3.8863
   36.330    3.8968
   36.360    3.9810
   36.390    4.1390
   36.420    3.7177
   36.450    4.0021
   36.480    3.9284
   36.510    3.8020
   36.540    3.8231
   36.570    3.7283
   36.600    4.2654
   36.630    3.9494
   36.660    3.9179
   36.690    4.0864
   36.720    3.7177
   36.750    3.7072
   36.780    3.9600
   36.810    3.9810
   36.840    4.0548
   36.870    4.0969
   36.900    3.8231
   36.930    3.8441
   36.960    4.2233
   36.990    3.9073
   37.020    3.5071
   37.050    3.9284
   37.080    3.9705
   37.110    3.6440
   37.140    3.7388
   37.170    3.6335
   37.200    3.8652
   37.230    3.7283
   37.260    3.8547
   37.290    3.6440
   37.320    3.6440
   37.350    3.8547
   37.380    3.8125
   37.410    3.8020
   37.440    3.9810
   37.470    3.6546
   37.500    3.6124
   37.530    4.1074
   37.560    3.8757
   37.590    3.9073
   37.620    3.8757
   37.650    4.0548
   37.680    3.8652
   37.710    3.4755
   37.740    3.8231
   37.770    3.8863
   37.800    3.7072
   37.830    3.7809
   37.860    3.9179
   37.890    3.9073
   37.920    3.6651
   37.950    3.7388
   37.980    3.6862
   38.010    3.4650
   38.040    3.9389
   38.070    3.7915
   38.100    3.9284
   38.130    3.8547
   38.160    3.7072
   38.190    3.8441
   38.220    3.3491
   38.250    3.9916
   38.280    4.0021
   38.310    4.0548
   38.340    3.7283
   38.370    3.8231
   38.400    4.0021
   38.430    4.1074
   38.460    3.5282
   38.490    3.7704
   38.520    3.6019
   38.550    3.6335
   38.580    4.0758
   38.610    3.8231
   38.640    3.6124
   38.670    4.2654
   38.700    3.8757
   38.730    3.7388
   38.760    3.5492
   38.790    3.5492
   38.820    3.6651
   38.850    3.8231
   38.880    3.8336
   38.910    3.7388
   38.940    3.9073
   38.970    3.9179
   39.000    3.9073
   39.030    3.7809
   39.060    3.6967
   39.090    3.8125
   39.120    3.7599
   39.150    4.0337
   39.180    3.7177
   39.210    3.7493
   39.240    3.7809
   39.270    3.9916
   39.300    3.3807
   39.330    3.5492
   39.360    3.8547
   39.390    3.4650
   39.420    3.6967
   39.450    3.6230
   39.480    3.7283
   39.510    3.9389
   39.540    4.1285
   39.570    4.2759
   39.600    3.8020
   39.630    3.9600
   39.660    3.6124
   39.690    3.8020
   39.720    4.0232
   39.750    3.4860
   39.780    3.8863
   39.810    3.6756
   39.840    3.4018
   39.870    3.6862
   39.900    3.7915
   39.930    3.9494
   39.960    3.6651
   39.990    3.7599