File: data/PXRD/PXRD_KE-060_Cu-Ka1_capillary-1mm_5s-deg.xyd
    1.500   27.7409
    1.530   27.5619
    1.560   26.4244
    1.590   26.4244
    1.620   25.1922
    1.650   24.1496
    1.680   23.8652
    1.710   23.2754
    1.740   23.1806
    1.770   22.6330
    1.800   22.2854
    1.830   20.9795
    1.860   21.4323
    1.890   21.4113
    1.920   21.7272
    1.950   20.7162
    1.980   19.9263
    2.010   19.6840
    2.040   19.8842
    2.070   19.6314
    2.100   19.2944
    2.130   19.0732
    2.160   19.3470
    2.190   19.0627
    2.220   17.9463
    2.250   18.6414
    2.280   18.0200
    2.310   19.1048
    2.340   18.4518
    2.370   18.3886
    2.400   18.1991
    2.430   17.7988
    2.460   18.4097
    2.490   18.0937
    2.520   18.3254
    2.550   18.2412
    2.580   18.3254
    2.610   18.5045
    2.640   18.4413
    2.670   19.4629
    2.700   19.6419
    2.730   19.2944
    2.760   19.7051
    2.790   20.2422
    2.820   20.3686
    2.850   20.9268
    2.880   21.9168
    2.910   22.5382
    2.940   22.2854
    2.970   22.2012
    3.000   23.6967
    3.030   23.9916
    3.060   25.0026
    3.090   26.1295
    3.120   26.7088
    3.150   27.0142
    3.180   28.5203
    3.210   29.3418
    3.240   31.4481
    3.270   32.5118
    3.300   34.3233
    3.330   35.7451
    3.360   37.3881
    3.390   39.1259
    3.420   42.0748
    3.450   43.8652
    3.480   47.1722
    3.510   50.7952
    3.540   53.7125
    3.570   58.9468
    3.600   62.1274
    3.630   68.3202
    3.660   73.9442
    3.690   80.4213
    3.720   89.1311
    3.750  100.1896
    3.780  113.7336
    3.810  132.0063
    3.840  158.7256
    3.870  200.5371
    3.900  236.7983
    3.930  213.0701
    3.960  119.4629
    3.990   41.5061
    4.020   22.2433
    4.050   17.0405
    4.080   13.6177
    4.110   12.7541
    4.140   11.8483
    4.170   11.1216
    4.200   10.7741
    4.230   10.2580
    4.260   10.2686
    4.290    9.9421
    4.320   10.1422
    4.350    9.8157
    4.380    9.9421
    4.410    9.4997
    4.440    9.8368
    4.470    9.8368
    4.500    9.9210
    4.530    9.4681
    4.560    9.9210
    4.590    9.6367
    4.620   10.0369
    4.650   10.1948
    4.680   10.6056
    4.710   10.7320
    4.740   10.3739
    4.770   10.7214
    4.800   10.8057
    4.830   11.8378
    4.860   11.9221
    4.890   12.0484
    4.920   12.3117
    4.950   13.1438
    4.980   14.7341
    5.010   14.2391
    5.040   15.2923
    5.070   15.1553
    5.100   16.5350
    5.130   17.7462
    5.160   18.9995
    5.190   21.2322
    5.220   21.3797
    5.250   23.5598
    5.280   25.4134
    5.310   28.4044
    5.340   31.8799
    5.370   35.2080
    5.400   40.7056
    5.430   47.0774
    5.460   56.8510
    5.490   72.1327
    5.520   82.7383
    5.550   73.1964
    5.580   43.1280
    5.610   19.1890
    5.640   12.5118
    5.670   10.2791
    5.700    8.8678
    5.730    8.8784
    5.760    7.7409
    5.790    8.1622
    5.820    8.1517
    5.850    7.7514
    5.880    8.5835
    5.910    7.9726
    5.940    7.9831
    5.970    7.7620
    6.000    8.2254
    6.030    8.1095
    6.060    7.7199
    6.090    8.1411
    6.120    7.6777
    6.150    8.2149
    6.180    8.0042
    6.210    8.4781
    6.240    8.2464
    6.270    8.1622
    6.300    8.6045
    6.330    9.1417
    6.360    8.8046
    6.390    9.0258
    6.420    9.7420
    6.450   10.1211
    6.480   10.1316
    6.510   10.6477
    6.540   11.3428
    6.570   12.5224
    6.600   13.3965
    6.630   14.5761
    6.660   15.7030
    6.690   18.5045
    6.720   22.2222
    6.750   25.6872
    6.780   27.3407
    6.810   21.5692
    6.840   13.3123
    6.870    8.8784
    6.900    8.6677
    6.930    7.8252
    6.960    7.6883
    6.990    7.5935
    7.020    8.1938
    7.050    7.9516
    7.080    7.7830
    7.110    7.7093
    7.140    7.2565
    7.170    7.3407
    7.200    7.5092
    7.230    7.8778
    7.260    7.7199
    7.290    7.7936
    7.320    7.9621
    7.350    7.9094
    7.380    8.0358
    7.410    8.3412
    7.440    8.2780
    7.470    8.5097
    7.500    8.5729
    7.530    9.0785
    7.560    9.9526
    7.590    9.8894
    7.620   10.7846
    7.650   11.4797
    7.680   12.6593
    7.710   13.6072
    7.740   15.6714
    7.770   17.2196
    7.800   20.8531
    7.830   21.3691
    7.860   18.1885
    7.890   11.8694
    7.920    8.4044
    7.950    7.6356
    7.980    7.5619
    8.010    7.2775
    8.040    7.2143
    8.070    7.1301
    8.100    7.2670
    8.130    7.0985
    8.160    6.6877
    8.190    7.3618
    8.220    7.1827
    8.250    7.1617
    8.280    6.6772
    8.310    7.1301
    8.340    7.2670
    8.370    6.9089
    8.400    7.2459
    8.430    7.0037
    8.460    7.4250
    8.490    7.2986
    8.520    7.2459
    8.550    7.4987
    8.580    8.0253
    8.610    7.8252
    8.640    7.7304
    8.670    8.0885
    8.700    8.4150
    8.730    8.9521
    8.760    8.8784
    8.790    9.0890
    8.820    7.4671
    8.850    7.1511
    8.880    7.0353
    8.910    7.0353
    8.940    7.3407
    8.970    7.4776
    9.000    7.2038
    9.030    7.4987
    9.060    7.5829
    9.090    7.7620
    9.120    8.3623
    9.150    8.4255
    9.180    8.3623
    9.210    9.0258
    9.240    9.7841
    9.270   10.3633
    9.300   10.6688
    9.330   11.2902
    9.360   12.7646
    9.390   13.6914
    9.420   14.9974
    9.450   16.6930
    9.480   19.7051
    9.510   23.6651
    9.540   29.1311
    9.570   34.5550
    9.600   33.9547
    9.630   26.0453
    9.660   14.4392
    9.690    9.6472
    9.720    7.8673
    9.750    7.0458
    9.780    7.3407
    9.810    7.2880
    9.840    7.3302
    9.870    7.4882
    9.900    7.4355
    9.930    7.1933
    9.960    7.1090
    9.990    7.4882
   10.020    8.0147
   10.050    7.5197
   10.080    7.8146
   10.110    8.4466
   10.140    8.9731
   10.170    8.6572
   10.200    9.8578
   10.230   10.0474
   10.260   11.1427
   10.290   13.0595
   10.320   15.3028
   10.350   16.5561
   10.380   15.9136
   10.410   11.9958
   10.440    8.9942
   10.470    7.5408
   10.500    7.0879
   10.530    7.1301
   10.560    6.8036
   10.590    7.2143
   10.620    7.1301
   10.650    6.9300
   10.680    6.7299
   10.710    7.1090
   10.740    6.9721
   10.770    7.2249
   10.800    7.7830
   10.830    7.6356
   10.860    8.2886
   10.890    8.8257
   10.920    9.2364
   10.950   10.3423
   10.980   11.4376
   11.010   12.6277
   11.040   14.9974
   11.070   16.4402
   11.100   15.0606
   11.130   11.8483
   11.160    8.6783
   11.190    7.2354
   11.220    6.6983
   11.250    6.9721
   11.280    6.7193
   11.310    7.1406
   11.340    6.7615
   11.370    6.5087
   11.400    7.0669
   11.430    7.1511
   11.460    7.2249
   11.490    7.8884
   11.520    8.3834
   11.550    8.4571
   11.580    8.7204
   11.610    9.8578
   11.640   10.5635
   11.670   12.3223
   11.700   14.2496
   11.730   16.2507
   11.760   16.4929
   11.790   13.5545
   11.820    9.6472
   11.850    7.3723
   11.880    6.8352
   11.910    6.9826
   11.940    6.2559
   11.970    6.2981
   12.000    6.3718
   12.030    6.6877
   12.060    6.4666
   12.090    6.4350
   12.120    6.6983
   12.150    6.5403
   12.180    6.6561
   12.210    6.7720
   12.240    6.7930
   12.270    7.1090
   12.300    7.1406
   12.330    7.7514
   12.360    8.0569
   12.390    7.9621
   12.420    7.7199
   12.450    7.0142
   12.480    6.5929
   12.510    6.5613
   12.540    6.4455
   12.570    6.5087
   12.600    6.6245
   12.630    6.6456
   12.660    6.3402
   12.690    6.8036
   12.720    7.1301
   12.750    7.0985
   12.780    7.3302
   12.810    7.5303
   12.840    8.7625
   12.870    8.3939
   12.900    9.1417
   12.930   10.1632
   12.960   11.5008
   12.990   12.3012
   13.020   11.8589
   13.050    9.7525
   13.080    7.5829
   13.110    7.0037
   13.140    6.7088
   13.170    6.4982
   13.200    6.5508
   13.230    6.5929
   13.260    6.1927
   13.290    6.5508
   13.320    6.6351
   13.350    6.7299
   13.380    6.4982
   13.410    7.1090
   13.440    7.5513
   13.470    7.6040
   13.500    7.5408
   13.530    8.4992
   13.560    9.0153
   13.590    8.8046
   13.620    7.8568
   13.650    6.8984
   13.680    6.3507
   13.710    6.5192
   13.740    6.4876
   13.770    5.9926
   13.800    6.6983
   13.830    6.8352
   13.860    6.8141
   13.890    7.1933
   13.920    6.9932
   13.950    7.1301
   13.980    7.5935
   14.010    8.7730
   14.040    9.2575
   14.070    9.9210
   14.100   11.1006
   14.130   11.3112
   14.160   11.3112
   14.190    8.8362
   14.220    8.0253
   14.250    6.5719
   14.280    6.5824
   14.310    6.3191
   14.340    6.2665
   14.370    5.9610
   14.400    5.9294
   14.430    6.3296
   14.460    6.0242
   14.490    6.3507
   14.520    6.2559
   14.550    5.9821
   14.580    5.9505
   14.610    6.0242
   14.640    6.6035
   14.670    6.3612
   14.700    6.1927
   14.730    5.9716
   14.760    6.2454
   14.790    6.0558
   14.820    6.0242
   14.850    6.2138
   14.880    6.0769
   14.910    6.0558
   14.940    5.8136
   14.970    6.2981
   15.000    6.0874
   15.030    6.6140
   15.060    6.7825
   15.090    6.8878
   15.120    6.8668
   15.150    7.4039
   15.180    8.0147
   15.210    7.4460
   15.240    6.9510
   15.270    6.6561
   15.300    6.1611
   15.330    6.4244
   15.360    6.4139
   15.390    6.0558
   15.420    6.3191
   15.450    6.1927
   15.480    6.2770
   15.510    6.1611
   15.540    6.4455
   15.570    5.7504
   15.600    5.8557
   15.630    5.6135
   15.660    6.1190
   15.690    6.1190
   15.720    6.0664
   15.750    6.5403
   15.780    6.2770
   15.810    6.0032
   15.840    5.8136
   15.870    6.2559
   15.900    6.0032
   15.930    6.1822
   15.960    5.8031
   15.990    6.3296
   16.020    6.3402
   16.050    6.3928
   16.080    6.5719
   16.110    6.7299
   16.140    7.4250
   16.170    7.2670
   16.200    7.5513
   16.230    6.6035
   16.260    6.4455
   16.290    6.2349
   16.320    6.3191
   16.350    6.8668
   16.380    6.8036
   16.410    6.1401
   16.440    6.1822
   16.470    6.3086
   16.500    6.8457
   16.530    6.4666
   16.560    6.7720
   16.590    7.2459
   16.620    7.3828
   16.650    7.7093
   16.680    6.7509
   16.710    6.9510
   16.740    6.5824
   16.770    6.4350
   16.800    6.3296
   16.830    6.4560
   16.860    6.3296
   16.890    6.7299
   16.920    6.8562
   16.950    7.1301
   16.980    7.9200
   17.010    8.5097
   17.040    9.0363
   17.070   10.1738
   17.100   10.3212
   17.130    9.8578
   17.160    8.8468
   17.190    6.9721
   17.220    6.5719
   17.250    6.7299
   17.280    6.1822
   17.310    6.4455
   17.340    6.4244
   17.370    6.3191
   17.400    6.5824
   17.430    6.3928
   17.460    6.4139
   17.490    7.1195
   17.520    6.8457
   17.550    6.8878
   17.580    6.9616
   17.610    6.6351
   17.640    6.1295
   17.670    6.2875
   17.700    6.1295
   17.730    5.9505
   17.760    6.4876
   17.790    6.5087
   17.820    6.0664
   17.850    6.2665
   17.880    6.4666
   17.910    6.5298
   17.940    6.9616
   17.970    6.7299
   18.000    7.1090
   18.030    6.9194
   18.060    6.4455
   18.090    6.0348
   18.120    6.3296
   18.150    6.3928
   18.180    6.4666
   18.210    6.2875
   18.240    6.5613
   18.270    6.2559
   18.300    6.5403
   18.330    6.7193
   18.360    6.9510
   18.390    7.1406
   18.420    7.0142
   18.450    6.6561
   18.480    6.8878
   18.510    6.3086
   18.540    6.3296
   18.570    5.8557
   18.600    6.2665
   18.630    6.2981
   18.660    6.4455
   18.690    5.8557
   18.720    6.4771
   18.750    6.6456
   18.780    6.5298
   18.810    6.8352
   18.840    7.2249
   18.870    6.6245
   18.900    6.1611
   18.930    6.8878
   18.960    6.3191
   18.990    7.0985
   19.020    6.5298
   19.050    6.4982
   19.080    6.6983
   19.110    6.3296
   19.140    6.5929
   19.170    6.4244
   19.200    6.0558
   19.230    6.3507
   19.260    6.1927
   19.290    6.5719
   19.320    6.6561
   19.350    6.2138
   19.380    6.2665
   19.410    6.4666
   19.440    6.4350
   19.470    6.3612
   19.500    6.8246
   19.530    6.0769
   19.560    6.7825
   19.590    7.4671
   19.620    7.4460
   19.650    7.1933
   19.680    6.9405
   19.710    7.0458
   19.740    6.0453
   19.770    6.2559
   19.800    6.2138
   19.830    6.0664
   19.860    6.7509
   19.890    6.3718
   19.920    6.1927
   19.950    6.4244
   19.980    6.0979
   20.010    6.2770
   20.040    6.3507
   20.070    6.5192
   20.100    6.4350
   20.130    6.8878
   20.160    6.4560
   20.190    6.1717
   20.220    6.5929
   20.250    6.7825
   20.280    6.7615
   20.310    7.3512
   20.340    8.1201
   20.370    8.7625
   20.400    8.8152
   20.430    9.2259
   20.460    9.4050
   20.490    7.5197
   20.520    6.8562
   20.550    6.6772
   20.580    6.5403
   20.610    6.2243
   20.640    6.1717
   20.670    6.5192
   20.700    5.9610
   20.730    6.3402
   20.760    6.5613
   20.790    6.4455
   20.820    6.0664
   20.850    6.3296
   20.880    6.5403
   20.910    5.8557
   20.940    6.2033
   20.970    5.8768
   21.000    6.2665
   21.030    6.2770
   21.060    6.0242
   21.090    6.5192
   21.120    6.2243
   21.150    6.4876
   21.180    6.2981
   21.210    6.3191
   21.240    6.1822
   21.270    6.4666
   21.300    6.3086
   21.330    6.3507
   21.360    6.0874
   21.390    6.2981
   21.420    6.4982
   21.450    6.1295
   21.480    6.0453
   21.510    6.4666
   21.540    6.3823
   21.570    6.1611
   21.600    6.1085
   21.630    6.1401
   21.660    6.5192
   21.690    5.9821
   21.720    6.7615
   21.750    6.7720
   21.780    6.7930
   21.810    7.0142
   21.840    7.1933
   21.870    7.4144
   21.900    7.3196
   21.930    7.5408
   21.960    6.9826
   21.990    6.7720
   22.020    6.7088
   22.050    6.2349
   22.080    6.4876
   22.110    6.2875
   22.140    6.8352
   22.170    7.2459
   22.200    7.0563
   22.230    7.4987
   22.260    7.1827
   22.290    6.9089
   22.320    6.8246
   22.350    6.9194
   22.380    6.5508
   22.410    6.3612
   22.440    6.7509
   22.470    7.1406
   22.500    7.5829
   22.530    8.5624
   22.560    9.1943
   22.590   10.4371
   22.620   10.0158
   22.650    9.1627
   22.680    8.5624
   22.710    7.2880
   22.740    7.0879
   22.770    7.2880
   22.800    7.1617
   22.830    7.7830
   22.860    8.4255
   22.890    9.1522
   22.920    9.9842
   22.950    9.5419
   22.980    9.6472
   23.010    8.7414
   23.040    7.5197
   23.070    7.4039
   23.100    6.7930
   23.130    6.9616
   23.160    7.0248
   23.190    7.2459
   23.220    7.3618
   23.250    7.2880
   23.280    7.3407
   23.310    7.4144
   23.340    7.3512
   23.370    7.0985
   23.400    6.4876
   23.430    6.4771
   23.460    6.5087
   23.490    6.4982
   23.520    6.4139
   23.550    6.4350
   23.580    6.2138
   23.610    6.4350
   23.640    6.1401
   23.670    6.3086
   23.700    6.4034
   23.730    6.6877
   23.760    6.4139
   23.790    6.2770
   23.820    6.3823
   23.850    6.6983
   23.880    6.8246
   23.910    6.4982
   23.940    6.8562
   23.970    7.2143
   24.000    6.7930
   24.030    6.6245
   24.060    7.0669
   24.090    6.3402
   24.120    6.0979
   24.150    6.3296
   24.180    6.5192
   24.210    6.6035
   24.240    6.3507
   24.270    6.7930
   24.300    6.4350
   24.330    6.3928
   24.360    6.6456
   24.390    5.7925
   24.420    6.4350
   24.450    6.3296
   24.480    6.3823
   24.510    6.2138
   24.540    6.6983
   24.570    6.4982
   24.600    6.4139
   24.630    6.5613
   24.660    6.2875
   24.690    6.2454
   24.720    6.3612
   24.750    5.8136
   24.780    6.1190
   24.810    6.1085
   24.840    6.3191
   24.870    5.9610
   24.900    6.1401
   24.930    6.4139
   24.960    6.2033
   24.990    6.1506
   25.020    6.2454
   25.050    6.0242
   25.080    6.2559
   25.110    6.4455
   25.140    6.3928
   25.170    6.0453
   25.200    6.6772
   25.230    6.6561
   25.260    6.2665
   25.290    6.4139
   25.320    6.3191
   25.350    6.1927
   25.380    6.3086
   25.410    6.5403
   25.440    6.0032
   25.470    6.5824
   25.500    6.5087
   25.530    6.4666
   25.560    6.8141
   25.590    6.6877
   25.620    6.4244
   25.650    6.0664
   25.680    6.8141
   25.710    6.0769
   25.740    7.0353
   25.770    7.3828
   25.800    7.8568
   25.830    8.6677
   25.860    8.2886
   25.890    8.4781
   25.920    7.8568
   25.950    7.1722
   25.980    6.9405
   26.010    6.2349
   26.040    5.9610
   26.070    6.1506
   26.100    5.7504
   26.130    5.8662
   26.160    6.1611
   26.190    6.5298
   26.220    5.8452
   26.250    5.9400
   26.280    6.2770
   26.310    6.3718
   26.340    6.2665
   26.370    6.1295
   26.400    6.2665
   26.430    6.6351
   26.460    6.5824
   26.490    6.6561
   26.520    6.4982
   26.550    6.8036
   26.580    6.2243
   26.610    6.0558
   26.640    5.9294
   26.670    5.9400
   26.700    5.9610
   26.730    5.6556
   26.760    5.7925
   26.790    5.7820
   26.820    5.8031
   26.850    6.3296
   26.880    6.0664
   26.910    5.9716
   26.940    6.3507
   26.970    6.5613
   27.000    6.9089
   27.030    6.8352
   27.060    7.0142
   27.090    6.7088
   27.120    6.4771
   27.150    5.8241
   27.180    5.9084
   27.210    6.0348
   27.240    5.8136
   27.270    6.1295
   27.300    5.8873
   27.330    5.9821
   27.360    5.3818
   27.390    5.9610
   27.420    5.8978
   27.450    5.9716
   27.480    5.9084
   27.510    5.6135
   27.540    6.0979
   27.570    6.3823
   27.600    6.5719
   27.630    6.3823
   27.660    6.5087
   27.690    5.9821
   27.720    6.4139
   27.750    6.4876
   27.780    5.5819
   27.810    6.1506
   27.840    6.3086
   27.870    6.4876
   27.900    6.1190
   27.930    6.1190
   27.960    6.1295
   27.990    6.2454
   28.020    6.3402
   28.050    6.4666
   28.080    6.2243
   28.110    6.6035
   28.140    6.7720
   28.170    6.7509
   28.200    7.6461
   28.230    6.4982
   28.260    6.4982
   28.290    6.2875
   28.320    6.5719
   28.350    6.0874
   28.380    6.1611
   28.410    6.2033
   28.440    6.4771
   28.470    6.6245
   28.500    6.3823
   28.530    6.4139
   28.560    6.3086
   28.590    6.4666
   28.620    5.8031
   28.650    5.4239
   28.680    5.9400
   28.710    6.3191
   28.740    6.0558
   28.770    5.9505
   28.800    5.9716
   28.830    5.7925
   28.860    6.0558
   28.890    5.9294
   28.920    5.8452
   28.950    5.8662
   28.980    6.4455
   29.010    5.8978
   29.040    6.0664
   29.070    5.8031
   29.100    5.9926
   29.130    6.1717
   29.160    5.7820
   29.190    6.0032
   29.220    6.0348
   29.250    6.3823
   29.280    6.1190
   29.310    6.4666
   29.340    6.4666
   29.370    6.1401
   29.400    6.2033
   29.430    5.8452
   29.460    5.8768
   29.490    6.0032
   29.520    5.8347
   29.550    5.7925
   29.580    5.6977
   29.610    5.9926
   29.640    5.7293
   29.670    5.4766
   29.700    5.7293
   29.730    5.6661
   29.760    5.6977
   29.790    5.7925
   29.820    5.8347
   29.850    6.0558
   29.880    6.1085
   29.910    5.8557
   29.940    5.5398
   29.970    6.0242
   30.000    5.4766
   30.030    5.7925
   30.060    5.8662
   30.090    5.6872
   30.120    5.9084
   30.150    5.3081
   30.180    5.7083
   30.210    5.3607
   30.240    5.5819
   30.270    5.7188
   30.300    5.9294
   30.330    5.8768
   30.360    5.6451
   30.390    5.8768
   30.420    5.5292
   30.450    5.4239
   30.480    5.7188
   30.510    5.5924
   30.540    5.5924
   30.570    6.0242
   30.600    5.9400
   30.630    5.7188
   30.660    5.6661
   30.690    5.5924
   30.720    5.7293
   30.750    5.6661
   30.780    6.0137
   30.810    5.3502
   30.840    5.6661
   30.870    5.7820
   30.900    5.6451
   30.930    5.5503
   30.960    5.7925
   30.990    5.4871
   31.020    5.3081
   31.050    5.6135
   31.080    5.7293
   31.110    5.3397
   31.140    5.2870
   31.170    5.6029
   31.200    5.6977
   31.230    5.2659
   31.260    5.5187
   31.290    5.4134
   31.320    5.8241
   31.350    5.4239
   31.380    5.7820
   31.410    5.9926
   31.440    5.9505
   31.470    5.6135
   31.500    5.6029
   31.530    5.7399
   31.560    5.5187
   31.590    5.4660
   31.620    5.9400
   31.650    5.0764
   31.680    5.4555
   31.710    5.7925
   31.740    5.4134
   31.770    5.4871
   31.800    5.6661
   31.830    5.8452
   31.860    5.9084
   31.890    5.8978
   31.920    5.6661
   31.950    5.7188
   31.980    5.8978
   32.010    5.8241
   32.040    5.7399
   32.070    6.0348
   32.100    5.9926
   32.130    5.6767
   32.160    6.1295
   32.190    6.0874
   32.220    5.5187
   32.250    5.9505
   32.280    5.5608
   32.310    5.4871
   32.340    5.4450
   32.370    5.7188
   32.400    5.3502
   32.430    5.4555
   32.460    5.3081
   32.490    5.1922
   32.520    5.6451
   32.550    5.1290
   32.580    5.3502
   32.610    5.2238
   32.640    5.3818
   32.670    5.3712
   32.700    5.4976
   32.730    5.0553
   32.760    5.1395
   32.790    5.3818
   32.820    5.7399
   32.850    5.4134
   32.880    5.5714
   32.910    5.6240
   32.940    5.2659
   32.970    5.9610
   33.000    5.4555
   33.030    5.4344
   33.060    5.8978
   33.090    5.3607
   33.120    5.4239
   33.150    5.4766
   33.180    5.2975
   33.210    5.1606
   33.240    5.1606
   33.270    5.2659
   33.300    5.2238
   33.330    4.7709
   33.360    5.0342
   33.390    5.4344
   33.420    4.8447
   33.450    5.0974
   33.480    5.3712
   33.510    5.3502
   33.540    4.9394
   33.570    5.0869
   33.600    5.2870
   33.630    5.3291
   33.660    5.0448
   33.690    5.1185
   33.720    5.3081
   33.750    5.3081
   33.780    5.4450
   33.810    5.4766
   33.840    5.6661
   33.870    5.9084
   33.900    6.0453
   33.930    5.9084
   33.960    5.6345
   33.990    5.6029
   34.020    4.9816
   34.050    5.6029
   34.080    5.5398
   34.110    4.9816
   34.140    5.2133
   34.170    5.7715
   34.200    5.1395
   34.230    5.3186
   34.260    4.9394
   34.290    5.0658
   34.320    4.9816
   34.350    5.0869
   34.380    5.2975
   34.410    5.0237
   34.440    5.2449
   34.470    4.8025
   34.500    4.5919
   34.530    5.2027
   34.560    5.1080
   34.590    5.0869
   34.620    5.1290
   34.650    4.9921
   34.680    4.7288
   34.710    4.9921
   34.740    4.9184
   34.770    5.5503
   34.800    5.0026
   34.830    4.9289
   34.860    5.0974
   34.890    4.6445
   34.920    5.1606
   34.950    5.1395
   34.980    5.4028
   35.010    5.0342
   35.040    4.9710
   35.070    4.9816
   35.100    4.9710
   35.130    4.7815
   35.160    5.1185
   35.190    4.7183
   35.220    4.9289
   35.250    5.0237
   35.280    4.8657
   35.310    4.5287
   35.340    4.9500
   35.370    5.0764
   35.400    5.2133
   35.430    5.2659
   35.460    4.8868
   35.490    4.7077
   35.520    4.5708
   35.550    5.1080
   35.580    4.9289
   35.610    4.6972
   35.640    4.9500
   35.670    5.5187
   35.700    5.2554
   35.730    5.2343
   35.760    4.9394
   35.790    4.9710
   35.820    4.9816
   35.850    4.8763
   35.880    4.8025
   35.910    4.9921
   35.940    4.8236
   35.970    4.9394
   36.000    5.2975
   36.030    5.1080
   36.060    4.4655
   36.090    5.1501
   36.120    4.9289
   36.150    4.6445
   36.180    4.8763
   36.210    4.8657
   36.240    5.1185
   36.270    5.2659
   36.300    5.1185
   36.330    4.4655
   36.360    4.4971
   36.390    4.7815
   36.420    4.8868
   36.450    4.7288
   36.480    4.9816
   36.510    4.5708
   36.540    4.6867
   36.570    4.7815
   36.600    5.0342
   36.630    4.8236
   36.660    5.0658
   36.690    4.8131
   36.720    4.8763
   36.750    4.9184
   36.780    5.1817
   36.810    5.2765
   36.840    4.6972
   36.870    4.9500
   36.900    4.2970
   36.930    4.9289
   36.960    4.5498
   36.990    4.8131
   37.020    4.8447
   37.050    5.3502
   37.080    4.8025
   37.110    5.0237
   37.140    5.3818
   37.170    4.8447
   37.200    5.0026
   37.230    4.9500
   37.260    4.6551
   37.290    4.9710
   37.320    4.4234
   37.350    4.6235
   37.380    4.7183
   37.410    4.8868
   37.440    4.6972
   37.470    4.7815
   37.500    4.5392
   37.530    4.8447
   37.560    5.0658
   37.590    4.7183
   37.620    4.7709
   37.650    5.1080
   37.680    4.9184
   37.710    4.9394
   37.740    4.6340
   37.770    4.5814
   37.800    5.0764
   37.830    4.6761
   37.860    4.8973
   37.890    4.8657
   37.920    5.1290
   37.950    4.7815
   37.980    5.0448
   38.010    4.9605
   38.040    4.5919
   38.070    4.7815
   38.100    4.9500
   38.130    4.9816
   38.160    4.8657
   38.190    4.3391
   38.220    4.7183
   38.250    4.7288
   38.280    4.7288
   38.310    5.1185
   38.340    4.6761
   38.370    4.8025
   38.400    4.9921
   38.430    4.8973
   38.460    4.4866
   38.490    4.6235
   38.520    4.9605
   38.550    4.7499
   38.580    4.8973
   38.610    4.9184
   38.640    4.7604
   38.670    4.9500
   38.700    4.6445
   38.730    5.0342
   38.760    4.7183
   38.790    4.6445
   38.820    4.6656
   38.850    4.7709
   38.880    4.7709
   38.910    4.5814
   38.940    4.6130
   38.970    4.8131
   39.000    4.2865
   39.030    4.8025
   39.060    4.2865
   39.090    4.7393
   39.120    5.2027
   39.150    4.6340
   39.180    4.5708
   39.210    4.8025
   39.240    4.7920
   39.270    4.7183
   39.300    4.9289
   39.330    4.9710
   39.360    4.5182
   39.390    4.4866
   39.420    4.5919
   39.450    4.2759
   39.480    4.5603
   39.510    4.5919
   39.540    4.5392
   39.570    4.5498
   39.600    4.5076
   39.630    4.5287
   39.660    4.6972
   39.690    4.8025
   39.720    4.9816
   39.750    4.6024
   39.780    4.7920
   39.810    4.5814
   39.840    4.7393
   39.870    4.6130
   39.900    4.5287
   39.930    4.8447
   39.960    4.5392
   39.990    4.6024