File: data/PXRD/PXRD_KE-321B_Cu-Ka1_capillary-1mm_3s-deg.xyd
    1.500   40.8987
    1.545   39.5998
    1.590   36.7562
    1.635   34.8253
    1.680   31.8764
    1.725   29.0679
    1.770   27.2600
    1.815   25.1360
    1.860   23.9775
    1.905   22.4329
    1.950   20.7653
    1.995   20.2738
    2.040   18.6063
    2.085   17.2020
    2.130   16.2191
    2.175   15.7978
    2.220   14.8499
    2.265   14.4462
    2.310   13.8494
    2.355   13.5510
    2.400   13.1297
    2.445   12.0414
    2.490   11.7255
    2.535   11.1462
    2.580   10.7074
    2.625   10.1106
    2.670    9.5138
    2.715   10.0755
    2.760    9.5489
    2.805    9.5664
    2.850    8.6712
    2.895    9.0398
    2.940    8.4079
    2.985    8.0218
    3.030    7.5478
    3.075    7.8111
    3.120    7.5127
    3.165    8.1622
    3.210    7.6707
    3.255    7.3372
    3.300    7.4425
    3.345    7.3547
    3.390    7.1792
    3.435    6.6526
    3.480    7.1266
    3.525    7.0037
    3.570    6.7755
    3.615    6.5473
    3.660    6.9686
    3.705    7.0563
    3.750    7.2319
    3.795    6.7228
    3.840    7.4250
    3.885    7.3021
    3.930    6.1962
    3.975    6.3367
    4.020    6.1611
    4.065    6.3367
    4.110    6.1787
    4.155    6.1611
    4.200    6.3893
    4.245    5.9681
    4.290    6.0558
    4.335    5.6872
    4.380    6.0734
    4.425    6.5473
    4.470    6.0909
    4.515    6.0032
    4.560    5.7399
    4.605    6.1260
    4.650    5.7925
    4.695    5.2835
    4.740    5.7750
    4.785    5.9856
    4.830    5.3186
    4.875    5.6521
    4.920    5.5994
    4.965    5.0202
    5.010    5.4590
    5.055    5.1957
    5.100    5.7574
    5.145    5.3888
    5.190    5.4064
    5.235    5.7750
    5.280    5.0026
    5.325    5.3712
    5.370    5.3010
    5.415    5.4415
    5.460    5.3010
    5.505    5.2835
    5.550    5.4415
    5.595    4.9500
    5.640    5.0377
    5.685    4.9851
    5.730    5.2659
    5.775    5.0026
    5.820    5.1080
    5.865    4.7218
    5.910    5.0202
    5.955    4.9851
    6.000    5.0904
    6.045    4.8973
    6.090    5.4064
    6.135    5.0904
    6.180    5.3712
    6.225    5.1080
    6.270    5.2484
    6.315    5.0377
    6.360    4.8447
    6.405    5.1957
    6.450    5.1431
    6.495    4.8622
    6.540    5.1255
    6.585    4.6165
    6.630    5.0728
    6.675    5.0026
    6.720    4.9324
    6.765    4.9851
    6.810    4.9675
    6.855    5.3537
    6.900    5.4766
    6.945    4.7569
    6.990    4.9675
    7.035    4.7218
    7.080    4.7042
    7.125    4.9851
    7.170    4.8973
    7.215    4.9500
    7.260    4.9324
    7.305    5.0026
    7.350    5.3186
    7.395    4.7569
    7.440    5.1255
    7.485    5.0904
    7.530    5.7399
    7.575    5.5117
    7.620    5.1431
    7.665    5.3537
    7.710    5.0728
    7.755    4.7920
    7.800    4.8095
    7.845    4.9149
    7.890    4.8973
    7.935    5.5643
    7.980    5.2308
    8.025    4.8973
    8.070    5.9681
    8.115    4.8447
    8.160    4.8622
    8.205    5.1957
    8.250    4.7744
    8.295    5.2308
    8.340    5.0377
    8.385    5.4415
    8.430    5.1255
    8.475    5.4064
    8.520    5.3186
    8.565    5.1080
    8.610    5.3537
    8.655    4.6340
    8.700    5.3010
    8.745    5.2484
    8.790    5.7223
    8.835    5.1431
    8.880    5.3537
    8.925    5.4941
    8.970    5.0202
    9.015    5.4941
    9.060    5.0026
    9.105    5.3712
    9.150    5.3712
    9.195    5.0728
    9.240    5.1431
    9.285    5.9329
    9.330    5.2659
    9.375    5.4415
    9.420    5.3888
    9.465    5.7048
    9.510    5.4064
    9.555    5.3712
    9.600    5.4590
    9.645    5.3888
    9.690    5.7574
    9.735    5.2484
    9.780    5.0904
    9.825    5.2484
    9.870    5.6345
    9.915    5.5994
    9.960    5.3361
   10.005    5.1606
   10.050    5.3186
   10.095    5.1782
   10.140    5.6170
   10.185    5.5468
   10.230    5.2133
   10.275    5.1606
   10.320    5.1255
   10.365    5.2659
   10.410    5.1255
   10.455    5.2133
   10.500    5.5117
   10.545    5.1255
   10.590    5.8803
   10.635    5.0904
   10.680    5.6170
   10.725    5.2835
   10.770    5.2308
   10.815    5.3361
   10.860    5.4590
   10.905    5.1431
   10.950    5.4766
   10.995    5.2308
   11.040    4.9675
   11.085    4.9500
   11.130    5.2835
   11.175    4.7920
   11.220    5.3712
   11.265    5.1782
   11.310    4.8973
   11.355    5.5643
   11.400    4.8271
   11.445    5.3186
   11.490    5.0904
   11.535    5.5117
   11.580    4.9149
   11.625    4.8798
   11.670    4.6867
   11.715    4.8447
   11.760    5.0728
   11.805    5.0904
   11.850    4.8798
   11.895    5.0728
   11.940    4.8447
   11.985    4.8271
   12.030    5.2835
   12.075    4.7569
   12.120    4.3005
   12.165    4.8798
   12.210    4.7218
   12.255    4.6165
   12.300    4.4936
   12.345    4.7042
   12.390    4.6340
   12.435    4.4936
   12.480    4.6867
   12.525    4.3707
   12.570    4.9675
   12.615    5.1957
   12.660    4.4760
   12.705    4.8622
   12.750    4.5814
   12.795    4.0899
   12.840    4.6691
   12.885    4.4058
   12.930    4.6516
   12.975    4.6516
   13.020    5.0728
   13.065    4.7744
   13.110    4.5287
   13.155    4.4936
   13.200    4.2127
   13.245    4.8271
   13.290    4.6516
   13.335    4.5814
   13.380    4.5463
   13.425    4.2830
   13.470    4.7042
   13.515    5.0202
   13.560    4.7569
   13.605    4.4234
   13.650    4.8973
   13.695    4.4234
   13.740    4.7393
   13.785    4.4760
   13.830    4.3883
   13.875    4.9149
   13.920    5.0728
   13.965    4.6691
   14.010    4.4234
   14.055    5.0728
   14.100    4.4760
   14.145    4.6516
   14.190    4.3532
   14.235    4.5814
   14.280    4.5638
   14.325    4.3707
   14.370    4.6867
   14.415    4.5638
   14.460    4.4234
   14.505    4.3883
   14.550    4.7744
   14.595    4.8271
   14.640    4.2303
   14.685    4.6340
   14.730    4.7569
   14.775    4.3181
   14.820    4.4058
   14.865    4.8622
   14.910    4.5638
   14.955    4.6516
   15.000    4.4760
   15.045    4.5111
   15.090    4.4760
   15.135    4.9149
   15.180    4.7569
   15.225    4.5287
   15.270    4.2303
   15.315    4.7744
   15.360    4.3707
   15.405    4.8973
   15.450    4.4760
   15.495    4.5638
   15.540    4.8622
   15.585    4.3181
   15.630    4.7393
   15.675    4.4409
   15.720    4.4936
   15.765    4.3181
   15.810    4.8095
   15.855    4.4585
   15.900    4.4760
   15.945    4.7218
   15.990    4.7920
   16.035    4.9149
   16.080    4.6867
   16.125    4.9149
   16.170    4.4585
   16.215    4.5814
   16.260    4.7920
   16.305    4.4760
   16.350    4.5287
   16.395    4.6691
   16.440    4.6165
   16.485    4.2478
   16.530    4.8622
   16.575    4.4058
   16.620    4.4585
   16.665    4.8973
   16.710    4.4234
   16.755    4.7218
   16.800    4.5814
   16.845    4.4936
   16.890    4.4409
   16.935    4.6165
   16.980    4.4234
   17.025    4.4058
   17.070    4.5287
   17.115    4.5638
   17.160    4.3356
   17.205    4.6691
   17.250    4.4760
   17.295    4.3356
   17.340    4.3883
   17.385    4.6340
   17.430    4.2478
   17.475    4.5111
   17.520    4.5989
   17.565    4.4936
   17.610    4.3707
   17.655    4.4058
   17.700    4.2830
   17.745    4.5463
   17.790    4.6691
   17.835    5.1080
   17.880    4.5287
   17.925    4.8447
   17.970    4.6516
   18.015    4.5287
   18.060    4.2478
   18.105    4.5287
   18.150    4.3883
   18.195    4.6691
   18.240    4.2830
   18.285    4.2830
   18.330    4.6165
   18.375    4.7920
   18.420    4.8271
   18.465    4.2303
   18.510    4.5111
   18.555    4.4936
   18.600    4.6340
   18.645    4.8798
   18.690    4.8095
   18.735    4.5989
   18.780    4.9324
   18.825    4.8447
   18.870    4.5989
   18.915    4.8095
   18.960    4.3532
   19.005    4.3356
   19.050    4.7744
   19.095    4.6340
   19.140    4.3181
   19.185    4.1776
   19.230    4.7042
   19.275    4.8447
   19.320    4.7744
   19.365    4.0197
   19.410    4.6867
   19.455    4.5463
   19.500    4.3532
   19.545    4.7744
   19.590    4.7218
   19.635    4.6867
   19.680    4.7042
   19.725    4.4058
   19.770    4.6516
   19.815    4.2654
   19.860    4.4585
   19.905    4.8798
   19.950    4.3356
   19.995    4.4936
   20.040    4.5463
   20.085    5.3010
   20.130    4.6867
   20.175    4.9675
   20.220    5.3186
   20.265    4.9675
   20.310    4.5638
   20.355    5.2133
   20.400    4.4234
   20.445    4.5111
   20.490    4.6340
   20.535    4.3532
   20.580    4.5814
   20.625    4.8973
   20.670    4.8798
   20.715    4.5814
   20.760    4.6340
   20.805    4.6867
   20.850    4.6691
   20.895    4.5638
   20.940    4.4409
   20.985    4.8798
   21.030    4.7042
   21.075    4.5287
   21.120    4.5638
   21.165    4.4058
   21.210    4.7920
   21.255    4.4585
   21.300    4.3707
   21.345    5.1255
   21.390    4.9324
   21.435    4.9675
   21.480    5.1080
   21.525    4.9851
   21.570    4.5989
   21.615    4.9324
   21.660    5.0377
   21.705    5.3186
   21.750    4.6516
   21.795    4.5638
   21.840    4.3532
   21.885    4.4058
   21.930    4.7920
   21.975    4.5989
   22.020    5.0377
   22.065    4.7920
   22.110    4.3883
   22.155    4.7920
   22.200    4.1074
   22.245    4.7744
   22.290    4.8622
   22.335    4.8973
   22.380    4.7218
   22.425    4.7393
   22.470    4.8798
   22.515    4.7569
   22.560    5.2133
   22.605    4.5638
   22.650    5.1255
   22.695    4.6867
   22.740    4.6165
   22.785    4.1074
   22.830    4.9851
   22.875    4.9851
   22.920    4.9851
   22.965    5.1255
   23.010    4.7569
   23.055    4.7569
   23.100    4.7393
   23.145    4.8622
   23.190    4.7569
   23.235    4.6516
   23.280    4.7393
   23.325    4.8271
   23.370    4.7393
   23.415    4.1776
   23.460    4.8798
   23.505    4.8798
   23.550    4.5463
   23.595    4.4409
   23.640    4.6691
   23.685    5.0553
   23.730    5.0202
   23.775    4.8798
   23.820    4.4760
   23.865    4.7920
   23.910    4.9851
   23.955    4.6516
   24.000    4.7569
   24.045    4.3356
   24.090    5.0026
   24.135    4.6340
   24.180    5.0904
   24.225    4.7920
   24.270    4.8095
   24.315    4.6340
   24.360    5.3010
   24.405    4.2478
   24.450    4.6340
   24.495    4.5111
   24.540    4.7218
   24.585    4.4409
   24.630    4.6516
   24.675    4.3532
   24.720    4.5989
   24.765    4.4936
   24.810    5.0904
   24.855    4.3883
   24.900    4.5989
   24.945    4.1952
   24.990    4.9851
   25.035    4.4760
   25.080    3.9846
   25.125    4.1425
   25.170    4.5287
   25.215    4.5111
   25.260    4.8095
   25.305    4.3181
   25.350    4.6516
   25.395    4.5111
   25.440    4.7218
   25.485    4.6340
   25.530    4.7042
   25.575    4.5111
   25.620    4.4936
   25.665    4.6340
   25.710    4.3707
   25.755    4.3883
   25.800    4.6340
   25.845    4.6867
   25.890    4.9149
   25.935    4.2478
   25.980    4.3181
   26.025    4.6340
   26.070    4.3532
   26.115    4.2127
   26.160    4.4585
   26.205    4.4760
   26.250    4.4760
   26.295    4.6340
   26.340    4.3707
   26.385    4.7569
   26.430    4.8798
   26.475    4.0372
   26.520    4.1425
   26.565    4.2478
   26.610    4.3356
   26.655    4.1601
   26.700    4.5463
   26.745    4.1776
   26.790    4.6340
   26.835    4.8095
   26.880    4.1952
   26.925    4.4234
   26.970    4.3532
   27.015    4.8095
   27.060    4.2654
   27.105    4.6340
   27.150    4.2127
   27.195    4.7569
   27.240    4.0723
   27.285    4.6691
   27.330    4.5638
   27.375    4.2830
   27.420    4.2654
   27.465    4.4760
   27.510    4.3883
   27.555    4.2654
   27.600    4.3883
   27.645    4.7920
   27.690    4.3181
   27.735    4.1776
   27.780    4.4936
   27.825    4.3005
   27.870    4.4760
   27.915    4.4936
   27.960    3.7915
   28.005    4.1952
   28.050    4.0021
   28.095    4.1250
   28.140    4.5989
   28.185    4.3356
   28.230    4.5111
   28.275    4.1952
   28.320    4.6516
   28.365    4.4760
   28.410    4.0899
   28.455    4.4058
   28.500    4.2303
   28.545    3.9494
   28.590    3.7037
   28.635    4.0021
   28.680    4.4760
   28.725    4.0372
   28.770    4.2654
   28.815    4.0548
   28.860    4.0723
   28.905    4.5989
   28.950    4.1074
   28.995    4.3181
   29.040    4.1952
   29.085    4.1074
   29.130    4.2303
   29.175    4.1601
   29.220    4.2127
   29.265    3.9670
   29.310    4.3532
   29.355    3.8441
   29.400    3.5457
   29.445    3.9494
   29.490    3.9143
   29.535    3.8968
   29.580    3.3702
   29.625    4.1074
   29.670    3.8792
   29.715    4.1952
   29.760    3.8792
   29.805    4.2478
   29.850    4.0899
   29.895    3.8441
   29.940    4.2654
   29.985    4.4234
   30.030    4.2654
   30.075    4.1425
   30.120    4.3707
   30.165    4.0899
   30.210    3.8792
   30.255    3.8968
   30.300    4.1601
   30.345    4.1601
   30.390    4.0021
   30.435    4.2127
   30.480    3.7739
   30.525    4.3181
   30.570    4.0372
   30.615    3.8441
   30.660    3.8266
   30.705    4.2830
   30.750    3.5808
   30.795    4.2830
   30.840    3.6862
   30.885    4.3005
   30.930    4.0723
   30.975    3.5633
   31.020    3.4755
   31.065    4.3356
   31.110    3.8441
   31.155    3.9670
   31.200    3.6159
   31.245    3.5633
   31.290    4.1250
   31.335    4.0723
   31.380    3.6510
   31.425    4.0197
   31.470    3.5808
   31.515    3.7739
   31.560    3.6159
   31.605    3.8266
   31.650    3.9670
   31.695    3.6335
   31.740    3.7037
   31.785    3.8266
   31.830    3.7388
   31.875    4.0899
   31.920    4.5111
   31.965    4.0372
   32.010    3.6335
   32.055    4.1601
   32.100    3.8968
   32.145    3.5633
   32.190    3.8266
   32.235    3.7213
   32.280    3.7388
   32.325    3.9143
   32.370    3.6510
   32.415    4.1601
   32.460    3.8090
   32.505    3.3702
   32.550    4.0021
   32.595    3.7213
   32.640    4.0548
   32.685    3.5808
   32.730    3.8266
   32.775    4.0197
   32.820    3.7739
   32.865    3.7564
   32.910    3.6686
   32.955    3.9143
   33.000    3.8266
   33.045    3.4229
   33.090    3.5282
   33.135    3.8266
   33.180    3.6862
   33.225    3.4053
   33.270    3.4931
   33.315    3.5984
   33.360    3.6335
   33.405    3.8441
   33.450    3.8617
   33.495    3.9319
   33.540    3.5984
   33.585    3.5282
   33.630    3.7037
   33.675    3.4053
   33.720    3.5984
   33.765    3.5633
   33.810    3.5984
   33.855    3.4755
   33.900    3.5457
   33.945    3.5808
   33.990    3.7213
   34.035    3.6510
   34.080    3.7739
   34.125    3.4053
   34.170    3.3000
   34.215    3.3351
   34.260    3.9494
   34.305    3.4755
   34.350    3.9846
   34.395    3.5984
   34.440    3.6510
   34.485    3.4404
   34.530    3.4755
   34.575    3.3702
   34.620    3.3526
   34.665    3.5633
   34.710    3.4580
   34.755    3.3702
   34.800    3.1596
   34.845    3.7037
   34.890    3.6686
   34.935    3.6686
   34.980    3.5633
   35.025    3.4229
   35.070    3.7037
   35.115    3.5808
   35.160    3.6686
   35.205    3.6159
   35.250    3.6510
   35.295    3.6686
   35.340    3.4053
   35.385    3.3000
   35.430    3.1069
   35.475    3.8968
   35.520    3.5808
   35.565    3.7213
   35.610    3.5457
   35.655    3.4053
   35.700    3.1771
   35.745    3.6686
   35.790    3.0893
   35.835    3.6159
   35.880    3.3351
   35.925    3.7915
   35.970    3.4229
   36.015    3.4755
   36.060    3.4580
   36.105    3.5457
   36.150    3.3702
   36.195    3.3877
   36.240    3.5633
   36.285    3.5457
   36.330    3.4931
   36.375    3.4755
   36.420    3.4931
   36.465    3.5633
   36.510    3.1947
   36.555    3.2122
   36.600    3.3351
   36.645    3.5457
   36.690    2.9138
   36.735    3.1771
   36.780    3.5282
   36.825    3.4931
   36.870    3.1771
   36.915    3.3000
   36.960    3.1771
   37.005    3.4404
   37.050    3.4931
   37.095    2.8612
   37.140    3.2122
   37.185    3.2649
   37.230    3.4053
   37.275    3.3702
   37.320    3.2824
   37.365    3.3526
   37.410    3.3877
   37.455    3.2473
   37.500    3.3000
   37.545    3.1069
   37.590    3.3702
   37.635    3.3877
   37.680    3.4404
   37.725    3.2298
   37.770    3.1596
   37.815    3.2649
   37.860    3.4755
   37.905    2.8787
   37.950    3.2298
   37.995    3.2122
   38.040    3.3526
   38.085    3.4053
   38.130    3.6335
   38.175    3.7037
   38.220    3.2649
   38.265    3.4931
   38.310    3.2473
   38.355    2.9665
   38.400    3.3351
   38.445    3.1596
   38.490    3.4580
   38.535    3.2122
   38.580    3.6510
   38.625    3.2824
   38.670    3.1069
   38.715    3.4229
   38.760    3.3702
   38.805    3.3175
   38.850    3.3351
   38.895    3.1947
   38.940    3.3526
   38.985    3.4580
   39.030    3.4053
   39.075    3.1771
   39.120    3.2824
   39.165    3.2824
   39.210    3.2824
   39.255    3.4931
   39.300    3.0893
   39.345    3.3526
   39.390    3.4053
   39.435    3.7739
   39.480    3.0016
   39.525    3.6510
   39.570    3.0718
   39.615    3.1947
   39.660    3.3702
   39.705    2.9665
   39.750    3.1069
   39.795    3.2824
   39.840    3.4229
   39.885    3.3526
   39.930    3.3175
   39.975    3.3351
   40.020    3.1245
   40.065    2.9840
   40.110    3.1420
   40.155    3.2649
   40.200    3.6510
   40.245    3.1771
   40.290    3.3526
   40.335    3.1771
   40.380    2.9665
   40.425    3.3351
   40.470    3.0542
   40.515    2.8612
   40.560    3.1771
   40.605    3.2298
   40.650    3.3526
   40.695    2.8787
   40.740    3.0191
   40.785    3.3175
   40.830    3.1947
   40.875    3.1596
   40.920    3.0718
   40.965    3.0016
   41.010    3.3877
   41.055    3.2649
   41.100    3.3175
   41.145    3.2824
   41.190    3.2824
   41.235    3.0191
   41.280    3.2473
   41.325    3.2122
   41.370    3.5633
   41.415    3.2473
   41.460    3.2649
   41.505    3.3877
   41.550    3.0016
   41.595    3.1947
   41.640    3.3702
   41.685    2.9665
   41.730    3.3526
   41.775    3.0893
   41.820    3.2122
   41.865    3.1771
   41.910    3.3702
   41.955    3.2473
   42.000    3.0191
   42.045    3.4053
   42.090    3.1596
   42.135    3.2298
   42.180    3.1771
   42.225    3.2298
   42.270    3.4755
   42.315    3.1245
   42.360    3.5282
   42.405    2.8085
   42.450    3.1420
   42.495    3.2122
   42.540    3.5106
   42.585    3.3526
   42.630    3.1947
   42.675    3.1947
   42.720    3.0367
   42.765    3.4229
   42.810    3.4755
   42.855    2.9840
   42.900    3.2298
   42.945    3.2473
   42.990    3.3526
   43.035    3.2298
   43.080    3.1771
   43.125    2.9138
   43.170    2.9665
   43.215    3.1596
   43.260    3.0893
   43.305    3.0367
   43.350    3.3351
   43.395    3.3526
   43.440    3.4229
   43.485    3.4580
   43.530    3.1069
   43.575    2.7909
   43.620    3.3000
   43.665    3.4580
   43.710    3.5106
   43.755    2.9665
   43.800    3.1596
   43.845    3.1596
   43.890    3.4580
   43.935    3.2473
   43.980    3.2473
   44.025    3.0191
   44.070    3.5457
   44.115    3.1596
   44.160    3.0893
   44.205    3.2473
   44.250    3.0718
   44.295    2.9138
   44.340    3.2473
   44.385    3.1771
   44.430    2.9489
   44.475    2.7207
   44.520    3.2473
   44.565    2.9840
   44.610    3.3000
   44.655    3.0718
   44.700    2.8963
   44.745    3.3526
   44.790    3.3175
   44.835    3.1245
   44.880    2.9314
   44.925    2.9489
   44.970    3.2122
   45.015    3.0718
   45.060    3.1069
   45.105    3.1245
   45.150    3.0542
   45.195    3.2122
   45.240    3.1771
   45.285    3.3175
   45.330    3.3175
   45.375    2.9138
   45.420    3.0191
   45.465    3.1771
   45.510    3.2473
   45.555    3.5282
   45.600    3.4229
   45.645    2.7383
   45.690    3.3526
   45.735    3.3351
   45.780    2.5101
   45.825    3.1245
   45.870    3.3000
   45.915    3.3702
   45.960    3.1245
   46.005    2.7558
   46.050    3.2473
   46.095    3.2298
   46.140    3.0718
   46.185    3.0718
   46.230    3.0718
   46.275    3.1771
   46.320    3.2298
   46.365    3.1245
   46.410    2.9665
   46.455    2.6154
   46.500    3.0893
   46.545    2.8085
   46.590    2.8612
   46.635    3.1947
   46.680    2.9489
   46.725    3.1771
   46.770    3.0016
   46.815    3.2473
   46.860    2.9314
   46.905    3.2473
   46.950    2.9138
   46.995    3.0016
   47.040    2.9489
   47.085    2.9665
   47.130    3.1596
   47.175    3.1420
   47.220    3.4755
   47.265    3.0893
   47.310    2.9489
   47.355    2.8612
   47.400    3.2298
   47.445    3.1069
   47.490    3.0893
   47.535    3.1947
   47.580    3.4755
   47.625    2.7207
   47.670    2.7734
   47.715    3.3175
   47.760    2.7207
   47.805    2.8085
   47.850    2.8436
   47.895    3.1947
   47.940    2.9314
   47.985    3.1771
   48.030    3.2122
   48.075    2.8260
   48.120    2.8260
   48.165    3.1596
   48.210    3.0191
   48.255    3.1420
   48.300    2.7383
   48.345    2.8787
   48.390    3.0893
   48.435    2.9314
   48.480    3.3351
   48.525    3.1069
   48.570    3.1069
   48.615    2.8963
   48.660    3.1069
   48.705    2.9314
   48.750    2.9489
   48.795    2.6681
   48.840    2.8260
   48.885    3.2649
   48.930    2.9665
   48.975    2.9489
   49.020    2.7734
   49.065    2.8787
   49.110    3.1596
   49.155    3.0367
   49.200    2.9138
   49.245    3.0016
   49.290    2.5452
   49.335    2.6856
   49.380    3.0718
   49.425    3.1947
   49.470    3.1596
   49.515    2.9665
   49.560    2.8963
   49.605    3.0718
   49.650    2.9489
   49.695    2.8260
   49.740    3.1069
   49.785    2.9489
   49.830    3.0191
   49.875    3.2824
   49.920    3.0542
   49.965    3.0542
   49.980    3.0718