File: data/PXRD/PXRD_KE-068_Cu-Ka1_capillary-1mm_5s-deg.xyd
    1.500   12.3223
    1.530   12.2801
    1.560   12.0484
    1.590   12.5329
    1.620   11.7325
    1.650   11.9326
    1.680   11.9326
    1.710   11.5324
    1.740   12.1116
    1.770   11.7957
    1.800   12.0484
    1.830   11.6693
    1.860   12.0169
    1.890   11.5008
    1.920   11.7746
    1.950   11.7114
    1.980   11.7114
    2.010   11.6798
    2.040   11.5956
    2.070   11.4797
    2.100   12.2380
    2.130   12.1643
    2.160   12.1854
    2.190   12.1011
    2.220   12.7225
    2.250   12.4487
    2.280   12.8489
    2.310   12.9015
    2.340   13.2491
    2.370   13.3228
    2.400   13.9652
    2.430   13.8283
    2.460   14.3023
    2.490   14.9552
    2.520   15.5661
    2.550   16.1664
    2.580   16.3244
    2.610   16.2717
    2.640   16.9563
    2.670   17.1564
    2.700   17.3776
    2.730   18.0200
    2.760   19.3470
    2.790   20.2949
    2.820   21.3481
    2.850   21.5587
    2.880   22.7278
    2.910   25.0764
    2.940   25.5398
    2.970   26.3507
    3.000   28.3412
    3.030   28.9521
    3.060   30.8899
    3.090   33.6177
    3.120   34.2707
    3.150   37.2301
    3.180   39.2628
    3.210   43.2228
    3.240   46.1611
    3.270   49.3418
    3.300   54.9658
    3.330   59.7367
    3.360   65.4766
    3.390   75.5556
    3.420   83.9389
    3.450   94.3655
    3.480  101.5798
    3.510   95.9768
    3.540   82.6014
    3.570   63.2122
    3.600   50.1001
    3.630   43.2754
    3.660   39.2312
    3.690   39.4839
    3.720   38.4939
    3.750   40.3160
    3.780   41.5692
    3.810   45.8031
    3.840   49.7525
    3.870   54.5656
    3.900   60.0000
    3.930   59.5471
    3.960   50.6372
    3.990   44.3707
    4.020   43.0753
    4.050   41.8325
    4.080   38.9995
    4.110   36.8615
    4.140   32.8173
    4.170   30.0685
    4.200   26.1822
    4.230   23.4123
    4.260   21.9589
    4.290   19.3470
    4.320   16.3033
    4.350   14.5761
    4.380   13.0068
    4.410   12.3749
    4.440   10.7425
    4.470    9.9210
    4.500    9.4681
    4.530    9.0258
    4.560    8.3096
    4.590    7.8778
    4.620    7.7093
    4.650    7.2986
    4.680    6.8141
    4.710    7.0879
    4.740    6.9616
    4.770    6.7088
    4.800    6.8668
    4.830    6.4666
    4.860    6.4139
    4.890    6.0979
    4.920    6.5087
    4.950    6.3718
    4.980    6.6561
    5.010    6.2981
    5.040    6.2665
    5.070    6.2349
    5.100    6.2349
    5.130    6.1822
    5.160    6.4876
    5.190    6.5403
    5.220    6.3718
    5.250    6.8457
    5.280    6.7930
    5.310    6.7404
    5.340    6.9089
    5.370    6.9405
    5.400    7.8357
    5.430    7.9621
    5.460    8.8046
    5.490    9.3523
    5.520   10.4265
    5.550   10.0579
    5.580    7.4039
    5.610    5.6556
    5.640    4.8763
    5.670    4.8341
    5.700    5.0553
    5.730    5.1185
    5.760    4.7604
    5.790    5.0658
    5.820    4.8868
    5.850    5.0658
    5.880    5.0658
    5.910    4.7393
    5.940    4.8868
    5.970    5.0026
    6.000    5.0764
    6.030    5.4450
    6.060    4.9921
    6.090    5.1922
    6.120    5.0132
    6.150    5.2343
    6.180    5.3923
    6.210    5.4555
    6.240    5.2554
    6.270    4.9921
    6.300    4.9289
    6.330    5.3923
    6.360    5.4028
    6.390    5.6029
    6.420    5.4976
    6.450    5.2554
    6.480    5.5819
    6.510    5.5924
    6.540    6.3823
    6.570    5.8978
    6.600    6.4455
    6.630    6.4771
    6.660    6.8878
    6.690    7.4882
    6.720    7.7514
    6.750    8.6993
    6.780    9.0574
    6.810    9.6893
    6.840    9.2680
    6.870   10.0369
    6.900   10.7004
    6.930   11.5745
    6.960   12.6804
    6.990   13.4176
    7.020   12.6909
    7.050   10.8794
    7.080    9.0469
    7.110    7.6145
    7.140    6.9826
    7.170    6.3191
    7.200    5.9400
    7.230    5.5714
    7.260    5.7715
    7.290    5.6240
    7.320    5.5187
    7.350    5.5608
    7.380    5.5187
    7.410    5.5819
    7.440    5.6345
    7.470    5.9926
    7.500    5.5187
    7.530    5.5714
    7.560    5.5714
    7.590    6.3507
    7.620    5.8452
    7.650    6.4666
    7.680    6.2875
    7.710    6.4771
    7.740    6.8141
    7.770    7.2354
    7.800    7.6145
    7.830    7.2459
    7.860    7.4355
    7.890    7.4250
    7.920    6.7930
    7.950    7.3618
    7.980    6.7404
    8.010    7.9094
    8.040    8.2254
    8.070    7.5408
    8.100    8.0147
    8.130    7.3407
    8.160    7.7830
    8.190    7.3828
    8.220    7.3828
    8.250    7.0142
    8.280    7.0563
    8.310    7.0563
    8.340    6.9194
    8.370    7.1933
    8.400    6.8773
    8.430    6.8773
    8.460    6.4666
    8.490    6.0874
    8.520    6.2875
    8.550    6.0348
    8.580    5.9189
    8.610    5.4871
    8.640    5.5608
    8.670    5.4450
    8.700    5.4871
    8.730    5.1817
    8.760    5.2659
    8.790    5.3712
    8.820    4.8973
    8.850    5.0132
    8.880    5.3502
    8.910    5.0448
    8.940    4.8868
    8.970    5.0026
    9.000    4.7499
    9.030    4.8341
    9.060    4.8552
    9.090    4.4760
    9.120    4.7604
    9.150    4.9078
    9.180    4.5708
    9.210    4.4655
    9.240    4.5182
    9.270    4.8447
    9.300    4.5919
    9.330    4.8447
    9.360    5.1711
    9.390    5.0342
    9.420    5.2027
    9.450    4.9921
    9.480    5.4450
    9.510    5.6767
    9.540    6.1717
    9.570    6.6877
    9.600    7.1090
    9.630    6.0769
    9.660    4.8025
    9.690    4.6656
    9.720    4.5498
    9.750    4.5182
    9.780    4.6972
    9.810    4.2338
    9.840    4.2443
    9.870    4.3602
    9.900    4.3181
    9.930    4.4655
    9.960    4.6656
    9.990    4.4760
   10.020    4.3918
   10.050    4.7709
   10.080    4.5076
   10.110    4.5498
   10.140    4.4339
   10.170    4.4128
   10.200    4.6340
   10.230    4.8025
   10.260    4.7288
   10.290    5.1817
   10.320    5.0658
   10.350    5.6345
   10.380    5.4134
   10.410    5.0342
   10.440    4.9078
   10.470    4.9816
   10.500    5.2870
   10.530    5.0448
   10.560    4.8973
   10.590    4.6656
   10.620    4.8341
   10.650    4.4550
   10.680    4.6761
   10.710    4.4971
   10.740    4.3286
   10.770    4.7077
   10.800    4.3181
   10.830    4.6340
   10.860    4.4128
   10.890    4.4444
   10.920    4.6340
   10.950    4.6656
   10.980    4.9184
   11.010    4.5814
   11.040    4.9184
   11.070    4.9816
   11.100    5.3291
   11.130    4.5603
   11.160    4.4866
   11.190    4.2970
   11.220    4.7077
   11.250    4.2970
   11.280    4.3181
   11.310    4.0758
   11.340    3.9389
   11.370    4.3602
   11.400    4.5182
   11.430    4.6445
   11.460    4.5076
   11.490    4.3286
   11.520    4.6867
   11.550    4.8236
   11.580    4.5392
   11.610    4.6551
   11.640    4.5392
   11.670    4.7815
   11.700    5.1606
   11.730    5.2975
   11.760    5.1817
   11.790    5.4134
   11.820    4.6656
   11.850    4.6656
   11.880    5.0764
   11.910    4.9184
   11.940    4.5919
   11.970    4.8973
   12.000    4.7920
   12.030    5.1080
   12.060    5.1817
   12.090    4.5919
   12.120    4.5287
   12.150    4.6235
   12.180    4.8447
   12.210    5.1290
   12.240    4.7920
   12.270    4.5182
   12.300    4.6972
   12.330    4.8447
   12.360    4.8447
   12.390    4.6972
   12.420    5.3291
   12.450    4.9605
   12.480    4.3707
   12.510    4.7393
   12.540    4.7183
   12.570    4.5076
   12.600    4.7183
   12.630    5.0553
   12.660    4.7288
   12.690    4.8025
   12.720    4.8236
   12.750    4.6445
   12.780    4.7393
   12.810    4.7604
   12.840    4.7393
   12.870    4.3181
   12.900    4.8657
   12.930    5.2975
   12.960    5.5082
   12.990    4.9605
   13.020    4.8763
   13.050    4.8657
   13.080    4.6130
   13.110    4.5498
   13.140    4.3075
   13.170    4.3075
   13.200    4.4339
   13.230    4.3918
   13.260    4.4971
   13.290    4.3181
   13.320    4.2970
   13.350    4.3707
   13.380    4.6340
   13.410    4.4023
   13.440    4.6761
   13.470    4.6972
   13.500    4.5287
   13.530    4.9289
   13.560    5.0026
   13.590    4.8236
   13.620    4.4550
   13.650    4.6235
   13.680    4.4655
   13.710    4.7077
   13.740    4.4128
   13.770    4.5603
   13.800    4.4760
   13.830    4.5182
   13.860    4.3075
   13.890    4.5287
   13.920    4.6867
   13.950    4.5498
   13.980    4.6235
   14.010    4.8868
   14.040    4.8236
   14.070    4.8657
   14.100    4.7077
   14.130    4.9500
   14.160    4.9394
   14.190    4.7077
   14.220    4.4760
   14.250    4.1496
   14.280    4.4444
   14.310    4.1496
   14.340    4.3181
   14.370    4.2233
   14.400    4.2443
   14.430    4.1180
   14.460    4.1811
   14.490    3.9494
   14.520    4.1811
   14.550    4.8236
   14.580    4.3181
   14.610    4.0232
   14.640    4.2654
   14.670    4.3075
   14.700    4.2022
   14.730    4.2654
   14.760    4.5498
   14.790    4.3286
   14.820    4.4760
   14.850    4.3181
   14.880    4.3602
   14.910    4.0442
   14.940    4.6340
   14.970    4.1180
   15.000    4.2654
   15.030    4.0758
   15.060    4.1180
   15.090    4.1601
   15.120    4.0969
   15.150    4.2127
   15.180    4.0969
   15.210    4.3181
   15.240    4.2022
   15.270    4.1496
   15.300    3.9494
   15.330    4.2759
   15.360    4.7183
   15.390    4.4234
   15.420    4.3286
   15.450    4.2654
   15.480    4.4128
   15.510    4.0021
   15.540    4.3391
   15.570    4.2970
   15.600    4.3707
   15.630    4.2443
   15.660    4.4234
   15.690    4.7604
   15.720    4.2970
   15.750    4.4866
   15.780    4.2233
   15.810    4.0864
   15.840    4.6867
   15.870    4.3181
   15.900    4.1390
   15.930    4.4444
   15.960    4.1917
   15.990    4.0232
   16.020    4.3497
   16.050    4.1706
   16.080    4.1706
   16.110    4.3391
   16.140    4.3813
   16.170    4.5392
   16.200    4.1601
   16.230    4.4444
   16.260    4.3181
   16.290    4.5182
   16.320    4.4339
   16.350    4.2654
   16.380    4.2865
   16.410    4.3602
   16.440    4.3918
   16.470    4.6551
   16.500    4.2759
   16.530    4.5603
   16.560    4.2759
   16.590    4.3075
   16.620    4.3813
   16.650    4.1917
   16.680    4.5498
   16.710    4.4655
   16.740    4.2654
   16.770    4.3602
   16.800    4.0126
   16.830    4.5287
   16.860    4.6445
   16.890    4.0969
   16.920    4.3602
   16.950    4.3181
   16.980    4.4444
   17.010    4.3707
   17.040    4.1601
   17.070    4.5603
   17.100    4.5287
   17.130    4.2654
   17.160    4.4971
   17.190    4.6867
   17.220    4.2970
   17.250    4.3391
   17.280    3.9494
   17.310    4.3075
   17.340    4.4760
   17.370    4.7393
   17.400    4.4971
   17.430    4.6551
   17.460    4.3707
   17.490    4.1074
   17.520    4.2233
   17.550    4.3075
   17.580    4.5182
   17.610    4.0232
   17.640    4.3181
   17.670    4.0758
   17.700    4.4339
   17.730    4.5498
   17.760    4.4866
   17.790    4.1496
   17.820    4.2759
   17.850    4.3707
   17.880    4.1285
   17.910    4.2443
   17.940    4.4128
   17.970    4.5498
   18.000    4.0126
   18.030    4.2970
   18.060    4.2970
   18.090    4.4023
   18.120    4.2549
   18.150    4.3813
   18.180    4.0442
   18.210    4.3497
   18.240    4.3497
   18.270    4.3391
   18.300    4.3391
   18.330    4.0653
   18.360    4.4444
   18.390    4.4550
   18.420    4.2338
   18.450    4.3497
   18.480    4.1706
   18.510    4.4444
   18.540    4.3813
   18.570    4.2759
   18.600    4.4444
   18.630    4.4128
   18.660    4.4760
   18.690    4.2549
   18.720    4.2759
   18.750    4.4234
   18.780    4.3075
   18.810    4.2654
   18.840    4.3813
   18.870    4.6340
   18.900    4.4234
   18.930    4.4023
   18.960    4.5287
   18.990    4.3918
   19.020    5.0237
   19.050    4.6867
   19.080    4.4339
   19.110    4.5287
   19.140    4.5708
   19.170    4.7183
   19.200    4.2338
   19.230    4.5603
   19.260    4.5287
   19.290    4.4339
   19.320    4.4550
   19.350    4.6235
   19.380    4.3813
   19.410    4.8447
   19.440    4.5814
   19.470    4.5182
   19.500    4.5603
   19.530    4.8131
   19.560    4.5814
   19.590    4.6551
   19.620    4.7815
   19.650    4.7709
   19.680    4.5076
   19.710    4.8131
   19.740    4.7709
   19.770    4.5814
   19.800    4.6551
   19.830    4.6656
   19.860    4.5814
   19.890    5.0237
   19.920    4.4023
   19.950    4.9500
   19.980    4.4760
   20.010    4.9289
   20.040    4.8763
   20.070    4.9710
   20.100    4.5182
   20.130    5.1290
   20.160    4.8763
   20.190    4.7709
   20.220    4.8447
   20.250    4.9184
   20.280    4.9078
   20.310    4.8341
   20.340    4.9078
   20.370    4.8236
   20.400    4.9184
   20.430    5.1185
   20.460    4.8973
   20.490    4.6551
   20.520    4.8131
   20.550    4.6656
   20.580    4.6340
   20.610    4.4234
   20.640    4.6445
   20.670    4.6235
   20.700    5.1395
   20.730    4.5498
   20.760    5.0132
   20.790    4.6130
   20.820    4.5498
   20.850    4.5708
   20.880    4.5392
   20.910    4.8341
   20.940    4.5919
   20.970    4.6235
   21.000    5.0342
   21.030    4.3286
   21.060    4.6867
   21.090    4.9710
   21.120    4.7604
   21.150    4.4550
   21.180    4.5814
   21.210    4.7183
   21.240    4.5603
   21.270    4.4866
   21.300    4.2970
   21.330    5.0132
   21.360    4.5603
   21.390    4.7709
   21.420    4.7183
   21.450    4.8341
   21.480    4.6867
   21.510    4.7815
   21.540    4.7815
   21.570    4.9289
   21.600    4.9816
   21.630    4.9394
   21.660    4.5076
   21.690    4.6972
   21.720    4.6445
   21.750    4.6340
   21.780    5.0448
   21.810    4.4655
   21.840    5.1922
   21.870    4.8025
   21.900    5.0026
   21.930    5.0658
   21.960    4.9078
   21.990    4.7077
   22.020    4.9394
   22.050    4.8025
   22.080    4.9289
   22.110    4.8025
   22.140    4.7709
   22.170    4.5182
   22.200    4.6551
   22.230    4.7604
   22.260    4.9605
   22.290    4.7077
   22.320    4.6972
   22.350    4.5708
   22.380    4.6340
   22.410    4.6445
   22.440    4.9816
   22.470    4.6761
   22.500    4.7077
   22.530    5.0026
   22.560    4.6867
   22.590    4.8447
   22.620    4.8552
   22.650    5.1185
   22.680    4.9816
   22.710    4.7815
   22.740    4.7815
   22.770    4.5392
   22.800    4.7604
   22.830    4.7709
   22.860    5.0132
   22.890    5.0237
   22.920    4.7077
   22.950    5.0448
   22.980    4.7815
   23.010    4.6867
   23.040    5.1606
   23.070    4.9605
   23.100    4.4866
   23.130    4.4866
   23.160    4.8236
   23.190    4.4023
   23.220    5.2765
   23.250    4.8868
   23.280    4.7077
   23.310    4.5076
   23.340    4.6235
   23.370    4.4444
   23.400    4.7604
   23.430    4.0969
   23.460    4.6761
   23.490    4.6340
   23.520    4.4866
   23.550    4.9184
   23.580    4.5392
   23.610    4.4866
   23.640    4.5076
   23.670    4.8341
   23.700    4.6551
   23.730    4.6445
   23.760    4.9289
   23.790    4.3918
   23.820    4.4339
   23.850    4.6972
   23.880    4.8447
   23.910    4.4444
   23.940    4.4655
   23.970    4.4128
   24.000    4.5392
   24.030    4.5287
   24.060    4.7499
   24.090    4.5392
   24.120    4.5919
   24.150    4.3391
   24.180    4.5076
   24.210    4.6235
   24.240    4.6235
   24.270    4.5498
   24.300    4.4234
   24.330    4.4339
   24.360    4.2022
   24.390    4.4655
   24.420    4.5603
   24.450    4.4655
   24.480    4.3181
   24.510    4.6445
   24.540    4.3391
   24.570    4.5919
   24.600    4.4339
   24.630    4.6972
   24.660    4.2443
   24.690    4.6972
   24.720    4.9184
   24.750    4.5919
   24.780    4.2759
   24.810    4.2127
   24.840    4.7920
   24.870    4.3497
   24.900    4.4655
   24.930    4.2549
   24.960    4.2549
   24.990    4.3075
   25.020    4.3813
   25.050    4.4866
   25.080    4.1496
   25.110    4.1917
   25.140    4.1917
   25.170    4.2233
   25.200    4.3391
   25.230    4.2338
   25.260    4.4339
   25.290    4.2759
   25.320    4.4339
   25.350    4.5708
   25.380    4.1601
   25.410    4.1917
   25.440    4.2654
   25.470    4.2549
   25.500    4.3181
   25.530    4.2654
   25.560    4.2022
   25.590    3.9916
   25.620    3.9600
   25.650    4.6551
   25.680    4.2338
   25.710    4.0021
   25.740    4.2654
   25.770    4.5814
   25.800    4.1496
   25.830    4.6867
   25.860    4.4339
   25.890    4.3497
   25.920    4.4234
   25.950    4.0758
   25.980    3.8968
   26.010    3.9705
   26.040    4.1496
   26.070    4.3075
   26.100    4.1811
   26.130    3.9916
   26.160    4.2549
   26.190    4.1917
   26.220    4.1180
   26.250    3.9810
   26.280    4.0232
   26.310    4.5287
   26.340    4.2654
   26.370    4.2022
   26.400    4.1496
   26.430    4.0969
   26.460    4.0021
   26.490    4.3075
   26.520    3.8652
   26.550    3.9284
   26.580    4.1811
   26.610    4.0758
   26.640    4.4655
   26.670    4.1811
   26.700    3.7704
   26.730    3.9073
   26.760    3.8863
   26.790    4.0548
   26.820    4.2127
   26.850    4.0337
   26.880    4.1180
   26.910    4.1917
   26.940    4.4971
   26.970    4.1074
   27.000    4.1074
   27.030    4.4339
   27.060    4.3286
   27.090    4.0232
   27.120    4.0969
   27.150    4.0864
   27.180    4.1074
   27.210    3.7704
   27.240    4.0021
   27.270    3.7704
   27.300    4.1074
   27.330    3.9705
   27.360    3.7915
   27.390    3.8757
   27.420    4.2233
   27.450    3.7072
   27.480    4.0969
   27.510    4.1180
   27.540    4.1390
   27.570    3.6019
   27.600    4.2654
   27.630    4.0021
   27.660    4.1285
   27.690    4.2338
   27.720    4.0653
   27.750    3.9179
   27.780    3.8652
   27.810    3.8863
   27.840    4.0021
   27.870    4.0548
   27.900    3.9916
   27.930    4.0232
   27.960    4.2443
   27.990    4.2127
   28.020    4.0021
   28.050    4.0969
   28.080    4.5498
   28.110    4.1180
   28.140    4.4128
   28.170    3.9810
   28.200    4.5076
   28.230    4.1496
   28.260    4.4444
   28.290    4.0758
   28.320    4.4655
   28.350    4.3181
   28.380    3.8863
   28.410    4.1601
   28.440    4.2233
   28.470    4.2127
   28.500    4.0232
   28.530    4.1180
   28.560    3.8968
   28.590    3.8547
   28.620    3.7809
   28.650    3.6862
   28.680    3.6756
   28.710    3.7283
   28.740    3.8125
   28.770    4.0021
   28.800    3.9389
   28.830    3.8231
   28.860    3.8652
   28.890    3.9494
   28.920    3.8441
   28.950    3.8968
   28.980    4.1601
   29.010    4.0232
   29.040    3.9600
   29.070    4.0126
   29.100    3.7283
   29.130    4.2233
   29.160    4.2022
   29.190    3.6230
   29.220    3.9284
   29.250    3.6440
   29.280    3.7704
   29.310    3.9705
   29.340    3.8125
   29.370    4.1917
   29.400    4.1390
   29.430    3.6967
   29.460    3.9705
   29.490    4.0653
   29.520    3.6019
   29.550    3.9389
   29.580    3.6124
   29.610    3.7493
   29.640    4.0969
   29.670    3.7283
   29.700    3.8968
   29.730    3.5598
   29.760    3.5598
   29.790    3.7072
   29.820    3.7177
   29.850    3.7809
   29.880    3.8020
   29.910    3.7599
   29.940    3.6124
   29.970    3.9073
   30.000    3.6862
   30.030    3.7915
   30.060    3.7493
   30.090    3.3913
   30.120    3.9705
   30.150    3.7599
   30.180    3.6862
   30.210    3.7915
   30.240    3.6440
   30.270    3.5282
   30.300    3.6862
   30.330    3.7915
   30.360    3.5176
   30.390    3.8020
   30.420    3.5387
   30.450    3.5492
   30.480    3.8020
   30.510    3.5598
   30.540    3.8125
   30.570    3.6335
   30.600    3.6230
   30.630    3.5492
   30.660    3.6862
   30.690    3.5176
   30.720    3.6335
   30.750    3.5808
   30.780    3.4860
   30.810    3.5071
   30.840    3.4123
   30.870    3.3597
   30.900    3.7177
   30.930    3.4650
   30.960    3.9810
   30.990    3.5176
   31.020    3.6546
   31.050    3.6335
   31.080    3.5914
   31.110    3.4544
   31.140    3.6230
   31.170    3.6230
   31.200    3.6440
   31.230    3.5808
   31.260    3.9073
   31.290    3.5808
   31.320    3.6230
   31.350    3.4544
   31.380    3.7283
   31.410    3.6862
   31.440    3.5282
   31.470    3.6019
   31.500    3.6335
   31.530    3.2859
   31.560    3.4544
   31.590    3.6335
   31.620    3.7704
   31.650    3.7388
   31.680    3.9389
   31.710    3.6756
   31.740    3.6862
   31.770    3.5492
   31.800    3.5914
   31.830    3.5914
   31.860    3.8020
   31.890    3.5914
   31.920    3.6546
   31.950    3.8125
   31.980    3.5914
   32.010    3.9179
   32.040    3.9389
   32.070    3.8020
   32.100    3.9179
   32.130    4.0758
   32.160    4.0126
   32.190    4.0758
   32.220    4.0758
   32.250    3.8441
   32.280    3.5703
   32.310    3.4966
   32.340    3.5808
   32.370    3.5492
   32.400    3.5176
   32.430    3.5071
   32.460    3.5808
   32.490    3.4123
   32.520    3.2754
   32.550    3.6651
   32.580    3.3807
   32.610    3.4123
   32.640    3.3913
   32.670    3.5598
   32.700    3.6335
   32.730    2.9384
   32.760    3.2965
   32.790    3.3175
   32.820    3.2754
   32.850    3.2649
   32.880    3.4755
   32.910    3.3175
   32.940    3.1280
   32.970    3.4123
   33.000    3.4229
   33.030    3.5071
   33.060    3.3597
   33.090    3.3281
   33.120    3.5282
   33.150    3.1806
   33.180    3.4650
   33.210    3.3702
   33.240    3.4123
   33.270    3.3175
   33.300    3.3070
   33.330    3.3386
   33.360    3.2965
   33.390    3.3491
   33.420    3.1912
   33.450    3.1806
   33.480    3.2333
   33.510    3.1174
   33.540    3.0964
   33.570    3.3913
   33.600    3.2438
   33.630    3.4755
   33.660    2.9805
   33.690    3.3386
   33.720    3.2438
   33.750    3.5071
   33.780    3.2438
   33.810    3.2965
   33.840    3.3913
   33.870    3.2227
   33.900    3.3491
   33.930    3.3807
   33.960    3.5387
   33.990    3.0753
   34.020    3.0753
   34.050    3.3175
   34.080    3.1490
   34.110    3.3913
   34.140    3.1280
   34.170    3.2122
   34.200    3.0016
   34.230    2.9910
   34.260    3.1596
   34.290    3.2017
   34.320    3.1701
   34.350    3.1490
   34.380    3.3807
   34.410    3.3702
   34.440    3.0016
   34.470    3.2649
   34.500    3.0753
   34.530    3.1912
   34.560    3.1385
   34.590    3.0016
   34.620    2.8963
   34.650    3.1806
   34.680    3.0964
   34.710    2.8857
   34.740    2.9700
   34.770    2.9173
   34.800    3.1912
   34.830    3.1385
   34.860    3.0016
   34.890    3.0437
   34.920    2.9173
   34.950    3.2438
   34.980    2.9173
   35.010    2.9595
   35.040    2.9384
   35.070    2.9384
   35.100    3.1385
   35.130    3.1701
   35.160    3.2438
   35.190    3.0121
   35.220    3.1806
   35.250    3.0964
   35.280    2.9910
   35.310    3.0226
   35.340    3.0542
   35.370    2.8331
   35.400    3.0858
   35.430    2.8752
   35.460    2.8120
   35.490    3.0542
   35.520    3.0226
   35.550    2.6856
   35.580    2.9173
   35.610    2.9700
   35.640    3.1806
   35.670    2.8225
   35.700    2.8647
   35.730    2.9173
   35.760    2.9384
   35.790    3.0016
   35.820    3.1385
   35.850    3.0121
   35.880    3.1069
   35.910    2.8963
   35.940    2.8015
   35.970    2.8647
   36.000    2.8963
   36.030    3.0226
   36.060    2.8963
   36.090    2.7383
   36.120    3.0858
   36.150    2.8120
   36.180    2.9489
   36.210    2.8857
   36.240    2.7593
   36.270    2.9068
   36.300    2.8963
   36.330    2.7383
   36.360    2.8857
   36.390    3.1596
   36.420    2.6751
   36.450    2.6330
   36.480    2.7172
   36.510    2.9700
   36.540    2.9489
   36.570    2.8015
   36.600    2.8120
   36.630    2.8436
   36.660    2.8752
   36.690    2.8436
   36.720    2.7909
   36.750    2.7804
   36.780    2.7488
   36.810    3.0016
   36.840    2.7383
   36.870    2.9805
   36.900    2.9068
   36.930    2.7383
   36.960    2.8752
   36.990    2.7909
   37.020    2.7699
   37.050    2.5487
   37.080    3.0226
   37.110    2.7383
   37.140    2.8436
   37.170    2.7909
   37.200    3.0226
   37.230    2.7067
   37.260    2.6119
   37.290    2.5171
   37.320    2.7383
   37.350    2.8225
   37.380    2.7488
   37.410    3.1280
   37.440    2.8647
   37.470    2.6330
   37.500    2.8541
   37.530    2.8541
   37.560    2.9489
   37.590    2.9068
   37.620    2.5908
   37.650    2.8331
   37.680    3.0437
   37.710    2.6751
   37.740    2.5698
   37.770    2.9279
   37.800    2.9700
   37.830    2.6646
   37.860    2.9384
   37.890    2.9489
   37.920    2.5171
   37.950    2.6856
   37.980    2.9700
   38.010    2.6224
   38.040    2.9700
   38.070    3.0332
   38.100    2.5592
   38.130    2.7278
   38.160    2.4961
   38.190    2.8647
   38.220    2.7488
   38.250    2.6540
   38.280    2.7804
   38.310    2.8225
   38.340    2.6119
   38.370    2.6014
   38.400    2.6435
   38.430    2.6751
   38.460    2.6224
   38.490    2.8647
   38.520    2.7067
   38.550    2.7804
   38.580    2.7067
   38.610    2.9489
   38.640    2.6435
   38.670    2.8015
   38.700    2.9068
   38.730    2.8752
   38.760    2.6119
   38.790    2.6119
   38.820    2.6962
   38.850    2.7067
   38.880    2.6751
   38.910    2.9068
   38.940    2.7067
   38.970    2.3697
   39.000    2.6540
   39.030    2.7172
   39.060    2.6856
   39.090    2.7067
   39.120    2.7488
   39.150    2.6856
   39.180    2.5592
   39.210    2.7488
   39.240    2.8015
   39.270    2.6330
   39.300    2.7909
   39.330    2.6435
   39.360    2.5276
   39.390    2.7593
   39.420    2.8015
   39.450    2.6962
   39.480    2.4434
   39.510    2.8120
   39.540    2.7278
   39.570    2.7383
   39.600    2.5803
   39.630    2.4750
   39.660    2.6435
   39.690    2.5066
   39.720    2.4961
   39.750    2.5487
   39.780    2.6646
   39.810    2.6014
   39.840    2.5382
   39.870    2.6751
   39.900    2.5382
   39.930    2.7067
   39.960    2.5698
   39.990    2.7804