File: data/PXRD/PXRD_KE-258_Co-Ka1_film-3mm_3s-deg.xyd
    1.500    4.6549
    1.530    4.5301
    1.560    4.1377
    1.590    4.0485
    1.620    3.8345
    1.650    4.0663
    1.680    3.6561
    1.710    3.6205
    1.740    3.6026
    1.770    3.5313
    1.800    3.2994
    1.830    3.2638
    1.860    3.3708
    1.890    2.6752
    1.920    3.0854
    1.950    2.8536
    1.980    2.8714
    2.010    2.9784
    2.040    3.1033
    2.070    2.7644
    2.100    2.6396
    2.130    2.6396
    2.160    2.3720
    2.190    2.2650
    2.220    2.6217
    2.250    2.6574
    2.280    2.3720
    2.310    2.5682
    2.340    2.5147
    2.370    2.5504
    2.400    2.4434
    2.430    2.3720
    2.460    2.7287
    2.490    2.1223
    2.520    2.2829
    2.550    1.9797
    2.580    2.2650
    2.610    2.0332
    2.640    1.9262
    2.670    2.1402
    2.700    1.9262
    2.730    1.8013
    2.760    2.0332
    2.790    2.0688
    2.820    2.0332
    2.850    1.8727
    2.880    1.8192
    2.910    1.6765
    2.940    1.9262
    2.970    1.9797
    3.000    2.1759
    3.030    1.8192
    3.060    1.8192
    3.090    2.0510
    3.120    1.8192
    3.150    1.8727
    3.180    1.8192
    3.210    1.8192
    3.240    2.0510
    3.270    1.6586
    3.300    1.6051
    3.330    1.6051
    3.360    1.7657
    3.390    1.5160
    3.420    1.6408
    3.450    1.5873
    3.480    1.7300
    3.510    1.6230
    3.540    1.6943
    3.570    1.7121
    3.600    1.5516
    3.630    1.9440
    3.660    1.6230
    3.690    1.6230
    3.720    1.5695
    3.750    1.8548
    3.780    1.6051
    3.810    1.6230
    3.840    1.4981
    3.870    1.4803
    3.900    1.5873
    3.930    1.8013
    3.960    1.8727
    3.990    1.9083
    4.020    1.8013
    4.050    1.6230
    4.080    1.9797
    4.110    1.8013
    4.140    2.0510
    4.170    1.9975
    4.200    2.1223
    4.230    2.3899
    4.260    2.6396
    4.290    3.3530
    4.320    3.4065
    4.350    3.4065
    4.380    4.3695
    4.410    5.2256
    4.440    6.2779
    4.470    7.6333
    4.500   10.8971
    4.530   17.7278
    4.560    7.3658
    4.590    2.0688
    4.620    1.6230
    4.650    1.3376
    4.680    1.5873
    4.710    1.5160
    4.740    1.6051
    4.770    1.5160
    4.800    1.3554
    4.830    1.8727
    4.860    1.4625
    4.890    1.4803
    4.920    1.6943
    4.950    1.1771
    4.980    1.5695
    5.010    1.5160
    5.040    1.5516
    5.070    1.6051
    5.100    1.5338
    5.130    1.3019
    5.160    1.4625
    5.190    1.5160
    5.220    1.4446
    5.250    1.4625
    5.280    1.4981
    5.310    1.6408
    5.340    1.6230
    5.370    1.6408
    5.400    1.4446
    5.430    1.6765
    5.460    1.5695
    5.490    1.6408
    5.520    1.6230
    5.550    1.4981
    5.580    1.3019
    5.610    1.3911
    5.640    1.5516
    5.670    1.2663
    5.700    1.6943
    5.730    1.6051
    5.760    1.4803
    5.790    1.5338
    5.820    1.5873
    5.850    1.7300
    5.880    1.3911
    5.910    1.5695
    5.940    1.4625
    5.970    1.4446
    6.000    1.7478
    6.030    2.1045
    6.060    1.8013
    6.090    1.8370
    6.120    1.8905
    6.150    1.8548
    6.180    2.2115
    6.210    2.1223
    6.240    2.3185
    6.270    2.9071
    6.300    2.4612
    6.330    3.1033
    6.360    3.5313
    6.390    4.3695
    6.420    6.1352
    6.450    2.8536
    6.480    2.1580
    6.510    1.8727
    6.540    1.8370
    6.570    1.9440
    6.600    2.0510
    6.630    1.8370
    6.660    1.9083
    6.690    1.8013
    6.720    1.7121
    6.750    1.6408
    6.780    1.9440
    6.810    1.8192
    6.840    1.6943
    6.870    1.7657
    6.900    1.7478
    6.930    1.4268
    6.960    1.5338
    6.990    1.7300
    7.020    1.5516
    7.050    1.4090
    7.080    1.4625
    7.110    1.3733
    7.140    1.6408
    7.170    1.5160
    7.200    1.4268
    7.230    1.5516
    7.260    1.5160
    7.290    1.5873
    7.320    1.3198
    7.350    1.3554
    7.380    1.2841
    7.410    1.3376
    7.440    1.4625
    7.470    1.4625
    7.500    1.0701
    7.530    1.2841
    7.560    1.2484
    7.590    1.2128
    7.620    1.3554
    7.650    1.4625
    7.680    1.4268
    7.710    1.4625
    7.740    1.4090
    7.770    1.3911
    7.800    1.8192
    7.830    1.6408
    7.860    2.3364
    7.890    1.7478
    7.920    1.3198
    7.950    1.3911
    7.980    1.4803
    8.010    1.1414
    8.040    1.1414
    8.070    1.3911
    8.100    0.9988
    8.130    1.2663
    8.160    1.2306
    8.190    1.3198
    8.220    1.2484
    8.250    1.4268
    8.280    1.2128
    8.310    1.2484
    8.340    1.4981
    8.370    1.3911
    8.400    1.0879
    8.430    1.0701
    8.460    1.0701
    8.490    1.0879
    8.520    1.2306
    8.550    1.2128
    8.580    0.9096
    8.610    1.1058
    8.640    1.0879
    8.670    0.7847
    8.700    1.0879
    8.730    1.1236
    8.760    1.0701
    8.790    1.0523
    8.820    1.0344
    8.850    0.9096
    8.880    0.8561
    8.910    1.0879
    8.940    1.3019
    8.970    1.1771
    9.000    1.1771
    9.030    1.1771
    9.060    1.5873
    9.090    1.7657
    9.120    0.9809
    9.150    0.9452
    9.180    0.8026
    9.210    0.7134
    9.240    0.9631
    9.270    0.9631
    9.300    0.7491
    9.330    1.0523
    9.360    0.9809
    9.390    0.9988
    9.420    0.9452
    9.450    0.7847
    9.480    0.8204
    9.510    0.6956
    9.540    0.8739
    9.570    1.0523
    9.600    0.9096
    9.630    0.8917
    9.660    0.8739
    9.690    0.7847
    9.720    0.9809
    9.750    0.7847
    9.780    0.8026
    9.810    0.8026
    9.840    1.0523
    9.870    0.8561
    9.900    0.9274
    9.930    0.7669
    9.960    0.8739
    9.990    0.8739
   10.020    0.7847
   10.050    0.9274
   10.080    0.9274
   10.110    0.7491
   10.140    0.8561
   10.170    0.9274
   10.200    0.8917
   10.230    0.9631
   10.260    1.0701
   10.290    0.6599
   10.320    0.8382
   10.350    0.7491
   10.380    0.9096
   10.410    0.8204
   10.440    0.7847
   10.470    0.7847
   10.500    0.6956
   10.530    0.7669
   10.560    0.7491
   10.590    0.9452
   10.620    0.8561
   10.650    0.8917
   10.680    0.9631
   10.710    0.8561
   10.740    0.7491
   10.770    0.6242
   10.800    0.5529
   10.830    0.7669
   10.860    0.8204
   10.890    0.6064
   10.920    0.8026
   10.950    0.7491
   10.980    1.0344
   11.010    1.0344
   11.040    1.0879
   11.070    1.2841
   11.100    1.7657
   11.130    2.3364
   11.160    1.8192
   11.190    0.8382
   11.220    0.8026
   11.250    0.8026
   11.280    0.6956
   11.310    0.7669
   11.340    0.8382
   11.370    0.9274
   11.400    0.6956
   11.430    0.9988
   11.460    0.7847
   11.490    0.9452
   11.520    0.7847
   11.550    0.6599
   11.580    0.8561
   11.610    0.6242
   11.640    0.7312
   11.670    0.8382
   11.700    0.8204
   11.730    0.6777
   11.760    0.6956
   11.790    0.8561
   11.820    0.8382
   11.850    0.9096
   11.880    0.8204
   11.910    0.7312
   11.940    0.8204
   11.970    0.9452
   12.000    0.9631
   12.030    1.2306
   12.060    1.0523
   12.090    0.8561
   12.120    0.9096
   12.150    0.6421
   12.180    0.9096
   12.210    0.7847
   12.240    0.7491
   12.270    0.7847
   12.300    0.7134
   12.330    0.7491
   12.360    0.8561
   12.390    0.7847
   12.420    0.8561
   12.450    0.8561
   12.480    1.0523
   12.510    0.8917
   12.540    0.7669
   12.570    0.6956
   12.600    0.8739
   12.630    0.9096
   12.660    0.7669
   12.690    0.8739
   12.720    0.9809
   12.750    0.9809
   12.780    0.9452
   12.810    0.9988
   12.840    1.4268
   12.870    1.3733
   12.900    1.1414
   12.930    0.8382
   12.960    0.7669
   12.990    0.9274
   13.020    0.7312
   13.050    0.7312
   13.080    0.9631
   13.110    0.9631
   13.140    0.7669
   13.170    0.8382
   13.200    0.9274
   13.230    0.7134
   13.260    0.8561
   13.290    0.7312
   13.320    0.9809
   13.350    0.7669
   13.380    0.7847
   13.410    1.0344
   13.440    0.8739
   13.470    0.8561
   13.500    0.6777
   13.530    0.8561
   13.560    0.9096
   13.590    1.0344
   13.620    1.7121
   13.650    1.5160
   13.680    1.3554
   13.710    0.9274
   13.740    0.7312
   13.770    0.7847
   13.800    1.0344
   13.830    0.8026
   13.860    0.9452
   13.890    0.8204
   13.920    0.9096
   13.950    0.7491
   13.980    0.8026
   14.010    0.8561
   14.040    1.0344
   14.070    0.7134
   14.100    0.7669
   14.130    0.8561
   14.160    0.5886
   14.190    0.8204
   14.220    0.9809
   14.250    0.7491
   14.280    0.7134
   14.310    1.0344
   14.340    0.9096
   14.370    0.8026
   14.400    1.0701
   14.430    0.9096
   14.460    0.7312
   14.490    0.8917
   14.520    0.8204
   14.550    0.8917
   14.580    0.8739
   14.610    0.9274
   14.640    0.9274
   14.670    0.8026
   14.700    0.9631
   14.730    0.7669
   14.760    0.6599
   14.790    0.7312
   14.820    0.7847
   14.850    0.8204
   14.880    0.7312
   14.910    0.9988
   14.940    0.6956
   14.970    0.7312
   15.000    0.7847
   15.030    0.8026
   15.060    1.0879
   15.090    1.1771
   15.120    1.0879
   15.150    0.8917
   15.180    0.7134
   15.210    0.8204
   15.240    0.7134
   15.270    0.7491
   15.300    0.7669
   15.330    0.9988
   15.360    0.7847
   15.390    0.7312
   15.420    0.6421
   15.450    0.8917
   15.480    0.7669
   15.510    0.7134
   15.540    0.9096
   15.570    0.8739
   15.600    0.8739
   15.630    0.6777
   15.660    0.7669
   15.690    0.6242
   15.720    0.8204
   15.750    1.0344
   15.780    0.7847
   15.810    0.6956
   15.840    0.8026
   15.870    0.8026
   15.900    0.7669
   15.930    1.0523
   15.960    0.6956
   15.990    0.7491
   16.020    0.8561
   16.050    0.7312
   16.080    0.8382
   16.110    0.5529
   16.140    0.5886
   16.170    0.8561
   16.200    0.6956
   16.230    0.7847
   16.260    0.8561
   16.290    0.8382
   16.320    0.8204
   16.350    0.8739
   16.380    1.0879
   16.410    1.1771
   16.440    1.3733
   16.470    0.8739
   16.500    0.7134
   16.530    0.8561
   16.560    0.8026
   16.590    0.8204
   16.620    0.8561
   16.650    1.0879
   16.680    0.8204
   16.710    0.8561
   16.740    0.7847
   16.770    0.7669
   16.800    0.8382
   16.830    1.0701
   16.860    0.9988
   16.890    0.8739
   16.920    0.7491
   16.950    0.8382
   16.980    0.8026
   17.010    0.9809
   17.040    0.9988
   17.070    0.7669
   17.100    0.8382
   17.130    1.0166
   17.160    0.7134
   17.190    0.8204
   17.220    0.9274
   17.250    0.8739
   17.280    1.0344
   17.310    0.7669
   17.340    0.8026
   17.370    0.8917
   17.400    0.6956
   17.430    0.9452
   17.460    0.7669
   17.490    0.7134
   17.520    0.9274
   17.550    1.0701
   17.580    0.7669
   17.610    0.7491
   17.640    0.9274
   17.670    0.8382
   17.700    0.6956
   17.730    0.8204
   17.760    0.9631
   17.790    0.6599
   17.820    0.9452
   17.850    0.6777
   17.880    0.9274
   17.910    0.5707
   17.940    0.7669
   17.970    0.5886
   18.000    0.7669
   18.030    0.8917
   18.060    0.5886
   18.090    0.6956
   18.120    0.7491
   18.150    0.7134
   18.180    0.7134
   18.210    0.6956
   18.240    0.8026
   18.270    0.8382
   18.300    0.6421
   18.330    0.8382
   18.360    0.8026
   18.390    0.6064
   18.420    0.8561
   18.450    0.7134
   18.480    0.7491
   18.510    0.8204
   18.540    0.6421
   18.570    0.8382
   18.600    0.7669
   18.630    0.8382
   18.660    0.9809
   18.690    0.5707
   18.720    0.9274
   18.750    0.9452
   18.780    0.9452
   18.810    1.0344
   18.840    0.8204
   18.870    0.7669
   18.900    0.7491
   18.930    0.8739
   18.960    0.7134
   18.990    0.7134
   19.020    0.7134
   19.050    0.7847
   19.080    0.7847
   19.110    0.7669
   19.140    0.6599
   19.170    0.7847
   19.200    0.7669
   19.230    0.6956
   19.260    0.8739
   19.290    0.9452
   19.320    0.9452
   19.350    0.7847
   19.380    0.8739
   19.410    0.9631
   19.440    0.6777
   19.470    0.7312
   19.500    0.7847
   19.530    0.7847
   19.560    0.5172
   19.590    0.6599
   19.620    0.9096
   19.650    0.6777
   19.680    0.6242
   19.710    0.7847
   19.740    0.7847
   19.770    0.7312
   19.800    0.7134
   19.830    0.8382
   19.860    1.1236
   19.890    1.1949
   19.920    0.9096
   19.950    0.7847
   19.980    0.8026
   20.010    0.6064
   20.040    0.8382
   20.070    0.6242
   20.100    0.6777
   20.130    0.6421
   20.160    0.7847
   20.190    0.7491
   20.220    0.7669
   20.250    0.6064
   20.280    0.6777
   20.310    0.9274
   20.340    0.7312
   20.370    0.8561
   20.400    0.6777
   20.430    0.9631
   20.460    0.6956
   20.490    0.6242
   20.520    0.6242
   20.550    0.5707
   20.580    0.7669
   20.610    0.7134
   20.640    0.7669
   20.670    0.6599
   20.700    0.7669
   20.730    0.6064
   20.760    0.4994
   20.790    0.6242
   20.820    0.6599
   20.850    0.8026
   20.880    0.6064
   20.910    0.8026
   20.940    0.6956
   20.970    0.6777
   21.000    0.6777
   21.030    0.6956
   21.060    0.9452
   21.090    0.6956
   21.120    0.4637
   21.150    0.6956
   21.180    0.8026
   21.210    0.7669
   21.240    0.8561
   21.270    0.8917
   21.300    0.7134
   21.330    0.6599
   21.360    0.8204
   21.390    0.7312
   21.420    0.8026
   21.450    0.7669
   21.480    0.6421
   21.510    0.5529
   21.540    0.7669
   21.570    0.7669
   21.600    0.7312
   21.630    0.7847
   21.660    0.8382
   21.690    0.8561
   21.720    0.7312
   21.750    0.7312
   21.780    0.9631
   21.810    0.7491
   21.840    0.6599
   21.870    0.7312
   21.900    0.6242
   21.930    0.7847
   21.960    0.6242
   21.990    0.8739
   22.020    0.8204
   22.050    0.4994
   22.080    0.7491
   22.110    1.0344
   22.140    1.0879
   22.170    0.7312
   22.200    0.6599
   22.230    0.8561
   22.260    0.7312
   22.290    0.5886
   22.320    0.7847
   22.350    0.4994
   22.380    0.7134
   22.410    0.6956
   22.440    0.6956
   22.470    0.6956
   22.500    0.8917
   22.530    0.7312
   22.560    0.5350
   22.590    0.7669
   22.620    0.6064
   22.650    0.6956
   22.680    0.6599
   22.710    0.8382
   22.740    0.6064
   22.770    0.5707
   22.800    0.8917
   22.830    0.8204
   22.860    0.6777
   22.890    0.7491
   22.920    0.6599
   22.950    0.6956
   22.980    0.6242
   23.010    0.6777
   23.040    0.5529
   23.070    0.5886
   23.100    0.6956
   23.130    0.7312
   23.160    0.6599
   23.190    0.5707
   23.220    0.6599
   23.250    0.6599
   23.280    0.6242
   23.310    0.6599
   23.340    0.5707
   23.370    0.7134
   23.400    0.6242
   23.430    0.8382
   23.460    0.6777
   23.490    0.8382
   23.520    0.6956
   23.550    0.6421
   23.580    0.6064
   23.610    0.6064
   23.640    0.6421
   23.670    0.6777
   23.700    0.6421
   23.730    0.6599
   23.760    0.9452
   23.790    0.6421
   23.820    0.8026
   23.850    0.6599
   23.880    0.4280
   23.910    0.7312
   23.940    0.8561
   23.970    0.7134
   24.000    0.7134
   24.030    0.7669
   24.060    0.5886
   24.090    0.6777
   24.120    0.6777
   24.150    0.7312
   24.180    0.5529
   24.210    0.8026
   24.240    0.6242
   24.270    0.7312
   24.300    0.6064
   24.330    0.5350
   24.360    0.5350
   24.390    0.6242
   24.420    0.6777
   24.450    0.5529
   24.480    0.5172
   24.510    0.6599
   24.540    0.5529
   24.570    0.5886
   24.600    0.7134
   24.630    0.5350
   24.660    0.5529
   24.690    0.7312
   24.720    0.5172
   24.750    0.7847
   24.780    0.8026
   24.810    0.5529
   24.840    0.5707
   24.870    0.5529
   24.900    0.6242
   24.930    0.5529
   24.960    0.6064
   24.990    0.6599
   25.020    0.6956
   25.050    0.6956
   25.080    0.6956
   25.110    0.8561
   25.140    0.7491
   25.170    0.7312
   25.200    0.4815
   25.230    0.4994
   25.260    0.5350
   25.290    0.5707
   25.320    0.5350
   25.350    0.5886
   25.380    0.6064
   25.410    0.6421
   25.440    0.7669
   25.470    0.6599
   25.500    0.7669
   25.530    0.7134
   25.560    0.6064
   25.590    0.6421
   25.620    0.5172
   25.650    0.4994
   25.680    0.7847
   25.710    0.4637
   25.740    0.7491
   25.770    0.6064
   25.800    0.5707
   25.830    0.6956
   25.860    0.5350
   25.890    0.6956
   25.920    0.6064
   25.950    0.4815
   25.980    0.5886
   26.010    0.4815
   26.040    0.6777
   26.070    0.5529
   26.100    0.6242
   26.130    0.6242
   26.160    0.5350
   26.190    0.6421
   26.220    0.5707
   26.250    0.6242
   26.280    0.5707
   26.310    0.7312
   26.340    0.8917
   26.370    0.6956
   26.400    0.6777
   26.430    0.4102
   26.460    0.6421
   26.490    0.5886
   26.520    0.6421
   26.550    0.5350
   26.580    0.6599
   26.610    0.5886
   26.640    0.6421
   26.670    0.6242
   26.700    0.7134
   26.730    0.7134
   26.760    0.6242
   26.790    0.4815
   26.820    0.5886
   26.850    0.6064
   26.880    0.6599
   26.910    0.6777
   26.940    0.4994
   26.970    0.6599
   27.000    0.4459
   27.030    0.4994
   27.060    0.5350
   27.090    0.6421
   27.120    0.5707
   27.150    0.6956
   27.180    0.6599
   27.210    0.6421
   27.240    0.4815
   27.270    0.5707
   27.300    0.5886
   27.330    0.6242
   27.360    0.5707
   27.390    0.6777
   27.420    0.4815
   27.450    0.4994
   27.480    0.4994
   27.510    0.5172
   27.540    0.5886
   27.570    0.5350
   27.600    0.5886
   27.630    0.4815
   27.660    0.6064
   27.690    0.4994
   27.720    0.6421
   27.750    0.4459
   27.780    0.6777
   27.810    0.6599
   27.840    0.5529
   27.870    0.5886
   27.900    0.6064
   27.930    0.6064
   27.960    0.6064
   27.990    0.5707
   28.020    0.5529
   28.050    0.4637
   28.080    0.5886
   28.110    0.5707
   28.140    0.5886
   28.170    0.4815
   28.200    0.6242
   28.230    0.6421
   28.260    0.4815
   28.290    0.4459
   28.320    0.6421
   28.350    0.4994
   28.380    0.5172
   28.410    0.4459
   28.440    0.4815
   28.470    0.6599
   28.500    0.4459
   28.530    0.4280
   28.560    0.4459
   28.590    0.6599
   28.620    0.4459
   28.650    0.5350
   28.680    0.6421
   28.710    0.4280
   28.740    0.4994
   28.770    0.3924
   28.800    0.5886
   28.830    0.4994
   28.860    0.5886
   28.890    0.5172
   28.920    0.4459
   28.950    0.6064
   28.980    0.5886
   29.010    0.5172
   29.040    0.5886
   29.070    0.4280
   29.100    0.4637
   29.130    0.5172
   29.160    0.4637
   29.190    0.3745
   29.220    0.5707
   29.250    0.5350
   29.280    0.3745
   29.310    0.4815
   29.340    0.4280
   29.370    0.4280
   29.400    0.6064
   29.430    0.5350
   29.460    0.3924
   29.490    0.5172
   29.520    0.3389
   29.550    0.3924
   29.580    0.4815
   29.610    0.4637
   29.640    0.6064
   29.670    0.6064
   29.700    0.4459
   29.730    0.5172
   29.760    0.5350
   29.790    0.4280
   29.820    0.5707
   29.850    0.4815
   29.880    0.5350
   29.910    0.4637
   29.940    0.4637
   29.970    0.5350
   30.000    0.4459
   30.030    0.4994
   30.060    0.6421
   30.090    0.5886
   30.120    0.6956
   30.150    0.8026
   30.180    0.6242
   30.210    0.4994
   30.240    0.4459
   30.270    0.4637
   30.300    0.5529
   30.330    0.5707
   30.360    0.3389
   30.390    0.4280
   30.420    0.6242
   30.450    0.5529
   30.480    0.4994
   30.510    0.3745
   30.540    0.4994
   30.570    0.4994
   30.600    0.5350
   30.630    0.5529
   30.660    0.4994
   30.690    0.4994
   30.720    0.3567
   30.750    0.4994
   30.780    0.4637
   30.810    0.5529
   30.840    0.6777
   30.870    0.5529
   30.900    0.6599
   30.930    0.5350
   30.960    0.4280
   30.990    0.4459
   31.020    0.5350
   31.050    0.4994
   31.080    0.4280
   31.110    0.5350
   31.140    0.4637
   31.170    0.3745
   31.200    0.3745
   31.230    0.3924
   31.260    0.4994
   31.290    0.5350
   31.320    0.4994
   31.350    0.4815
   31.380    0.3745
   31.410    0.3210
   31.440    0.3745
   31.470    0.4102
   31.500    0.4994
   31.530    0.4280
   31.560    0.5529
   31.590    0.5886
   31.620    0.4637
   31.650    0.3210
   31.680    0.4280
   31.710    0.4280
   31.740    0.4637
   31.770    0.3924
   31.800    0.3567
   31.830    0.4459
   31.860    0.5529
   31.890    0.4815
   31.920    0.3032
   31.950    0.3745
   31.980    0.3389
   32.010    0.4280
   32.040    0.3745
   32.070    0.3389
   32.100    0.5172
   32.130    0.3924
   32.160    0.5529
   32.190    0.4815
   32.220    0.4994
   32.250    0.4637
   32.280    0.5529
   32.310    0.3032
   32.340    0.3745
   32.370    0.2854
   32.400    0.3745
   32.430    0.5172
   32.460    0.3567
   32.490    0.4102
   32.520    0.4102
   32.550    0.3567
   32.580    0.5172
   32.610    0.3567
   32.640    0.4280
   32.670    0.4280
   32.700    0.4459
   32.730    0.3924
   32.760    0.4637
   32.790    0.3924
   32.820    0.3567
   32.850    0.4994
   32.880    0.5172
   32.910    0.4815
   32.940    0.4815
   32.970    0.2854
   33.000    0.4459
   33.030    0.4280
   33.060    0.3924
   33.090    0.2675
   33.120    0.7134
   33.150    0.3745
   33.180    0.3389
   33.210    0.5172
   33.240    0.4637
   33.270    0.4459
   33.300    0.3389
   33.330    0.3389
   33.360    0.5350
   33.390    0.4815
   33.420    0.4994
   33.450    0.3210
   33.480    0.3924
   33.510    0.3389
   33.540    0.4280
   33.570    0.3389
   33.600    0.3745
   33.630    0.5350
   33.660    0.3210
   33.690    0.4280
   33.720    0.4459
   33.750    0.3745
   33.780    0.5172
   33.810    0.5707
   33.840    0.4102
   33.870    0.4459
   33.900    0.4102
   33.930    0.4459
   33.960    0.3567
   33.990    0.5172
   34.020    0.3210
   34.050    0.3745
   34.080    0.4994
   34.110    0.3745
   34.140    0.4280
   34.170    0.4459
   34.200    0.4994
   34.230    0.4102
   34.260    0.4637
   34.290    0.2854
   34.320    0.3567
   34.350    0.3924
   34.380    0.2854
   34.410    0.2319
   34.440    0.3567
   34.470    0.4637
   34.500    0.4280
   34.530    0.3210
   34.560    0.3210
   34.590    0.3210
   34.620    0.3210
   34.650    0.2854
   34.680    0.3389
   34.710    0.3032
   34.740    0.3032
   34.770    0.3210
   34.800    0.3389
   34.830    0.4459
   34.860    0.2675
   34.890    0.4637
   34.920    0.3567
   34.950    0.2854
   34.980    0.4102
   35.010    0.3745
   35.040    0.3567
   35.070    0.2675
   35.100    0.3032
   35.130    0.2140
   35.160    0.3032
   35.190    0.3210
   35.220    0.3924
   35.250    0.2497
   35.280    0.3210
   35.310    0.2497
   35.340    0.4459
   35.370    0.3210
   35.400    0.3745
   35.430    0.2497
   35.460    0.4280
   35.490    0.3389
   35.520    0.4102
   35.550    0.3745
   35.580    0.2675
   35.610    0.3389
   35.640    0.3924
   35.670    0.3210
   35.700    0.2854
   35.730    0.4280
   35.760    0.3210
   35.790    0.2497
   35.820    0.3389
   35.850    0.2675
   35.880    0.2497
   35.910    0.3567
   35.940    0.3389
   35.970    0.3745
   36.000    0.4280
   36.030    0.3210
   36.060    0.3032
   36.090    0.3924
   36.120    0.3389
   36.150    0.3210
   36.180    0.1783
   36.210    0.4280
   36.240    0.2675
   36.270    0.1962
   36.300    0.2854
   36.330    0.3210
   36.360    0.3389
   36.390    0.2497
   36.420    0.2675
   36.450    0.2854
   36.480    0.2675
   36.510    0.3032
   36.540    0.3389
   36.570    0.2140
   36.600    0.3210
   36.630    0.3389
   36.660    0.2675
   36.690    0.2854
   36.720    0.3389
   36.750    0.4280
   36.780    0.3210
   36.810    0.2497
   36.840    0.2675
   36.870    0.3210
   36.900    0.2497
   36.930    0.3032
   36.960    0.2675
   36.990    0.2675
   37.020    0.3032
   37.050    0.2140
   37.080    0.2854
   37.110    0.3389
   37.140    0.2854
   37.170    0.2497
   37.200    0.3567
   37.230    0.2854
   37.260    0.2854
   37.290    0.2675
   37.320    0.1783
   37.350    0.2854
   37.380    0.3210
   37.410    0.2140
   37.440    0.3210
   37.470    0.4459
   37.500    0.6777
   37.530    0.4102
   37.560    0.2497
   37.590    0.2675
   37.620    0.2497
   37.650    0.2675
   37.680    0.2497
   37.710    0.2140
   37.740    0.3389
   37.770    0.1783
   37.800    0.2675
   37.830    0.2140
   37.860    0.2497
   37.890    0.2319
   37.920    0.4102
   37.950    0.3210
   37.980    0.2497
   38.010    0.3032
   38.040    0.3745
   38.070    0.1605
   38.100    0.3032
   38.130    0.1783
   38.160    0.2497
   38.190    0.2319
   38.220    0.2497
   38.250    0.1962
   38.280    0.2140
   38.310    0.1605
   38.340    0.2140
   38.370    0.3210
   38.400    0.2675
   38.430    0.2140
   38.460    0.2675
   38.490    0.2854
   38.520    0.3567
   38.550    0.1962
   38.580    0.1962
   38.610    0.2497
   38.640    0.2319
   38.670    0.2675
   38.700    0.1427
   38.730    0.2854
   38.760    0.2675
   38.790    0.3745
   38.820    0.3389
   38.850    0.3032
   38.880    0.1962
   38.910    0.1427
   38.940    0.2854
   38.970    0.1427
   39.000    0.2497
   39.030    0.2497
   39.060    0.3210
   39.090    0.2675
   39.120    0.2140
   39.150    0.2854
   39.180    0.2140
   39.210    0.3210
   39.240    0.2675
   39.270    0.1962
   39.300    0.2497
   39.330    0.2140
   39.360    0.2140
   39.390    0.2319
   39.420    0.2497
   39.450    0.2497
   39.480    0.3032
   39.510    0.2675
   39.540    0.2854
   39.570    0.2675
   39.600    0.2854
   39.630    0.2675
   39.660    0.2140
   39.690    0.2319
   39.720    0.2854
   39.750    0.1783
   39.780    0.3210
   39.810    0.3389
   39.840    0.2319
   39.870    0.3389
   39.900    0.3210
   39.930    0.2854
   39.960    0.1783
   39.990    0.1962