File: data/PXRD/PXRD_KE-312_Cu-Ka1_capillary-1mm_3s-deg.xyd
    1.500   13.4632
    1.530   12.9191
    1.560   12.4451
    1.590   12.2696
    1.620   11.3042
    1.650   11.8659
    1.680   11.0058
    1.710   10.6372
    1.740   10.2159
    1.770    9.9702
    1.800    9.9702
    1.830    9.2505
    1.860    9.4085
    1.890    9.0574
    1.920    9.3382
    1.950    9.4260
    1.980    8.6010
    2.010    8.6712
    2.040    8.7239
    2.070    7.9867
    2.100    7.7936
    2.130    7.5127
    2.160    7.8989
    2.190    7.3372
    2.220    7.6005
    2.250    7.0915
    2.280    7.0563
    2.310    7.1441
    2.340    7.2143
    2.370    7.3372
    2.400    7.0212
    2.430    6.6877
    2.460    6.8457
    2.490    6.1260
    2.520    6.1787
    2.550    6.9861
    2.580    6.7228
    2.610    6.0734
    2.640    6.5298
    2.670    6.1085
    2.700    6.4244
    2.730    6.2489
    2.760    5.9681
    2.790    6.2313
    2.820    6.5298
    2.850    6.5122
    2.880    6.9159
    2.910    7.1266
    2.940    6.7053
    2.970    7.2670
    3.000    7.7234
    3.030    7.6356
    3.060    7.8287
    3.090    8.2324
    3.120    9.4085
    3.150   10.2159
    3.180   11.2515
    3.210   12.2696
    3.240   13.2350
    3.270   13.9372
    3.300   16.5701
    3.330   18.0972
    3.360   20.3089
    3.390   21.8009
    3.420   24.4164
    3.450   27.9972
    3.480   31.5078
    3.510   35.3168
    3.540   39.4067
    3.570   45.1817
    3.600   53.6247
    3.630   61.8922
    3.660   70.8092
    3.690   86.4841
    3.720  101.2112
    3.750  125.9259
    3.780  163.4369
    3.810  229.6823
    3.840  302.2468
    3.870  247.9726
    3.900  124.4515
    3.930   35.7557
    3.960   13.8845
    3.990    9.4787
    4.020    6.6526
    4.050    6.9510
    4.080    6.3016
    4.110    5.8803
    4.140    5.7399
    4.170    5.5468
    4.200    5.5994
    4.230    5.0904
    4.260    4.8798
    4.290    5.1606
    4.320    5.2308
    4.350    4.8798
    4.380    5.1606
    4.410    5.4766
    4.440    5.4590
    4.470    5.0904
    4.500    5.2484
    4.530    4.9851
    4.560    5.2484
    4.590    5.2133
    4.620    5.3186
    4.650    5.7925
    4.680    6.0558
    4.710    6.8106
    4.740    6.3718
    4.770    5.9505
    4.800    4.7569
    4.830    4.9324
    4.860    5.0904
    4.890    4.5287
    4.920    4.6691
    4.950    4.5111
    4.980    4.7569
    5.010    4.8271
    5.040    5.1957
    5.070    5.5292
    5.100    6.4244
    5.130    6.0909
    5.160    7.3196
    5.190    7.7760
    5.220    8.5308
    5.250    9.5138
    5.280   11.4622
    5.310   13.2350
    5.340   15.7276
    5.370   20.0632
    5.400   26.2419
    5.430   35.9663
    5.460   47.7971
    5.490   43.4439
    5.520   25.3467
    5.550    9.8297
    5.580    5.7048
    5.610    5.1255
    5.640    4.7042
    5.670    4.0548
    5.700    4.1425
    5.730    3.8617
    5.760    4.3005
    5.790    3.8617
    5.820    4.5287
    5.850    3.9143
    5.880    4.1601
    5.910    4.1074
    5.940    4.3532
    5.970    4.0197
    6.000    3.9143
    6.030    4.0723
    6.060    3.9143
    6.090    3.9670
    6.120    4.2830
    6.150    4.2478
    6.180    3.7213
    6.210    3.9319
    6.240    4.0021
    6.270    3.8968
    6.300    4.1250
    6.330    3.9319
    6.360    4.0372
    6.390    4.2303
    6.420    4.3181
    6.450    4.5111
    6.480    4.2303
    6.510    4.4760
    6.540    5.0202
    6.570    4.5638
    6.600    5.8627
    6.630    5.9505
    6.660    7.0388
    6.690    9.2856
    6.720   10.9882
    6.750    8.3202
    6.780    5.8101
    6.810    4.3883
    6.840    4.1074
    6.870    3.7037
    6.900    4.2654
    6.930    4.1074
    6.960    3.8266
    6.990    4.0197
    7.020    4.0021
    7.050    3.7915
    7.080    3.7739
    7.110    3.7564
    7.140    4.0723
    7.170    3.6510
    7.200    3.3175
    7.230    3.8617
    7.260    3.8266
    7.290    3.8441
    7.320    4.1425
    7.350    3.7564
    7.380    3.8266
    7.410    3.8266
    7.440    4.1776
    7.470    4.0899
    7.500    4.2127
    7.530    4.2654
    7.560    5.0026
    7.590    5.6170
    7.620    6.4946
    7.650    7.1617
    7.680    8.4781
    7.710   10.7952
    7.740   15.5169
    7.770   18.0972
    7.800   14.6393
    7.830    8.0920
    7.860    5.0202
    7.890    3.9670
    7.920    4.0723
    7.950    3.8090
    7.980    3.6335
    8.010    3.7915
    8.040    3.7564
    8.070    3.2473
    8.100    3.8792
    8.130    3.9846
    8.160    3.8441
    8.190    4.3005
    8.220    4.1601
    8.250    4.8271
    8.280    3.9494
    8.310    4.0548
    8.340    3.4053
    8.370    3.7388
    8.400    3.3877
    8.430    3.6686
    8.460    4.0723
    8.490    4.0548
    8.520    4.0372
    8.550    4.0372
    8.580    4.3883
    8.610    4.5989
    8.640    4.6516
    8.670    5.2308
    8.700    5.7750
    8.730    5.2133
    8.760    4.4058
    8.790    3.6159
    8.820    3.8617
    8.850    3.6862
    8.880    3.7564
    8.910    3.7915
    8.940    3.7739
    8.970    3.6686
    9.000    3.9143
    9.030    3.9319
    9.060    3.9494
    9.090    3.8441
    9.120    3.6510
    9.150    4.0021
    9.180    3.8090
    9.210    3.9494
    9.240    3.9143
    9.270    3.4755
    9.300    4.4409
    9.330    5.0728
    9.360    5.8627
    9.390    6.6175
    9.420    8.2324
    9.450   10.3739
    9.480   14.1829
    9.510   20.8004
    9.540   23.7318
    9.570   18.4659
    9.600    9.8122
    9.630    5.0904
    9.660    4.2478
    9.690    3.8968
    9.720    3.5984
    9.750    3.7213
    9.780    3.7213
    9.810    3.5984
    9.840    3.4755
    9.870    3.5808
    9.900    3.7564
    9.930    3.0893
    9.960    3.6862
    9.990    3.5282
   10.020    3.4931
   10.050    3.7388
   10.080    3.9143
   10.110    4.1425
   10.140    4.7393
   10.170    4.7393
   10.200    4.7744
   10.230    5.7574
   10.260    7.9340
   10.290    9.6718
   10.320    9.7244
   10.350    7.5654
   10.380    5.0026
   10.410    4.0372
   10.440    3.4755
   10.470    3.6510
   10.500    3.4053
   10.530    3.3526
   10.560    3.6335
   10.590    3.7388
   10.620    3.4931
   10.650    3.6159
   10.680    3.5633
   10.710    3.8090
   10.740    3.8441
   10.770    3.7564
   10.800    3.8617
   10.830    3.9670
   10.860    4.2654
   10.890    4.1250
   10.920    5.0728
   10.950    6.3542
   10.980    8.4957
   11.010   10.9531
   11.040   10.8303
   11.070    8.3553
   11.100    5.1255
   11.130    4.1952
   11.160    3.7213
   11.190    4.0899
   11.220    3.3702
   11.250    3.8968
   11.280    3.5457
   11.310    3.4931
   11.340    3.5808
   11.370    3.8968
   11.400    3.6686
   11.430    3.6159
   11.460    3.7037
   11.490    4.0197
   11.520    3.5457
   11.550    3.8441
   11.580    4.7920
   11.610    5.5819
   11.640    6.7404
   11.670    9.5840
   11.700   11.7606
   11.730   10.2686
   11.760    7.0915
   11.790    4.0899
   11.820    3.7213
   11.850    3.2122
   11.880    3.3877
   11.910    3.2649
   11.940    3.4053
   11.970    3.1596
   12.000    3.3351
   12.030    3.4755
   12.060    3.5457
   12.090    3.3526
   12.120    3.1596
   12.150    3.4755
   12.180    3.2473
   12.210    3.4755
   12.240    3.6335
   12.270    4.1425
   12.300    4.5638
   12.330    5.2835
   12.360    4.6516
   12.390    3.9846
   12.420    3.4931
   12.450    3.1596
   12.480    3.1420
   12.510    3.4931
   12.540    3.2824
   12.570    3.4580
   12.600    3.3877
   12.630    3.5106
   12.660    3.2824
   12.690    3.3175
   12.720    3.4229
   12.750    3.6686
   12.780    3.8090
   12.810    3.6686
   12.840    3.9846
   12.870    4.8095
   12.900    6.0383
   12.930    7.7936
   12.960    8.5659
   12.990    6.5824
   13.020    4.3707
   13.050    3.8617
   13.080    3.5282
   13.110    3.2824
   13.140    3.2824
   13.170    3.1596
   13.200    3.4229
   13.230    2.8085
   13.260    3.4053
   13.290    3.3000
   13.320    3.5457
   13.350    3.6335
   13.380    3.0718
   13.410    3.5106
   13.440    4.2654
   13.470    4.3356
   13.500    5.4415
   13.530    5.7399
   13.560    5.6345
   13.590    4.4760
   13.620    3.8617
   13.650    3.3526
   13.680    3.2122
   13.710    3.3526
   13.740    3.1420
   13.770    3.1069
   13.800    3.2122
   13.830    3.4229
   13.860    3.5457
   13.890    3.1245
   13.920    3.7213
   13.950    3.6686
   13.980    4.0899
   14.010    4.7569
   14.040    6.2665
   14.070    7.8111
   14.100    8.1446
   14.130    6.1611
   14.160    4.5989
   14.190    3.7213
   14.220    3.1596
   14.250    3.3000
   14.280    3.4580
   14.310    3.3351
   14.340    3.4053
   14.370    3.3175
   14.400    3.1596
   14.430    3.1245
   14.460    3.0191
   14.490    3.4404
   14.520    3.5282
   14.550    3.4755
   14.580    3.0191
   14.610    3.2824
   14.640    3.3526
   14.670    3.6510
   14.700    3.1420
   14.730    3.2122
   14.760    3.3175
   14.790    3.2473
   14.820    2.9665
   14.850    3.5633
   14.880    3.4580
   14.910    3.1245
   14.940    3.2649
   14.970    3.3351
   15.000    3.1245
   15.030    3.5984
   15.060    3.8441
   15.090    3.5808
   15.120    4.2654
   15.150    4.8622
   15.180    4.0197
   15.210    3.5633
   15.240    3.3000
   15.270    3.0893
   15.300    2.8787
   15.330    3.3351
   15.360    3.4229
   15.390    3.1245
   15.420    3.6159
   15.450    3.2122
   15.480    3.1069
   15.510    3.0542
   15.540    3.4580
   15.570    3.3526
   15.600    3.4053
   15.630    3.3526
   15.660    2.7909
   15.690    2.7558
   15.720    2.8612
   15.750    3.0367
   15.780    3.3000
   15.810    3.2473
   15.840    3.4580
   15.870    3.6159
   15.900    3.1947
   15.930    3.3000
   15.960    3.2473
   15.990    2.9489
   16.020    3.1245
   16.050    3.7564
   16.080    3.7915
   16.110    4.5463
   16.140    3.9143
   16.170    4.2478
   16.200    3.7739
   16.230    3.1596
   16.260    3.3175
   16.290    3.0542
   16.320    2.8787
   16.350    3.3877
   16.380    3.1596
   16.410    3.4404
   16.440    3.5106
   16.470    3.6159
   16.500    3.2649
   16.530    3.4053
   16.560    4.1250
   16.590    4.3181
   16.620    4.7218
   16.650    3.8968
   16.680    3.2824
   16.710    3.0718
   16.740    2.9665
   16.770    3.3175
   16.800    3.3175
   16.830    3.6862
   16.860    3.7915
   16.890    3.6159
   16.920    3.4580
   16.950    3.5106
   16.980    4.2654
   17.010    4.5989
   17.040    6.3367
   17.070    6.8633
   17.100    5.8101
   17.130    4.8798
   17.160    3.9494
   17.190    3.2298
   17.220    3.7213
   17.250    3.3175
   17.280    3.1771
   17.310    2.8612
   17.340    3.3351
   17.370    3.6510
   17.400    3.4755
   17.430    3.3877
   17.460    3.7739
   17.490    4.0723
   17.520    4.3005
   17.550    3.6510
   17.580    3.7564
   17.610    3.2298
   17.640    3.3526
   17.670    3.4931
   17.700    3.3000
   17.730    3.5106
   17.760    3.5106
   17.790    3.1771
   17.820    3.7915
   17.850    3.1420
   17.880    3.6510
   17.910    3.8617
   17.940    4.2303
   17.970    3.9494
   18.000    3.8266
   18.030    3.9670
   18.060    3.3526
   18.090    3.1596
   18.120    3.3175
   18.150    3.1947
   18.180    3.1771
   18.210    3.5282
   18.240    3.2473
   18.270    3.4580
   18.300    3.4931
   18.330    3.7388
   18.360    4.2127
   18.390    4.2830
   18.420    4.0899
   18.450    3.7739
   18.480    3.5808
   18.510    3.4053
   18.540    3.6335
   18.570    3.0016
   18.600    3.0191
   18.630    3.4931
   18.660    3.1947
   18.690    3.6159
   18.720    3.3526
   18.750    3.5633
   18.780    3.8090
   18.810    3.6862
   18.840    3.7739
   18.870    4.0197
   18.900    3.4404
   18.930    3.1245
   18.960    3.3877
   18.990    3.3702
   19.020    3.3877
   19.050    3.1596
   19.080    3.2473
   19.110    3.4580
   19.140    2.9665
   19.170    3.2298
   19.200    3.4755
   19.230    3.4053
   19.260    3.4404
   19.290    3.2824
   19.320    3.1947
   19.350    3.7037
   19.380    3.1947
   19.410    3.2649
   19.440    3.2122
   19.470    3.8266
   19.500    3.0016
   19.530    3.2298
   19.560    4.2127
   19.590    4.1425
   19.620    5.0026
   19.650    4.0548
   19.680    3.9670
   19.710    3.6510
   19.740    3.8441
   19.770    3.4053
   19.800    2.9489
   19.830    3.3526
   19.860    3.4755
   19.890    3.4580
   19.920    3.4580
   19.950    3.4931
   19.980    3.1771
   20.010    3.8968
   20.040    3.3000
   20.070    3.4580
   20.100    3.3000
   20.130    3.5282
   20.160    3.5808
   20.190    3.3526
   20.220    3.6159
   20.250    3.6862
   20.280    3.6335
   20.310    3.9319
   20.340    4.6867
   20.370    6.0734
   20.400    6.6175
   20.430    5.9154
   20.460    4.4760
   20.490    3.8090
   20.520    3.6686
   20.550    3.3877
   20.580    3.3351
   20.610    3.1596
   20.640    3.4229
   20.670    3.1069
   20.700    3.3526
   20.730    3.6510
   20.760    3.0718
   20.790    3.1771
   20.820    3.5282
   20.850    3.3175
   20.880    3.2473
   20.910    3.4053
   20.940    3.2824
   20.970    3.4229
   21.000    3.3702
   21.030    3.1947
   21.060    3.4580
   21.090    3.3000
   21.120    3.3877
   21.150    3.5282
   21.180    3.3877
   21.210    3.2473
   21.240    3.0893
   21.270    3.2122
   21.300    3.2122
   21.330    3.2122
   21.360    3.2649
   21.390    3.3351
   21.420    3.3175
   21.450    3.5984
   21.480    3.6510
   21.510    3.1420
   21.540    3.1069
   21.570    3.5984
   21.600    3.4229
   21.630    3.5984
   21.660    3.3000
   21.690    3.3702
   21.720    3.4580
   21.750    3.2649
   21.780    3.6510
   21.810    3.7915
   21.840    4.4058
   21.870    4.8271
   21.900    4.0548
   21.930    4.0548
   21.960    3.8617
   21.990    3.5282
   22.020    2.9489
   22.050    3.6335
   22.080    3.5282
   22.110    3.3526
   22.140    3.3877
   22.170    4.2478
   22.200    3.5106
   22.230    3.7739
   22.260    3.5282
   22.290    3.0718
   22.320    3.5106
   22.350    3.6686
   22.380    3.5808
   22.410    3.8792
   22.440    3.5282
   22.470    3.8617
   22.500    4.2830
   22.530    4.8798
   22.560    5.5819
   22.590    6.5122
   22.620    5.4941
   22.650    4.8447
   22.680    3.8441
   22.710    3.5457
   22.740    3.6862
   22.770    3.8266
   22.800    3.9319
   22.830    3.8441
   22.860    4.5638
   22.890    6.0558
   22.920    6.8808
   22.950    6.6877
   22.980    5.7750
   23.010    4.3707
   23.040    3.8617
   23.070    3.5457
   23.100    3.5282
   23.130    3.6159
   23.160    3.3351
   23.190    3.7213
   23.220    4.1250
   23.250    4.3181
   23.280    4.2478
   23.310    4.0899
   23.340    3.7388
   23.370    3.4931
   23.400    3.3000
   23.430    3.3351
   23.460    3.5808
   23.490    3.2298
   23.520    3.4755
   23.550    3.5457
   23.580    3.2122
   23.610    3.5106
   23.640    3.1947
   23.670    3.7213
   23.700    3.5808
   23.730    3.7915
   23.760    3.4931
   23.790    3.2473
   23.820    3.5106
   23.850    3.6510
   23.880    3.7915
   23.910    4.3181
   23.940    4.4058
   23.970    4.2303
   24.000    4.2830
   24.030    3.5282
   24.060    3.4755
   24.090    3.5457
   24.120    3.4229
   24.150    3.0893
   24.180    3.4229
   24.210    3.4404
   24.240    3.1420
   24.270    3.4053
   24.300    3.2824
   24.330    3.4931
   24.360    3.4053
   24.390    3.4755
   24.420    3.1245
   24.450    3.1771
   24.480    3.3175
   24.510    3.6159
   24.540    3.3526
   24.570    3.6335
   24.600    3.7915
   24.630    3.7388
   24.660    3.3175
   24.690    3.4229
   24.720    3.1420
   24.750    3.4931
   24.780    3.3000
   24.810    3.1596
   24.840    3.3351
   24.870    3.3526
   24.900    3.7213
   24.930    3.5457
   24.960    2.9138
   24.990    3.7388
   25.020    3.3351
   25.050    2.9665
   25.080    3.3702
   25.110    3.4931
   25.140    3.5808
   25.170    3.6159
   25.200    3.4580
   25.230    3.5106
   25.260    3.6159
   25.290    3.5808
   25.320    3.3877
   25.350    3.4229
   25.380    3.1420
   25.410    3.6159
   25.440    3.6686
   25.470    3.1947
   25.500    3.4580
   25.530    3.7564
   25.560    3.4580
   25.590    3.4229
   25.620    3.4229
   25.650    3.2649
   25.680    3.4931
   25.710    3.3702
   25.740    3.6510
   25.770    3.8968
   25.800    4.7569
   25.830    5.0377
   25.860    4.9675
   25.890    4.8798
   25.920    4.1952
   25.950    3.7564
   25.980    3.4404
   26.010    3.0718
   26.040    3.0893
   26.070    3.3000
   26.100    3.4580
   26.130    3.5106
   26.160    3.4229
   26.190    3.1771
   26.220    3.2298
   26.250    3.6862
   26.280    2.9840
   26.310    3.2649
   26.340    3.2473
   26.370    3.4404
   26.400    3.9319
   26.430    3.9143
   26.460    3.8968
   26.490    3.8090
   26.520    3.6335
   26.550    3.5282
   26.580    3.5808
   26.610    3.3877
   26.640    3.5808
   26.670    3.3702
   26.700    3.0367
   26.730    3.3877
   26.760    3.2824
   26.790    3.6862
   26.820    2.9138
   26.850    3.2122
   26.880    3.1420
   26.910    3.4404
   26.940    3.6686
   26.970    3.6862
   27.000    3.6686
   27.030    4.1776
   27.060    4.2127
   27.090    3.9319
   27.120    3.4580
   27.150    3.4755
   27.180    3.0016
   27.210    3.3000
   27.240    3.1069
   27.270    2.8612
   27.300    3.5633
   27.330    3.2122
   27.360    3.3351
   27.390    3.1771
   27.420    3.4755
   27.450    3.5457
   27.480    3.1771
   27.510    2.8612
   27.540    3.4229
   27.570    3.5984
   27.600    3.8090
   27.630    3.7388
   27.660    3.6335
   27.690    3.5457
   27.720    3.3877
   27.750    3.4053
   27.780    3.2473
   27.810    3.1947
   27.840    3.2649
   27.870    3.4229
   27.900    3.2649
   27.930    3.3351
   27.960    3.5457
   27.990    2.9138
   28.020    3.0893
   28.050    3.6335
   28.080    3.1947
   28.110    3.5633
   28.140    3.7037
   28.170    4.0899
   28.200    3.9319
   28.230    4.2478
   28.260    3.6510
   28.290    3.6862
   28.320    3.4404
   28.350    3.0367
   28.380    3.5457
   28.410    3.4580
   28.440    3.7564
   28.470    3.5282
   28.500    3.8090
   28.530    3.9143
   28.560    3.8266
   28.590    3.7213
   28.620    3.1420
   28.650    3.1947
   28.680    3.1596
   28.710    3.1069
   28.740    3.5808
   28.770    3.4404
   28.800    3.1245
   28.830    3.0542
   28.860    2.7207
   28.890    3.4931
   28.920    2.9840
   28.950    3.4580
   28.980    3.0191
   29.010    3.1245
   29.040    3.1947
   29.070    3.5633
   29.100    3.1596
   29.130    3.2649
   29.160    3.0191
   29.190    3.0367
   29.220    3.3175
   29.250    3.8792
   29.280    3.8090
   29.310    4.0372
   29.340    3.7388
   29.370    3.3877
   29.400    3.1420
   29.430    3.0718
   29.460    3.0718
   29.490    3.2298
   29.520    3.1420
   29.550    3.3000
   29.580    3.3351
   29.610    2.6681
   29.640    2.7032
   29.670    2.9489
   29.700    3.1596
   29.730    3.2473
   29.760    3.2473
   29.790    3.4053
   29.820    2.9665
   29.850    3.6159
   29.880    3.5984
   29.910    3.0542
   29.940    3.1596
   29.970    3.3351
   30.000    3.0016
   30.030    2.8085
   30.060    3.3351
   30.090    3.2824
   30.120    3.4053
   30.150    3.0191
   30.180    3.0191
   30.210    3.4580
   30.240    3.4755
   30.270    3.1420
   30.300    3.0542
   30.330    2.9314
   30.360    3.4931
   30.390    3.5808
   30.420    3.2824
   30.450    3.0016
   30.480    3.1069
   30.510    3.0893
   30.540    3.1596
   30.570    2.8612
   30.600    2.9138
   30.630    3.2122
   30.660    3.2298
   30.690    3.3877
   30.720    3.0718
   30.750    2.8612
   30.780    2.7909
   30.810    2.9665
   30.840    3.0542
   30.870    2.7383
   30.900    2.8436
   30.930    3.1420
   30.960    3.2473
   30.990    2.9840
   31.020    2.8787
   31.050    3.0367
   31.080    2.8612
   31.110    2.9314
   31.140    2.9665
   31.170    3.0367
   31.200    2.8260
   31.230    2.9840
   31.260    3.4229
   31.290    3.2122
   31.320    3.2122
   31.350    3.4404
   31.380    3.5633
   31.410    3.3702
   31.440    3.4229
   31.470    3.4229
   31.500    3.4053
   31.530    3.4580
   31.560    2.9489
   31.590    3.3702
   31.620    3.0718
   31.650    3.2298
   31.680    3.6335
   31.710    3.0367
   31.740    3.3000
   31.770    3.6686
   31.800    3.5984
   31.830    3.3877
   31.860    3.2122
   31.890    3.0542
   31.920    3.3000
   31.950    3.4755
   31.980    3.2122
   32.010    3.2298
   32.040    2.6856
   32.070    2.7207
   32.100    3.5282
   32.130    2.8085
   32.160    3.3877
   32.190    3.2649
   32.220    2.8963
   32.250    3.2473
   32.280    3.1069
   32.310    3.1245
   32.340    3.2122
   32.370    3.2824
   32.400    2.8436
   32.430    3.0016
   32.460    2.7734
   32.490    3.0191
   32.520    2.9489
   32.550    3.3000
   32.580    2.7558
   32.610    2.9840
   32.640    2.8787
   32.670    3.0542
   32.700    2.8787
   32.730    2.8436
   32.760    2.5628
   32.790    3.3351
   32.820    3.1420
   32.850    2.9138
   32.880    2.8963
   32.910    3.2824
   32.940    3.3000
   32.970    2.6154
   33.000    3.2473
   33.030    2.7909
   33.060    2.8436
   33.090    2.5979
   33.120    3.3351
   33.150    2.8085
   33.180    3.1069
   33.210    2.8260
   33.240    3.0016
   33.270    3.0016
   33.300    2.9314
   33.330    2.9489
   33.360    2.9489
   33.390    2.7383
   33.420    2.7909
   33.450    2.4750
   33.480    2.6856
   33.510    2.8085
   33.540    2.8260
   33.570    2.7383
   33.600    2.9314
   33.630    2.9840
   33.660    2.8085
   33.690    3.1596
   33.720    2.7734
   33.750    2.6330
   33.780    2.4750
   33.810    2.8963
   33.840    3.1596
   33.870    3.4755
   33.900    3.4580
   33.930    3.3526
   33.960    3.2473
   33.990    3.4580
   34.020    2.7558
   34.050    3.1947
   34.080    3.0016
   34.110    3.1069
   34.140    3.0718
   34.170    2.7734
   34.200    2.8085
   34.230    2.8260
   34.260    2.8436
   34.290    2.7734
   34.320    2.8085
   34.350    3.0016
   34.380    2.8436
   34.410    2.8963
   34.440    3.0893
   34.470    2.6154
   34.500    2.7734
   34.530    2.6681
   34.560    3.2122
   34.590    2.7032
   34.620    3.0367
   34.650    2.4750
   34.680    2.8436
   34.710    2.9314
   34.740    2.9314
   34.770    2.7909
   34.800    2.9138
   34.830    2.9665
   34.860    3.0191
   34.890    2.7734
   34.920    2.4574
   34.950    2.8963
   34.980    2.4399
   35.010    2.6505
   35.040    2.9840
   35.070    2.6681
   35.100    3.0542
   35.130    2.7032
   35.160    2.4574
   35.190    2.7734
   35.220    2.8963
   35.250    2.6856
   35.280    2.7032
   35.310    2.9138
   35.340    2.9138
   35.370    2.7383
   35.400    2.5628
   35.430    2.5979
   35.460    2.4399
   35.490    2.5101
   35.520    2.7909
   35.550    2.8612
   35.580    2.5276
   35.610    2.4399
   35.640    2.6681
   35.670    2.7734
   35.700    2.4925
   35.730    2.9489
   35.760    2.7383
   35.790    2.7909
   35.820    2.9314
   35.850    2.5803
   35.880    3.0016
   35.910    3.1069
   35.940    3.0191
   35.970    3.0542
   36.000    2.4399
   36.030    3.1245
   36.060    2.9138
   36.090    2.8787
   36.120    2.7207
   36.150    2.7734
   36.180    2.8612
   36.210    2.9665
   36.240    3.1069
   36.270    2.7558
   36.300    2.6505
   36.330    3.0016
   36.360    2.9489
   36.390    2.6505
   36.420    2.7207
   36.450    2.8963
   36.480    2.5101
   36.510    2.4574
   36.540    2.8787
   36.570    2.8787
   36.600    2.7032
   36.630    3.0367
   36.660    2.9665
   36.690    2.7734
   36.720    3.0367
   36.750    3.4053
   36.780    3.1420
   36.810    2.8085
   36.840    2.6681
   36.870    2.5979
   36.900    2.6505
   36.930    2.5101
   36.960    3.0718
   36.990    2.8260
   37.020    3.0718
   37.050    2.9138
   37.080    3.0016
   37.110    2.7734
   37.140    2.9489
   37.170    3.1420
   37.200    3.1596
   37.230    3.1245
   37.260    3.0542
   37.290    2.8436
   37.320    2.6681
   37.350    2.7207
   37.380    2.7032
   37.410    2.5803
   37.440    2.7032
   37.470    2.7383
   37.500    2.8612
   37.530    2.6330
   37.560    2.8260
   37.590    2.6330
   37.620    2.7207
   37.650    2.5979
   37.680    2.9489
   37.710    2.6505
   37.740    3.0893
   37.770    2.6856
   37.800    2.9489
   37.830    2.6856
   37.860    2.8787
   37.890    2.9489
   37.920    2.6505
   37.950    3.0367
   37.980    2.9138
   38.010    2.9314
   38.040    2.6330
   38.070    2.7383
   38.100    2.8612
   38.130    2.4750
   38.160    2.3521
   38.190    2.5803
   38.220    2.6856
   38.250    2.6330
   38.280    2.6681
   38.310    2.7207
   38.340    2.6154
   38.370    2.7558
   38.400    2.8260
   38.430    2.8963
   38.460    2.9138
   38.490    2.9138
   38.520    2.9489
   38.550    2.6681
   38.580    2.5101
   38.610    2.8260
   38.640    2.4750
   38.670    2.8436
   38.700    2.7383
   38.730    2.6856
   38.760    2.6330
   38.790    2.6856
   38.820    2.7909
   38.850    2.5803
   38.880    2.2995
   38.910    2.7207
   38.940    2.5276
   38.970    2.8612
   39.000    2.8436
   39.030    2.9665
   39.060    2.6681
   39.090    2.5979
   39.120    2.8436
   39.150    2.4925
   39.180    2.2995
   39.210    2.7383
   39.240    2.6856
   39.270    2.4048
   39.300    2.8787
   39.330    2.7558
   39.360    2.7734
   39.390    2.7383
   39.420    2.7207
   39.450    2.5101
   39.480    2.5628
   39.510    2.6154
   39.540    2.6681
   39.570    2.2819
   39.600    2.7207
   39.630    2.6681
   39.660    2.5803
   39.690    2.7207
   39.720    2.5452
   39.750    2.7558
   39.780    2.5101
   39.810    2.5803
   39.840    2.6330
   39.870    2.4048
   39.900    2.5979
   39.930    3.0367
   39.960    3.1420
   39.990    2.2819