File: data/PXRD/PXRD_KE-015_Cu-Ka1_capillary-1mm_5s-deg.xyd
    1.500   26.5508
    1.530   26.6035
    1.560   26.0453
    1.590   24.6972
    1.620   24.4866
    1.650   23.5071
    1.680   23.2438
    1.710   21.4218
    1.740   21.1585
    1.770   21.2744
    1.800   20.6635
    1.830   20.2422
    1.860   20.1580
    1.890   19.7894
    1.920   19.4945
    1.950   18.7467
    1.980   18.3886
    2.010   17.6935
    2.040   16.8299
    2.070   17.0195
    2.100   17.1353
    2.130   16.2823
    2.160   16.3139
    2.190   15.9452
    2.220   16.0506
    2.250   15.3765
    2.280   15.0922
    2.310   15.0606
    2.340   14.3865
    2.370   15.1448
    2.400   14.9658
    2.430   13.7335
    2.460   14.6498
    2.490   14.2917
    2.520   13.8810
    2.550   13.3755
    2.580   13.0279
    2.610   13.2280
    2.640   13.0279
    2.670   12.9226
    2.700   12.9437
    2.730   12.4065
    2.760   12.4592
    2.790   12.8173
    2.820   12.3855
    2.850   11.9010
    2.880   11.9537
    2.910   12.1432
    2.940   11.9431
    2.970   11.5850
    3.000   11.4692
    3.030   10.9847
    3.060   11.1322
    3.090   11.7325
    3.120   11.1743
    3.150   11.9537
    3.180   11.1638
    3.210   11.0374
    3.240   11.0269
    3.270   10.9531
    3.300   11.2059
    3.330   11.0269
    3.360   11.0585
    3.390   11.1743
    3.420   10.8373
    3.450   11.2164
    3.480   10.6266
    3.510   11.0163
    3.540   11.0058
    3.570   11.1427
    3.600   10.2054
    3.630   10.4897
    3.660   10.6161
    3.690   10.3423
    3.720   10.0685
    3.750    9.9315
    3.780   10.5635
    3.810   10.2475
    3.840   10.2370
    3.870    9.9315
    3.900    9.9947
    3.930    9.6788
    3.960    9.8052
    3.990   10.1738
    4.020    9.5103
    4.050    9.2470
    4.080    9.5629
    4.110    9.2891
    4.140    9.3418
    4.170    9.1627
    4.200    9.3207
    4.230    9.2680
    4.260    9.3944
    4.290    9.2680
    4.320    8.8362
    4.350    9.2575
    4.380    8.8257
    4.410    9.2259
    4.440    8.8573
    4.470    8.7414
    4.500    8.9837
    4.530    8.9626
    4.560    8.9942
    4.590    8.9310
    4.620    8.8784
    4.650    8.7625
    4.680    8.8889
    4.710    8.6783
    4.740    8.5624
    4.770    8.3412
    4.800    8.9205
    4.830    8.6993
    4.860    8.8678
    4.890    8.3728
    4.920    8.0990
    4.950    8.7836
    4.980    8.5413
    5.010    8.5413
    5.040    8.6045
    5.070    9.0153
    5.100    8.9626
    5.130    9.0047
    5.160    8.9205
    5.190    9.0363
    5.220    9.1732
    5.250    8.6677
    5.280    9.4681
    5.310    8.7414
    5.340    9.0258
    5.370    9.1101
    5.400    9.0995
    5.430    9.2680
    5.460    9.1522
    5.490    9.5208
    5.520    9.7525
    5.550    9.4787
    5.580    9.8578
    5.610    9.6998
    5.640    9.6261
    5.670    9.2891
    5.700    9.2364
    5.730    9.5419
    5.760   10.1843
    5.790   10.0895
    5.820   10.3318
    5.850   11.3428
    5.880   12.4803
    5.910   12.9858
    5.940   13.9021
    5.970   14.6498
    6.000   13.0806
    6.030   10.7530
    6.060    8.8784
    6.090    8.3728
    6.120    8.5519
    6.150    7.7620
    6.180    8.1201
    6.210    7.9937
    6.240    8.0779
    6.270    8.1306
    6.300    8.2780
    6.330    8.1411
    6.360    8.1201
    6.390    8.1938
    6.420    8.5203
    6.450    8.0885
    6.480    8.0463
    6.510    8.0358
    6.540    7.4144
    6.570    8.1727
    6.600    7.8568
    6.630    7.6777
    6.660    8.2149
    6.690    7.8568
    6.720    8.1622
    6.750    8.0885
    6.780    8.0253
    6.810    7.9200
    6.840    7.8568
    6.870    7.9305
    6.900    8.0569
    6.930    8.2780
    6.960    8.0358
    6.990    8.1306
    7.020    8.6888
    7.050    7.6356
    7.080    7.8673
    7.110    8.3518
    7.140    7.9831
    7.170    8.4150
    7.200    8.3096
    7.230    8.1095
    7.260    8.4466
    7.290    8.1517
    7.320    8.1833
    7.350    8.1938
    7.380    8.0463
    7.410    8.1411
    7.440    7.8673
    7.470    8.0358
    7.500    7.9726
    7.530    7.6567
    7.560    8.3307
    7.590    7.9621
    7.620    7.9410
    7.650    8.0990
    7.680    7.8884
    7.710    7.8989
    7.740    8.2886
    7.770    8.1833
    7.800    7.9831
    7.830    7.8673
    7.860    8.3728
    7.890    7.8462
    7.920    7.7093
    7.950    8.0358
    7.980    7.9305
    8.010    8.1201
    8.040    7.7304
    8.070    7.7620
    8.100    8.0569
    8.130    7.9094
    8.160    7.8041
    8.190    7.6883
    8.220    7.6883
    8.250    7.7304
    8.280    8.1622
    8.310    8.2043
    8.340    8.0779
    8.370    8.2675
    8.400    8.2886
    8.430    8.3518
    8.460    8.1095
    8.490    8.2149
    8.520    8.1833
    8.550    7.8778
    8.580    8.0253
    8.610    7.8146
    8.640    7.7514
    8.670    8.1201
    8.700    8.0779
    8.730    7.9200
    8.760    8.0779
    8.790    7.8778
    8.820    7.8568
    8.850    8.3623
    8.880    8.0674
    8.910    7.9094
    8.940    8.1306
    8.970    8.0042
    9.000    7.8673
    9.030    7.6567
    9.060    8.0147
    9.090    8.1938
    9.120    8.5519
    9.150    8.5097
    9.180    8.5097
    9.210    8.3518
    9.240    9.3628
    9.270    8.8994
    9.300    9.4787
    9.330    9.5945
    9.360    9.8578
    9.390   10.5845
    9.420   11.2691
    9.450   12.8805
    9.480   13.2701
    9.510   12.9437
    9.540   11.3217
    9.570    9.6998
    9.600    9.1101
    9.630    8.9731
    9.660    9.0047
    9.690    8.7098
    9.720    8.5729
    9.750    7.9937
    9.780    8.2886
    9.810    8.0885
    9.840    8.2675
    9.870    8.1833
    9.900    8.0253
    9.930    7.7199
    9.960    8.0885
    9.990    7.9200
   10.020    7.6461
   10.050    8.3939
   10.080    8.1095
   10.110    7.9831
   10.140    8.3202
   10.170    8.3834
   10.200    8.0358
   10.230    8.2043
   10.260    8.1622
   10.290    7.8041
   10.320    8.3623
   10.350    8.3096
   10.380    8.4992
   10.410    8.5624
   10.440    9.2154
   10.470    9.1206
   10.500    9.4260
   10.530    9.3523
   10.560    9.0574
   10.590    9.5103
   10.620    9.8368
   10.650   10.7846
   10.680   12.3539
   10.710   13.1122
   10.740   13.9863
   10.770   13.1122
   10.800   11.4692
   10.830   10.2791
   10.860   10.2475
   10.890    9.7104
   10.920   10.3949
   10.950    9.6788
   10.980    9.7314
   11.010    9.5524
   11.040    9.2048
   11.070    9.0047
   11.100    8.7520
   11.130    8.1938
   11.160    8.2886
   11.190    8.0674
   11.220    7.7620
   11.250    7.9200
   11.280    8.4044
   11.310    8.1938
   11.340    7.6988
   11.370    7.8146
   11.400    8.3096
   11.430    7.9094
   11.460    8.1095
   11.490    8.7098
   11.520    8.1938
   11.550    8.7941
   11.580    8.3202
   11.610    9.2786
   11.640    9.6893
   11.670   10.1106
   11.700   10.1211
   11.730    9.5208
   11.760    8.7941
   11.790    8.3834
   11.820    8.0147
   11.850    8.7098
   11.880    8.6361
   11.910    8.9626
   11.940    9.0995
   11.970    8.8573
   12.000    8.9521
   12.030    8.0674
   12.060    7.9621
   12.090    7.3302
   12.120    7.8041
   12.150    7.5408
   12.180    7.3512
   12.210    7.3723
   12.240    7.4355
   12.270    7.3196
   12.300    7.3091
   12.330    6.8141
   12.360    7.4987
   12.390    7.3723
   12.420    7.2459
   12.450    7.2354
   12.480    7.3828
   12.510    7.6461
   12.540    7.3618
   12.570    7.3091
   12.600    7.8357
   12.630    8.0674
   12.660    7.3828
   12.690    7.5092
   12.720    7.5935
   12.750    7.9305
   12.780    8.1727
   12.810    7.7093
   12.840    7.9726
   12.870    8.5097
   12.900    8.0463
   12.930    8.2043
   12.960    8.2780
   12.990    8.1517
   13.020    8.6783
   13.050    8.1833
   13.080    8.7625
   13.110    8.3202
   13.140    7.6988
   13.170    7.8252
   13.200    7.5197
   13.230    7.6988
   13.260    7.5935
   13.290    7.5935
   13.320    7.2354
   13.350    7.4987
   13.380    7.2986
   13.410    7.6145
   13.440    7.3512
   13.470    7.4776
   13.500    7.5513
   13.530    7.2143
   13.560    7.4776
   13.590    7.6040
   13.620    7.0879
   13.650    7.3407
   13.680    7.0669
   13.710    7.3302
   13.740    7.5513
   13.770    7.2986
   13.800    7.5619
   13.830    7.5408
   13.860    7.3934
   13.890    8.1411
   13.920    7.5619
   13.950    7.4355
   13.980    7.3828
   14.010    7.5408
   14.040    7.1827
   14.070    7.5513
   14.100    7.8778
   14.130    7.1827
   14.160    8.0885
   14.190    7.6251
   14.220    7.2565
   14.250    7.3618
   14.280    7.2143
   14.310    7.5935
   14.340    7.6988
   14.370    7.4355
   14.400    6.9932
   14.430    7.7936
   14.460    7.5197
   14.490    7.4355
   14.520    7.4671
   14.550    7.6988
   14.580    7.7093
   14.610    7.8568
   14.640    7.4776
   14.670    7.4250
   14.700    7.7409
   14.730    7.5408
   14.760    7.5197
   14.790    7.8462
   14.820    7.3618
   14.850    7.5619
   14.880    7.5935
   14.910    7.9200
   14.940    6.8668
   14.970    7.0774
   15.000    7.3196
   15.030    7.8357
   15.060    7.2880
   15.090    7.5724
   15.120    7.2986
   15.150    7.4671
   15.180    7.1617
   15.210    7.0879
   15.240    7.5303
   15.270    7.4460
   15.300    7.3091
   15.330    7.4039
   15.360    7.4039
   15.390    7.1722
   15.420    7.8357
   15.450    7.0353
   15.480    7.0563
   15.510    7.5619
   15.540    7.5829
   15.570    7.3091
   15.600    7.6040
   15.630    7.7936
   15.660    7.1090
   15.690    7.6356
   15.720    7.5408
   15.750    7.6777
   15.780    7.8989
   15.810    7.9410
   15.840    8.2149
   15.870    8.0885
   15.900    8.5519
   15.930    8.4150
   15.960    8.4887
   15.990    8.2780
   16.020    8.6045
   16.050    7.6461
   16.080    7.5829
   16.110    7.4671
   16.140    7.1933
   16.170    7.4250
   16.200    7.3407
   16.230    7.4144
   16.260    7.1511
   16.290    7.2038
   16.320    7.0985
   16.350    7.3618
   16.380    7.2880
   16.410    7.1195
   16.440    6.9826
   16.470    7.3723
   16.500    7.4987
   16.530    7.6883
   16.560    7.5197
   16.590    7.4776
   16.620    7.2143
   16.650    7.0879
   16.680    7.2143
   16.710    7.3302
   16.740    7.1617
   16.770    7.8778
   16.800    7.8568
   16.830    8.0990
   16.860    7.9726
   16.890    8.0674
   16.920    7.9937
   16.950    8.1411
   16.980    7.7514
   17.010    7.6883
   17.040    7.0563
   17.070    7.9831
   17.100    7.8462
   17.130    7.6145
   17.160    7.5829
   17.190    7.2670
   17.220    7.7514
   17.250    7.6883
   17.280    7.5724
   17.310    7.5513
   17.340    7.4987
   17.370    7.8357
   17.400    7.2038
   17.430    7.2143
   17.460    7.1511
   17.490    7.3828
   17.520    7.3091
   17.550    7.1722
   17.580    7.6672
   17.610    7.4671
   17.640    7.4566
   17.670    7.4882
   17.700    7.4987
   17.730    7.6040
   17.760    7.5408
   17.790    7.3407
   17.820    7.1195
   17.850    7.3512
   17.880    7.6672
   17.910    7.4144
   17.940    7.6567
   17.970    7.8989
   18.000    7.7725
   18.030    7.5197
   18.060    7.5408
   18.090    7.2775
   18.120    7.6672
   18.150    7.6672
   18.180    7.4250
   18.210    7.8146
   18.240    7.3302
   18.270    7.5829
   18.300    7.8462
   18.330    7.2038
   18.360    7.5619
   18.390    7.5303
   18.420    7.4671
   18.450    7.8252
   18.480    7.6461
   18.510    7.7304
   18.540    7.6672
   18.570    7.7514
   18.600    7.7725
   18.630    7.5829
   18.660    7.7725
   18.690    8.0569
   18.720    7.9305
   18.750    7.5619
   18.780    7.8568
   18.810    8.4044
   18.840    8.0569
   18.870    8.0885
   18.900    7.9094
   18.930    8.1201
   18.960    7.4355
   18.990    7.7514
   19.020    7.3407
   19.050    7.9094
   19.080    7.3407
   19.110    7.6988
   19.140    7.8252
   19.170    8.0358
   19.200    7.8884
   19.230    7.7199
   19.260    7.3723
   19.290    8.0147
   19.320    7.5724
   19.350    7.8146
   19.380    7.9726
   19.410    8.1833
   19.440    7.7199
   19.470    7.6356
   19.500    8.1095
   19.530    7.8778
   19.560    7.7830
   19.590    7.5935
   19.620    7.8462
   19.650    7.7514
   19.680    7.4671
   19.710    7.7936
   19.740    7.6883
   19.770    7.3934
   19.800    7.8252
   19.830    7.7409
   19.860    7.5724
   19.890    7.8357
   19.920    7.2986
   19.950    7.8989
   19.980    7.6883
   20.010    7.4355
   20.040    7.8884
   20.070    7.7514
   20.100    7.6777
   20.130    7.7620
   20.160    7.8568
   20.190    8.1201
   20.220    7.4776
   20.250    7.6145
   20.280    7.1406
   20.310    7.9831
   20.340    7.4776
   20.370    7.7093
   20.400    7.7409
   20.430    8.0042
   20.460    8.2886
   20.490    8.0885
   20.520    7.4460
   20.550    7.9516
   20.580    7.5408
   20.610    7.3723
   20.640    7.6883
   20.670    7.7304
   20.700    7.5513
   20.730    7.6567
   20.760    7.5408
   20.790    7.6777
   20.820    7.6461
   20.850    7.5197
   20.880    7.5619
   20.910    7.7725
   20.940    7.4460
   20.970    8.1095
   21.000    7.8462
   21.030    8.1201
   21.060    7.8778
   21.090    7.7620
   21.120    8.0253
   21.150    7.6461
   21.180    7.4566
   21.210    7.9726
   21.240    8.1306
   21.270    7.7093
   21.300    8.2254
   21.330    7.9937
   21.360    7.7830
   21.390    8.2254
   21.420    7.5829
   21.450    7.8357
   21.480    7.7936
   21.510    7.5303
   21.540    7.9094
   21.570    7.5935
   21.600    8.0674
   21.630    8.1833
   21.660    7.6356
   21.690    7.6251
   21.720    7.9621
   21.750    8.0042
   21.780    7.8146
   21.810    7.9200
   21.840    8.0885
   21.870    7.8462
   21.900    8.0779
   21.930    7.8884
   21.960    7.9410
   21.990    7.9516
   22.020    8.0990
   22.050    7.5408
   22.080    8.0569
   22.110    7.6988
   22.140    7.8884
   22.170    7.6777
   22.200    8.0779
   22.230    7.7409
   22.260    8.0358
   22.290    8.1201
   22.320    7.9726
   22.350    8.0253
   22.380    7.8884
   22.410    7.7304
   22.440    8.2464
   22.470    8.1095
   22.500    8.1833
   22.530    7.9621
   22.560    8.0042
   22.590    8.4571
   22.620    7.9726
   22.650    8.1517
   22.680    8.3412
   22.710    8.2464
   22.740    8.0779
   22.770    8.0042
   22.800    8.3728
   22.830    8.5203
   22.860    8.2570
   22.890    8.2149
   22.920    8.0779
   22.950    7.9516
   22.980    7.8989
   23.010    8.0569
   23.040    7.9410
   23.070    7.8778
   23.100    8.2359
   23.130    8.0463
   23.160    8.2570
   23.190    8.2149
   23.220    8.5624
   23.250    7.9937
   23.280    8.0569
   23.310    8.4255
   23.340    8.0779
   23.370    8.1201
   23.400    8.7625
   23.430    8.1938
   23.460    8.2464
   23.490    8.4150
   23.520    8.2043
   23.550    8.0147
   23.580    8.1727
   23.610    7.8357
   23.640    8.3412
   23.670    8.1622
   23.700    8.0042
   23.730    7.5408
   23.760    7.9516
   23.790    7.8989
   23.820    7.3091
   23.850    7.7514
   23.880    7.8989
   23.910    7.7936
   23.940    7.7725
   23.970    7.9621
   24.000    7.6251
   24.030    8.0358
   24.060    7.6988
   24.090    7.8252
   24.120    7.9726
   24.150    7.9410
   24.180    7.8989
   24.210    7.7936
   24.240    7.5935
   24.270    7.6145
   24.300    7.8884
   24.330    7.5513
   24.360    8.3728
   24.390    7.8146
   24.420    8.1622
   24.450    7.5935
   24.480    7.9726
   24.510    7.8252
   24.540    7.5724
   24.570    7.6356
   24.600    7.7830
   24.630    7.5197
   24.660    8.1306
   24.690    7.2880
   24.720    7.8041
   24.750    7.7514
   24.780    8.0358
   24.810    7.4882
   24.840    8.0779
   24.870    7.9516
   24.900    7.3723
   24.930    7.7936
   24.960    7.5197
   24.990    7.3828
   25.020    7.6461
   25.050    7.7514
   25.080    7.4987
   25.110    7.4250
   25.140    7.7725
   25.170    8.0779
   25.200    7.9516
   25.230    8.0358
   25.260    7.5724
   25.290    7.4039
   25.320    8.1517
   25.350    7.1827
   25.380    7.4250
   25.410    7.7514
   25.440    7.8673
   25.470    7.7620
   25.500    7.5724
   25.530    7.6988
   25.560    7.6567
   25.590    7.9200
   25.620    7.6777
   25.650    7.4987
   25.680    7.6040
   25.710    7.4355
   25.740    7.4566
   25.770    7.2775
   25.800    7.7936
   25.830    7.5197
   25.860    7.5619
   25.890    7.8041
   25.920    7.5197
   25.950    7.1617
   25.980    7.4987
   26.010    7.2143
   26.040    7.5408
   26.070    7.3618
   26.100    7.4566
   26.130    7.5303
   26.160    7.5829
   26.190    7.6145
   26.220    8.2464
   26.250    8.1411
   26.280    7.8989
   26.310    7.6461
   26.340    7.7304
   26.370    7.8462
   26.400    7.8884
   26.430    7.6777
   26.460    7.2565
   26.490    7.7093
   26.520    7.1617
   26.550    7.7725
   26.580    7.4566
   26.610    7.1406
   26.640    7.4882
   26.670    7.6356
   26.700    7.5197
   26.730    7.4039
   26.760    7.2354
   26.790    7.3196
   26.820    7.5513
   26.850    7.3091
   26.880    7.3723
   26.910    7.2775
   26.940    7.6356
   26.970    7.2565
   27.000    7.1827
   27.030    7.1301
   27.060    7.6883
   27.090    7.3196
   27.120    7.1617
   27.150    7.8462
   27.180    7.4355
   27.210    7.6883
   27.240    7.2354
   27.270    7.2565
   27.300    7.9937
   27.330    7.4671
   27.360    7.6883
   27.390    7.6988
   27.420    7.4776
   27.450    7.5197
   27.480    7.2986
   27.510    7.7725
   27.540    7.3196
   27.570    7.3512
   27.600    7.8673
   27.630    7.7199
   27.660    7.3618
   27.690    7.4460
   27.720    7.6145
   27.750    7.3723
   27.780    7.2038
   27.810    7.0248
   27.840    7.2143
   27.870    7.3618
   27.900    7.4039
   27.930    7.3091
   27.960    7.0985
   27.990    7.2143
   28.020    7.3196
   28.050    7.3091
   28.080    6.7299
   28.110    7.1827
   28.140    7.6777
   28.170    7.2986
   28.200    7.3091
   28.230    6.9300
   28.260    6.8668
   28.290    7.2775
   28.320    7.3723
   28.350    7.1722
   28.380    6.7404
   28.410    7.2249
   28.440    6.8562
   28.470    7.3934
   28.500    7.1933
   28.530    7.0563
   28.560    6.9089
   28.590    6.9616
   28.620    6.9826
   28.650    7.6040
   28.680    7.0563
   28.710    6.8878
   28.740    6.5719
   28.770    6.8352
   28.800    6.7404
   28.830    6.5508
   28.860    6.6983
   28.890    7.0248
   28.920    6.6140
   28.950    7.0248
   28.980    6.6877
   29.010    6.7088
   29.040    6.6983
   29.070    7.1617
   29.100    7.3196
   29.130    6.4350
   29.160    6.8352
   29.190    6.3507
   29.220    6.8036
   29.250    7.4566
   29.280    6.7299
   29.310    6.5824
   29.340    6.9300
   29.370    7.0669
   29.400    7.3196
   29.430    6.8984
   29.460    6.8141
   29.490    7.0985
   29.520    6.9616
   29.550    6.6772
   29.580    7.0774
   29.610    7.1195
   29.640    6.6561
   29.670    7.3934
   29.700    6.7615
   29.730    6.5719
   29.760    6.8668
   29.790    6.6561
   29.820    6.7088
   29.850    6.7930
   29.880    6.9616
   29.910    6.7404
   29.940    7.0985
   29.970    6.3823
   30.000    6.9826
   30.030    6.8141
   30.060    6.4560
   30.090    7.0037
   30.120    6.8457
   30.150    6.9826
   30.180    6.9721
   30.210    6.5613
   30.240    6.7615
   30.270    7.0037
   30.300    6.8246
   30.330    6.9089
   30.360    6.8773
   30.390    6.4244
   30.420    6.8562
   30.450    6.5403
   30.480    6.9300
   30.510    6.9300
   30.540    7.1933
   30.570    6.5508
   30.600    6.2559
   30.630    6.3191
   30.660    7.1933
   30.690    6.6035
   30.720    6.9721
   30.750    6.6140
   30.780    6.6667
   30.810    6.4244
   30.840    6.7930
   30.870    6.6456
   30.900    6.5298
   30.930    6.8246
   30.960    6.5403
   30.990    6.4666
   31.020    6.6772
   31.050    6.5403
   31.080    6.1401
   31.110    6.7299
   31.140    6.3296
   31.170    6.2559
   31.200    6.2981
   31.230    6.3928
   31.260    6.6667
   31.290    6.1927
   31.320    6.5192
   31.350    6.3086
   31.380    6.5824
   31.410    6.8141
   31.440    6.2033
   31.470    6.7509
   31.500    6.6035
   31.530    6.4771
   31.560    6.3402
   31.590    6.1822
   31.620    6.5929
   31.650    6.4876
   31.680    6.1927
   31.710    6.4560
   31.740    6.2875
   31.770    6.7088
   31.800    6.5824
   31.830    6.6035
   31.860    6.7930
   31.890    6.5824
   31.920    6.9194
   31.950    6.6351
   31.980    6.8668
   32.010    6.4244
   32.040    6.5087
   32.070    6.3612
   32.100    6.4244
   32.130    6.7088
   32.160    6.2770
   32.190    6.5403
   32.220    6.4771
   32.250    6.1927
   32.280    6.4666
   32.310    6.1822
   32.340    6.1295
   32.370    6.1822
   32.400    6.6351
   32.430    6.2349
   32.460    6.4560
   32.490    6.3507
   32.520    6.2981
   32.550    6.2770
   32.580    6.6140
   32.610    6.5087
   32.640    6.2243
   32.670    5.8978
   32.700    5.9294
   32.730    6.0874
   32.760    6.1822
   32.790    6.3402
   32.820    6.2875
   32.850    6.2770
   32.880    6.2243
   32.910    6.4455
   32.940    5.8873
   32.970    5.8347
   33.000    5.9400
   33.030    6.0137
   33.060    5.9400
   33.090    6.1190
   33.120    6.2875
   33.150    6.1401
   33.180    5.8136
   33.210    6.0979
   33.240    6.4350
   33.270    6.1611
   33.300    5.8347
   33.330    6.3823
   33.360    6.4350
   33.390    5.9400
   33.420    6.4560
   33.450    5.8978
   33.480    6.5508
   33.510    6.2770
   33.540    6.2981
   33.570    5.9084
   33.600    6.6983
   33.630    6.4350
   33.660    6.0348
   33.690    6.3507
   33.720    6.1611
   33.750    6.1190
   33.780    6.0242
   33.810    6.2454
   33.840    5.9505
   33.870    6.1717
   33.900    6.2981
   33.930    5.9189
   33.960    6.2770
   33.990    5.8452
   34.020    6.1822
   34.050    6.1611
   34.080    5.9400
   34.110    6.0453
   34.140    6.2454
   34.170    5.8136
   34.200    6.2033
   34.230    6.3402
   34.260    5.8662
   34.290    6.0769
   34.320    6.3718
   34.350    5.9716
   34.380    5.9716
   34.410    6.0979
   34.440    5.8873
   34.470    5.8873
   34.500    6.3191
   34.530    5.8557
   34.560    6.1611
   34.590    5.7083
   34.620    6.0032
   34.650    5.9610
   34.680    6.0453
   34.710    5.5503
   34.740    5.8768
   34.770    5.8978
   34.800    5.7820
   34.830    6.1717
   34.860    6.2665
   34.890    5.8347
   34.920    5.8452
   34.950    5.7609
   34.980    5.9189
   35.010    5.8662
   35.040    6.2981
   35.070    5.7504
   35.100    5.6661
   35.130    5.7820
   35.160    5.8978
   35.190    5.8241
   35.220    5.6556
   35.250    5.9400
   35.280    6.2770
   35.310    6.4034
   35.340    5.9716
   35.370    6.0769
   35.400    6.0453
   35.430    5.7293
   35.460    6.0137
   35.490    6.0558
   35.520    6.0874
   35.550    5.8031
   35.580    5.8241
   35.610    5.7609
   35.640    5.7504
   35.670    5.8241
   35.700    6.0453
   35.730    5.9189
   35.760    5.7293
   35.790    5.4134
   35.820    5.6767
   35.850    5.3923
   35.880    5.9294
   35.910    5.9189
   35.940    5.8452
   35.970    5.8557
   36.000    5.6556
   36.030    5.8136
   36.060    5.7715
   36.090    5.6240
   36.120    5.5819
   36.150    5.6872
   36.180    5.6767
   36.210    5.7188
   36.240    5.4555
   36.270    5.7504
   36.300    5.6977
   36.330    5.8768
   36.360    5.3923
   36.390    5.5503
   36.420    5.8768
   36.450    5.9505
   36.480    5.5819
   36.510    5.6872
   36.540    5.8347
   36.570    5.6029
   36.600    5.5924
   36.630    5.7715
   36.660    5.8136
   36.690    5.4660
   36.720    5.7293
   36.750    5.7504
   36.780    5.4028
   36.810    6.0242
   36.840    5.5292
   36.870    5.4344
   36.900    5.2975
   36.930    5.6872
   36.960    5.9610
   36.990    5.4450
   37.020    5.6345
   37.050    5.6661
   37.080    5.5503
   37.110    5.6556
   37.140    5.7399
   37.170    5.8347
   37.200    5.4976
   37.230    5.8347
   37.260    5.6240
   37.290    5.4660
   37.320    5.6767
   37.350    5.7399
   37.380    5.3291
   37.410    5.8031
   37.440    5.7504
   37.470    5.8241
   37.500    5.7715
   37.530    5.4450
   37.560    5.8031
   37.590    5.5398
   37.620    5.6977
   37.650    5.7293
   37.680    5.6872
   37.710    5.5924
   37.740    5.7925
   37.770    5.6029
   37.800    5.6556
   37.830    5.2449
   37.860    5.6029
   37.890    5.5082
   37.920    5.4871
   37.950    5.5819
   37.980    5.6240
   38.010    5.6240
   38.040    5.5503
   38.070    5.4871
   38.100    5.3712
   38.130    5.4555
   38.160    5.8136
   38.190    5.7820
   38.220    5.6345
   38.250    5.4660
   38.280    5.7083
   38.310    5.1817
   38.340    5.7820
   38.370    5.4871
   38.400    5.4134
   38.430    5.4660
   38.460    5.6661
   38.490    5.5819
   38.520    5.5398
   38.550    5.2870
   38.580    5.2027
   38.610    5.7293
   38.640    5.4028
   38.670    5.3502
   38.700    5.4660
   38.730    5.6977
   38.760    5.7504
   38.790    5.7399
   38.820    5.7820
   38.850    5.1185
   38.880    5.4028
   38.910    5.1080
   38.940    5.7293
   38.970    5.4450
   39.000    5.9084
   39.030    5.3607
   39.060    5.2975
   39.090    5.5292
   39.120    5.2343
   39.150    5.6661
   39.180    5.0237
   39.210    5.6767
   39.240    5.1817
   39.270    5.2975
   39.300    5.5187
   39.330    5.1817
   39.360    5.3923
   39.390    5.2449
   39.420    5.7188
   39.450    5.4239
   39.480    5.5819
   39.510    5.6345
   39.540    5.9189
   39.570    5.7504
   39.600    5.4134
   39.630    5.6240
   39.660    5.3607
   39.690    5.5608
   39.720    5.2554
   39.750    5.7083
   39.780    5.5398
   39.810    5.6029
   39.840    5.4976
   39.870    5.3607
   39.900    5.8241
   39.930    5.4871
   39.960    5.7293
   39.990    5.5608