File: data/PXRD/PXRD_KE-322B_Cu-Ka1_film-3mm_3s-deg.xyd
    1.500   16.2717
    1.545   16.5350
    1.590   15.7276
    1.635   15.3590
    1.680   13.8318
    1.725   13.9196
    1.770   13.4808
    1.815   12.6733
    1.860   13.2526
    1.905   12.2345
    1.950   12.1994
    1.995   11.7430
    2.040   11.4622
    2.085   11.2691
    2.130   10.2335
    2.175   11.3920
    2.220   10.9356
    2.265   10.1281
    2.310   10.4968
    2.355   10.7600
    2.400    9.8473
    2.445    9.7771
    2.490    9.7771
    2.535    9.7244
    2.580    9.7595
    2.625    9.3909
    2.670    9.5138
    2.715    9.1101
    2.760    9.1803
    2.805    9.9175
    2.850    9.2856
    2.895    9.3031
    2.940    9.8824
    2.985    9.4962
    3.030    9.8999
    3.075    9.7771
    3.120   10.1457
    3.165   10.6196
    3.210   10.7776
    3.255   10.7776
    3.300   11.2866
    3.345   12.1994
    3.390   13.1473
    3.435   13.1122
    3.480   13.2701
    3.525   14.1478
    3.570   15.7978
    3.615   17.4653
    3.660   19.4664
    3.705   21.4148
    3.750   25.2589
    3.795   31.5078
    3.840   39.0556
    3.885   35.3870
    3.930   22.1345
    3.975   13.5861
    4.020   10.7776
    4.065    9.9526
    4.110    9.7771
    4.155    9.2329
    4.200    8.3904
    4.245    8.9170
    4.290    8.6186
    4.335    8.8643
    4.380    8.5835
    4.425    8.5133
    4.470    8.4606
    4.515    8.6888
    4.560    8.1271
    4.605    8.6010
    4.650    8.2851
    4.695    8.3553
    4.740    8.1446
    4.785    8.4079
    4.830    8.6186
    4.875    8.7941
    4.920    8.8643
    4.965    8.8292
    5.010    8.8468
    5.055    9.2856
    5.100    9.2680
    5.145    9.4611
    5.190   10.3212
    5.235   10.3739
    5.280   10.4441
    5.325   11.2340
    5.370   12.1643
    5.415   13.0068
    5.460   13.4983
    5.505   14.3233
    5.550   11.8659
    5.595    9.3207
    5.640    8.6712
    5.685    9.0574
    5.730    8.7941
    5.775    8.1622
    5.820    8.3377
    5.865    7.9516
    5.910    7.8111
    5.955    7.7936
    6.000    7.5829
    6.045    7.7234
    6.090    6.9686
    6.135    7.8462
    6.180    7.2143
    6.225    7.2670
    6.270    7.3372
    6.315    7.4952
    6.360    7.6356
    6.405    7.5829
    6.450    7.7409
    6.495    7.9867
    6.540    7.2143
    6.585    7.3723
    6.630    7.6180
    6.675    7.5127
    6.720    7.6180
    6.765    7.0915
    6.810    7.2670
    6.855    6.9335
    6.900    6.9686
    6.945    6.8808
    6.990    6.7053
    7.035    7.2494
    7.080    6.6702
    7.125    6.3016
    7.170    7.1441
    7.215    6.0558
    7.260    6.5122
    7.305    6.7930
    7.350    5.8452
    7.395    6.6351
    7.440    6.4420
    7.485    6.4771
    7.530    6.2665
    7.575    6.5122
    7.620    6.3016
    7.665    7.1090
    7.710    7.6883
    7.755    8.1446
    7.800    8.1797
    7.845    7.2143
    7.890    6.2313
    7.935    6.2840
    7.980    6.5649
    8.025    5.8803
    8.070    6.5473
    8.115    6.2665
    8.160    6.0558
    8.205    5.9505
    8.250    5.8101
    8.295    6.2138
    8.340    6.0207
    8.385    6.2138
    8.430    6.1962
    8.475    5.9154
    8.520    6.0734
    8.565    6.0207
    8.610    6.3542
    8.655    6.3191
    8.700    5.8803
    8.745    6.2489
    8.790    5.9505
    8.835    5.7223
    8.880    5.8276
    8.925    6.0734
    8.970    5.6697
    9.015    6.0383
    9.060    5.8452
    9.105    5.5643
    9.150    5.7399
    9.195    6.1611
    9.240    5.9856
    9.285    6.8282
    9.330    6.6175
    9.375    6.6351
    9.420    6.8457
    9.465    7.3723
    9.510    7.2670
    9.555    7.8462
    9.600    7.5829
    9.645    6.3718
    9.690    6.0383
    9.735    6.2665
    9.780    6.4420
    9.825    6.1611
    9.870    6.1436
    9.915    5.7750
    9.960    6.1260
   10.005    6.1085
   10.050    5.8276
   10.095    5.7925
   10.140    5.8627
   10.185    5.7399
   10.230    6.0383
   10.275    6.5824
   10.320    6.1260
   10.365    6.8106
   10.410    5.9505
   10.455    5.7048
   10.500    5.8452
   10.545    5.9154
   10.590    5.9681
   10.635    5.9681
   10.680    5.4941
   10.725    6.0207
   10.770    6.2313
   10.815    5.8276
   10.860    5.8803
   10.905    6.0909
   10.950    6.1787
   10.995    6.7755
   11.040    6.6175
   11.085    5.8978
   11.130    5.7574
   11.175    5.8978
   11.220    5.8978
   11.265    6.2665
   11.310    5.7750
   11.355    5.8978
   11.400    5.7399
   11.445    5.8803
   11.490    5.6697
   11.535    6.1085
   11.580    6.3542
   11.625    5.4941
   11.670    6.1260
   11.715    6.3542
   11.760    6.5473
   11.805    6.2138
   11.850    6.1085
   11.895    5.8101
   11.940    5.3888
   11.985    5.5292
   12.030    5.2133
   12.075    5.4064
   12.120    5.6521
   12.165    5.9505
   12.210    5.5468
   12.255    5.1957
   12.300    5.5468
   12.345    5.4590
   12.390    5.2659
   12.435    5.2133
   12.480    5.7399
   12.525    5.0553
   12.570    5.3010
   12.615    5.6697
   12.660    5.5819
   12.705    5.1431
   12.750    5.5117
   12.795    5.3010
   12.840    5.3537
   12.885    6.1611
   12.930    6.0383
   12.975    5.8101
   13.020    5.5643
   13.065    5.3361
   13.110    5.9681
   13.155    5.1957
   13.200    4.8798
   13.245    5.6170
   13.290    5.0553
   13.335    5.1957
   13.380    5.1782
   13.425    5.3361
   13.470    5.3186
   13.515    5.2835
   13.560    5.6697
   13.605    5.1606
   13.650    5.7925
   13.695    5.2835
   13.740    5.2484
   13.785    5.6872
   13.830    5.1606
   13.875    5.7574
   13.920    5.3010
   13.965    5.6521
   14.010    6.0207
   14.055    6.2138
   14.100    5.9154
   14.145    5.6872
   14.190    5.9856
   14.235    5.8978
   14.280    5.4590
   14.325    5.2133
   14.370    5.5117
   14.415    5.8101
   14.460    5.2484
   14.505    5.3712
   14.550    5.1255
   14.595    5.0904
   14.640    5.2835
   14.685    5.4590
   14.730    5.3712
   14.775    5.2308
   14.820    5.4941
   14.865    5.2484
   14.910    5.1255
   14.955    4.8095
   15.000    5.4590
   15.045    5.6872
   15.090    5.1957
   15.135    5.3186
   15.180    5.0553
   15.225    4.8973
   15.270    5.4064
   15.315    4.5814
   15.360    5.0202
   15.405    5.1957
   15.450    5.1255
   15.495    5.2308
   15.540    5.3361
   15.585    5.3186
   15.630    5.3888
   15.675    4.8798
   15.720    5.0728
   15.765    5.4064
   15.810    5.8627
   15.855    4.5638
   15.900    4.8447
   15.945    5.4941
   15.990    5.3888
   16.035    5.0377
   16.080    5.6170
   16.125    4.9675
   16.170    5.0202
   16.215    4.8973
   16.260    4.5989
   16.305    5.3010
   16.350    5.2133
   16.395    4.9149
   16.440    5.6345
   16.485    5.0904
   16.530    5.2308
   16.575    5.3010
   16.620    5.2484
   16.665    5.1431
   16.710    5.2133
   16.755    5.0553
   16.800    5.0553
   16.845    5.2835
   16.890    5.4590
   16.935    5.4766
   16.980    5.7574
   17.025    5.3712
   17.070    5.1782
   17.115    5.3186
   17.160    5.6697
   17.205    4.7042
   17.250    5.4239
   17.295    5.0377
   17.340    5.1431
   17.385    5.1431
   17.430    5.0904
   17.475    5.3186
   17.520    5.6697
   17.565    5.3010
   17.610    5.2308
   17.655    5.3888
   17.700    5.2133
   17.745    5.3186
   17.790    4.9675
   17.835    4.9851
   17.880    5.2484
   17.925    5.3010
   17.970    5.1431
   18.015    5.3010
   18.060    4.8973
   18.105    5.0377
   18.150    5.2308
   18.195    5.3888
   18.240    5.5292
   18.285    5.4766
   18.330    4.9149
   18.375    5.3186
   18.420    5.3010
   18.465    4.7218
   18.510    5.0377
   18.555    5.3888
   18.600    4.6691
   18.645    4.9851
   18.690    5.1255
   18.735    5.0728
   18.780    5.0202
   18.825    5.1080
   18.870    5.6521
   18.915    5.1431
   18.960    5.3186
   19.005    5.4239
   19.050    5.1606
   19.095    5.1606
   19.140    5.0728
   19.185    4.9149
   19.230    4.8447
   19.275    4.8973
   19.320    5.3712
   19.365    5.3537
   19.410    5.0377
   19.455    4.8622
   19.500    5.0202
   19.545    5.1255
   19.590    5.3010
   19.635    4.7920
   19.680    4.9500
   19.725    5.1080
   19.770    5.2308
   19.815    4.6516
   19.860    5.1080
   19.905    5.0553
   19.950    5.1255
   19.995    5.0377
   20.040    4.5638
   20.085    5.2659
   20.130    4.5989
   20.175    5.0202
   20.220    5.4941
   20.265    5.3888
   20.310    5.3888
   20.355    5.5292
   20.400    5.2133
   20.445    4.6165
   20.490    5.5994
   20.535    4.8973
   20.580    4.9851
   20.625    4.9324
   20.670    4.6165
   20.715    4.4585
   20.760    4.8798
   20.805    4.8798
   20.850    5.1431
   20.895    4.8271
   20.940    5.1606
   20.985    4.9675
   21.030    5.0728
   21.075    5.4766
   21.120    4.8447
   21.165    5.3010
   21.210    5.3010
   21.255    4.7569
   21.300    5.1255
   21.345    5.1255
   21.390    4.9851
   21.435    5.1782
   21.480    4.7920
   21.525    4.9851
   21.570    5.3010
   21.615    5.0202
   21.660    4.8271
   21.705    5.0202
   21.750    4.9675
   21.795    5.1957
   21.840    4.8095
   21.885    5.1431
   21.930    5.5819
   21.975    4.9675
   22.020    5.2659
   22.065    4.5287
   22.110    4.6516
   22.155    4.6691
   22.200    4.9324
   22.245    5.1606
   22.290    5.2484
   22.335    4.7218
   22.380    4.7920
   22.425    5.1782
   22.470    5.1080
   22.515    4.8271
   22.560    4.6516
   22.605    5.0202
   22.650    5.1431
   22.695    5.0377
   22.740    4.4409
   22.785    5.0026
   22.830    5.0904
   22.875    4.8271
   22.920    4.7744
   22.965    5.1957
   23.010    4.8447
   23.055    4.6516
   23.100    4.7744
   23.145    4.8622
   23.190    5.7048
   23.235    4.8973
   23.280    4.3356
   23.325    4.8447
   23.370    4.4760
   23.415    4.5814
   23.460    4.8095
   23.505    5.0026
   23.550    4.7920
   23.595    4.6165
   23.640    4.8095
   23.685    4.7393
   23.730    4.1601
   23.775    4.6867
   23.820    4.5814
   23.865    4.2127
   23.910    4.8798
   23.955    4.3356
   24.000    5.0026
   24.045    4.4058
   24.090    4.9851
   24.135    4.8798
   24.180    4.8271
   24.225    4.7218
   24.270    4.2478
   24.315    4.4234
   24.360    4.9500
   24.405    4.3181
   24.450    4.3005
   24.495    4.6516
   24.540    4.3356
   24.585    4.0899
   24.630    4.5111
   24.675    4.8271
   24.720    4.6165
   24.765    4.3005
   24.810    4.1250
   24.855    4.9149
   24.900    4.6165
   24.945    4.6165
   24.990    4.4760
   25.035    4.8095
   25.080    4.6516
   25.125    4.6691
   25.170    4.7393
   25.215    4.3707
   25.260    4.2654
   25.305    4.5463
   25.350    4.3356
   25.395    4.0197
   25.440    4.4058
   25.485    4.4936
   25.530    4.3707
   25.575    4.3707
   25.620    4.6867
   25.665    4.2303
   25.710    4.0197
   25.755    4.4234
   25.800    4.4409
   25.845    4.2830
   25.890    4.5638
   25.935    4.6340
   25.980    4.1601
   26.025    4.6340
   26.070    4.5814
   26.115    4.1074
   26.160    4.2478
   26.205    4.4058
   26.250    3.8968
   26.295    4.1425
   26.340    4.4058
   26.385    3.8090
   26.430    4.0197
   26.475    4.5287
   26.520    4.1425
   26.565    4.1952
   26.610    4.4760
   26.655    4.2127
   26.700    4.0372
   26.745    4.1074
   26.790    3.7739
   26.835    4.5814
   26.880    4.2830
   26.925    4.1952
   26.970    4.4058
   27.015    3.8090
   27.060    3.9494
   27.105    4.5111
   27.150    4.4058
   27.195    4.3532
   27.240    4.2830
   27.285    4.0723
   27.330    4.0548
   27.375    4.0021
   27.420    4.0723
   27.465    4.2654
   27.510    3.9143
   27.555    4.1074
   27.600    4.2478
   27.645    4.2127
   27.690    4.6867
   27.735    4.1250
   27.780    3.7739
   27.825    3.8617
   27.870    4.1776
   27.915    3.9143
   27.960    3.4229
   28.005    4.4936
   28.050    4.0548
   28.095    4.3005
   28.140    4.2303
   28.185    3.9670
   28.230    3.8441
   28.275    4.2303
   28.320    4.4760
   28.365    3.4229
   28.410    4.0372
   28.455    3.8266
   28.500    3.9494
   28.545    3.9143
   28.590    4.1776
   28.635    4.1776
   28.680    4.0197
   28.725    4.1074
   28.770    4.3707
   28.815    3.9846
   28.860    4.2127
   28.905    4.3356
   28.950    3.7213
   28.995    3.8792
   29.040    4.3005
   29.085    4.1601
   29.130    3.3175
   29.175    3.7213
   29.220    3.9143
   29.265    4.2830
   29.310    3.9494
   29.355    4.1425
   29.400    4.0548
   29.445    3.9670
   29.490    4.1074
   29.535    3.7037
   29.580    3.8090
   29.625    3.8441
   29.670    3.5633
   29.715    4.0021
   29.760    3.8441
   29.805    3.7739
   29.850    3.5457
   29.895    3.8266
   29.940    3.8441
   29.985    3.5633
   30.030    3.4229
   30.075    3.6510
   30.120    4.0197
   30.165    3.7388
   30.210    3.5808
   30.255    3.7564
   30.300    3.2649
   30.345    3.5457
   30.390    3.8617
   30.435    3.7739
   30.480    3.6159
   30.525    3.3702
   30.570    3.4931
   30.615    4.0548
   30.660    3.4580
   30.705    4.1952
   30.750    3.5984
   30.795    3.5808
   30.840    3.8266
   30.885    3.7564
   30.930    3.7388
   30.975    3.2473
   31.020    3.8090
   31.065    3.9846
   31.110    3.4931
   31.155    3.5808
   31.200    3.3175
   31.245    3.4053
   31.290    3.5633
   31.335    3.5106
   31.380    3.6510
   31.425    3.3877
   31.470    3.4053
   31.515    3.7388
   31.560    3.8266
   31.605    3.4931
   31.650    3.4053
   31.695    3.8441
   31.740    3.5106
   31.785    3.1947
   31.830    3.9319
   31.875    3.7037
   31.920    3.7037
   31.965    3.9319
   32.010    3.4580
   32.055    3.6335
   32.100    3.4229
   32.145    3.4755
   32.190    3.4931
   32.235    3.5282
   32.280    3.4580
   32.325    3.5984
   32.370    3.6159
   32.415    3.5106
   32.460    3.4931
   32.505    3.4229
   32.550    3.5457
   32.595    3.6862
   32.640    3.3000
   32.685    3.3702
   32.730    3.3000
   32.775    3.4053
   32.820    3.3175
   32.865    3.8617
   32.910    3.1069
   32.955    3.4229
   33.000    3.4931
   33.045    3.4053
   33.090    3.5457
   33.135    3.7388
   33.180    3.6510
   33.225    3.4404
   33.270    3.3351
   33.315    3.4931
   33.360    3.3702
   33.405    3.4755
   33.450    3.5457
   33.495    3.5106
   33.540    2.9138
   33.585    3.8266
   33.630    3.4404
   33.675    3.2473
   33.720    3.3000
   33.765    3.4404
   33.810    3.1245
   33.855    3.2649
   33.900    3.4229
   33.945    3.3351
   33.990    3.3000
   34.035    3.1596
   34.080    3.3526
   34.125    3.2298
   34.170    3.0542
   34.215    3.0718
   34.260    3.2824
   34.305    3.1771
   34.350    3.3000
   34.395    2.9314
   34.440    3.4931
   34.485    3.2649
   34.530    2.9314
   34.575    3.6159
   34.620    3.4931
   34.665    3.6335
   34.710    3.3351
   34.755    3.4053
   34.800    3.2473
   34.845    3.5106
   34.890    3.4580
   34.935    2.8787
   34.980    3.5457
   35.025    3.7915
   35.070    3.5457
   35.115    3.3877
   35.160    3.5106
   35.205    3.4404
   35.250    3.4931
   35.295    2.9840
   35.340    3.5984
   35.385    3.1596
   35.430    3.2122
   35.475    3.3000
   35.520    3.2298
   35.565    3.3702
   35.610    3.1947
   35.655    3.4931
   35.700    3.1771
   35.745    3.5457
   35.790    3.1069
   35.835    3.3702
   35.880    3.1069
   35.925    3.3351
   35.970    3.4755
   36.015    3.3702
   36.060    3.2824
   36.105    3.4931
   36.150    3.5282
   36.195    3.1596
   36.240    3.1245
   36.285    3.3351
   36.330    3.5808
   36.375    3.1069
   36.420    3.6335
   36.465    2.8963
   36.510    3.3877
   36.555    3.1596
   36.600    3.1947
   36.645    3.7213
   36.690    3.3526
   36.735    3.3877
   36.780    3.4404
   36.825    3.1069
   36.870    3.0367
   36.915    3.4580
   36.960    3.3702
   37.005    3.4580
   37.050    3.3175
   37.095    3.3000
   37.140    3.2298
   37.185    3.5106
   37.230    3.2824
   37.275    3.3175
   37.320    3.0016
   37.365    3.3526
   37.410    3.3351
   37.455    2.9840
   37.500    3.3702
   37.545    3.3000
   37.590    3.1245
   37.635    3.2473
   37.680    3.3351
   37.725    2.8787
   37.770    3.1245
   37.815    3.2824
   37.860    3.4931
   37.905    2.7909
   37.950    3.4580
   37.995    3.2824
   38.040    2.9314
   38.085    3.6335
   38.130    3.2824
   38.175    3.1596
   38.220    3.4580
   38.265    3.1069
   38.310    3.2824
   38.355    3.0893
   38.400    3.4229
   38.445    3.3877
   38.490    3.8792
   38.535    2.9314
   38.580    3.2824
   38.625    3.2649
   38.670    3.1420
   38.715    3.0367
   38.760    2.7734
   38.805    3.0016
   38.850    2.9840
   38.895    2.9840
   38.940    3.1420
   38.985    3.3526
   39.030    3.0016
   39.075    3.0367
   39.120    3.3877
   39.165    3.3000
   39.210    3.3000
   39.255    2.9665
   39.300    3.3351
   39.345    2.9314
   39.390    3.1771
   39.435    3.2649
   39.480    3.1069
   39.525    3.3351
   39.570    3.3175
   39.615    3.0893
   39.660    2.7032
   39.705    3.2649
   39.750    2.8085
   39.795    3.0718
   39.840    3.2298
   39.885    3.5633
   39.930    3.4580
   39.975    2.8963
   40.020    3.1245
   40.065    3.3000
   40.110    3.1069
   40.155    2.8963
   40.200    2.9665
   40.245    2.9840
   40.290    3.3877
   40.335    3.1245
   40.380    3.1771
   40.425    3.3702
   40.470    3.0718
   40.515    3.2298
   40.560    3.0016
   40.605    3.0718
   40.650    3.2298
   40.695    3.1069
   40.740    2.9489
   40.785    3.3351
   40.830    3.1771
   40.875    2.7909
   40.920    3.2122
   40.965    3.0893
   41.010    3.1420
   41.055    3.0367
   41.100    3.1245
   41.145    3.1245
   41.190    3.2649
   41.235    3.3351
   41.280    3.0718
   41.325    3.1069
   41.370    3.2298
   41.415    3.0893
   41.460    2.9314
   41.505    3.2298
   41.550    3.0191
   41.595    3.1596
   41.640    3.3175
   41.685    3.5106
   41.730    3.5457
   41.775    2.6505
   41.820    3.3526
   41.865    3.2473
   41.910    2.8260
   41.955    3.2122
   42.000    3.2298
   42.045    3.1069
   42.090    3.3000
   42.135    3.2298
   42.180    2.8787
   42.225    3.0367
   42.270    3.1069
   42.315    3.2649
   42.360    3.1245
   42.405    3.3702
   42.450    3.3000
   42.495    3.5282
   42.540    3.5106
   42.585    2.8260
   42.630    3.2649
   42.675    2.9840
   42.720    3.0367
   42.765    3.1069
   42.810    3.0367
   42.855    2.8963
   42.900    3.1596
   42.945    2.9138
   42.990    3.2649
   43.035    3.3526
   43.080    2.7558
   43.125    3.0718
   43.170    3.2473
   43.215    2.8436
   43.260    3.0191
   43.305    3.1947
   43.350    2.7909
   43.395    3.1069
   43.440    3.1245
   43.485    3.0893
   43.530    3.3175
   43.575    3.1420
   43.620    3.3351
   43.665    3.1771
   43.710    3.1245
   43.755    3.3000
   43.800    3.3351
   43.845    3.1245
   43.890    3.1947
   43.935    3.2649
   43.980    3.3877
   44.025    3.6686
   44.070    3.2298
   44.115    3.1420
   44.160    3.2824
   44.205    3.3702
   44.250    3.5457
   44.295    3.0893
   44.340    3.2649
   44.385    3.4053
   44.430    3.0367
   44.475    2.8963
   44.520    3.1420
   44.565    3.1420
   44.610    3.3175
   44.655    3.1596
   44.700    2.8436
   44.745    3.1771
   44.790    3.4404
   44.835    3.4053
   44.880    2.8963
   44.925    3.2473
   44.970    3.1947
   45.015    2.9665
   45.060    3.4053
   45.105    2.8787
   45.150    3.2824
   45.195    2.9665
   45.240    3.0367
   45.285    2.9138
   45.330    2.8963
   45.375    2.8787
   45.420    3.2824
   45.465    2.9840
   45.510    2.6681
   45.555    3.1420
   45.600    3.0016
   45.645    3.0893
   45.690    2.7383
   45.735    3.0191
   45.780    3.1069
   45.825    3.0016
   45.870    3.0367
   45.915    3.1420
   45.960    3.4404
   46.005    3.3877
   46.050    3.1596
   46.095    3.0191
   46.140    3.0367
   46.185    3.0718
   46.230    3.1245
   46.275    2.8612
   46.320    2.7734
   46.365    3.2824
   46.410    3.2473
   46.455    3.1069
   46.500    3.4053
   46.545    2.9665
   46.590    3.2649
   46.635    3.2122
   46.680    2.8963
   46.725    3.0367
   46.770    3.0718
   46.815    2.8260
   46.860    2.9665
   46.905    3.1245
   46.950    3.4053
   46.995    3.0191
   47.040    3.0893
   47.085    2.5276
   47.130    3.0542
   47.175    2.8260
   47.220    2.9840
   47.265    3.2473
   47.310    3.1069
   47.355    2.8963
   47.400    3.3526
   47.445    3.1069
   47.490    3.0542
   47.535    2.9665
   47.580    3.2298
   47.625    3.0191
   47.670    2.7207
   47.715    2.9489
   47.760    3.0367
   47.805    3.1069
   47.850    3.0542
   47.895    2.7909
   47.940    3.3877
   47.985    2.8436
   48.030    2.9665
   48.075    2.6856
   48.120    2.5979
   48.165    3.1420
   48.210    2.8963
   48.255    3.0893
   48.300    2.6856
   48.345    2.8612
   48.390    3.1596
   48.435    2.8085
   48.480    2.8963
   48.525    3.0367
   48.570    2.9489
   48.615    3.0893
   48.660    2.7909
   48.705    2.7734
   48.750    2.9665
   48.795    2.9840
   48.840    3.0367
   48.885    2.6856
   48.930    2.8963
   48.975    2.8787
   49.020    3.0542
   49.065    2.8085
   49.110    2.9840
   49.155    3.1771
   49.200    3.2824
   49.245    3.2298
   49.290    2.7734
   49.335    2.9665
   49.380    2.8612
   49.425    2.8085
   49.470    2.7909
   49.515    2.8260
   49.560    2.6681
   49.605    2.8436
   49.650    2.7383
   49.695    3.0016
   49.740    2.8260
   49.785    2.8963
   49.830    2.8612
   49.875    2.9314
   49.920    2.9314
   49.965    2.7734
   49.980    2.7032