File: data/PXRD/PXRD_KE-305-2C_Cu-Ka1_capillary-1mm_3s-deg.xyd
    1.500   25.2062
    1.530   24.7148
    1.560   22.9068
    1.590   23.2754
    1.620   23.3105
    1.650   21.6605
    1.680   21.0286
    1.710   20.2387
    1.740   19.3260
    1.770   19.1329
    1.800   18.5536
    1.830   18.8345
    1.860   18.5712
    1.890   18.2903
    1.920   17.5707
    1.950   17.2898
    1.980   17.4302
    2.010   16.4824
    2.040   16.6754
    2.070   15.9207
    2.100   16.3595
    2.130   15.7451
    2.160   15.5169
    2.190   14.9026
    2.220   15.6574
    2.250   13.9547
    2.280   15.6925
    2.310   14.5515
    2.340   15.5872
    2.370   14.7446
    2.400   14.7797
    2.430   15.3239
    2.460   15.7978
    2.490   14.6393
    2.520   15.6749
    2.550   15.1308
    2.580   15.3765
    2.610   14.4813
    2.640   16.0435
    2.670   16.0084
    2.700   15.6749
    2.730   16.2542
    2.760   16.2717
    2.790   16.3946
    2.820   17.0616
    2.850   17.5180
    2.880   17.3951
    2.910   18.4659
    2.940   18.5536
    2.970   18.6238
    3.000   19.9052
    3.030   19.7121
    3.060   20.1861
    3.090   20.8180
    3.120   21.8361
    3.150   22.5557
    3.180   23.0823
    3.210   24.3813
    3.240   25.6100
    3.270   27.4179
    3.300   27.8041
    3.330   28.9626
    3.360   31.4727
    3.390   33.8248
    3.420   36.1418
    3.450   36.3876
    3.480   39.8280
    3.510   42.4609
    3.540   45.9014
    3.570   50.3072
    3.600   56.2050
    3.630   60.2247
    3.660   65.9996
    3.690   72.0555
    3.720   85.3256
    3.750   99.2277
    3.780  121.9765
    3.810  159.9087
    3.840  199.5436
    3.870  166.1050
    3.900   88.3974
    3.930   30.6126
    3.960   15.2185
    3.990   11.7079
    4.020   10.6723
    4.050   10.3914
    4.080    9.4787
    4.110    8.9170
    4.140    9.4611
    4.170    9.0223
    4.200    8.4957
    4.230    8.2324
    4.260    8.8468
    4.290    8.9345
    4.320    8.1622
    4.350    8.1973
    4.380    8.1973
    4.410    7.9516
    4.440    8.4430
    4.470    7.8813
    4.500    7.9516
    4.530    7.9867
    4.560    7.7936
    4.590    8.1446
    4.620    7.8462
    4.650    7.8989
    4.680    8.2324
    4.710    7.5654
    4.740    7.5478
    4.770    8.8292
    4.800    8.4606
    4.830    8.1797
    4.860    8.5835
    4.890    8.5308
    4.920    8.7239
    4.950    9.1452
    4.980    8.9696
    5.010    9.4611
    5.040    8.8994
    5.070    9.9702
    5.100    9.9877
    5.130   10.8303
    5.160   11.5850
    5.190   11.5148
    5.220   11.8483
    5.250   12.0941
    5.280   14.4111
    5.310   14.6042
    5.340   16.6228
    5.370   17.2371
    5.400   21.0111
    5.430   25.5222
    5.460   31.9817
    5.490   28.6818
    5.520   19.0451
    5.550   10.1457
    5.580    7.7409
    5.610    7.5127
    5.640    7.3021
    5.670    7.7409
    5.700    6.8457
    5.730    7.3372
    5.760    7.0037
    5.790    7.1441
    5.820    7.0915
    5.850    6.1611
    5.880    6.9510
    5.910    6.7930
    5.940    6.5298
    5.970    6.8106
    6.000    6.9510
    6.030    7.3547
    6.060    6.8282
    6.090    7.3196
    6.120    6.9335
    6.150    6.4595
    6.180    7.7585
    6.210    7.0212
    6.240    6.7053
    6.270    7.3723
    6.300    7.5127
    6.330    7.9340
    6.360    7.6005
    6.390    7.7058
    6.420    7.8638
    6.450    7.6180
    6.480    8.5308
    6.510    8.2851
    6.540    8.1622
    6.570    8.8994
    6.600   10.4441
    6.630   10.3212
    6.660   11.5675
    6.690   13.5685
    6.720   14.2180
    6.750   13.0771
    6.780    9.8297
    6.810    8.0042
    6.840    6.9686
    6.870    7.0037
    6.900    7.0739
    6.930    6.6175
    6.960    6.9686
    6.990    6.4069
    7.020    6.7579
    7.050    7.0739
    7.080    6.7930
    7.110    6.7579
    7.140    6.2840
    7.170    6.6000
    7.200    6.8808
    7.230    6.6526
    7.260    6.8633
    7.290    7.2845
    7.320    6.7579
    7.350    6.5824
    7.380    6.4771
    7.410    6.7228
    7.440    6.9861
    7.470    7.5829
    7.500    6.8984
    7.530    7.3196
    7.560    8.0042
    7.590    7.8462
    7.620    8.0569
    7.650    9.1101
    7.680    9.8648
    7.710   10.7425
    7.740   13.0595
    7.770   14.3935
    7.800   12.0063
    7.830   10.0053
    7.860    6.9335
    7.890    5.7925
    7.920    6.7755
    7.950    6.1787
    7.980    6.8808
    8.010    6.6175
    8.040    6.2313
    8.070    6.4069
    8.100    6.5122
    8.130    6.6175
    8.160    6.3367
    8.190    6.4595
    8.220    6.4595
    8.250    7.2143
    8.280    6.5824
    8.310    6.5824
    8.340    6.1787
    8.370    6.5473
    8.400    6.4595
    8.430    7.0388
    8.460    6.7930
    8.490    6.9686
    8.520    6.4946
    8.550    6.5649
    8.580    7.0563
    8.610    6.8282
    8.640    7.1441
    8.670    7.7409
    8.700    8.1446
    8.730    7.6707
    8.760    7.1266
    8.790    6.5298
    8.820    6.4595
    8.850    6.4420
    8.880    6.6526
    8.910    6.4069
    8.940    6.7228
    8.970    7.0563
    9.000    6.5473
    9.030    7.0037
    9.060    6.5122
    9.090    7.1441
    9.120    7.3723
    9.150    7.4601
    9.180    7.0037
    9.210    7.6883
    9.240    7.4776
    9.270    8.0042
    9.300    8.8117
    9.330    9.4436
    9.360   10.5670
    9.390   10.9356
    9.420   13.1999
    9.450   14.5164
    9.480   18.1324
    9.510   24.0829
    9.540   25.2589
    9.570   20.5722
    9.600   12.6733
    9.630    8.2851
    9.660    6.7228
    9.690    6.9686
    9.720    6.8808
    9.750    6.6175
    9.780    6.4771
    9.810    6.5824
    9.840    6.4946
    9.870    6.3893
    9.900    6.5473
    9.930    6.8457
    9.960    6.6000
    9.990    6.8984
   10.020    6.9686
   10.050    6.9861
   10.080    7.8989
   10.110    7.7234
   10.140    8.3728
   10.170    9.1978
   10.200    9.5313
   10.230   11.3042
   10.260   12.8489
   10.290   15.1132
   10.320   15.3590
   10.350   12.6558
   10.380    9.3207
   10.410    7.3899
   10.440    6.4771
   10.470    6.8106
   10.500    6.5298
   10.530    6.7930
   10.560    6.3893
   10.590    6.2840
   10.620    6.7228
   10.650    6.5122
   10.680    6.6175
   10.710    7.1090
   10.740    6.8984
   10.770    6.4420
   10.800    7.0388
   10.830    6.4420
   10.860    7.5303
   10.890    7.5478
   10.920    8.3026
   10.950    9.4436
   10.980   10.8127
   11.010   11.7957
   11.040   11.7606
   11.070    9.9175
   11.100    7.8638
   11.130    6.6877
   11.160    6.2313
   11.190    5.7223
   11.220    6.3367
   11.250    6.0207
   11.280    6.6877
   11.310    6.1787
   11.340    6.3016
   11.370    6.6877
   11.400    6.1611
   11.430    6.6000
   11.460    6.9861
   11.490    7.1441
   11.520    7.1792
   11.550    7.5127
   11.580    8.3026
   11.610    9.6542
   11.640   10.7600
   11.670   13.4983
   11.700   14.1654
   11.730   12.3749
   11.760    9.7595
   11.790    7.3723
   11.820    6.4420
   11.850    6.2489
   11.880    5.9505
   11.910    6.1611
   11.940    6.2138
   11.970    6.4244
   12.000    5.8276
   12.030    6.1962
   12.060    6.6351
   12.090    6.5649
   12.120    6.5298
   12.150    6.3367
   12.180    6.2489
   12.210    6.7404
   12.240    7.0915
   12.270    7.2845
   12.300    6.4420
   12.330    7.2494
   12.360    7.1266
   12.390    6.6702
   12.420    5.3712
   12.450    5.9329
   12.480    5.7574
   12.510    6.2138
   12.540    6.0734
   12.570    5.5292
   12.600    6.3893
   12.630    6.2665
   12.660    6.4771
   12.690    5.8452
   12.720    6.7579
   12.750    6.6000
   12.780    6.8457
   12.810    7.3021
   12.840    8.2149
   12.870    8.7765
   12.900   10.6021
   12.930   12.3047
   12.960   12.0590
   12.990   10.6021
   13.020    7.4425
   13.050    7.1090
   13.080    5.8978
   13.110    6.2313
   13.140    6.3016
   13.170    6.0383
   13.200    6.6000
   13.230    6.0383
   13.260    6.1787
   13.290    6.0734
   13.320    6.1611
   13.350    6.8106
   13.380    6.3367
   13.410    6.6877
   13.440    7.1090
   13.470    7.4952
   13.500    8.8643
   13.530    8.9170
   13.560    8.0042
   13.590    6.5298
   13.620    6.0909
   13.650    5.8978
   13.680    5.8627
   13.710    6.0383
   13.740    5.7048
   13.770    6.0909
   13.800    5.6697
   13.830    6.1436
   13.860    6.0558
   13.890    6.0032
   13.920    6.7053
   13.950    6.3016
   13.980    6.3016
   14.010    6.9510
   14.040    8.6186
   14.070    9.2329
   14.100    8.8994
   14.130    7.5654
   14.160    6.7404
   14.190    6.0032
   14.220    5.6345
   14.250    6.3718
   14.280    6.0734
   14.310    6.1085
   14.340    5.7223
   14.370    5.9856
   14.400    5.9681
   14.430    5.6697
   14.460    5.7223
   14.490    6.3542
   14.520    6.1787
   14.550    5.5468
   14.580    6.0558
   14.610    6.0909
   14.640    5.4239
   14.670    5.6872
   14.700    5.7925
   14.730    6.0558
   14.760    6.0383
   14.790    5.7399
   14.820    5.5643
   14.850    5.4941
   14.880    5.7399
   14.910    5.7399
   14.940    5.8276
   14.970    5.8452
   15.000    5.9329
   15.030    6.4595
   15.060    6.2489
   15.090    6.8984
   15.120    7.1441
   15.150    6.7930
   15.180    6.3367
   15.210    6.1085
   15.240    6.2665
   15.270    5.9329
   15.300    5.9505
   15.330    5.7399
   15.360    6.0909
   15.390    5.6697
   15.420    5.2484
   15.450    5.5292
   15.480    6.3016
   15.510    6.2313
   15.540    5.7925
   15.570    5.7048
   15.600    6.0909
   15.630    5.7925
   15.660    6.1611
   15.690    5.8452
   15.720    5.6170
   15.750    5.9856
   15.780    6.4244
   15.810    5.5117
   15.840    6.0207
   15.870    5.8978
   15.900    5.7223
   15.930    5.8452
   15.960    6.3367
   15.990    6.6526
   16.020    6.7755
   16.050    6.6000
   16.080    7.4952
   16.110    7.8813
   16.140    7.0739
   16.170    6.7228
   16.200    6.7228
   16.230    6.2313
   16.260    6.1085
   16.290    5.4064
   16.320    5.6521
   16.350    6.4595
   16.380    6.3718
   16.410    5.8276
   16.440    6.1085
   16.470    6.7228
   16.500    6.3893
   16.530    7.0563
   16.560    8.0218
   16.590    7.6883
   16.620    8.0393
   16.650    7.5127
   16.680    6.8106
   16.710    6.5824
   16.740    6.1260
   16.770    6.0383
   16.800    6.5122
   16.830    6.3718
   16.860    5.9856
   16.890    5.8978
   16.920    6.7404
   16.950    7.4952
   16.980    7.5127
   17.010    9.2154
   17.040    9.8122
   17.070   10.7249
   17.100    9.7244
   17.130    8.3904
   17.160    6.6000
   17.190    6.4595
   17.220    6.4069
   17.250    6.1085
   17.280    5.7399
   17.310    5.9505
   17.340    5.7223
   17.370    5.9856
   17.400    6.5122
   17.430    6.2665
   17.460    6.6526
   17.490    6.6702
   17.520    6.8457
   17.550    6.6351
   17.580    6.4946
   17.610    6.3718
   17.640    5.3712
   17.670    5.5117
   17.700    6.1611
   17.730    6.4946
   17.760    5.4415
   17.790    6.2138
   17.820    5.9856
   17.850    6.4244
   17.880    6.4244
   17.910    6.5298
   17.940    6.3893
   17.970    6.7228
   18.000    6.3542
   18.030    6.6526
   18.060    6.5122
   18.090    6.4595
   18.120    6.4069
   18.150    6.4595
   18.180    6.2840
   18.210    6.1436
   18.240    6.1962
   18.270    6.5473
   18.300    6.4595
   18.330    7.2143
   18.360    7.7585
   18.390    7.3723
   18.420    6.6877
   18.450    6.4771
   18.480    6.4069
   18.510    5.7048
   18.540    6.3542
   18.570    6.4420
   18.600    6.4069
   18.630    6.2489
   18.660    6.1787
   18.690    6.0909
   18.720    6.4420
   18.750    6.8106
   18.780    6.2138
   18.810    6.3718
   18.840    6.4946
   18.870    6.5298
   18.900    7.1090
   18.930    6.2138
   18.960    6.6877
   18.990    5.9856
   19.020    6.3893
   19.050    6.3191
   19.080    6.4946
   19.110    6.6175
   19.140    6.0383
   19.170    6.3367
   19.200    6.5824
   19.230    6.4069
   19.260    6.5122
   19.290    6.3191
   19.320    6.6000
   19.350    6.0032
   19.380    6.4244
   19.410    6.3893
   19.440    6.4069
   19.470    6.7930
   19.500    6.7053
   19.530    7.1968
   19.560    7.6005
   19.590    7.9340
   19.620    7.4250
   19.650    8.0744
   19.680    7.1792
   19.710    6.4771
   19.740    6.5824
   19.770    6.0032
   19.800    6.1260
   19.830    7.1617
   19.860    6.4420
   19.890    6.5122
   19.920    6.0383
   19.950    6.6000
   19.980    6.5473
   20.010    6.8457
   20.040    6.1962
   20.070    5.9681
   20.100    6.4069
   20.130    6.0383
   20.160    6.4771
   20.190    6.6000
   20.220    7.1090
   20.250    7.1792
   20.280    6.9510
   20.310    7.4601
   20.340    8.3553
   20.370    9.4787
   20.400    9.3031
   20.430    9.0398
   20.460    8.3904
   20.490    7.0915
   20.520    7.0212
   20.550    6.1787
   20.580    5.7750
   20.610    6.3191
   20.640    6.3542
   20.670    6.9686
   20.700    6.5649
   20.730    6.8808
   20.760    6.7404
   20.790    6.3367
   20.820    6.3542
   20.850    6.7228
   20.880    5.8803
   20.910    6.2840
   20.940    6.6526
   20.970    5.8276
   21.000    6.4771
   21.030    6.0734
   21.060    6.7053
   21.090    6.4069
   21.120    6.6877
   21.150    6.0207
   21.180    6.4946
   21.210    6.5649
   21.240    6.8984
   21.270    6.2840
   21.300    6.3893
   21.330    6.5824
   21.360    7.1968
   21.390    6.1962
   21.420    6.8282
   21.450    6.5824
   21.480    6.8106
   21.510    6.9861
   21.540    5.9681
   21.570    6.0558
   21.600    6.7579
   21.630    6.8106
   21.660    6.7579
   21.690    6.4946
   21.720    6.8808
   21.750    6.8633
   21.780    7.0739
   21.810    7.1968
   21.840    7.8638
   21.870    8.4079
   21.900    8.0042
   21.930    7.3899
   21.960    7.1968
   21.990    6.9686
   22.020    6.8808
   22.050    6.6000
   22.080    6.9510
   22.110    6.4069
   22.140    7.3196
   22.170    7.5303
   22.200    7.8287
   22.230    7.9340
   22.260    7.9867
   22.290    7.4601
   22.320    6.8984
   22.350    6.9861
   22.380    7.0915
   22.410    6.7930
   22.440    7.7936
   22.470    8.1271
   22.500    9.2680
   22.530    9.9175
   22.560   11.1287
   22.590   11.5499
   22.620   10.6372
   22.650    9.0925
   22.680    7.5478
   22.710    7.1792
   22.740    7.2319
   22.770    8.0744
   22.800    7.7409
   22.830    8.8468
   22.860    9.7244
   22.890   11.1287
   22.920   11.2691
   22.950   10.7425
   22.980    9.3031
   23.010    8.4606
   23.040    7.0915
   23.070    7.0915
   23.100    7.0915
   23.130    6.9861
   23.160    7.1266
   23.190    7.6005
   23.220    7.2319
   23.250    7.6532
   23.280    7.5829
   23.310    8.4606
   23.340    6.9861
   23.370    7.0037
   23.400    7.0037
   23.430    6.8633
   23.460    6.7053
   23.490    6.7228
   23.520    6.4420
   23.550    7.0563
   23.580    7.0915
   23.610    6.8457
   23.640    6.6351
   23.670    6.9335
   23.700    7.1266
   23.730    6.4244
   23.760    6.8984
   23.790    6.7755
   23.820    6.8282
   23.850    7.3021
   23.880    7.7058
   23.910    8.1797
   23.940    8.2500
   23.970    7.7409
   24.000    7.4074
   24.030    7.1617
   24.060    6.8633
   24.090    6.6000
   24.120    6.6702
   24.150    6.1260
   24.180    6.9159
   24.210    7.0212
   24.240    6.4771
   24.270    6.6526
   24.300    6.9335
   24.330    6.5824
   24.360    6.6175
   24.390    6.4771
   24.420    6.2665
   24.450    6.8106
   24.480    6.7930
   24.510    6.8984
   24.540    6.8984
   24.570    6.7755
   24.600    7.0915
   24.630    6.6526
   24.660    7.0212
   24.690    6.8282
   24.720    7.0388
   24.750    6.4595
   24.780    6.5824
   24.810    6.6000
   24.840    6.6000
   24.870    6.5824
   24.900    6.8808
   24.930    6.9510
   24.960    6.7053
   24.990    6.4595
   25.020    6.8457
   25.050    6.2489
   25.080    6.4420
   25.110    7.1792
   25.140    7.0037
   25.170    7.3196
   25.200    6.9510
   25.230    7.3372
   25.260    7.0037
   25.290    6.8984
   25.320    6.8282
   25.350    6.7930
   25.380    6.2665
   25.410    6.8808
   25.440    6.9686
   25.470    7.0212
   25.500    7.3021
   25.530    7.1968
   25.560    7.4250
   25.590    6.4244
   25.620    6.8984
   25.650    6.6702
   25.680    7.5303
   25.710    7.3547
   25.740    7.6005
   25.770    8.1095
   25.800    9.1978
   25.830   10.3388
   25.860    9.8648
   25.890    8.6010
   25.920    8.1622
   25.950    7.1266
   25.980    6.8282
   26.010    6.4244
   26.040    6.4420
   26.070    6.5824
   26.100    6.5649
   26.130    6.9686
   26.160    7.1792
   26.190    6.9335
   26.220    6.0734
   26.250    6.5473
   26.280    6.4069
   26.310    6.2840
   26.340    6.8633
   26.370    7.0388
   26.400    7.7760
   26.430    7.3547
   26.460    7.0739
   26.490    6.9335
   26.520    6.6000
   26.550    6.2489
   26.580    6.5473
   26.610    6.7228
   26.640    6.1787
   26.670    5.7574
   26.700    6.2138
   26.730    6.1260
   26.760    6.1611
   26.790    6.6000
   26.820    6.3367
   26.850    6.7404
   26.880    6.3191
   26.910    6.0383
   26.940    6.7228
   26.970    6.5824
   27.000    7.3899
   27.030    7.4776
   27.060    7.4425
   27.090    6.8106
   27.120    6.9686
   27.150    6.6175
   27.180    6.4244
   27.210    5.5643
   27.240    6.4244
   27.270    6.2313
   27.300    6.0383
   27.330    5.9856
   27.360    6.3893
   27.390    6.5473
   27.420    6.0383
   27.450    5.9856
   27.480    6.5122
   27.510    6.2665
   27.540    6.7930
   27.570    7.0739
   27.600    7.0212
   27.630    6.9510
   27.660    7.4074
   27.690    7.1266
   27.720    6.1085
   27.750    6.3542
   27.780    6.2138
   27.810    6.1085
   27.840    6.1436
   27.870    6.4244
   27.900    6.2313
   27.930    6.4771
   27.960    6.8106
   27.990    7.2670
   28.020    6.0734
   28.050    6.4420
   28.080    6.8633
   28.110    6.8106
   28.140    7.1617
   28.170    7.5478
   28.200    7.4074
   28.230    7.1968
   28.260    7.0388
   28.290    6.1260
   28.320    6.4420
   28.350    6.3367
   28.380    6.5649
   28.410    7.0037
   28.440    7.3723
   28.470    6.3016
   28.500    7.4250
   28.530    7.4425
   28.560    6.5824
   28.590    6.2840
   28.620    6.3718
   28.650    5.9154
   28.680    6.1611
   28.710    6.1611
   28.740    6.2840
   28.770    5.8803
   28.800    6.3893
   28.830    6.2138
   28.860    5.9505
   28.890    5.5292
   28.920    5.7925
   28.950    6.0383
   28.980    6.5298
   29.010    6.1260
   29.040    6.3191
   29.070    6.0734
   29.100    6.0734
   29.130    6.2489
   29.160    5.9856
   29.190    6.2665
   29.220    6.0032
   29.250    6.8808
   29.280    6.7053
   29.310    6.5298
   29.340    6.7579
   29.370    6.6000
   29.400    6.3893
   29.430    6.0909
   29.460    6.1787
   29.490    6.1436
   29.520    6.0032
   29.550    5.4415
   29.580    5.8978
   29.610    5.9329
   29.640    5.8101
   29.670    6.0734
   29.700    6.0734
   29.730    6.0909
   29.760    5.7925
   29.790    6.0383
   29.820    6.1962
   29.850    5.8101
   29.880    6.1085
   29.910    6.1085
   29.940    6.0558
   29.970    5.4941
   30.000    5.7223
   30.030    5.2835
   30.060    5.5643
   30.090    6.3191
   30.120    6.6000
   30.150    5.8627
   30.180    5.8276
   30.210    5.7925
   30.240    5.5643
   30.270    5.6170
   30.300    5.7399
   30.330    6.0032
   30.360    5.6170
   30.390    5.8978
   30.420    5.4941
   30.450    5.4766
   30.480    5.5819
   30.510    5.6170
   30.540    5.1080
   30.570    6.1260
   30.600    6.4771
   30.630    6.0032
   30.660    6.1085
   30.690    6.0383
   30.720    5.8276
   30.750    5.4941
   30.780    5.6170
   30.810    5.4766
   30.840    5.5819
   30.870    6.1787
   30.900    5.6521
   30.930    5.7399
   30.960    5.3010
   30.990    5.0728
   31.020    5.6345
   31.050    5.4239
   31.080    5.9154
   31.110    5.3712
   31.140    5.1431
   31.170    5.4766
   31.200    5.2659
   31.230    5.2484
   31.260    5.2308
   31.290    5.6872
   31.320    5.3537
   31.350    5.8978
   31.380    6.3016
   31.410    6.1260
   31.440    6.2489
   31.470    5.7750
   31.500    5.1606
   31.530    5.4590
   31.560    5.1782
   31.590    5.4239
   31.620    5.5643
   31.650    5.5468
   31.680    5.6521
   31.710    6.4595
   31.740    6.0032
   31.770    5.6521
   31.800    5.7925
   31.830    5.5292
   31.860    5.4766
   31.890    5.7574
   31.920    5.7399
   31.950    5.5819
   31.980    5.2308
   32.010    5.4064
   32.040    5.3361
   32.070    5.2133
   32.100    5.1957
   32.130    5.9681
   32.160    5.6872
   32.190    5.4590
   32.220    5.4941
   32.250    5.2835
   32.280    5.2133
   32.310    5.9505
   32.340    5.4941
   32.370    5.0026
   32.400    5.1255
   32.430    5.3186
   32.460    4.8095
   32.490    5.2308
   32.520    5.0377
   32.550    5.4590
   32.580    5.0728
   32.610    5.1431
   32.640    4.8798
   32.670    5.8101
   32.700    5.2659
   32.730    5.3010
   32.760    5.1606
   32.790    5.0202
   32.820    4.9149
   32.850    5.6872
   32.880    5.0728
   32.910    5.2308
   32.940    5.5292
   32.970    4.9149
   33.000    5.4239
   33.030    5.1431
   33.060    4.9500
   33.090    5.3010
   33.120    4.7042
   33.150    5.4766
   33.180    5.3712
   33.210    5.3361
   33.240    5.2308
   33.270    5.3361
   33.300    5.1431
   33.330    5.2835
   33.360    4.9851
   33.390    4.4585
   33.420    4.9851
   33.450    5.0026
   33.480    4.9149
   33.510    4.9851
   33.540    4.9149
   33.570    5.1080
   33.600    5.3537
   33.630    5.0026
   33.660    5.4239
   33.690    5.2659
   33.720    5.0728
   33.750    5.4064
   33.780    5.3537
   33.810    5.1957
   33.840    5.4239
   33.870    5.6345
   33.900    5.5468
   33.930    5.7048
   33.960    5.3537
   33.990    5.4064
   34.020    5.2659
   34.050    5.4415
   34.080    5.7223
   34.110    5.1431
   34.140    5.1255
   34.170    4.5463
   34.200    4.6516
   34.230    5.2133
   34.260    4.8973
   34.290    5.2659
   34.320    5.1606
   34.350    4.7920
   34.380    4.7744
   34.410    5.0202
   34.440    5.5292
   34.470    5.3186
   34.500    5.0202
   34.530    4.8973
   34.560    4.8622
   34.590    4.8095
   34.620    4.8447
   34.650    4.7393
   34.680    5.0728
   34.710    4.9500
   34.740    4.6691
   34.770    5.0026
   34.800    5.3361
   34.830    5.4766
   34.860    5.1957
   34.890    5.3888
   34.920    4.9675
   34.950    4.8973
   34.980    4.8271
   35.010    5.0026
   35.040    5.0904
   35.070    4.7744
   35.100    4.7218
   35.130    5.1431
   35.160    5.0904
   35.190    4.7920
   35.220    5.0728
   35.250    4.6340
   35.280    4.8622
   35.310    5.0377
   35.340    4.5463
   35.370    4.8271
   35.400    4.8973
   35.430    4.7042
   35.460    4.5463
   35.490    5.1255
   35.520    5.2835
   35.550    5.0377
   35.580    5.2484
   35.610    4.6867
   35.640    4.6691
   35.670    4.7920
   35.700    4.9324
   35.730    5.0553
   35.760    4.8447
   35.790    4.8798
   35.820    5.2133
   35.850    5.3010
   35.880    4.7569
   35.910    5.2659
   35.940    4.8973
   35.970    4.7042
   36.000    5.0202
   36.030    4.9149
   36.060    4.7920
   36.090    5.1255
   36.120    4.5814
   36.150    5.3712
   36.180    5.0202
   36.210    4.7393
   36.240    5.0377
   36.270    5.0202
   36.300    4.8095
   36.330    4.8447
   36.360    4.6340
   36.390    4.6165
   36.420    5.0202
   36.450    4.5638
   36.480    4.7744
   36.510    4.6691
   36.540    5.0553
   36.570    4.8095
   36.600    4.6867
   36.630    5.2484
   36.660    4.6340
   36.690    4.7393
   36.720    4.7569
   36.750    4.5287
   36.780    5.2308
   36.810    4.4585
   36.840    4.4760
   36.870    5.0026
   36.900    4.7920
   36.930    4.5111
   36.960    4.7744
   36.990    4.6516
   37.020    4.5638
   37.050    5.3712
   37.080    5.2484
   37.110    4.3883
   37.140    5.1957
   37.170    4.7042
   37.200    4.7744
   37.230    4.8973
   37.260    4.7042
   37.290    4.5463
   37.320    4.5814
   37.350    4.7218
   37.380    4.3532
   37.410    4.6165
   37.440    4.8622
   37.470    4.6165
   37.500    4.5111
   37.530    4.3707
   37.560    4.6165
   37.590    4.5814
   37.620    4.4585
   37.650    4.6867
   37.680    4.9149
   37.710    5.1431
   37.740    4.5989
   37.770    4.5463
   37.800    4.5111
   37.830    4.6165
   37.860    4.6516
   37.890    4.5814
   37.920    4.6516
   37.950    4.5111
   37.980    4.3005
   38.010    4.9851
   38.040    4.8095
   38.070    4.8798
   38.100    4.2127
   38.130    5.0026
   38.160    4.4234
   38.190    4.8095
   38.220    4.2654
   38.250    4.3356
   38.280    4.2478
   38.310    4.7393
   38.340    4.5814
   38.370    4.4585
   38.400    4.8622
   38.430    4.9500
   38.460    4.4936
   38.490    4.5111
   38.520    4.7218
   38.550    4.1074
   38.580    4.4234
   38.610    4.4409
   38.640    4.4409
   38.670    4.0197
   38.700    4.4058
   38.730    4.2830
   38.760    4.4234
   38.790    4.7569
   38.820    4.5463
   38.850    4.6165
   38.880    4.4234
   38.910    4.5638
   38.940    4.1074
   38.970    4.3532
   39.000    4.3005
   39.030    4.6516
   39.060    4.5638
   39.090    4.4936
   39.120    4.1952
   39.150    4.2654
   39.180    4.7744
   39.210    4.7218
   39.240    4.6867
   39.270    4.5638
   39.300    5.0026
   39.330    4.0548
   39.360    4.2303
   39.390    4.5638
   39.420    4.7569
   39.450    4.2127
   39.480    4.4058
   39.510    4.5111
   39.540    4.2478
   39.570    4.4936
   39.600    4.4234
   39.630    4.3181
   39.660    4.2127
   39.690    4.6516
   39.720    4.6165
   39.750    4.7920
   39.780    4.4585
   39.810    4.3883
   39.840    5.0904
   39.870    3.8617
   39.900    4.2303
   39.930    4.5287
   39.960    4.5111
   39.990    3.9670