File: data/PXRD/PXRD_KE-011_Cu-Ka1_capillary-1mm_5s-deg.xyd
    1.500   32.9437
    1.530   33.9547
    1.560   35.4292
    1.590   33.5756
    1.620   32.3433
    1.650   31.3112
    1.680   30.0263
    1.710   29.4260
    1.740   28.6045
    1.770   27.4671
    1.800   26.9405
    1.830   26.3928
    1.860   25.5082
    1.890   24.1917
    1.920   23.7072
    1.950   22.9700
    1.980   22.0537
    2.010   22.5276
    2.040   21.9273
    2.070   21.0848
    2.100   20.8320
    2.130   20.2738
    2.160   19.5682
    2.190   18.9468
    2.220   18.6309
    2.250   18.5887
    2.280   17.9884
    2.310   17.6830
    2.340   17.4092
    2.370   16.6298
    2.400   16.8826
    2.430   16.0716
    2.460   16.3139
    2.490   15.8294
    2.520   15.5240
    2.550   14.8710
    2.580   14.9026
    2.610   14.4813
    2.640   14.9552
    2.670   14.3339
    2.700   14.5234
    2.730   13.7125
    2.760   13.8705
    2.790   13.4387
    2.820   13.1438
    2.850   12.8805
    2.880   12.9858
    2.910   13.2491
    2.940   12.3223
    2.970   12.1327
    3.000   12.2486
    3.030   11.6377
    3.060   12.6277
    3.090   11.6482
    3.120   12.2486
    3.150   11.9537
    3.180   11.2691
    3.210   11.5956
    3.240   10.9742
    3.270   11.3007
    3.300   10.8899
    3.330   10.8373
    3.360   10.7214
    3.390   10.5635
    3.420   10.8899
    3.450   10.7320
    3.480   10.2686
    3.510   10.9847
    3.540   10.5951
    3.570   10.5951
    3.600   10.1211
    3.630   10.5003
    3.660    9.8894
    3.690   10.4160
    3.720    9.7525
    3.750    9.8894
    3.780   10.0790
    3.810    9.7841
    3.840   10.2791
    3.870    9.7630
    3.900    9.3628
    3.930    9.6577
    3.960    9.3102
    3.990    8.9942
    4.020    9.3523
    4.050    9.8052
    4.080    9.5735
    4.110    9.6577
    4.140    9.1101
    4.170    8.8994
    4.200    9.7630
    4.230    9.3207
    4.260    9.1522
    4.290    9.0047
    4.320    9.0153
    4.350    8.9310
    4.380    8.7098
    4.410    9.2575
    4.440    8.9731
    4.470    8.5624
    4.500    9.4365
    4.530    8.7941
    4.560    8.4887
    4.590    8.8257
    4.620    8.8152
    4.650    8.8046
    4.680    9.0363
    4.710    9.0258
    4.740    8.3623
    4.770    9.0574
    4.800    8.2780
    4.830    8.5940
    4.860    8.3623
    4.890    8.3412
    4.920    8.8468
    4.950    8.1938
    4.980    8.5624
    5.010    8.1201
    5.040    8.3202
    5.070    8.5624
    5.100    8.2043
    5.130    8.1411
    5.160    8.1095
    5.190    8.1095
    5.220    8.3939
    5.250    8.2254
    5.280    8.0990
    5.310    7.9200
    5.340    8.1833
    5.370    7.8041
    5.400    7.6567
    5.430    8.4781
    5.460    8.0358
    5.490    8.1306
    5.520    8.3834
    5.550    8.0253
    5.580    8.0463
    5.610    8.3202
    5.640    7.8778
    5.670    8.1938
    5.700    8.3412
    5.730    8.3834
    5.760    8.0990
    5.790    8.0253
    5.820    7.9726
    5.850    8.5097
    5.880    7.9937
    5.910    8.6993
    5.940    7.5935
    5.970    8.1095
    6.000    7.9094
    6.030    8.2359
    6.060    7.9094
    6.090    8.2043
    6.120    7.6672
    6.150    8.0569
    6.180    8.1095
    6.210    7.6567
    6.240    7.7514
    6.270    7.8673
    6.300    7.8884
    6.330    8.0779
    6.360    8.0779
    6.390    7.8146
    6.420    7.6883
    6.450    7.7620
    6.480    8.0779
    6.510    7.8146
    6.540    7.7199
    6.570    7.9621
    6.600    8.2991
    6.630    7.8252
    6.660    8.0147
    6.690    7.8884
    6.720    7.8568
    6.750    8.2043
    6.780    7.8778
    6.810    7.9937
    6.840    8.2043
    6.870    8.2675
    6.900    8.0779
    6.930    7.5935
    6.960    8.3096
    6.990    7.8884
    7.020    7.9200
    7.050    8.5308
    7.080    8.0253
    7.110    8.0990
    7.140    7.9305
    7.170    7.7514
    7.200    7.9094
    7.230    7.8146
    7.260    7.9937
    7.290    7.9410
    7.320    8.0463
    7.350    8.0463
    7.380    8.0463
    7.410    8.2254
    7.440    8.1938
    7.470    7.7514
    7.500    8.0147
    7.530    7.6988
    7.560    8.1201
    7.590    7.6883
    7.620    7.4460
    7.650    7.6461
    7.680    8.3202
    7.710    8.1622
    7.740    7.6040
    7.770    7.8041
    7.800    7.9726
    7.830    8.2149
    7.860    8.3202
    7.890    8.0147
    7.920    8.1622
    7.950    8.1517
    7.980    7.9726
    8.010    7.7093
    8.040    7.9200
    8.070    7.6145
    8.100    8.0990
    8.130    8.0463
    8.160    7.8884
    8.190    8.0569
    8.220    8.3307
    8.250    8.2780
    8.280    8.2149
    8.310    8.1411
    8.340    8.0147
    8.370    8.8678
    8.400    8.0779
    8.430    8.4781
    8.460    8.5097
    8.490    8.3307
    8.520    8.5940
    8.550    8.5203
    8.580    8.1727
    8.610    8.3096
    8.640    8.4781
    8.670    8.0990
    8.700    8.8784
    8.730    8.4044
    8.760    8.2043
    8.790    8.1938
    8.820    8.6888
    8.850    8.4044
    8.880    8.6151
    8.910    8.3518
    8.940    8.2780
    8.970    8.2570
    9.000    8.4044
    9.030    8.7204
    9.060    8.6993
    9.090    8.4255
    9.120    8.6783
    9.150    8.4044
    9.180    8.4044
    9.210    8.4255
    9.240    8.5413
    9.270    8.4992
    9.300    8.1833
    9.330    8.6572
    9.360    8.2570
    9.390    8.4044
    9.420    8.3518
    9.450    8.3096
    9.480    7.9200
    9.510    8.4676
    9.540    8.2043
    9.570    8.5940
    9.600    8.6256
    9.630    8.7309
    9.660    8.2780
    9.690    8.5413
    9.720    8.1938
    9.750    8.3307
    9.780    8.3728
    9.810    8.1938
    9.840    8.3518
    9.870    8.1938
    9.900    8.5413
    9.930    8.0885
    9.960    8.5413
    9.990    8.6151
   10.020    8.5413
   10.050    8.3307
   10.080    8.2359
   10.110    8.0779
   10.140    8.3518
   10.170    7.9200
   10.200    8.4044
   10.230    8.4992
   10.260    8.4466
   10.290    8.4887
   10.320    8.1833
   10.350    8.4150
   10.380    8.0253
   10.410    7.9831
   10.440    8.4571
   10.470    8.2359
   10.500    8.1517
   10.530    7.9305
   10.560    7.8989
   10.590    8.7836
   10.620    8.0885
   10.650    7.7199
   10.680    8.3939
   10.710    8.1095
   10.740    8.2149
   10.770    7.7830
   10.800    7.9094
   10.830    8.1727
   10.860    8.1306
   10.890    8.2043
   10.920    8.4781
   10.950    8.1727
   10.980    8.2570
   11.010    7.8989
   11.040    8.0674
   11.070    8.3939
   11.100    7.8989
   11.130    7.5724
   11.160    8.0253
   11.190    7.9410
   11.220    7.4987
   11.250    7.8673
   11.280    7.7514
   11.310    8.1727
   11.340    8.0253
   11.370    8.4150
   11.400    8.5308
   11.430    8.0042
   11.460    7.8462
   11.490    7.6461
   11.520    7.8252
   11.550    8.3623
   11.580    8.0042
   11.610    7.8357
   11.640    7.7725
   11.670    7.8568
   11.700    8.1306
   11.730    7.8146
   11.760    7.5724
   11.790    7.4987
   11.820    8.0569
   11.850    7.5408
   11.880    7.4144
   11.910    7.2986
   11.940    7.5513
   11.970    7.9200
   12.000    7.5935
   12.030    7.7093
   12.060    7.7830
   12.090    7.4144
   12.120    7.9937
   12.150    7.5092
   12.180    7.4776
   12.210    7.4144
   12.240    7.5197
   12.270    7.0985
   12.300    7.2249
   12.330    7.3618
   12.360    7.7093
   12.390    7.3407
   12.420    7.5829
   12.450    7.4460
   12.480    7.7620
   12.510    7.7093
   12.540    7.5408
   12.570    7.4671
   12.600    7.5724
   12.630    7.4144
   12.660    7.1722
   12.690    7.3091
   12.720    7.3723
   12.750    7.3091
   12.780    7.6040
   12.810    7.3512
   12.840    7.2670
   12.870    7.6356
   12.900    7.6040
   12.930    7.3828
   12.960    7.5619
   12.990    6.8562
   13.020    7.6251
   13.050    7.1511
   13.080    7.2249
   13.110    7.1406
   13.140    7.0563
   13.170    7.3618
   13.200    7.7620
   13.230    7.2565
   13.260    7.2880
   13.290    7.2986
   13.320    7.4250
   13.350    7.4460
   13.380    7.4671
   13.410    7.4355
   13.440    7.6883
   13.470    7.3934
   13.500    6.9826
   13.530    7.5408
   13.560    7.0669
   13.590    7.0353
   13.620    7.2986
   13.650    7.1511
   13.680    7.3828
   13.710    7.1617
   13.740    7.2249
   13.770    7.2565
   13.800    7.2038
   13.830    6.9721
   13.860    6.9300
   13.890    6.8878
   13.920    6.9826
   13.950    7.3196
   13.980    7.3407
   14.010    6.7299
   14.040    6.5719
   14.070    6.8878
   14.100    7.0458
   14.130    7.4566
   14.160    7.0248
   14.190    7.3302
   14.220    7.5092
   14.250    6.8878
   14.280    7.0248
   14.310    7.2775
   14.340    7.5619
   14.370    7.4039
   14.400    7.0037
   14.430    6.8984
   14.460    7.1301
   14.490    7.1406
   14.520    7.1511
   14.550    7.1301
   14.580    7.2249
   14.610    7.0879
   14.640    7.4882
   14.670    7.5408
   14.700    7.6567
   14.730    7.2986
   14.760    6.9300
   14.790    7.2880
   14.820    6.9616
   14.850    7.1406
   14.880    6.9932
   14.910    7.0985
   14.940    7.2880
   14.970    7.4987
   15.000    7.0248
   15.030    7.0669
   15.060    7.2459
   15.090    6.6983
   15.120    7.3828
   15.150    7.2459
   15.180    6.9932
   15.210    6.9405
   15.240    7.3091
   15.270    6.9510
   15.300    6.8878
   15.330    7.2354
   15.360    7.5619
   15.390    6.8878
   15.420    7.1617
   15.450    7.1090
   15.480    7.2670
   15.510    7.3091
   15.540    7.1617
   15.570    6.9721
   15.600    7.0037
   15.630    7.3196
   15.660    6.8878
   15.690    7.1301
   15.720    7.1090
   15.750    6.7825
   15.780    7.3196
   15.810    6.8562
   15.840    7.3618
   15.870    7.1301
   15.900    6.9616
   15.930    7.5408
   15.960    7.6988
   15.990    7.1617
   16.020    7.0985
   16.050    7.0458
   16.080    7.0142
   16.110    7.4355
   16.140    7.4039
   16.170    7.3828
   16.200    6.9405
   16.230    6.8246
   16.260    7.3618
   16.290    7.1933
   16.320    7.4250
   16.350    7.4039
   16.380    7.1722
   16.410    6.9932
   16.440    7.2249
   16.470    7.2670
   16.500    7.6461
   16.530    7.0037
   16.560    7.5619
   16.590    7.3302
   16.620    7.1090
   16.650    6.9616
   16.680    7.3618
   16.710    7.2143
   16.740    7.0879
   16.770    7.4882
   16.800    6.9826
   16.830    7.2565
   16.860    7.0458
   16.890    7.3512
   16.920    6.9616
   16.950    7.1617
   16.980    7.3091
   17.010    7.1301
   17.040    7.2249
   17.070    7.1933
   17.100    7.5092
   17.130    7.5408
   17.160    7.2038
   17.190    7.4039
   17.220    7.3618
   17.250    7.5197
   17.280    7.7409
   17.310    7.1090
   17.340    7.1511
   17.370    7.2249
   17.400    7.1722
   17.430    7.5092
   17.460    7.2775
   17.490    7.3828
   17.520    7.1195
   17.550    6.7825
   17.580    7.4460
   17.610    7.0248
   17.640    7.2459
   17.670    6.9510
   17.700    7.5303
   17.730    7.2459
   17.760    6.9721
   17.790    7.4671
   17.820    7.5197
   17.850    7.5513
   17.880    7.3196
   17.910    7.6040
   17.940    8.0042
   17.970    7.5197
   18.000    7.8252
   18.030    7.3618
   18.060    7.4144
   18.090    7.4039
   18.120    7.6567
   18.150    7.2670
   18.180    6.9721
   18.210    7.2249
   18.240    7.3091
   18.270    7.5197
   18.300    7.2354
   18.330    7.5829
   18.360    7.5408
   18.390    7.2986
   18.420    7.3828
   18.450    7.3091
   18.480    7.0037
   18.510    7.5197
   18.540    7.1617
   18.570    7.9516
   18.600    7.6672
   18.630    7.5513
   18.660    7.3407
   18.690    7.3618
   18.720    7.9516
   18.750    7.8778
   18.780    7.8146
   18.810    7.6040
   18.840    7.1617
   18.870    7.6672
   18.900    7.5197
   18.930    7.5619
   18.960    7.4987
   18.990    7.5303
   19.020    7.4039
   19.050    7.6777
   19.080    7.3302
   19.110    7.6251
   19.140    7.2986
   19.170    7.3723
   19.200    7.1827
   19.230    7.3512
   19.260    7.1722
   19.290    7.5829
   19.320    7.3302
   19.350    7.9305
   19.380    7.5829
   19.410    7.5408
   19.440    7.6672
   19.470    7.2354
   19.500    7.2249
   19.530    7.5935
   19.560    7.4355
   19.590    7.5513
   19.620    7.5197
   19.650    7.6356
   19.680    7.7936
   19.710    7.0879
   19.740    7.3302
   19.770    7.1827
   19.800    7.7620
   19.830    7.6145
   19.860    7.6040
   19.890    7.6145
   19.920    7.2565
   19.950    7.3302
   19.980    7.2775
   20.010    7.5513
   20.040    7.2459
   20.070    7.9305
   20.100    7.8146
   20.130    7.4882
   20.160    7.7514
   20.190    7.0985
   20.220    7.4566
   20.250    7.7199
   20.280    7.7725
   20.310    7.4566
   20.340    7.4144
   20.370    7.4250
   20.400    7.5408
   20.430    7.4882
   20.460    7.7725
   20.490    7.6040
   20.520    7.1827
   20.550    7.7725
   20.580    7.9621
   20.610    7.4566
   20.640    7.5303
   20.670    7.5513
   20.700    7.6988
   20.730    7.4355
   20.760    7.9726
   20.790    7.7409
   20.820    7.2775
   20.850    7.8252
   20.880    7.8462
   20.910    7.4566
   20.940    7.6461
   20.970    8.0779
   21.000    7.6988
   21.030    7.4987
   21.060    7.6567
   21.090    8.0147
   21.120    7.4039
   21.150    7.4355
   21.180    7.2986
   21.210    7.3302
   21.240    7.6988
   21.270    7.4566
   21.300    7.7304
   21.330    7.6040
   21.360    7.6040
   21.390    7.4566
   21.420    7.5092
   21.450    7.3934
   21.480    7.6040
   21.510    7.5829
   21.540    7.9305
   21.570    7.5935
   21.600    7.6988
   21.630    7.7830
   21.660    7.6567
   21.690    7.2143
   21.720    7.6356
   21.750    7.2249
   21.780    7.8778
   21.810    7.7725
   21.840    7.4566
   21.870    7.8041
   21.900    8.1727
   21.930    7.6777
   21.960    7.4355
   21.990    7.8673
   22.020    7.4882
   22.050    7.5092
   22.080    7.4144
   22.110    7.9410
   22.140    7.9621
   22.170    7.7620
   22.200    7.5092
   22.230    7.6567
   22.260    7.9516
   22.290    7.5513
   22.320    8.0147
   22.350    7.4460
   22.380    7.5513
   22.410    7.8989
   22.440    7.2565
   22.470    8.2043
   22.500    7.8989
   22.530    7.5303
   22.560    7.5619
   22.590    7.6777
   22.620    7.3723
   22.650    7.7620
   22.680    7.2775
   22.710    8.0885
   22.740    7.9937
   22.770    7.3618
   22.800    7.8884
   22.830    8.0674
   22.860    7.3302
   22.890    7.6040
   22.920    7.3934
   22.950    7.9621
   22.980    7.7409
   23.010    7.5829
   23.040    7.4250
   23.070    7.7199
   23.100    8.0147
   23.130    7.6883
   23.160    7.8884
   23.190    7.4987
   23.220    7.6883
   23.250    7.9621
   23.280    7.6251
   23.310    7.6567
   23.340    7.8568
   23.370    7.9200
   23.400    7.7093
   23.430    7.4987
   23.460    7.8568
   23.490    7.4776
   23.520    7.6567
   23.550    7.7514
   23.580    7.9410
   23.610    7.3618
   23.640    7.4355
   23.670    7.9200
   23.700    7.8146
   23.730    7.8041
   23.760    7.4144
   23.790    7.7093
   23.820    7.8568
   23.850    8.0253
   23.880    7.2986
   23.910    7.5935
   23.940    7.5303
   23.970    7.1827
   24.000    8.1095
   24.030    7.5197
   24.060    7.0879
   24.090    7.8989
   24.120    7.5829
   24.150    7.3302
   24.180    7.9831
   24.210    7.3196
   24.240    7.6461
   24.270    7.3723
   24.300    7.5513
   24.330    7.0037
   24.360    7.3723
   24.390    7.5829
   24.420    7.3302
   24.450    7.5092
   24.480    7.5303
   24.510    7.2670
   24.540    7.4144
   24.570    7.1195
   24.600    7.3407
   24.630    7.2038
   24.660    7.1301
   24.690    7.0248
   24.720    7.2986
   24.750    7.5724
   24.780    7.3512
   24.810    7.5197
   24.840    7.6988
   24.870    7.5408
   24.900    7.5408
   24.930    7.0669
   24.960    7.2565
   24.990    7.3618
   25.020    7.3618
   25.050    6.8984
   25.080    7.4250
   25.110    7.3302
   25.140    7.2986
   25.170    7.0879
   25.200    7.1195
   25.230    7.3723
   25.260    7.0774
   25.290    7.2670
   25.320    7.1933
   25.350    7.3723
   25.380    7.4987
   25.410    7.1511
   25.440    7.1617
   25.470    7.1933
   25.500    7.1617
   25.530    7.8041
   25.560    6.8246
   25.590    7.4566
   25.620    7.1090
   25.650    7.2143
   25.680    7.0353
   25.710    7.4882
   25.740    7.0985
   25.770    7.3512
   25.800    7.1722
   25.830    6.9616
   25.860    7.2249
   25.890    7.0563
   25.920    7.1617
   25.950    7.1406
   25.980    7.1090
   26.010    7.0142
   26.040    7.0563
   26.070    7.2249
   26.100    7.1511
   26.130    6.9826
   26.160    7.1301
   26.190    7.0353
   26.220    7.1195
   26.250    7.2038
   26.280    7.0563
   26.310    6.9932
   26.340    7.0563
   26.370    7.1827
   26.400    6.8562
   26.430    7.1090
   26.460    7.1933
   26.490    7.1617
   26.520    6.9089
   26.550    7.2249
   26.580    7.0142
   26.610    7.2459
   26.640    6.8036
   26.670    6.5929
   26.700    7.0563
   26.730    6.9194
   26.760    6.9089
   26.790    6.6456
   26.820    7.0563
   26.850    7.1933
   26.880    7.1195
   26.910    7.0669
   26.940    7.2880
   26.970    6.7930
   27.000    6.6351
   27.030    6.8352
   27.060    6.8668
   27.090    6.8352
   27.120    6.5824
   27.150    7.1090
   27.180    6.7720
   27.210    7.0353
   27.240    6.9405
   27.270    6.6772
   27.300    7.0353
   27.330    6.9826
   27.360    6.7825
   27.390    6.6245
   27.420    7.0458
   27.450    6.9194
   27.480    7.0669
   27.510    7.0669
   27.540    6.5508
   27.570    6.6456
   27.600    6.8036
   27.630    6.4771
   27.660    6.7720
   27.690    6.3296
   27.720    6.6456
   27.750    7.2670
   27.780    6.6035
   27.810    6.5508
   27.840    6.7615
   27.870    6.2665
   27.900    6.2243
   27.930    6.8246
   27.960    6.4034
   27.990    6.6772
   28.020    6.8141
   28.050    6.7404
   28.080    6.5192
   28.110    6.8984
   28.140    6.7193
   28.170    6.5508
   28.200    6.3612
   28.230    6.6140
   28.260    6.6877
   28.290    6.6772
   28.320    6.8352
   28.350    6.8141
   28.380    6.6245
   28.410    7.0037
   28.440    6.6456
   28.470    6.7825
   28.500    6.5824
   28.530    6.7088
   28.560    6.7193
   28.590    6.5824
   28.620    6.4139
   28.650    6.4350
   28.680    6.8668
   28.710    6.6667
   28.740    6.8773
   28.770    6.8878
   28.800    6.5613
   28.830    6.5298
   28.860    6.4876
   28.890    6.7825
   28.920    6.3507
   28.950    6.6351
   28.980    6.9721
   29.010    6.6772
   29.040    6.0137
   29.070    6.4771
   29.100    6.7825
   29.130    6.6561
   29.160    6.2033
   29.190    6.5613
   29.220    6.4350
   29.250    6.1506
   29.280    6.5824
   29.310    6.3718
   29.340    6.4560
   29.370    6.1822
   29.400    6.2981
   29.430    6.6983
   29.460    6.4666
   29.490    6.4666
   29.520    6.4982
   29.550    6.6351
   29.580    6.3928
   29.610    6.1611
   29.640    6.7404
   29.670    6.6035
   29.700    6.1506
   29.730    6.0874
   29.760    6.7825
   29.790    6.3928
   29.820    6.6140
   29.850    5.9400
   29.880    6.4982
   29.910    6.8457
   29.940    6.0769
   29.970    6.1927
   30.000    5.9821
   30.030    6.4666
   30.060    6.4244
   30.090    6.4139
   30.120    6.9089
   30.150    6.5192
   30.180    6.5508
   30.210    6.3402
   30.240    6.3402
   30.270    6.2665
   30.300    6.6983
   30.330    6.5929
   30.360    6.2033
   30.390    6.2665
   30.420    6.0664
   30.450    5.8978
   30.480    6.2033
   30.510    6.1927
   30.540    6.7299
   30.570    6.2875
   30.600    6.2875
   30.630    6.6035
   30.660    6.0137
   30.690    6.1717
   30.720    6.1717
   30.750    6.1822
   30.780    6.3507
   30.810    6.0137
   30.840    6.0874
   30.870    6.5087
   30.900    5.9926
   30.930    6.2349
   30.960    6.2033
   30.990    6.2033
   31.020    6.2665
   31.050    6.2349
   31.080    6.1085
   31.110    6.1717
   31.140    5.6872
   31.170    5.6661
   31.200    5.9926
   31.230    6.0979
   31.260    5.9189
   31.290    5.8241
   31.320    6.0242
   31.350    6.2033
   31.380    5.9294
   31.410    6.1611
   31.440    6.0874
   31.470    6.0558
   31.500    5.9610
   31.530    6.0664
   31.560    6.1927
   31.590    5.9821
   31.620    5.9400
   31.650    6.2243
   31.680    6.1717
   31.710    6.1506
   31.740    6.0769
   31.770    5.8662
   31.800    6.1927
   31.830    5.9505
   31.860    5.5398
   31.890    6.2665
   31.920    5.7609
   31.950    5.8136
   31.980    5.6661
   32.010    5.9821
   32.040    6.1822
   32.070    5.8136
   32.100    6.3086
   32.130    5.8978
   32.160    6.1611
   32.190    5.6029
   32.220    5.9189
   32.250    6.1085
   32.280    5.8136
   32.310    6.0032
   32.340    5.6451
   32.370    5.9926
   32.400    5.6240
   32.430    5.6345
   32.460    5.7609
   32.490    5.9716
   32.520    5.5924
   32.550    6.2138
   32.580    5.8873
   32.610    5.6977
   32.640    5.8241
   32.670    5.5714
   32.700    5.9821
   32.730    5.9084
   32.760    5.8031
   32.790    5.6977
   32.820    5.5714
   32.850    6.0137
   32.880    5.9505
   32.910    6.1401
   32.940    5.9610
   32.970    5.8031
   33.000    6.2454
   33.030    5.6556
   33.060    5.5714
   33.090    5.9821
   33.120    5.6556
   33.150    5.6135
   33.180    5.8452
   33.210    5.9189
   33.240    5.7083
   33.270    5.8031
   33.300    5.7609
   33.330    5.6451
   33.360    5.6556
   33.390    6.1611
   33.420    6.0348
   33.450    5.6872
   33.480    5.4555
   33.510    6.0453
   33.540    5.5714
   33.570    5.6240
   33.600    5.6977
   33.630    5.6345
   33.660    5.5187
   33.690    5.7293
   33.720    5.6872
   33.750    5.3291
   33.780    5.7504
   33.810    5.7504
   33.840    5.9716
   33.870    6.0769
   33.900    5.8452
   33.930    5.5924
   33.960    5.5292
   33.990    5.9610
   34.020    5.4450
   34.050    5.3818
   34.080    5.3818
   34.110    5.6451
   34.140    5.3712
   34.170    5.6872
   34.200    5.5082
   34.230    5.5187
   34.260    5.4555
   34.290    5.4028
   34.320    5.7609
   34.350    5.3923
   34.380    5.5082
   34.410    5.3291
   34.440    5.5082
   34.470    5.8978
   34.500    5.6345
   34.530    5.5292
   34.560    5.5714
   34.590    5.2870
   34.620    5.5292
   34.650    5.3291
   34.680    5.4766
   34.710    5.2870
   34.740    5.2238
   34.770    5.2765
   34.800    5.6345
   34.830    5.7820
   34.860    5.4976
   34.890    5.4976
   34.920    5.1080
   34.950    5.5187
   34.980    5.5924
   35.010    5.4660
   35.040    5.3923
   35.070    5.4134
   35.100    5.3712
   35.130    5.0869
   35.160    5.2975
   35.190    5.4871
   35.220    5.4660
   35.250    5.4344
   35.280    5.0026
   35.310    5.4976
   35.340    5.7399
   35.370    5.8136
   35.400    5.2133
   35.430    5.1080
   35.460    5.5503
   35.490    5.5292
   35.520    5.2133
   35.550    5.2870
   35.580    5.4871
   35.610    5.3923
   35.640    5.6767
   35.670    5.2027
   35.700    5.4450
   35.730    5.2343
   35.760    5.3818
   35.790    5.5292
   35.820    5.1606
   35.850    5.1501
   35.880    5.2449
   35.910    5.0237
   35.940    5.3291
   35.970    4.9816
   36.000    5.0553
   36.030    5.4134
   36.060    5.2554
   36.090    5.2659
   36.120    5.3502
   36.150    5.3818
   36.180    5.2449
   36.210    5.2133
   36.240    5.0869
   36.270    5.0132
   36.300    4.9289
   36.330    5.5819
   36.360    5.2975
   36.390    4.9921
   36.420    5.1501
   36.450    4.9710
   36.480    5.2449
   36.510    5.2343
   36.540    5.5819
   36.570    5.2975
   36.600    5.3397
   36.630    5.3607
   36.660    5.4450
   36.690    5.0658
   36.720    5.0132
   36.750    5.1817
   36.780    5.2343
   36.810    4.9605
   36.840    5.0869
   36.870    5.3607
   36.900    5.2554
   36.930    5.4028
   36.960    5.3607
   36.990    5.4239
   37.020    4.9184
   37.050    5.0026
   37.080    5.1290
   37.110    5.1395
   37.140    5.1817
   37.170    5.0553
   37.200    5.0553
   37.230    5.2343
   37.260    5.1501
   37.290    5.2765
   37.320    5.4028
   37.350    5.3397
   37.380    5.1922
   37.410    5.1922
   37.440    5.2343
   37.470    5.3291
   37.500    5.2449
   37.530    5.4660
   37.560    5.1395
   37.590    5.2975
   37.620    5.0342
   37.650    5.2238
   37.680    4.9605
   37.710    5.3712
   37.740    5.0448
   37.770    4.9500
   37.800    5.2449
   37.830    5.1501
   37.860    5.2343
   37.890    5.0974
   37.920    5.0132
   37.950    5.0342
   37.980    5.5082
   38.010    5.0448
   38.040    5.2027
   38.070    5.2133
   38.100    5.4555
   38.130    4.6551
   38.160    5.3397
   38.190    5.0974
   38.220    4.8868
   38.250    4.8025
   38.280    5.2133
   38.310    5.0658
   38.340    5.2659
   38.370    5.0764
   38.400    5.2027
   38.430    5.3081
   38.460    5.0974
   38.490    5.0448
   38.520    4.9921
   38.550    5.0764
   38.580    5.2238
   38.610    4.7920
   38.640    4.9394
   38.670    5.0132
   38.700    5.0658
   38.730    5.0764
   38.760    5.0448
   38.790    5.5503
   38.820    5.0553
   38.850    4.9500
   38.880    5.1290
   38.910    4.8868
   38.940    5.3502
   38.970    4.6130
   39.000    5.0448
   39.030    5.0448
   39.060    5.0448
   39.090    5.1501
   39.120    5.0448
   39.150    5.3923
   39.180    5.4976
   39.210    4.9921
   39.240    4.8868
   39.270    5.3923
   39.300    4.8973
   39.330    5.0658
   39.360    5.2870
   39.390    5.1606
   39.420    4.9289
   39.450    4.9710
   39.480    4.9710
   39.510    5.1817
   39.540    5.0132
   39.570    4.9394
   39.600    5.0342
   39.630    5.1395
   39.660    5.3923
   39.690    5.1080
   39.720    5.2554
   39.750    4.9710
   39.780    4.8236
   39.810    4.8025
   39.840    5.1817
   39.870    5.2027
   39.900    5.0132
   39.930    5.2765
   39.960    5.1185
   39.990    5.0448