File: data/PXRD/PXRD_KE-263_Co-Ka1_film-3mm_3s-deg.xyd
    1.500    3.2459
    1.530    3.1389
    1.560    3.1568
    1.590    2.8892
    1.620    2.4434
    1.650    2.8001
    1.680    2.8714
    1.710    2.6574
    1.740    2.6752
    1.770    2.3720
    1.800    2.2829
    1.830    2.5147
    1.860    2.2472
    1.890    2.3185
    1.920    2.3185
    1.950    2.4612
    1.980    2.0688
    2.010    1.9083
    2.040    1.9975
    2.070    1.9797
    2.100    1.8548
    2.130    2.0867
    2.160    1.8192
    2.190    1.8548
    2.220    1.8192
    2.250    1.9797
    2.280    1.8905
    2.310    2.1045
    2.340    1.5695
    2.370    2.1045
    2.400    1.7657
    2.430    1.9618
    2.460    1.7300
    2.490    1.8727
    2.520    1.5338
    2.550    1.6408
    2.580    1.6051
    2.610    1.4803
    2.640    1.3911
    2.670    1.5338
    2.700    1.5338
    2.730    1.8727
    2.760    1.6586
    2.790    1.4268
    2.820    1.6943
    2.850    1.6943
    2.880    1.8013
    2.910    1.7478
    2.940    1.6051
    2.970    1.3554
    3.000    1.2484
    3.030    1.6765
    3.060    1.4090
    3.090    1.5338
    3.120    1.4090
    3.150    1.3554
    3.180    1.2841
    3.210    1.4981
    3.240    1.4090
    3.270    1.4090
    3.300    1.3911
    3.330    1.2306
    3.360    1.3376
    3.390    1.3733
    3.420    1.3554
    3.450    1.6765
    3.480    1.3198
    3.510    1.2306
    3.540    1.6408
    3.570    1.4803
    3.600    1.3733
    3.630    1.4803
    3.660    1.3019
    3.690    1.5873
    3.720    1.4625
    3.750    1.5516
    3.780    1.5160
    3.810    1.1949
    3.840    1.2306
    3.870    1.5338
    3.900    1.2841
    3.930    1.2306
    3.960    1.1236
    3.990    1.3198
    4.020    1.3019
    4.050    1.4268
    4.080    1.3554
    4.110    1.5516
    4.140    1.3376
    4.170    1.3376
    4.200    1.4446
    4.230    1.6230
    4.260    1.2841
    4.290    1.4090
    4.320    1.3376
    4.350    1.3733
    4.380    1.1949
    4.410    1.5160
    4.440    1.3198
    4.470    1.3733
    4.500    1.4446
    4.530    1.3733
    4.560    1.3554
    4.590    1.4090
    4.620    1.5160
    4.650    1.3733
    4.680    1.2841
    4.710    1.2484
    4.740    1.4090
    4.770    1.2663
    4.800    1.6230
    4.830    1.3733
    4.860    1.2306
    4.890    1.4981
    4.920    1.3554
    4.950    1.3019
    4.980    1.6408
    5.010    1.2663
    5.040    1.5160
    5.070    1.3554
    5.100    1.2128
    5.130    1.3911
    5.160    1.2306
    5.190    1.5338
    5.220    1.3019
    5.250    1.4981
    5.280    1.3911
    5.310    1.1058
    5.340    1.5338
    5.370    1.5516
    5.400    1.4090
    5.430    1.2841
    5.460    1.4803
    5.490    1.5338
    5.520    1.6408
    5.550    1.4268
    5.580    1.4268
    5.610    1.6051
    5.640    1.5338
    5.670    1.4268
    5.700    1.3554
    5.730    1.3554
    5.760    1.3198
    5.790    1.3019
    5.820    1.4446
    5.850    1.5338
    5.880    1.4803
    5.910    1.5338
    5.940    1.6408
    5.970    1.6943
    6.000    1.4625
    6.030    1.8013
    6.060    1.3733
    6.090    1.7657
    6.120    1.8905
    6.150    1.8192
    6.180    1.7300
    6.210    1.6586
    6.240    1.7478
    6.270    1.6765
    6.300    1.8013
    6.330    1.8727
    6.360    1.8905
    6.390    1.9440
    6.420    1.8370
    6.450    1.9975
    6.480    2.1580
    6.510    1.9618
    6.540    1.9797
    6.570    1.9083
    6.600    1.7835
    6.630    1.7657
    6.660    1.9440
    6.690    1.6765
    6.720    1.7121
    6.750    1.8013
    6.780    1.7121
    6.810    1.6586
    6.840    1.7478
    6.870    1.4090
    6.900    1.3019
    6.930    1.6408
    6.960    1.4981
    6.990    1.2306
    7.020    1.6230
    7.050    1.3554
    7.080    1.8192
    7.110    1.2841
    7.140    1.2484
    7.170    1.3554
    7.200    1.5160
    7.230    1.4446
    7.260    1.3733
    7.290    1.5338
    7.320    1.4090
    7.350    1.4625
    7.380    1.6586
    7.410    1.1414
    7.440    1.5695
    7.470    1.3554
    7.500    1.5873
    7.530    1.0344
    7.560    1.4090
    7.590    1.1949
    7.620    1.3733
    7.650    1.3911
    7.680    1.3911
    7.710    1.0344
    7.740    1.2128
    7.770    1.3376
    7.800    1.0701
    7.830    1.4268
    7.860    1.0344
    7.890    1.3198
    7.920    1.0879
    7.950    1.2306
    7.980    1.2663
    8.010    1.2841
    8.040    1.4446
    8.070    0.9631
    8.100    1.1414
    8.130    1.2128
    8.160    1.2128
    8.190    1.1058
    8.220    1.1236
    8.250    1.2484
    8.280    1.1414
    8.310    0.8739
    8.340    0.9809
    8.370    1.0879
    8.400    1.1058
    8.430    1.3198
    8.460    1.0523
    8.490    1.0701
    8.520    1.0701
    8.550    0.9452
    8.580    0.9988
    8.610    1.0344
    8.640    0.9096
    8.670    1.0523
    8.700    1.0523
    8.730    1.1593
    8.760    0.9809
    8.790    0.8561
    8.820    1.1058
    8.850    0.8382
    8.880    1.0166
    8.910    0.9096
    8.940    0.9988
    8.970    1.2306
    9.000    0.9274
    9.030    0.9809
    9.060    0.9988
    9.090    1.0523
    9.120    0.8026
    9.150    0.9096
    9.180    1.0879
    9.210    1.1058
    9.240    0.6777
    9.270    0.8026
    9.300    0.7847
    9.330    0.9988
    9.360    0.8917
    9.390    0.9096
    9.420    0.7669
    9.450    0.8026
    9.480    0.9452
    9.510    0.8382
    9.540    0.8561
    9.570    0.8561
    9.600    1.0879
    9.630    0.7847
    9.660    0.8561
    9.690    0.7491
    9.720    0.8917
    9.750    0.8739
    9.780    0.9452
    9.810    1.0166
    9.840    0.9809
    9.870    0.8026
    9.900    0.8561
    9.930    0.8917
    9.960    0.8561
    9.990    0.8204
   10.020    0.8739
   10.050    0.9631
   10.080    0.8739
   10.110    1.1058
   10.140    0.7491
   10.170    0.9452
   10.200    0.8917
   10.230    0.6421
   10.260    0.9096
   10.290    0.9452
   10.320    0.8561
   10.350    1.0166
   10.380    0.7847
   10.410    0.9096
   10.440    0.7847
   10.470    1.1236
   10.500    0.7491
   10.530    0.9274
   10.560    0.8026
   10.590    0.9988
   10.620    0.7312
   10.650    1.0344
   10.680    0.7669
   10.710    0.8739
   10.740    0.7312
   10.770    0.8917
   10.800    0.8204
   10.830    0.9096
   10.860    0.8561
   10.890    0.9274
   10.920    0.6956
   10.950    0.5707
   10.980    0.9631
   11.010    0.9631
   11.040    0.9988
   11.070    0.7847
   11.100    0.6777
   11.130    0.7134
   11.160    0.9452
   11.190    0.7312
   11.220    0.7847
   11.250    0.8561
   11.280    0.8204
   11.310    0.9096
   11.340    0.7491
   11.370    0.6777
   11.400    0.7491
   11.430    0.8026
   11.460    0.8204
   11.490    0.8382
   11.520    0.5707
   11.550    0.8026
   11.580    0.7491
   11.610    0.8917
   11.640    0.7312
   11.670    0.7312
   11.700    0.8204
   11.730    0.9988
   11.760    0.6599
   11.790    0.6599
   11.820    0.9809
   11.850    0.9096
   11.880    0.6064
   11.910    0.6777
   11.940    0.8561
   11.970    0.8561
   12.000    0.8917
   12.030    0.7134
   12.060    0.7847
   12.090    0.7847
   12.120    0.7312
   12.150    0.7312
   12.180    0.8561
   12.210    1.0166
   12.240    0.8561
   12.270    0.8739
   12.300    0.8026
   12.330    0.9452
   12.360    0.8917
   12.390    0.8026
   12.420    0.9988
   12.450    0.8917
   12.480    0.6956
   12.510    0.7847
   12.540    0.8561
   12.570    0.9096
   12.600    0.8204
   12.630    0.8026
   12.660    0.9096
   12.690    0.6421
   12.720    0.7847
   12.750    0.9631
   12.780    0.9452
   12.810    0.9631
   12.840    1.1058
   12.870    0.8204
   12.900    0.9809
   12.930    0.9988
   12.960    0.9096
   12.990    0.8739
   13.020    0.9096
   13.050    0.7669
   13.080    0.9452
   13.110    0.9631
   13.140    0.8382
   13.170    0.9274
   13.200    0.7491
   13.230    0.6956
   13.260    0.8739
   13.290    0.8026
   13.320    0.8739
   13.350    0.8561
   13.380    0.8026
   13.410    0.8739
   13.440    0.9274
   13.470    0.9452
   13.500    0.9452
   13.530    0.8382
   13.560    0.7669
   13.590    0.8204
   13.620    0.9274
   13.650    0.8204
   13.680    0.9274
   13.710    0.8026
   13.740    1.1236
   13.770    0.8204
   13.800    0.9096
   13.830    0.7491
   13.860    0.8917
   13.890    0.8026
   13.920    0.6777
   13.950    0.8204
   13.980    0.7491
   14.010    0.8026
   14.040    0.9631
   14.070    0.8561
   14.100    0.8026
   14.130    0.6956
   14.160    0.8204
   14.190    0.8561
   14.220    0.8917
   14.250    0.7847
   14.280    0.6421
   14.310    0.8204
   14.340    0.6421
   14.370    0.6956
   14.400    0.7669
   14.430    0.7134
   14.460    0.7491
   14.490    0.5707
   14.520    0.9274
   14.550    1.1236
   14.580    0.9452
   14.610    0.8917
   14.640    0.8382
   14.670    0.8739
   14.700    0.7312
   14.730    0.6599
   14.760    0.8561
   14.790    0.6421
   14.820    0.7312
   14.850    0.8204
   14.880    0.8204
   14.910    0.7312
   14.940    0.8917
   14.970    0.7847
   15.000    0.7669
   15.030    0.8739
   15.060    0.8739
   15.090    0.9631
   15.120    0.7134
   15.150    0.8382
   15.180    0.7312
   15.210    0.8917
   15.240    0.8382
   15.270    0.6242
   15.300    0.7312
   15.330    0.6777
   15.360    0.7491
   15.390    0.7312
   15.420    0.8382
   15.450    0.8382
   15.480    0.6777
   15.510    0.7669
   15.540    0.7312
   15.570    0.6242
   15.600    0.6242
   15.630    0.7312
   15.660    0.8382
   15.690    0.9096
   15.720    0.7847
   15.750    0.7669
   15.780    0.9452
   15.810    0.8561
   15.840    0.7669
   15.870    0.8026
   15.900    0.7847
   15.930    0.9809
   15.960    0.7134
   15.990    0.7312
   16.020    0.7491
   16.050    0.7669
   16.080    0.8026
   16.110    0.8917
   16.140    0.7847
   16.170    0.8026
   16.200    0.7312
   16.230    0.8204
   16.260    0.7669
   16.290    0.8382
   16.320    0.8382
   16.350    0.6242
   16.380    0.7847
   16.410    0.9274
   16.440    0.7491
   16.470    1.0166
   16.500    0.7134
   16.530    0.8561
   16.560    0.7312
   16.590    0.8739
   16.620    0.8382
   16.650    0.8561
   16.680    0.9274
   16.710    0.8561
   16.740    0.8204
   16.770    0.8917
   16.800    0.8739
   16.830    0.6599
   16.860    1.1058
   16.890    1.0166
   16.920    0.9809
   16.950    0.7312
   16.980    0.8739
   17.010    1.0166
   17.040    0.8739
   17.070    0.7669
   17.100    0.8204
   17.130    1.0166
   17.160    0.7134
   17.190    0.9096
   17.220    0.8917
   17.250    0.8026
   17.280    0.8917
   17.310    0.7312
   17.340    0.8739
   17.370    0.7669
   17.400    0.8026
   17.430    0.7847
   17.460    0.8917
   17.490    0.9452
   17.520    0.8204
   17.550    0.7134
   17.580    0.6599
   17.610    0.7312
   17.640    0.6956
   17.670    0.7312
   17.700    0.8382
   17.730    0.6599
   17.760    0.8026
   17.790    0.7669
   17.820    0.6777
   17.850    0.7847
   17.880    0.8561
   17.910    0.6956
   17.940    0.9809
   17.970    0.6242
   18.000    0.8739
   18.030    0.5350
   18.060    0.9809
   18.090    0.7669
   18.120    0.6777
   18.150    0.5707
   18.180    0.8026
   18.210    0.6777
   18.240    0.7669
   18.270    0.7491
   18.300    0.6956
   18.330    0.8204
   18.360    0.8739
   18.390    0.6242
   18.420    0.9274
   18.450    0.8026
   18.480    0.6956
   18.510    0.6956
   18.540    0.7669
   18.570    0.8204
   18.600    0.6777
   18.630    0.6956
   18.660    0.8026
   18.690    0.7847
   18.720    0.8204
   18.750    0.8026
   18.780    0.7491
   18.810    0.6242
   18.840    0.7134
   18.870    0.6421
   18.900    0.6599
   18.930    0.8026
   18.960    0.9274
   18.990    0.6956
   19.020    0.7847
   19.050    0.7669
   19.080    0.7491
   19.110    0.6777
   19.140    0.7669
   19.170    0.9096
   19.200    0.7134
   19.230    0.7134
   19.260    0.7669
   19.290    0.7134
   19.320    0.6956
   19.350    0.7847
   19.380    0.6599
   19.410    0.7491
   19.440    0.6956
   19.470    0.6777
   19.500    0.7312
   19.530    0.7669
   19.560    0.7491
   19.590    0.8739
   19.620    0.5886
   19.650    0.5707
   19.680    0.7669
   19.710    0.8026
   19.740    0.7134
   19.770    0.4459
   19.800    0.6777
   19.830    0.9274
   19.860    0.7134
   19.890    0.7669
   19.920    0.7491
   19.950    0.9631
   19.980    0.7847
   20.010    0.7491
   20.040    0.8026
   20.070    0.8382
   20.100    0.7491
   20.130    0.8382
   20.160    0.6956
   20.190    0.6242
   20.220    0.6421
   20.250    0.8026
   20.280    0.6777
   20.310    0.6421
   20.340    0.5707
   20.370    0.8204
   20.400    0.9452
   20.430    0.7669
   20.460    0.7134
   20.490    0.7847
   20.520    0.7312
   20.550    0.7312
   20.580    0.9096
   20.610    0.8382
   20.640    0.5707
   20.670    0.7491
   20.700    0.7491
   20.730    0.8204
   20.760    0.8026
   20.790    0.5707
   20.820    0.6956
   20.850    0.7491
   20.880    0.7312
   20.910    0.8026
   20.940    0.6421
   20.970    0.6421
   21.000    0.8917
   21.030    0.9096
   21.060    0.7491
   21.090    0.6956
   21.120    0.7312
   21.150    0.7134
   21.180    0.6421
   21.210    0.8382
   21.240    0.6777
   21.270    0.6421
   21.300    0.4815
   21.330    0.7491
   21.360    0.7491
   21.390    0.7134
   21.420    0.7847
   21.450    0.6421
   21.480    0.6421
   21.510    0.7491
   21.540    0.6242
   21.570    0.7491
   21.600    0.6064
   21.630    0.8739
   21.660    0.7134
   21.690    0.5886
   21.720    0.8204
   21.750    0.9096
   21.780    0.7847
   21.810    0.8204
   21.840    0.6242
   21.870    0.6956
   21.900    0.6421
   21.930    0.5886
   21.960    0.6599
   21.990    0.7491
   22.020    0.7134
   22.050    0.5707
   22.080    0.7847
   22.110    0.6242
   22.140    0.6777
   22.170    0.6421
   22.200    0.5707
   22.230    0.6599
   22.260    0.6421
   22.290    0.6956
   22.320    0.7134
   22.350    0.5350
   22.380    0.6777
   22.410    0.9452
   22.440    0.6064
   22.470    0.6242
   22.500    0.7134
   22.530    0.8917
   22.560    0.5529
   22.590    0.6421
   22.620    0.8026
   22.650    0.8917
   22.680    0.8739
   22.710    0.6242
   22.740    0.5707
   22.770    0.4994
   22.800    0.8382
   22.830    0.5350
   22.860    0.7491
   22.890    0.7134
   22.920    0.8561
   22.950    0.5529
   22.980    0.5350
   23.010    0.6777
   23.040    0.6421
   23.070    0.7847
   23.100    0.4815
   23.130    0.6777
   23.160    0.7491
   23.190    0.6242
   23.220    0.5886
   23.250    0.7491
   23.280    0.5707
   23.310    0.7491
   23.340    0.5886
   23.370    0.8204
   23.400    0.5886
   23.430    0.6599
   23.460    0.5707
   23.490    0.7491
   23.520    0.6956
   23.550    0.7312
   23.580    0.6064
   23.610    0.6421
   23.640    0.6599
   23.670    0.6421
   23.700    0.6242
   23.730    0.8382
   23.760    0.5707
   23.790    0.6599
   23.820    0.7134
   23.850    0.6242
   23.880    0.7312
   23.910    0.6064
   23.940    0.6064
   23.970    0.7669
   24.000    0.7312
   24.030    0.6599
   24.060    0.5529
   24.090    0.6421
   24.120    0.6242
   24.150    0.6956
   24.180    0.7312
   24.210    0.4459
   24.240    0.6242
   24.270    0.7312
   24.300    0.6956
   24.330    0.4637
   24.360    0.5172
   24.390    0.7134
   24.420    0.7847
   24.450    0.7669
   24.480    0.6421
   24.510    0.6242
   24.540    0.6242
   24.570    0.5707
   24.600    0.9096
   24.630    0.7134
   24.660    0.6956
   24.690    0.6777
   24.720    0.6599
   24.750    0.5886
   24.780    0.6599
   24.810    0.5350
   24.840    0.6599
   24.870    0.5529
   24.900    0.6777
   24.930    0.7134
   24.960    0.6599
   24.990    0.8026
   25.020    0.5886
   25.050    0.6421
   25.080    0.6956
   25.110    0.6064
   25.140    0.6421
   25.170    0.5529
   25.200    0.5172
   25.230    0.5350
   25.260    0.5350
   25.290    0.3745
   25.320    0.5529
   25.350    0.4815
   25.380    0.7134
   25.410    0.8204
   25.440    0.5529
   25.470    0.6421
   25.500    0.5707
   25.530    0.5707
   25.560    0.5529
   25.590    0.6064
   25.620    0.5886
   25.650    0.5886
   25.680    0.5350
   25.710    0.5529
   25.740    0.4637
   25.770    0.6064
   25.800    0.5172
   25.830    0.4994
   25.860    0.4994
   25.890    0.6242
   25.920    0.5886
   25.950    0.6064
   25.980    0.4102
   26.010    0.5350
   26.040    0.7134
   26.070    0.5350
   26.100    0.6242
   26.130    0.6242
   26.160    0.5172
   26.190    0.5172
   26.220    0.5172
   26.250    0.4815
   26.280    0.6956
   26.310    0.5172
   26.340    0.5172
   26.370    0.5350
   26.400    0.6599
   26.430    0.6777
   26.460    0.5172
   26.490    0.4994
   26.520    0.5707
   26.550    0.5350
   26.580    0.4280
   26.610    0.6421
   26.640    0.5172
   26.670    0.5350
   26.700    0.4994
   26.730    0.6064
   26.760    0.5707
   26.790    0.6777
   26.820    0.6421
   26.850    0.4459
   26.880    0.5350
   26.910    0.6777
   26.940    0.5350
   26.970    0.5707
   27.000    0.4637
   27.030    0.6956
   27.060    0.6242
   27.090    0.4637
   27.120    0.6064
   27.150    0.6599
   27.180    0.4994
   27.210    0.5172
   27.240    0.3924
   27.270    0.4280
   27.300    0.4815
   27.330    0.4280
   27.360    0.5886
   27.390    0.4815
   27.420    0.6599
   27.450    0.5886
   27.480    0.6777
   27.510    0.6421
   27.540    0.5350
   27.570    0.4637
   27.600    0.7491
   27.630    0.5707
   27.660    0.6599
   27.690    0.6777
   27.720    0.6242
   27.750    0.8204
   27.780    0.5707
   27.810    0.3924
   27.840    0.5886
   27.870    0.5886
   27.900    0.4637
   27.930    0.5350
   27.960    0.5886
   27.990    0.5529
   28.020    0.4815
   28.050    0.7312
   28.080    0.4459
   28.110    0.5350
   28.140    0.4994
   28.170    0.4459
   28.200    0.5886
   28.230    0.6242
   28.260    0.5529
   28.290    0.8026
   28.320    0.4994
   28.350    0.7312
   28.380    0.7134
   28.410    0.5529
   28.440    0.5707
   28.470    0.5886
   28.500    0.5529
   28.530    0.3924
   28.560    0.5172
   28.590    0.4815
   28.620    0.7669
   28.650    0.4815
   28.680    0.6421
   28.710    0.4280
   28.740    0.4459
   28.770    0.4815
   28.800    0.4637
   28.830    0.5707
   28.860    0.4102
   28.890    0.4994
   28.920    0.4994
   28.950    0.4459
   28.980    0.4994
   29.010    0.4637
   29.040    0.4815
   29.070    0.5886
   29.100    0.7134
   29.130    0.4994
   29.160    0.5172
   29.190    0.6064
   29.220    0.4815
   29.250    0.6242
   29.280    0.5172
   29.310    0.4994
   29.340    0.4994
   29.370    0.5350
   29.400    0.5707
   29.430    0.5529
   29.460    0.4815
   29.490    0.4280
   29.520    0.5529
   29.550    0.6599
   29.580    0.7312
   29.610    0.7312
   29.640    0.4637
   29.670    0.5350
   29.700    0.5172
   29.730    0.4815
   29.760    0.6421
   29.790    0.5529
   29.820    0.4280
   29.850    0.4637
   29.880    0.3567
   29.910    0.4815
   29.940    0.4815
   29.970    0.5172
   30.000    0.5529
   30.030    0.4994
   30.060    0.3745
   30.090    0.4102
   30.120    0.6777
   30.150    0.4994
   30.180    0.4994
   30.210    0.4280
   30.240    0.5172
   30.270    0.5172
   30.300    0.4815
   30.330    0.5707
   30.360    0.4994
   30.390    0.4994
   30.420    0.6956
   30.450    0.4815
   30.480    0.4815
   30.510    0.5350
   30.540    0.4459
   30.570    0.4102
   30.600    0.6599
   30.630    0.4815
   30.660    0.3924
   30.690    0.3924
   30.720    0.6242
   30.750    0.5886
   30.780    0.5707
   30.810    0.5529
   30.840    0.4459
   30.870    0.3745
   30.900    0.4637
   30.930    0.5529
   30.960    0.3745
   30.990    0.3745
   31.020    0.4459
   31.050    0.3210
   31.080    0.3210
   31.110    0.4102
   31.140    0.4815
   31.170    0.4459
   31.200    0.4637
   31.230    0.4637
   31.260    0.5707
   31.290    0.4994
   31.320    0.5529
   31.350    0.6242
   31.380    0.6599
   31.410    0.7134
   31.440    0.4459
   31.470    0.5529
   31.500    0.4459
   31.530    0.5350
   31.560    0.3924
   31.590    0.5707
   31.620    0.5886
   31.650    0.4102
   31.680    0.5886
   31.710    0.5529
   31.740    0.4815
   31.770    0.3567
   31.800    0.3210
   31.830    0.5350
   31.860    0.6064
   31.890    0.5886
   31.920    0.6421
   31.950    0.5707
   31.980    0.4637
   32.010    0.3924
   32.040    0.2854
   32.070    0.4280
   32.100    0.4102
   32.130    0.4280
   32.160    0.3924
   32.190    0.3745
   32.220    0.3924
   32.250    0.3924
   32.280    0.4459
   32.310    0.4994
   32.340    0.4815
   32.370    0.4459
   32.400    0.3924
   32.430    0.3567
   32.460    0.5350
   32.490    0.4637
   32.520    0.3745
   32.550    0.4637
   32.580    0.3745
   32.610    0.4280
   32.640    0.4459
   32.670    0.2854
   32.700    0.4102
   32.730    0.3567
   32.760    0.4102
   32.790    0.3567
   32.820    0.3567
   32.850    0.5350
   32.880    0.4637
   32.910    0.2854
   32.940    0.4637
   32.970    0.3567
   33.000    0.5350
   33.030    0.2319
   33.060    0.5172
   33.090    0.3924
   33.120    0.4102
   33.150    0.4459
   33.180    0.2854
   33.210    0.3389
   33.240    0.4459
   33.270    0.3210
   33.300    0.5529
   33.330    0.4637
   33.360    0.3567
   33.390    0.3745
   33.420    0.3389
   33.450    0.3389
   33.480    0.3745
   33.510    0.4102
   33.540    0.3924
   33.570    0.5529
   33.600    0.4102
   33.630    0.3924
   33.660    0.4459
   33.690    0.2675
   33.720    0.5529
   33.750    0.4102
   33.780    0.3745
   33.810    0.4102
   33.840    0.4994
   33.870    0.3745
   33.900    0.3924
   33.930    0.5529
   33.960    0.3567
   33.990    0.4815
   34.020    0.5529
   34.050    0.4102
   34.080    0.4637
   34.110    0.3745
   34.140    0.5707
   34.170    0.4994
   34.200    0.2675
   34.230    0.4637
   34.260    0.3032
   34.290    0.3389
   34.320    0.3567
   34.350    0.3745
   34.380    0.3924
   34.410    0.3567
   34.440    0.3745
   34.470    0.2675
   34.500    0.3210
   34.530    0.3032
   34.560    0.4815
   34.590    0.3567
   34.620    0.3389
   34.650    0.3210
   34.680    0.3389
   34.710    0.3924
   34.740    0.4102
   34.770    0.3210
   34.800    0.2854
   34.830    0.2675
   34.860    0.2675
   34.890    0.3389
   34.920    0.2675
   34.950    0.3567
   34.980    0.2497
   35.010    0.2854
   35.040    0.3924
   35.070    0.3745
   35.100    0.3210
   35.130    0.2497
   35.160    0.3210
   35.190    0.3210
   35.220    0.3389
   35.250    0.4280
   35.280    0.3389
   35.310    0.3032
   35.340    0.3745
   35.370    0.3567
   35.400    0.3032
   35.430    0.5172
   35.460    0.3924
   35.490    0.3032
   35.520    0.2140
   35.550    0.3567
   35.580    0.3032
   35.610    0.3210
   35.640    0.3210
   35.670    0.3567
   35.700    0.2675
   35.730    0.3924
   35.760    0.2854
   35.790    0.4102
   35.820    0.3924
   35.850    0.3210
   35.880    0.3567
   35.910    0.3924
   35.940    0.2140
   35.970    0.4280
   36.000    0.3567
   36.030    0.3924
   36.060    0.3032
   36.090    0.3567
   36.120    0.3567
   36.150    0.3567
   36.180    0.3032
   36.210    0.3745
   36.240    0.3567
   36.270    0.3389
   36.300    0.3924
   36.330    0.2319
   36.360    0.2497
   36.390    0.2854
   36.420    0.1427
   36.450    0.3745
   36.480    0.3210
   36.510    0.3745
   36.540    0.3032
   36.570    0.4102
   36.600    0.3924
   36.630    0.2319
   36.660    0.3032
   36.690    0.2140
   36.720    0.3567
   36.750    0.1962
   36.780    0.3210
   36.810    0.2675
   36.840    0.3032
   36.870    0.2497
   36.900    0.2675
   36.930    0.4280
   36.960    0.4280
   36.990    0.3210
   37.020    0.2319
   37.050    0.4280
   37.080    0.1962
   37.110    0.2497
   37.140    0.5350
   37.170    0.3389
   37.200    0.3032
   37.230    0.2854
   37.260    0.2497
   37.290    0.2675
   37.320    0.3032
   37.350    0.2675
   37.380    0.3389
   37.410    0.1783
   37.440    0.3210
   37.470    0.2675
   37.500    0.3032
   37.530    0.1605
   37.560    0.2319
   37.590    0.2140
   37.620    0.3032
   37.650    0.3210
   37.680    0.1962
   37.710    0.3567
   37.740    0.3924
   37.770    0.2319
   37.800    0.2497
   37.830    0.1783
   37.860    0.2854
   37.890    0.2854
   37.920    0.3032
   37.950    0.2497
   37.980    0.3567
   38.010    0.3032
   38.040    0.2497
   38.070    0.3032
   38.100    0.2497
   38.130    0.3032
   38.160    0.3745
   38.190    0.2675
   38.220    0.3210
   38.250    0.3924
   38.280    0.3032
   38.310    0.2497
   38.340    0.3745
   38.370    0.3032
   38.400    0.3567
   38.430    0.1783
   38.460    0.2319
   38.490    0.1962
   38.520    0.2319
   38.550    0.2854
   38.580    0.1962
   38.610    0.2319
   38.640    0.1783
   38.670    0.3210
   38.700    0.3389
   38.730    0.2675
   38.760    0.1962
   38.790    0.1962
   38.820    0.3210
   38.850    0.2675
   38.880    0.2675
   38.910    0.2675
   38.940    0.2854
   38.970    0.2675
   39.000    0.1783
   39.030    0.2140
   39.060    0.2675
   39.090    0.4280
   39.120    0.2319
   39.150    0.2854
   39.180    0.3032
   39.210    0.2140
   39.240    0.2497
   39.270    0.2497
   39.300    0.2675
   39.330    0.2319
   39.360    0.2319
   39.390    0.2675
   39.420    0.2854
   39.450    0.2319
   39.480    0.3389
   39.510    0.2854
   39.540    0.1962
   39.570    0.2675
   39.600    0.2675
   39.630    0.2854
   39.660    0.1962
   39.690    0.2675
   39.720    0.2319
   39.750    0.2319
   39.780    0.1962
   39.810    0.2675
   39.840    0.2319
   39.870    0.2675
   39.900    0.2675
   39.930    0.1783
   39.960    0.2140
   39.990    0.1605