File: data/PXRD/PXRD_KE-108_Cu-Ka1_capillary-1mm_5s-deg.xyd
    1.500   14.0284
    1.530   13.6809
    1.560   13.8389
    1.590   12.7541
    1.620   12.9226
    1.650   11.8799
    1.680   11.5850
    1.710   11.9010
    1.740   11.6377
    1.770   11.0163
    1.800   10.3002
    1.830   10.0053
    1.860    9.9631
    1.890    9.4787
    1.920    9.8789
    1.950    9.1838
    1.980    8.7730
    2.010    8.8994
    2.040    8.9731
    2.070    8.2675
    2.100    8.0674
    2.130    8.0253
    2.160    8.3096
    2.190    7.9621
    2.220    7.7199
    2.250    7.7620
    2.280    7.5303
    2.310    7.4987
    2.340    7.0879
    2.370    6.8352
    2.400    7.3723
    2.430    6.7299
    2.460    6.8246
    2.490    6.8668
    2.520    6.8246
    2.550    6.6877
    2.580    6.3191
    2.610    6.4244
    2.640    6.3928
    2.670    6.4982
    2.700    6.4139
    2.730    6.2559
    2.760    5.7293
    2.790    5.9716
    2.820    6.0558
    2.850    6.2349
    2.880    6.0979
    2.910    5.8662
    2.940    6.3296
    2.970    5.7188
    3.000    5.4766
    3.030    6.1085
    3.060    5.5292
    3.090    5.6029
    3.120    5.5714
    3.150    5.8662
    3.180    5.7083
    3.210    5.5187
    3.240    5.7083
    3.270    5.5398
    3.300    5.6767
    3.330    5.3712
    3.360    5.4555
    3.390    5.4239
    3.420    5.3818
    3.450    5.5082
    3.480    5.5187
    3.510    5.4555
    3.540    5.2238
    3.570    5.1711
    3.600    5.7820
    3.630    5.3712
    3.660    5.1711
    3.690    5.2449
    3.720    4.8341
    3.750    5.2975
    3.780    5.4344
    3.810    5.3712
    3.840    5.1711
    3.870    5.2027
    3.900    5.2870
    3.930    5.4871
    3.960    5.0026
    3.990    4.9710
    4.020    5.1922
    4.050    5.2238
    4.080    5.4344
    4.110    5.3291
    4.140    5.1290
    4.170    5.1922
    4.200    4.9184
    4.230    5.2343
    4.260    5.3186
    4.290    4.8447
    4.320    5.0026
    4.350    5.2659
    4.380    4.8763
    4.410    4.8131
    4.440    5.0869
    4.470    5.1501
    4.500    5.1501
    4.530    4.8763
    4.560    4.8657
    4.590    5.0974
    4.620    5.0764
    4.650    4.6867
    4.680    5.1606
    4.710    5.2027
    4.740    5.0026
    4.770    4.7393
    4.800    4.9394
    4.830    4.9605
    4.860    4.9078
    4.890    4.9710
    4.920    4.9816
    4.950    5.2133
    4.980    5.0132
    5.010    4.9921
    5.040    5.2343
    5.070    5.1501
    5.100    5.0448
    5.130    4.9710
    5.160    4.5919
    5.190    4.8973
    5.220    5.2027
    5.250    4.8131
    5.280    4.8341
    5.310    4.7183
    5.340    5.0658
    5.370    5.2238
    5.400    5.0026
    5.430    5.2027
    5.460    4.8447
    5.490    4.9605
    5.520    4.8131
    5.550    4.8341
    5.580    4.7920
    5.610    5.0342
    5.640    4.9078
    5.670    4.7604
    5.700    4.9394
    5.730    5.6767
    5.760    4.8973
    5.790    5.2343
    5.820    4.7499
    5.850    4.7499
    5.880    4.9289
    5.910    4.8131
    5.940    5.2027
    5.970    4.9289
    6.000    5.1185
    6.030    4.6340
    6.060    5.0342
    6.090    4.4444
    6.120    5.0132
    6.150    5.2133
    6.180    4.8131
    6.210    4.9710
    6.240    5.0342
    6.270    4.9605
    6.300    5.1080
    6.330    5.0764
    6.360    4.8552
    6.390    5.2133
    6.420    4.9078
    6.450    4.7183
    6.480    5.1080
    6.510    4.8236
    6.540    4.7815
    6.570    4.9710
    6.600    5.0974
    6.630    4.8552
    6.660    5.3397
    6.690    5.2975
    6.720    5.0658
    6.750    4.9605
    6.780    4.9605
    6.810    4.9394
    6.840    5.0237
    6.870    5.4555
    6.900    4.8763
    6.930    5.1290
    6.960    5.1606
    6.990    4.8025
    7.020    5.2133
    7.050    5.1185
    7.080    5.0132
    7.110    5.2659
    7.140    5.2870
    7.170    4.8447
    7.200    4.9184
    7.230    5.3186
    7.260    5.4028
    7.290    4.7815
    7.320    4.9605
    7.350    4.9078
    7.380    5.0026
    7.410    4.8236
    7.440    4.9184
    7.470    5.2870
    7.500    5.1817
    7.530    5.2659
    7.560    5.1501
    7.590    5.3081
    7.620    5.0237
    7.650    5.0869
    7.680    4.9394
    7.710    5.2870
    7.740    4.9605
    7.770    4.9816
    7.800    4.9078
    7.830    4.7183
    7.860    5.2027
    7.890    4.9500
    7.920    5.2238
    7.950    5.0764
    7.980    5.0974
    8.010    4.9289
    8.040    5.1817
    8.070    5.0658
    8.100    5.0658
    8.130    4.7077
    8.160    5.4871
    8.190    5.2659
    8.220    5.0974
    8.250    5.1817
    8.280    5.3818
    8.310    4.6130
    8.340    5.3923
    8.370    5.2659
    8.400    5.1606
    8.430    4.8868
    8.460    5.1711
    8.490    5.1290
    8.520    5.4976
    8.550    4.8868
    8.580    5.1711
    8.610    5.4555
    8.640    5.2554
    8.670    5.4028
    8.700    5.2027
    8.730    5.4660
    8.760    5.1922
    8.790    5.2975
    8.820    5.2975
    8.850    5.4028
    8.880    5.4239
    8.910    5.2133
    8.940    5.2975
    8.970    5.0237
    9.000    5.1185
    9.030    5.1817
    9.060    5.6556
    9.090    5.2765
    9.120    5.1817
    9.150    5.5082
    9.180    5.2343
    9.210    5.1080
    9.240    4.9605
    9.270    5.3186
    9.300    5.1711
    9.330    4.9816
    9.360    4.9921
    9.390    4.8236
    9.420    5.1711
    9.450    5.0658
    9.480    5.3712
    9.510    5.4134
    9.540    5.2133
    9.570    4.8763
    9.600    5.3502
    9.630    5.3081
    9.660    5.2133
    9.690    5.2765
    9.720    4.8763
    9.750    4.8973
    9.780    4.9605
    9.810    5.0974
    9.840    4.6972
    9.870    5.0342
    9.900    5.1185
    9.930    5.1606
    9.960    5.5082
    9.990    5.2975
   10.020    5.1922
   10.050    5.0237
   10.080    5.0974
   10.110    5.3923
   10.140    5.0869
   10.170    5.2870
   10.200    5.3818
   10.230    5.2870
   10.260    5.1290
   10.290    4.7393
   10.320    5.1395
   10.350    5.3607
   10.380    4.9289
   10.410    4.9394
   10.440    4.9500
   10.470    5.2659
   10.500    4.9394
   10.530    5.1817
   10.560    5.2765
   10.590    5.1606
   10.620    5.2133
   10.650    5.2027
   10.680    5.4028
   10.710    5.1501
   10.740    4.7709
   10.770    5.3923
   10.800    5.2133
   10.830    4.9710
   10.860    5.0237
   10.890    4.8131
   10.920    5.0658
   10.950    5.0658
   10.980    5.2133
   11.010    4.8552
   11.040    5.2870
   11.070    4.7815
   11.100    5.0764
   11.130    5.2027
   11.160    5.0342
   11.190    4.8341
   11.220    4.8025
   11.250    5.0553
   11.280    4.9289
   11.310    4.9078
   11.340    4.9394
   11.370    4.8868
   11.400    4.9289
   11.430    4.8236
   11.460    5.2659
   11.490    4.6656
   11.520    4.4444
   11.550    4.8025
   11.580    5.3712
   11.610    4.8552
   11.640    5.0342
   11.670    4.7499
   11.700    4.7077
   11.730    4.9184
   11.760    4.8341
   11.790    4.6972
   11.820    4.8236
   11.850    4.9184
   11.880    4.2127
   11.910    4.5603
   11.940    5.0869
   11.970    4.7604
   12.000    4.7499
   12.030    4.6130
   12.060    4.9078
   12.090    4.7393
   12.120    5.0764
   12.150    4.8763
   12.180    4.7815
   12.210    5.0342
   12.240    4.6656
   12.270    4.7077
   12.300    4.5498
   12.330    4.9078
   12.360    4.7499
   12.390    4.6445
   12.420    4.7815
   12.450    4.5708
   12.480    4.8131
   12.510    4.9605
   12.540    4.8552
   12.570    4.7288
   12.600    4.6340
   12.630    4.5919
   12.660    5.1080
   12.690    4.5919
   12.720    4.7499
   12.750    4.4971
   12.780    4.9605
   12.810    4.8131
   12.840    4.7920
   12.870    4.6235
   12.900    4.4655
   12.930    4.7183
   12.960    4.5919
   12.990    4.6551
   13.020    4.5708
   13.050    4.6340
   13.080    4.8552
   13.110    4.5392
   13.140    4.4760
   13.170    4.5287
   13.200    4.4760
   13.230    4.6551
   13.260    4.5498
   13.290    4.6761
   13.320    4.5708
   13.350    4.8236
   13.380    4.4550
   13.410    4.4128
   13.440    4.4234
   13.470    4.3286
   13.500    4.6024
   13.530    4.5287
   13.560    4.4023
   13.590    4.5603
   13.620    4.2549
   13.650    4.4444
   13.680    4.6867
   13.710    4.4339
   13.740    4.4444
   13.770    4.3918
   13.800    4.8236
   13.830    4.5919
   13.860    4.5392
   13.890    4.5814
   13.920    4.4655
   13.950    4.6551
   13.980    4.6761
   14.010    4.4866
   14.040    4.7815
   14.070    4.6024
   14.100    4.8131
   14.130    4.5182
   14.160    4.6235
   14.190    4.8236
   14.220    4.9500
   14.250    4.6972
   14.280    4.9394
   14.310    4.5392
   14.340    4.3391
   14.370    4.4760
   14.400    4.6761
   14.430    4.7815
   14.460    4.3602
   14.490    4.8973
   14.520    4.4866
   14.550    4.4339
   14.580    4.4128
   14.610    4.9500
   14.640    4.2127
   14.670    4.6235
   14.700    4.3813
   14.730    4.4866
   14.760    4.5392
   14.790    4.4655
   14.820    4.7077
   14.850    4.4550
   14.880    4.4444
   14.910    4.5076
   14.940    4.6235
   14.970    4.2865
   15.000    5.0553
   15.030    4.6972
   15.060    4.3075
   15.090    4.3813
   15.120    4.3813
   15.150    4.6551
   15.180    4.5392
   15.210    4.7077
   15.240    4.6551
   15.270    4.5708
   15.300    4.8657
   15.330    4.4760
   15.360    4.6761
   15.390    4.3391
   15.420    4.7183
   15.450    4.3497
   15.480    4.7499
   15.510    4.6761
   15.540    4.4971
   15.570    4.8236
   15.600    4.5182
   15.630    4.9394
   15.660    4.7393
   15.690    4.7183
   15.720    4.4550
   15.750    4.6340
   15.780    4.8025
   15.810    4.7183
   15.840    4.6972
   15.870    5.0026
   15.900    4.7077
   15.930    4.5603
   15.960    4.5392
   15.990    4.9078
   16.020    4.6656
   16.050    4.6235
   16.080    4.7709
   16.110    4.5392
   16.140    4.5814
   16.170    4.7604
   16.200    4.6551
   16.230    4.8131
   16.260    4.6867
   16.290    4.7077
   16.320    4.7815
   16.350    4.6130
   16.380    4.9710
   16.410    4.7288
   16.440    4.6656
   16.470    4.6656
   16.500    4.4655
   16.530    4.8552
   16.560    4.6656
   16.590    4.7709
   16.620    4.4866
   16.650    4.7920
   16.680    4.6551
   16.710    4.5392
   16.740    4.6445
   16.770    4.7815
   16.800    4.8552
   16.830    4.2759
   16.860    4.2443
   16.890    4.4234
   16.920    4.6340
   16.950    4.6656
   16.980    4.4550
   17.010    4.5814
   17.040    4.3813
   17.070    4.3391
   17.100    4.4971
   17.130    4.3286
   17.160    4.6340
   17.190    4.6972
   17.220    4.3813
   17.250    4.4760
   17.280    4.7499
   17.310    4.6867
   17.340    4.3497
   17.370    5.0342
   17.400    4.7183
   17.430    4.8341
   17.460    4.8025
   17.490    4.6551
   17.520    4.7499
   17.550    4.5287
   17.580    4.9605
   17.610    4.7604
   17.640    4.5919
   17.670    4.4023
   17.700    4.5814
   17.730    4.5182
   17.760    4.5076
   17.790    4.8447
   17.820    4.8763
   17.850    4.5182
   17.880    4.7077
   17.910    4.6551
   17.940    4.8236
   17.970    4.7499
   18.000    4.5182
   18.030    4.7288
   18.060    4.6972
   18.090    4.8131
   18.120    4.6130
   18.150    4.7709
   18.180    4.4655
   18.210    4.3075
   18.240    4.5708
   18.270    4.4023
   18.300    4.2549
   18.330    4.6024
   18.360    4.4866
   18.390    4.8025
   18.420    4.5392
   18.450    4.6551
   18.480    4.7709
   18.510    4.7077
   18.540    4.6656
   18.570    4.8131
   18.600    4.8236
   18.630    4.8236
   18.660    4.3602
   18.690    4.6761
   18.720    4.9710
   18.750    4.8341
   18.780    4.8341
   18.810    5.1290
   18.840    4.6656
   18.870    4.9078
   18.900    5.2133
   18.930    6.0348
   18.960    5.5608
   18.990    5.4766
   19.020    5.9821
   19.050    5.3607
   19.080    5.0869
   19.110    4.6445
   19.140    4.7604
   19.170    4.9078
   19.200    4.3813
   19.230    4.5814
   19.260    4.4866
   19.290    4.5076
   19.320    5.0026
   19.350    4.5814
   19.380    4.6130
   19.410    4.4971
   19.440    4.5392
   19.470    4.8341
   19.500    4.5814
   19.530    4.6656
   19.560    4.6024
   19.590    4.8657
   19.620    4.5919
   19.650    4.4550
   19.680    4.9605
   19.710    4.7815
   19.740    5.2975
   19.770    4.9500
   19.800    4.8341
   19.830    4.8552
   19.860    4.8447
   19.890    4.7604
   19.920    4.4339
   19.950    4.9500
   19.980    4.7920
   20.010    4.6761
   20.040    4.8657
   20.070    5.0448
   20.100    5.1711
   20.130    4.4550
   20.160    5.0132
   20.190    4.5498
   20.220    5.0974
   20.250    4.6130
   20.280    4.7393
   20.310    4.7288
   20.340    4.4760
   20.370    5.0026
   20.400    4.7077
   20.430    4.7183
   20.460    4.6024
   20.490    4.7604
   20.520    4.4866
   20.550    4.6972
   20.580    5.0658
   20.610    4.6656
   20.640    4.9289
   20.670    4.6551
   20.700    4.5708
   20.730    4.5287
   20.760    4.6656
   20.790    5.0132
   20.820    4.8973
   20.850    4.8868
   20.880    4.7183
   20.910    4.7920
   20.940    5.0658
   20.970    4.7499
   21.000    4.7393
   21.030    4.8973
   21.060    4.6972
   21.090    4.7709
   21.120    4.7288
   21.150    4.7709
   21.180    4.7604
   21.210    4.7604
   21.240    5.1290
   21.270    4.5814
   21.300    4.8025
   21.330    4.7288
   21.360    4.5603
   21.390    4.8973
   21.420    4.9710
   21.450    5.1290
   21.480    4.8131
   21.510    4.9289
   21.540    4.8868
   21.570    4.7709
   21.600    5.1395
   21.630    4.5498
   21.660    4.9078
   21.690    4.8341
   21.720    4.8868
   21.750    4.7920
   21.780    4.9289
   21.810    4.6761
   21.840    5.0764
   21.870    4.8236
   21.900    4.5182
   21.930    4.7920
   21.960    4.7920
   21.990    5.0342
   22.020    4.7183
   22.050    4.6235
   22.080    5.0974
   22.110    4.9500
   22.140    4.9078
   22.170    5.1501
   22.200    4.8973
   22.230    4.9500
   22.260    4.8763
   22.290    5.0764
   22.320    4.9289
   22.350    5.0448
   22.380    4.7077
   22.410    4.9394
   22.440    4.8236
   22.470    4.7288
   22.500    5.0448
   22.530    4.6656
   22.560    5.3291
   22.590    5.1185
   22.620    4.8868
   22.650    4.9816
   22.680    4.5919
   22.710    5.0974
   22.740    4.8025
   22.770    4.9394
   22.800    4.5814
   22.830    4.8657
   22.860    4.4444
   22.890    4.7183
   22.920    4.8552
   22.950    5.0974
   22.980    5.0132
   23.010    4.8341
   23.040    5.0553
   23.070    5.0764
   23.100    5.0869
   23.130    5.0764
   23.160    4.6761
   23.190    5.0237
   23.220    4.7077
   23.250    4.9816
   23.280    4.7183
   23.310    4.4023
   23.340    4.6340
   23.370    4.7183
   23.400    4.7183
   23.430    5.1080
   23.460    4.5182
   23.490    4.9816
   23.520    4.8657
   23.550    4.5708
   23.580    5.0342
   23.610    4.9184
   23.640    5.0658
   23.670    4.5392
   23.700    4.4866
   23.730    4.9500
   23.760    4.8763
   23.790    4.8447
   23.820    4.6656
   23.850    4.8025
   23.880    4.9184
   23.910    4.8447
   23.940    4.4444
   23.970    4.7183
   24.000    4.8236
   24.030    4.9078
   24.060    4.7815
   24.090    4.6340
   24.120    4.7077
   24.150    4.5076
   24.180    4.8236
   24.210    4.2022
   24.240    4.9921
   24.270    4.7288
   24.300    4.7815
   24.330    4.5603
   24.360    4.5182
   24.390    4.6235
   24.420    4.7709
   24.450    4.6445
   24.480    4.7499
   24.510    5.0342
   24.540    4.7920
   24.570    4.7709
   24.600    4.7604
   24.630    4.8025
   24.660    4.6445
   24.690    4.4128
   24.720    4.6867
   24.750    4.6235
   24.780    4.7077
   24.810    4.4444
   24.840    4.4866
   24.870    4.1811
   24.900    4.8447
   24.930    4.7604
   24.960    5.2659
   24.990    4.7604
   25.020    5.0974
   25.050    4.8341
   25.080    4.4128
   25.110    4.6024
   25.140    4.7183
   25.170    4.5814
   25.200    4.5814
   25.230    4.7709
   25.260    4.7920
   25.290    4.6445
   25.320    4.6656
   25.350    4.7288
   25.380    4.8236
   25.410    4.8657
   25.440    4.6130
   25.470    4.5814
   25.500    4.8973
   25.530    4.9816
   25.560    4.5182
   25.590    4.8025
   25.620    4.4760
   25.650    4.2549
   25.680    4.7288
   25.710    4.2338
   25.740    4.8341
   25.770    4.6024
   25.800    4.4760
   25.830    4.3918
   25.860    4.7499
   25.890    4.6656
   25.920    4.5708
   25.950    4.5919
   25.980    4.9394
   26.010    4.7815
   26.040    4.4550
   26.070    4.8447
   26.100    4.6340
   26.130    4.3181
   26.160    4.5287
   26.190    4.3813
   26.220    4.5708
   26.250    4.4023
   26.280    4.7815
   26.310    4.4023
   26.340    4.4866
   26.370    4.6235
   26.400    4.4339
   26.430    4.7393
   26.460    4.7183
   26.490    4.7815
   26.520    4.6551
   26.550    4.1811
   26.580    4.4971
   26.610    4.2127
   26.640    4.3707
   26.670    4.5392
   26.700    4.5076
   26.730    4.3497
   26.760    4.3813
   26.790    4.5603
   26.820    4.3918
   26.850    4.2443
   26.880    4.5708
   26.910    4.6972
   26.940    4.2970
   26.970    4.5603
   27.000    4.4866
   27.030    4.6340
   27.060    4.5182
   27.090    4.1390
   27.120    4.5182
   27.150    4.0653
   27.180    4.1706
   27.210    4.5182
   27.240    4.4971
   27.270    4.4550
   27.300    4.4866
   27.330    4.2127
   27.360    4.6024
   27.390    4.1074
   27.420    4.2443
   27.450    4.4128
   27.480    4.3707
   27.510    4.3391
   27.540    4.2127
   27.570    4.2127
   27.600    4.6761
   27.630    4.2127
   27.660    4.2338
   27.690    4.3497
   27.720    4.4760
   27.750    4.2233
   27.780    4.2022
   27.810    4.6445
   27.840    4.1074
   27.870    4.4866
   27.900    4.8447
   27.930    4.8131
   27.960    5.2659
   27.990    5.3502
   28.020    5.3081
   28.050    5.0132
   28.080    4.8868
   28.110    4.8025
   28.140    4.2338
   28.170    4.3181
   28.200    4.1601
   28.230    4.3918
   28.260    4.0442
   28.290    4.1074
   28.320    4.2233
   28.350    4.3286
   28.380    4.2127
   28.410    4.5076
   28.440    4.4339
   28.470    4.3918
   28.500    4.3602
   28.530    4.0969
   28.560    4.2970
   28.590    4.2443
   28.620    4.2022
   28.650    4.5287
   28.680    4.1917
   28.710    4.1285
   28.740    4.3602
   28.770    4.2127
   28.800    4.2654
   28.830    4.4971
   28.860    4.7077
   28.890    4.6024
   28.920    4.9605
   28.950    4.7815
   28.980    4.9394
   29.010    4.6551
   29.040    4.5182
   29.070    4.2233
   29.100    4.5708
   29.130    4.7815
   29.160    4.1706
   29.190    4.2549
   29.220    4.1917
   29.250    3.9705
   29.280    4.4234
   29.310    4.0442
   29.340    4.1601
   29.370    3.8020
   29.400    4.2233
   29.430    4.1390
   29.460    4.0126
   29.490    4.2443
   29.520    4.1811
   29.550    4.2654
   29.580    4.1180
   29.610    3.6230
   29.640    4.2865
   29.670    4.1601
   29.700    4.3075
   29.730    4.0548
   29.760    3.7915
   29.790    4.1285
   29.820    4.1180
   29.850    4.1706
   29.880    4.2549
   29.910    4.0758
   29.940    4.0337
   29.970    4.4023
   30.000    4.1811
   30.030    4.2970
   30.060    4.2233
   30.090    4.1390
   30.120    4.3181
   30.150    4.2022
   30.180    3.9494
   30.210    3.9284
   30.240    4.3813
   30.270    4.4023
   30.300    3.8547
   30.330    4.2338
   30.360    4.3813
   30.390    4.0758
   30.420    4.2865
   30.450    4.3075
   30.480    4.0758
   30.510    3.8757
   30.540    4.0126
   30.570    3.9705
   30.600    4.1285
   30.630    4.1390
   30.660    3.7599
   30.690    4.3075
   30.720    4.2549
   30.750    3.4966
   30.780    4.0337
   30.810    4.2022
   30.840    3.7493
   30.870    3.6440
   30.900    4.0337
   30.930    4.0758
   30.960    3.8968
   30.990    4.0864
   31.020    4.1706
   31.050    3.8652
   31.080    4.0758
   31.110    3.9705
   31.140    3.6756
   31.170    3.8652
   31.200    4.0864
   31.230    4.1180
   31.260    3.9073
   31.290    4.0864
   31.320    3.9705
   31.350    4.0021
   31.380    3.6124
   31.410    3.8336
   31.440    3.9916
   31.470    3.6862
   31.500    3.9600
   31.530    3.9179
   31.560    3.9810
   31.590    3.9810
   31.620    3.7809
   31.650    4.1601
   31.680    4.1811
   31.710    4.0548
   31.740    4.4971
   31.770    4.2233
   31.800    4.2233
   31.830    4.0864
   31.860    4.2970
   31.890    3.8757
   31.920    4.0337
   31.950    4.3075
   31.980    4.3602
   32.010    5.0974
   32.040    5.5187
   32.070    5.9716
   32.100    5.5608
   32.130    5.7609
   32.160    5.4555
   32.190    4.7709
   32.220    4.2443
   32.250    3.9284
   32.280    4.3286
   32.310    3.5703
   32.340    3.8441
   32.370    4.0758
   32.400    3.9916
   32.430    4.0864
   32.460    3.9705
   32.490    3.7599
   32.520    3.8863
   32.550    3.6651
   32.580    3.9494
   32.610    3.7704
   32.640    4.0758
   32.670    3.6335
   32.700    3.7704
   32.730    3.7599
   32.760    3.8757
   32.790    3.5492
   32.820    3.4755
   32.850    3.7177
   32.880    3.6546
   32.910    3.6862
   32.940    3.4334
   32.970    4.0442
   33.000    3.7704
   33.030    3.4755
   33.060    3.6546
   33.090    3.6335
   33.120    3.7283
   33.150    3.8863
   33.180    3.8125
   33.210    4.0126
   33.240    3.7915
   33.270    3.5387
   33.300    3.4755
   33.330    3.6335
   33.360    3.2333
   33.390    3.7283
   33.420    3.7493
   33.450    3.8231
   33.480    3.7915
   33.510    3.7493
   33.540    3.4860
   33.570    3.7704
   33.600    3.7704
   33.630    3.5808
   33.660    3.8125
   33.690    4.0232
   33.720    3.8547
   33.750    4.1706
   33.780    4.3707
   33.810    4.4023
   33.840    4.5603
   33.870    4.3391
   33.900    4.1601
   33.930    3.9705
   33.960    3.7493
   33.990    3.8125
   34.020    3.8020
   34.050    3.6967
   34.080    3.5071
   34.110    3.8336
   34.140    3.6440
   34.170    3.6019
   34.200    3.4544
   34.230    3.4439
   34.260    3.5598
   34.290    3.5282
   34.320    3.6862
   34.350    3.4544
   34.380    3.4018
   34.410    3.5703
   34.440    3.3807
   34.470    3.3702
   34.500    3.5808
   34.530    3.7177
   34.560    3.4650
   34.590    3.7177
   34.620    3.3702
   34.650    3.3281
   34.680    3.5071
   34.710    3.5071
   34.740    3.3702
   34.770    3.3702
   34.800    3.6019
   34.830    3.5808
   34.860    3.4755
   34.890    3.3702
   34.920    3.3070
   34.950    3.4123
   34.980    3.5808
   35.010    3.4755
   35.040    3.5387
   35.070    3.2965
   35.100    3.5703
   35.130    3.4334
   35.160    3.0121
   35.190    3.4966
   35.220    3.2122
   35.250    3.6124
   35.280    3.5282
   35.310    3.4123
   35.340    3.3070
   35.370    3.2754
   35.400    3.5703
   35.430    3.2965
   35.460    3.2543
   35.490    3.3070
   35.520    3.3807
   35.550    3.3175
   35.580    3.6546
   35.610    3.2965
   35.640    3.3070
   35.670    3.6124
   35.700    3.5598
   35.730    3.1069
   35.760    3.4544
   35.790    3.1174
   35.820    3.1280
   35.850    3.3070
   35.880    3.2649
   35.910    3.3491
   35.940    3.4439
   35.970    3.4123
   36.000    3.1806
   36.030    3.2649
   36.060    3.4123
   36.090    3.5492
   36.120    3.2965
   36.150    3.4650
   36.180    3.2965
   36.210    3.0858
   36.240    3.2227
   36.270    3.1596
   36.300    3.1806
   36.330    3.2438
   36.360    3.2227
   36.390    3.1174
   36.420    3.1701
   36.450    3.4018
   36.480    3.1806
   36.510    3.0753
   36.540    3.7809
   36.570    3.2649
   36.600    3.2649
   36.630    3.3597
   36.660    3.2017
   36.690    3.0964
   36.720    3.2227
   36.750    3.3913
   36.780    3.2543
   36.810    3.0121
   36.840    3.1596
   36.870    3.0964
   36.900    3.0016
   36.930    3.1596
   36.960    3.1806
   36.990    3.3491
   37.020    3.4018
   37.050    3.4018
   37.080    3.0542
   37.110    3.2017
   37.140    3.2227
   37.170    3.1806
   37.200    3.2754
   37.230    3.0121
   37.260    3.1701
   37.290    3.2122
   37.320    3.1069
   37.350    3.2649
   37.380    3.2017
   37.410    3.0648
   37.440    2.9595
   37.470    3.2754
   37.500    3.0332
   37.530    3.2859
   37.560    2.9700
   37.590    3.2438
   37.620    3.1912
   37.650    3.2754
   37.680    3.1596
   37.710    3.1490
   37.740    3.4966
   37.770    3.3070
   37.800    3.0964
   37.830    3.0332
   37.860    3.5387
   37.890    3.1174
   37.920    3.3281
   37.950    3.1385
   37.980    3.3175
   38.010    3.4755
   38.040    3.0542
   38.070    3.0753
   38.100    3.3175
   38.130    3.0858
   38.160    3.2122
   38.190    3.3386
   38.220    3.0437
   38.250    3.4334
   38.280    2.9910
   38.310    3.2017
   38.340    3.5071
   38.370    3.4650
   38.400    3.2543
   38.430    3.2333
   38.460    3.2754
   38.490    3.2859
   38.520    3.2965
   38.550    3.5176
   38.580    3.6124
   38.610    3.5387
   38.640    3.5914
   38.670    3.6230
   38.700    3.4439
   38.730    3.1912
   38.760    3.2859
   38.790    3.2017
   38.820    2.9700
   38.850    3.4544
   38.880    3.0332
   38.910    3.3913
   38.940    3.6124
   38.970    3.1701
   39.000    3.0753
   39.030    3.2438
   39.060    3.2438
   39.090    3.2122
   39.120    3.2754
   39.150    3.1596
   39.180    3.0964
   39.210    3.1912
   39.240    3.1490
   39.270    3.1806
   39.300    3.0858
   39.330    3.2227
   39.360    3.0858
   39.390    3.2965
   39.420    3.3386
   39.450    3.1806
   39.480    3.0121
   39.510    3.1806
   39.540    3.2859
   39.570    3.0964
   39.600    2.9805
   39.630    3.2122
   39.660    3.2227
   39.690    3.3386
   39.720    3.4334
   39.750    3.1280
   39.780    3.0648
   39.810    2.9910
   39.840    3.3070
   39.870    3.3491
   39.900    3.2333
   39.930    3.0648
   39.960    3.2333
   39.990    2.8541