File: data/PXRD/PXRD_KE-305-2F_Cu-Ka1_capillary-1mm_3s-deg.xyd
    1.500   20.6600
    1.530   19.9228
    1.560   20.2563
    1.590   18.8696
    1.620   17.9744
    1.650   18.7292
    1.680   18.2201
    1.710   17.3425
    1.740   17.3600
    1.770   17.4127
    1.800   16.2191
    1.830   17.0441
    1.860   15.6925
    1.890   16.3419
    1.920   16.1313
    1.950   14.1478
    1.980   14.5866
    2.010   15.6047
    2.040   15.0255
    2.070   14.7095
    2.100   14.6393
    2.130   14.5691
    2.160   14.2356
    2.190   14.2531
    2.220   13.7616
    2.250   14.5515
    2.280   13.7441
    2.310   13.4106
    2.340   13.7967
    2.370   13.5159
    2.400   13.5510
    2.430   14.2180
    2.460   14.0951
    2.490   14.5515
    2.520   14.2531
    2.550   15.0255
    2.580   14.2180
    2.610   15.1659
    2.640   15.6574
    2.670   14.6042
    2.700   15.0079
    2.730   15.4818
    2.760   15.6047
    2.790   16.2366
    2.820   16.9914
    2.850   17.7988
    2.880   17.8164
    2.910   18.5010
    2.940   18.0446
    2.970   19.5015
    3.000   20.2212
    3.030   20.8706
    3.060   21.6430
    3.090   22.3626
    3.120   22.5733
    3.150   23.5212
    3.180   25.4169
    3.210   26.6280
    3.240   27.8919
    3.270   29.7525
    3.300   30.5248
    3.330   33.2105
    3.360   36.2120
    3.390   37.7392
    3.420   38.9854
    3.450   42.7945
    3.480   48.4641
    3.510   50.2545
    3.540   55.4151
    3.570   60.4178
    3.600   66.6316
    3.630   74.0916
    3.660   82.3240
    3.690   94.8745
    3.720  110.0579
    3.750  130.3844
    3.780  157.8726
    3.810  212.0590
    3.840  262.5768
    3.870  208.7414
    3.900  106.4595
    3.930   34.0179
    3.960   15.4116
    3.990   11.3744
    4.020   10.2335
    4.050    8.9696
    4.080    8.4957
    4.110    8.7941
    4.140    8.4255
    4.170    8.4255
    4.200    8.3377
    4.230    7.6883
    4.260    7.6707
    4.290    7.7409
    4.320    7.8989
    4.350    8.0744
    4.380    7.2670
    4.410    7.5478
    4.440    8.0569
    4.470    7.9340
    4.500    7.8287
    4.530    7.7585
    4.560    8.5133
    4.590    8.1622
    4.620    8.2324
    4.650    8.5308
    4.680    8.6010
    4.710    8.6186
    4.740    8.8994
    4.770    9.4085
    4.800    9.3382
    4.830    9.6893
    4.860    9.8297
    4.890   10.4090
    4.920   11.0760
    4.950   11.2164
    4.980   12.0414
    5.010   11.4622
    5.040   13.4281
    5.070   14.9201
    5.100   15.1308
    5.130   16.4473
    5.160   17.3425
    5.190   18.9573
    5.220   21.3621
    5.250   23.2227
    5.280   25.5749
    5.310   28.8748
    5.340   33.4211
    5.370   39.0381
    5.400   48.1833
    5.430   64.9640
    5.460   81.9028
    5.490   69.8438
    5.520   40.4774
    5.550   16.9212
    5.580    9.8999
    5.610    8.2149
    5.640    7.2143
    5.670    7.4776
    5.700    7.0915
    5.730    6.5473
    5.760    7.0388
    5.790    6.8984
    5.820    7.2845
    5.850    6.7755
    5.880    6.8984
    5.910    7.2670
    5.940    6.4420
    5.970    6.2138
    6.000    6.4069
    6.030    7.1090
    6.060    6.8984
    6.090    6.3542
    6.120    7.1090
    6.150    7.1968
    6.180    7.3372
    6.210    7.0212
    6.240    7.6532
    6.270    7.3547
    6.300    7.7058
    6.330    8.1622
    6.360    8.2500
    6.390    8.6010
    6.420    8.8994
    6.450    9.0398
    6.480    9.7946
    6.510   10.5143
    6.540   11.5324
    6.570   11.8483
    6.600   13.7265
    6.630   16.1840
    6.660   19.2557
    6.690   24.4690
    6.720   25.9786
    6.750   20.6775
    6.780   12.0414
    6.810    7.3899
    6.840    6.2665
    6.870    6.2489
    6.900    6.4595
    6.930    6.3016
    6.960    6.2489
    6.990    6.1436
    7.020    6.3367
    7.050    6.7228
    7.080    6.2840
    7.110    6.3893
    7.140    6.5473
    7.170    6.3367
    7.200    6.2840
    7.230    6.6000
    7.260    6.2138
    7.290    6.6877
    7.320    6.0558
    7.350    6.6175
    7.380    6.3016
    7.410    6.9335
    7.440    7.2143
    7.470    7.8287
    7.500    7.6356
    7.530    7.6005
    7.560    8.9872
    7.590    8.7941
    7.620    9.7420
    7.650   10.8127
    7.680   12.4978
    7.710   15.3590
    7.740   19.3084
    7.770   20.5020
    7.800   16.2717
    7.830   10.5845
    7.860    6.9335
    7.890    6.2313
    7.920    5.8101
    7.950    6.2840
    7.980    6.3367
    8.010    5.8803
    8.040    5.6697
    8.070    5.6345
    8.100    5.8101
    8.130    5.7048
    8.160    5.5819
    8.190    5.9329
    8.220    6.0909
    8.250    5.7223
    8.280    5.9329
    8.310    5.6345
    8.340    5.7925
    8.370    5.8452
    8.400    5.9856
    8.430    6.6526
    8.460    5.8627
    8.490    6.0734
    8.520    5.4590
    8.550    6.4946
    8.580    6.3367
    8.610    6.8808
    8.640    6.9510
    8.670    7.5127
    8.700    7.9516
    8.730    7.4776
    8.760    6.1260
    8.790    6.0909
    8.820    5.9856
    8.850    5.8627
    8.880    6.3016
    8.910    5.9154
    8.940    5.6697
    8.970    5.2659
    9.000    6.0909
    9.030    5.5819
    9.060    6.7930
    9.090    6.7053
    9.120    6.7404
    9.150    6.2489
    9.180    6.6351
    9.210    7.3547
    9.240    8.2500
    9.270    8.9696
    9.300    9.5489
    9.330   10.8654
    9.360   11.3393
    9.390   13.2526
    9.420   14.7095
    9.450   19.2733
    9.480   23.8371
    9.510   33.0876
    9.540   33.4562
    9.570   26.2770
    9.600   14.3233
    9.630    8.2675
    9.660    6.2313
    9.690    6.1611
    9.720    5.9329
    9.750    6.0207
    9.780    5.8803
    9.810    5.5468
    9.840    5.9681
    9.870    6.3191
    9.900    6.1260
    9.930    6.1436
    9.960    6.4771
    9.990    6.7228
   10.020    6.5122
   10.050    6.4069
   10.080    6.9510
   10.110    7.2845
   10.140    7.9867
   10.170    8.4781
   10.200    9.5664
   10.230   11.9186
   10.260   13.4983
   10.290   17.0265
   10.320   16.1489
   10.350   11.9888
   10.380    7.5478
   10.410    6.5298
   10.440    5.4239
   10.470    5.9681
   10.500    5.4941
   10.530    5.3010
   10.560    5.5994
   10.590    5.6697
   10.620    5.3537
   10.650    6.2489
   10.680    5.8101
   10.710    6.2138
   10.740    5.6872
   10.770    5.7574
   10.800    6.3542
   10.830    6.7579
   10.860    6.8808
   10.890    6.6877
   10.920    8.1095
   10.950    9.7069
   10.980   11.0760
   11.010   13.3579
   11.040   12.4627
   11.070    9.9526
   11.100    7.5127
   11.130    6.2489
   11.160    5.6872
   11.190    5.4064
   11.220    5.5292
   11.250    5.4239
   11.280    5.5643
   11.310    5.8101
   11.340    5.4766
   11.370    5.4415
   11.400    5.6697
   11.430    6.0207
   11.460    6.4420
   11.490    6.4244
   11.520    6.8808
   11.550    7.4601
   11.580    7.8111
   11.610    8.5308
   11.640   11.4797
   11.670   13.6037
   11.700   13.9723
   11.730   12.6207
   11.760    8.8994
   11.790    6.2840
   11.820    5.6521
   11.850    5.7399
   11.880    5.6170
   11.910    5.0377
   11.940    5.3010
   11.970    5.2659
   12.000    5.4415
   12.030    5.4766
   12.060    5.2659
   12.090    5.3712
   12.120    5.5117
   12.150    5.5994
   12.180    5.3888
   12.210    5.8627
   12.240    5.9154
   12.270    6.1436
   12.300    6.4069
   12.330    6.3542
   12.360    6.9159
   12.390    6.2665
   12.420    5.4415
   12.450    5.1957
   12.480    5.8627
   12.510    5.2308
   12.540    5.0026
   12.570    5.4766
   12.600    5.1606
   12.630    5.7399
   12.660    5.4766
   12.690    5.4415
   12.720    5.3010
   12.750    5.8452
   12.780    6.9686
   12.810    6.7579
   12.840    7.1090
   12.870    7.6883
   12.900    9.3558
   12.930   10.5670
   12.960   10.6196
   12.990    8.4255
   13.020    6.5473
   13.050    5.4941
   13.080    5.8803
   13.110    5.0377
   13.140    5.7223
   13.170    5.3186
   13.200    5.2133
   13.230    4.9851
   13.260    4.8095
   13.290    5.0377
   13.320    5.5819
   13.350    5.2484
   13.380    5.5994
   13.410    5.9505
   13.440    5.9329
   13.470    7.0563
   13.500    7.3196
   13.530    7.8989
   13.560    6.8984
   13.590    5.8452
   13.620    5.4239
   13.650    5.2659
   13.680    4.9675
   13.710    5.8452
   13.740    4.9675
   13.770    6.0383
   13.800    5.5819
   13.830    5.7750
   13.860    5.4415
   13.890    5.9154
   13.920    5.7750
   13.950    6.2840
   13.980    7.4425
   14.010    7.3723
   14.040    9.1627
   14.070   10.6547
   14.100    9.9877
   14.130    8.1973
   14.160    6.4069
   14.190    5.8803
   14.220    5.0377
   14.250    5.1606
   14.280    5.2484
   14.310    5.0377
   14.340    5.1782
   14.370    5.3537
   14.400    5.3361
   14.430    4.7569
   14.460    5.5819
   14.490    5.0202
   14.520    5.1431
   14.550    4.9851
   14.580    4.9851
   14.610    5.1782
   14.640    4.6340
   14.670    4.8095
   14.700    5.3537
   14.730    5.4239
   14.760    5.1782
   14.790    5.5117
   14.820    5.0026
   14.850    5.2484
   14.880    5.0377
   14.910    5.1782
   14.940    5.2835
   14.970    5.1606
   15.000    5.6170
   15.030    5.3712
   15.060    5.7750
   15.090    5.2133
   15.120    6.0383
   15.150    5.7750
   15.180    5.3888
   15.210    5.3537
   15.240    4.8447
   15.270    5.3888
   15.300    5.0904
   15.330    4.9500
   15.360    5.3537
   15.390    4.5989
   15.420    4.8447
   15.450    5.0904
   15.480    5.4415
   15.510    5.0377
   15.540    5.0377
   15.570    5.2308
   15.600    4.9675
   15.630    5.4064
   15.660    4.8622
   15.690    5.1606
   15.720    5.1255
   15.750    5.6872
   15.780    5.0904
   15.810    5.3361
   15.840    5.0553
   15.870    5.4590
   15.900    5.4239
   15.930    4.9851
   15.960    5.3361
   15.990    4.9851
   16.020    5.8627
   16.050    5.5292
   16.080    5.9505
   16.110    6.1085
   16.140    6.2138
   16.170    6.0383
   16.200    6.0383
   16.230    4.8447
   16.260    4.8447
   16.290    4.6691
   16.320    4.8447
   16.350    5.4766
   16.380    5.1957
   16.410    4.7744
   16.440    4.9324
   16.470    4.9324
   16.500    5.8978
   16.530    6.1962
   16.560    6.1962
   16.590    6.3718
   16.620    6.2489
   16.650    6.4069
   16.680    5.4766
   16.710    5.3888
   16.740    5.4239
   16.770    5.5117
   16.800    5.3010
   16.830    5.4941
   16.860    5.2133
   16.890    5.6345
   16.920    5.7223
   16.950    6.4771
   16.980    6.7755
   17.010    7.6532
   17.040    8.7590
   17.070    8.6888
   17.100    8.1973
   17.130    6.4069
   17.160    5.6170
   17.190    5.2308
   17.220    5.0728
   17.250    5.4064
   17.280    5.0377
   17.310    4.6516
   17.340    5.4590
   17.370    5.2133
   17.400    5.7223
   17.430    5.3537
   17.460    5.8452
   17.490    5.5468
   17.520    6.3191
   17.550    5.9329
   17.580    5.5117
   17.610    4.9851
   17.640    5.7048
   17.670    5.1255
   17.700    5.2484
   17.730    4.7920
   17.760    5.2659
   17.790    5.5292
   17.820    5.1255
   17.850    5.5819
   17.880    5.5292
   17.910    5.8276
   17.940    6.3542
   17.970    6.3893
   18.000    6.1436
   18.030    5.5819
   18.060    5.0377
   18.090    5.1080
   18.120    4.9324
   18.150    5.7925
   18.180    4.6867
   18.210    5.3888
   18.240    5.2133
   18.270    5.2308
   18.300    5.3186
   18.330    5.5994
   18.360    5.1957
   18.390    5.5819
   18.420    5.6170
   18.450    5.6521
   18.480    5.1957
   18.510    5.8101
   18.540    5.1606
   18.570    5.2308
   18.600    4.8622
   18.630    5.2133
   18.660    5.3888
   18.690    5.4415
   18.720    5.7574
   18.750    5.4766
   18.780    5.4415
   18.810    5.9505
   18.840    5.7048
   18.870    5.4590
   18.900    5.8452
   18.930    5.0728
   18.960    5.1255
   18.990    4.7218
   19.020    4.9851
   19.050    5.0904
   19.080    4.6867
   19.110    5.0377
   19.140    5.3888
   19.170    5.2308
   19.200    5.4064
   19.230    5.3712
   19.260    5.4239
   19.290    5.2484
   19.320    5.1606
   19.350    4.9324
   19.380    5.1431
   19.410    5.5117
   19.440    5.1606
   19.470    5.4064
   19.500    5.2484
   19.530    5.6697
   19.560    6.1085
   19.590    6.1260
   19.620    6.2665
   19.650    5.8627
   19.680    5.5994
   19.710    5.7925
   19.740    5.4415
   19.770    5.2659
   19.800    5.3010
   19.830    5.0553
   19.860    5.2659
   19.890    5.1080
   19.920    5.0026
   19.950    5.0904
   19.980    5.2659
   20.010    5.5643
   20.040    5.0377
   20.070    5.1080
   20.100    5.5117
   20.130    5.1782
   20.160    5.3888
   20.190    4.8447
   20.220    5.3712
   20.250    5.5643
   20.280    6.5473
   20.310    6.4244
   20.340    7.4776
   20.370    8.1622
   20.400    7.8638
   20.430    8.1271
   20.460    6.7755
   20.490    5.9856
   20.520    5.4941
   20.550    5.3186
   20.580    4.9500
   20.610    5.2484
   20.640    4.8271
   20.670    4.9675
   20.700    5.3010
   20.730    5.3361
   20.760    5.6345
   20.790    5.3888
   20.820    5.5643
   20.850    4.8095
   20.880    4.9149
   20.910    5.2659
   20.940    5.2308
   20.970    5.2484
   21.000    5.0377
   21.030    5.3888
   21.060    4.8622
   21.090    5.7048
   21.120    5.1606
   21.150    5.0202
   21.180    5.1255
   21.210    5.3712
   21.240    4.6691
   21.270    5.3010
   21.300    5.1431
   21.330    5.1782
   21.360    5.3361
   21.390    5.5819
   21.420    5.2484
   21.450    5.4415
   21.480    4.7218
   21.510    5.1606
   21.540    5.2484
   21.570    4.9149
   21.600    5.3888
   21.630    5.2484
   21.660    4.7569
   21.690    5.5292
   21.720    5.1957
   21.750    5.8627
   21.780    5.5819
   21.810    5.9856
   21.840    6.5649
   21.870    6.2489
   21.900    6.4069
   21.930    6.1260
   21.960    5.4590
   21.990    5.1255
   22.020    5.6170
   22.050    5.5643
   22.080    5.2835
   22.110    5.3010
   22.140    5.2835
   22.170    6.3893
   22.200    6.1611
   22.230    6.6000
   22.260    5.7048
   22.290    5.7574
   22.320    5.4941
   22.350    5.3537
   22.380    5.4590
   22.410    5.2835
   22.440    6.1787
   22.470    6.5298
   22.500    7.2670
   22.530    8.3904
   22.560    8.7590
   22.590    8.7765
   22.620    7.9516
   22.650    7.3899
   22.680    6.3016
   22.710    6.0032
   22.740    5.2308
   22.770    5.8101
   22.800    6.3016
   22.830    6.8633
   22.860    7.5478
   22.890    8.5835
   22.920    8.4430
   22.950    8.1797
   22.980    7.2494
   23.010    6.1787
   23.040    5.5819
   23.070    5.7223
   23.100    5.1957
   23.130    5.6170
   23.160    5.8101
   23.190    5.8803
   23.220    5.9154
   23.250    5.9681
   23.280    6.5649
   23.310    6.1085
   23.340    6.0207
   23.370    5.7223
   23.400    5.4766
   23.430    5.4766
   23.460    5.4415
   23.490    5.6170
   23.520    5.4064
   23.550    6.0383
   23.580    5.4064
   23.610    5.3361
   23.640    5.3537
   23.670    5.3888
   23.700    5.4766
   23.730    5.0728
   23.760    5.4064
   23.790    5.4239
   23.820    5.0728
   23.850    6.0909
   23.880    6.0734
   23.910    6.6000
   23.940    6.0909
   23.970    5.8978
   24.000    5.7925
   24.030    5.2133
   24.060    5.0202
   24.090    5.1782
   24.120    5.3361
   24.150    5.0728
   24.180    5.3361
   24.210    5.9505
   24.240    5.5643
   24.270    5.0553
   24.300    4.9149
   24.330    5.2484
   24.360    4.8973
   24.390    4.8798
   24.420    5.1606
   24.450    5.1957
   24.480    5.2484
   24.510    5.6170
   24.540    5.4239
   24.570    5.9329
   24.600    5.1606
   24.630    5.0553
   24.660    5.3888
   24.690    5.0377
   24.720    5.0728
   24.750    4.8798
   24.780    5.5292
   24.810    4.8271
   24.840    4.8095
   24.870    5.0377
   24.900    5.2835
   24.930    4.7920
   24.960    4.9500
   24.990    5.0553
   25.020    5.1782
   25.050    5.4239
   25.080    4.9500
   25.110    5.3888
   25.140    5.6170
   25.170    5.5994
   25.200    5.5292
   25.230    5.4941
   25.260    5.4064
   25.290    4.7042
   25.320    5.3712
   25.350    5.0728
   25.380    5.1606
   25.410    5.0026
   25.440    5.7399
   25.470    5.3888
   25.500    5.9681
   25.530    5.6697
   25.560    5.3712
   25.590    5.7048
   25.620    5.3537
   25.650    5.4590
   25.680    5.0202
   25.710    5.6521
   25.740    6.3542
   25.770    6.6351
   25.800    7.3899
   25.830    7.9867
   25.860    7.7585
   25.890    7.1441
   25.920    6.4069
   25.950    5.7048
   25.980    5.1606
   26.010    4.8973
   26.040    5.1431
   26.070    5.6697
   26.100    5.1606
   26.130    5.1782
   26.160    4.8095
   26.190    4.8095
   26.220    4.7042
   26.250    5.4064
   26.280    5.0728
   26.310    5.0553
   26.340    5.3537
   26.370    5.7925
   26.400    5.6521
   26.430    6.1085
   26.460    5.7574
   26.490    5.3361
   26.520    5.2484
   26.550    5.1782
   26.580    4.7218
   26.610    5.0553
   26.640    5.1255
   26.670    5.2484
   26.700    4.8798
   26.730    4.6691
   26.760    4.9324
   26.790    5.4064
   26.820    5.1080
   26.850    4.9675
   26.880    4.9500
   26.910    5.5292
   26.940    5.1957
   26.970    5.5117
   27.000    5.8803
   27.030    5.7574
   27.060    6.2489
   27.090    5.7223
   27.120    5.1080
   27.150    5.5468
   27.180    4.5287
   27.210    5.2308
   27.240    4.6165
   27.270    4.7744
   27.300    5.0202
   27.330    4.8973
   27.360    5.0553
   27.390    4.8271
   27.420    4.8271
   27.450    5.2308
   27.480    4.8271
   27.510    5.3537
   27.540    5.0904
   27.570    5.1782
   27.600    5.4590
   27.630    5.3888
   27.660    5.4239
   27.690    5.5468
   27.720    4.8271
   27.750    4.8095
   27.780    5.3010
   27.810    5.1431
   27.840    5.0377
   27.870    5.1606
   27.900    5.0377
   27.930    5.3010
   27.960    5.4239
   27.990    5.1957
   28.020    5.0904
   28.050    5.1080
   28.080    4.9500
   28.110    5.2835
   28.140    5.7048
   28.170    6.1260
   28.200    6.0383
   28.230    5.6521
   28.260    5.7223
   28.290    5.3010
   28.320    5.1255
   28.350    5.2484
   28.380    4.9675
   28.410    5.5819
   28.440    6.1962
   28.470    5.8276
   28.500    5.9681
   28.530    5.4766
   28.560    5.5468
   28.590    4.8622
   28.620    5.0026
   28.650    4.4409
   28.680    4.9500
   28.710    5.1080
   28.740    4.9851
   28.770    4.9324
   28.800    4.8622
   28.830    4.5638
   28.860    4.7569
   28.890    4.6340
   28.920    5.0026
   28.950    4.8447
   28.980    4.6340
   29.010    4.6340
   29.040    5.5117
   29.070    4.7569
   29.100    5.1080
   29.130    5.0553
   29.160    4.5638
   29.190    4.9149
   29.220    5.2484
   29.250    5.7399
   29.280    5.7574
   29.310    5.6345
   29.340    5.1606
   29.370    4.9149
   29.400    5.1782
   29.430    4.9500
   29.460    5.6170
   29.490    4.7218
   29.520    4.5463
   29.550    4.8973
   29.580    5.0026
   29.610    4.3883
   29.640    4.3356
   29.670    4.5463
   29.700    4.6691
   29.730    4.5989
   29.760    4.9675
   29.790    4.7920
   29.820    5.0026
   29.850    5.0904
   29.880    5.5643
   29.910    4.8271
   29.940    5.0728
   29.970    4.3707
   30.000    4.7744
   30.030    5.0728
   30.060    5.5292
   30.090    4.8271
   30.120    4.8095
   30.150    4.8271
   30.180    4.4936
   30.210    4.3707
   30.240    4.9851
   30.270    4.3883
   30.300    4.8973
   30.330    4.7393
   30.360    4.6867
   30.390    4.7569
   30.420    5.0202
   30.450    4.8271
   30.480    4.7744
   30.510    4.7042
   30.540    4.6867
   30.570    4.9149
   30.600    4.6867
   30.630    4.8095
   30.660    4.7920
   30.690    5.2835
   30.720    4.5814
   30.750    4.6516
   30.780    4.7042
   30.810    4.4936
   30.840    4.4936
   30.870    4.5638
   30.900    4.9324
   30.930    4.7569
   30.960    4.1250
   30.990    4.6691
   31.020    4.5111
   31.050    4.6340
   31.080    4.0548
   31.110    4.2303
   31.140    4.4585
   31.170    4.6516
   31.200    4.4234
   31.230    4.5287
   31.260    4.7393
   31.290    4.5989
   31.320    4.6516
   31.350    4.7218
   31.380    4.5814
   31.410    4.7042
   31.440    4.6516
   31.470    4.5463
   31.500    4.8095
   31.530    4.5814
   31.560    4.8447
   31.590    4.5814
   31.620    4.7569
   31.650    4.8798
   31.680    4.7218
   31.710    5.3361
   31.740    5.4766
   31.770    5.0904
   31.800    5.6170
   31.830    5.0026
   31.860    5.1782
   31.890    5.0026
   31.920    5.0202
   31.950    4.8271
   31.980    4.8622
   32.010    4.7920
   32.040    4.4936
   32.070    4.5989
   32.100    5.2133
   32.130    4.4585
   32.160    4.7744
   32.190    4.4058
   32.220    4.6691
   32.250    4.5814
   32.280    4.2478
   32.310    4.2654
   32.340    4.3532
   32.370    4.4234
   32.400    4.3707
   32.430    4.3005
   32.460    4.3356
   32.490    4.4760
   32.520    4.3883
   32.550    3.8090
   32.580    4.3356
   32.610    4.4234
   32.640    4.5287
   32.670    4.2830
   32.700    4.1074
   32.730    4.2830
   32.760    4.1952
   32.790    4.4234
   32.820    4.3532
   32.850    4.5287
   32.880    4.3532
   32.910    4.8095
   32.940    4.7569
   32.970    4.4234
   33.000    4.7218
   33.030    4.4234
   33.060    4.0899
   33.090    3.4580
   33.120    4.3532
   33.150    4.2830
   33.180    3.9846
   33.210    4.1952
   33.240    4.7393
   33.270    4.0548
   33.300    4.1601
   33.330    4.3707
   33.360    4.2478
   33.390    4.4936
   33.420    4.2127
   33.450    4.2478
   33.480    4.0899
   33.510    4.0372
   33.540    4.3181
   33.570    4.2830
   33.600    4.0021
   33.630    4.4585
   33.660    4.1952
   33.690    4.0021
   33.720    4.3532
   33.750    4.6516
   33.780    4.5463
   33.810    4.3883
   33.840    4.7042
   33.870    5.0553
   33.900    4.8622
   33.930    4.6867
   33.960    5.0377
   33.990    5.1255
   34.020    4.8447
   34.050    4.9500
   34.080    3.9494
   34.110    4.1776
   34.140    4.1952
   34.170    4.2478
   34.200    4.5814
   34.230    4.3005
   34.260    4.1250
   34.290    4.3532
   34.320    3.8617
   34.350    4.4234
   34.380    4.1952
   34.410    4.3883
   34.440    4.3005
   34.470    3.8792
   34.500    3.8792
   34.530    4.2303
   34.560    4.4234
   34.590    3.7915
   34.620    4.0021
   34.650    3.9846
   34.680    4.2830
   34.710    3.8266
   34.740    4.0021
   34.770    4.0372
   34.800    3.7739
   34.830    3.9670
   34.860    4.5814
   34.890    4.1601
   34.920    4.1952
   34.950    4.0197
   34.980    3.7739
   35.010    4.1776
   35.040    3.8266
   35.070    4.0197
   35.100    4.0021
   35.130    4.2127
   35.160    3.9846
   35.190    4.2127
   35.220    4.3883
   35.250    4.0021
   35.280    3.9319
   35.310    3.9319
   35.340    3.9143
   35.370    3.6159
   35.400    3.9494
   35.430    4.1952
   35.460    3.7564
   35.490    3.8617
   35.520    3.7564
   35.550    4.1074
   35.580    3.8090
   35.610    3.8968
   35.640    3.8441
   35.670    3.6862
   35.700    3.9846
   35.730    4.2654
   35.760    3.8090
   35.790    3.8968
   35.820    4.0372
   35.850    4.2654
   35.880    3.9143
   35.910    3.8792
   35.940    3.7564
   35.970    4.1601
   36.000    3.7564
   36.030    3.7915
   36.060    4.2478
   36.090    3.8792
   36.120    4.0899
   36.150    4.0197
   36.180    4.2830
   36.210    4.1074
   36.240    3.9670
   36.270    4.1074
   36.300    4.0723
   36.330    4.3005
   36.360    3.8617
   36.390    4.0899
   36.420    4.0899
   36.450    3.4053
   36.480    3.9319
   36.510    4.0372
   36.540    4.0197
   36.570    3.7915
   36.600    4.0021
   36.630    4.0372
   36.660    3.6862
   36.690    4.1074
   36.720    4.0723
   36.750    4.0899
   36.780    3.8266
   36.810    3.6335
   36.840    4.0372
   36.870    3.5282
   36.900    3.2298
   36.930    3.7388
   36.960    3.9846
   36.990    3.7037
   37.020    3.8617
   37.050    3.8266
   37.080    4.3356
   37.110    4.2127
   37.140    4.2303
   37.170    4.2830
   37.200    4.1250
   37.230    3.5984
   37.260    3.8441
   37.290    3.9319
   37.320    3.9319
   37.350    3.8266
   37.380    3.8792
   37.410    3.8441
   37.440    3.7564
   37.470    3.6510
   37.500    3.4404
   37.530    3.9143
   37.560    3.6159
   37.590    3.9319
   37.620    4.0021
   37.650    3.5984
   37.680    3.8792
   37.710    3.9319
   37.740    3.5106
   37.770    4.0021
   37.800    4.0021
   37.830    3.7388
   37.860    3.5984
   37.890    3.8792
   37.920    3.7564
   37.950    3.8792
   37.980    4.0548
   38.010    3.6862
   38.040    3.6510
   38.070    3.9143
   38.100    4.2303
   38.130    3.7388
   38.160    3.5808
   38.190    3.5282
   38.220    3.5633
   38.250    3.0542
   38.280    3.5984
   38.310    3.9319
   38.340    3.6159
   38.370    4.0723
   38.400    3.6686
   38.430    3.5457
   38.460    3.5808
   38.490    3.6510
   38.520    3.8617
   38.550    3.4229
   38.580    3.8968
   38.610    3.4229
   38.640    3.3000
   38.670    3.3000
   38.700    3.3877
   38.730    3.2649
   38.760    3.3526
   38.790    3.6862
   38.820    3.5282
   38.850    3.8617
   38.880    3.9846
   38.910    3.3351
   38.940    3.8090
   38.970    4.1425
   39.000    3.9670
   39.030    3.5984
   39.060    3.3175
   39.090    3.3877
   39.120    3.8441
   39.150    3.8266
   39.180    3.5457
   39.210    3.6335
   39.240    3.6335
   39.270    3.6686
   39.300    3.6335
   39.330    3.7037
   39.360    3.6862
   39.390    3.6510
   39.420    3.8090
   39.450    3.6686
   39.480    3.7037
   39.510    3.7564
   39.540    3.8617
   39.570    3.6159
   39.600    3.7388
   39.630    3.8617
   39.660    3.9846
   39.690    3.5808
   39.720    3.8968
   39.750    3.7388
   39.780    3.8617
   39.810    3.2824
   39.840    3.9319
   39.870    3.6335
   39.900    3.7213
   39.930    3.7037
   39.960    3.4755
   39.990    3.4229