File: data/PXRD/PXRD_KE-081-1-2_Cu-Ka1_capillary-1mm_5s-deg.xyd
    1.500   26.9194
    1.530   26.5087
    1.560   24.5392
    1.590   23.0542
    1.620   21.7588
    1.650   20.6424
    1.680   19.5155
    1.710   18.9784
    1.740   18.4097
    1.770   17.5882
    1.800   16.6825
    1.830   15.3555
    1.860   15.7451
    1.890   14.3549
    1.920   13.6282
    1.950   13.5440
    1.980   13.1227
    2.010   12.1222
    2.040   12.3117
    2.070   12.0063
    2.100   11.5324
    2.130   10.9637
    2.160   10.8478
    2.190   10.3633
    2.220   10.0369
    2.250    9.7736
    2.280    9.6577
    2.310    9.2891
    2.340    9.1627
    2.370    8.7625
    2.400    8.8468
    2.430    9.1311
    2.460    8.8573
    2.490    8.8152
    2.520    8.4466
    2.550    8.5835
    2.580    8.1411
    2.610    8.2675
    2.640    7.6777
    2.670    7.6672
    2.700    8.0253
    2.730    7.2249
    2.760    7.7830
    2.790    7.4987
    2.820    7.2880
    2.850    7.4987
    2.880    7.3091
    2.910    7.1617
    2.940    6.8668
    2.970    7.1090
    3.000    7.4460
    3.030    7.2038
    3.060    6.9721
    3.090    6.9194
    3.120    7.1195
    3.150    6.9089
    3.180    6.4350
    3.210    7.0985
    3.240    6.9300
    3.270    6.8352
    3.300    6.5298
    3.330    6.5403
    3.360    6.8773
    3.390    6.7825
    3.420    7.0142
    3.450    6.8141
    3.480    6.6772
    3.510    6.8878
    3.540    6.6772
    3.570    6.5403
    3.600    6.6456
    3.630    6.8984
    3.660    6.2559
    3.690    6.6140
    3.720    6.8141
    3.750    6.9194
    3.780    7.0248
    3.810    7.1406
    3.840    7.3934
    3.870    7.6988
    3.900    7.4566
    3.930    6.8562
    3.960    6.8246
    3.990    6.2243
    4.020    5.9610
    4.050    6.2665
    4.080    6.5719
    4.110    6.3191
    4.140    6.1611
    4.170    6.3086
    4.200    6.1401
    4.230    6.0664
    4.260    5.9505
    4.290    6.5298
    4.320    6.4876
    4.350    6.2033
    4.380    6.1927
    4.410    6.2033
    4.440    6.3402
    4.470    6.2033
    4.500    6.0137
    4.530    6.0558
    4.560    6.2243
    4.590    5.8873
    4.620    6.0137
    4.650    6.0348
    4.680    6.6140
    4.710    5.9926
    4.740    6.2770
    4.770    5.9610
    4.800    6.1717
    4.830    6.1822
    4.860    5.9926
    4.890    6.2033
    4.920    6.2454
    4.950    6.2559
    4.980    5.6977
    5.010    6.0664
    5.040    6.0032
    5.070    6.3086
    5.100    6.1611
    5.130    5.9821
    5.160    5.9400
    5.190    5.8768
    5.220    6.4455
    5.250    6.1295
    5.280    6.1295
    5.310    5.5714
    5.340    5.7399
    5.370    5.9716
    5.400    5.9189
    5.430    5.9821
    5.460    5.8768
    5.490    5.8662
    5.520    5.7399
    5.550    5.5398
    5.580    5.8136
    5.610    5.8768
    5.640    5.8768
    5.670    5.7609
    5.700    6.0453
    5.730    5.7715
    5.760    6.0453
    5.790    6.2138
    5.820    5.7715
    5.850    6.1085
    5.880    6.0453
    5.910    5.7188
    5.940    6.2243
    5.970    6.1190
    6.000    6.2243
    6.030    6.3296
    6.060    6.0558
    6.090    6.0242
    6.120    6.0874
    6.150    6.0769
    6.180    5.9610
    6.210    6.1190
    6.240    6.1295
    6.270    5.9926
    6.300    5.9400
    6.330    5.7715
    6.360    5.8662
    6.390    6.3086
    6.420    6.0874
    6.450    6.1085
    6.480    6.1190
    6.510    6.0664
    6.540    5.9084
    6.570    6.2033
    6.600    6.2981
    6.630    6.2770
    6.660    6.3402
    6.690    6.3296
    6.720    6.7404
    6.750    7.0774
    6.780    6.4771
    6.810    6.0979
    6.840    6.1295
    6.870    6.0979
    6.900    6.1085
    6.930    5.9821
    6.960    5.9294
    6.990    5.9400
    7.020    6.3507
    7.050    5.9821
    7.080    6.1401
    7.110    5.9610
    7.140    5.9084
    7.170    6.2875
    7.200    5.6767
    7.230    6.0558
    7.260    5.8452
    7.290    6.2559
    7.320    6.1717
    7.350    6.2559
    7.380    6.0664
    7.410    6.3191
    7.440    5.9926
    7.470    5.9189
    7.500    6.4455
    7.530    6.0769
    7.560    6.2033
    7.590    6.0032
    7.620    6.0979
    7.650    5.9505
    7.680    6.3612
    7.710    6.4455
    7.740    6.5613
    7.770    6.3928
    7.800    6.4982
    7.830    6.1190
    7.860    6.1822
    7.890    6.1506
    7.920    6.4139
    7.950    6.4771
    7.980    6.5087
    8.010    6.4034
    8.040    6.2243
    8.070    6.0874
    8.100    5.8978
    8.130    6.1717
    8.160    6.0032
    8.190    5.9821
    8.220    6.2243
    8.250    6.2559
    8.280    6.5508
    8.310    6.6351
    8.340    6.3612
    8.370    6.4560
    8.400    6.1506
    8.430    6.0242
    8.460    6.1822
    8.490    6.4350
    8.520    6.5508
    8.550    6.3823
    8.580    6.7615
    8.610    6.1190
    8.640    6.4455
    8.670    6.8352
    8.700    6.5087
    8.730    6.7825
    8.760    6.2559
    8.790    6.3402
    8.820    6.5298
    8.850    6.4982
    8.880    6.6140
    8.910    6.5613
    8.940    6.0874
    8.970    6.3191
    9.000    6.5192
    9.030    6.1611
    9.060    6.4244
    9.090    6.8457
    9.120    6.8562
    9.150    6.6245
    9.180    6.4455
    9.210    6.3718
    9.240    6.5192
    9.270    6.6456
    9.300    6.2243
    9.330    6.4034
    9.360    6.4139
    9.390    6.5824
    9.420    6.6456
    9.450    6.9300
    9.480    6.8352
    9.510    7.1827
    9.540    6.9300
    9.570    6.3718
    9.600    6.8141
    9.630    7.0669
    9.660    6.7509
    9.690    6.5508
    9.720    6.9616
    9.750    6.9721
    9.780    6.7404
    9.810    6.3612
    9.840    6.7299
    9.870    6.6877
    9.900    6.7615
    9.930    6.7404
    9.960    6.8562
    9.990    6.9194
   10.020    6.7720
   10.050    7.1722
   10.080    6.6035
   10.110    6.4982
   10.140    6.4982
   10.170    6.5508
   10.200    6.7720
   10.230    7.0563
   10.260    7.0248
   10.290    6.7193
   10.320    6.9616
   10.350    6.8562
   10.380    6.6772
   10.410    6.7930
   10.440    6.5824
   10.470    6.7615
   10.500    6.6561
   10.530    6.6351
   10.560    6.2981
   10.590    6.7088
   10.620    6.3612
   10.650    6.2138
   10.680    6.2243
   10.710    6.3718
   10.740    6.5087
   10.770    6.3191
   10.800    6.2349
   10.830    6.4034
   10.860    6.6877
   10.890    6.3718
   10.920    6.3507
   10.950    6.4244
   10.980    6.6772
   11.010    6.6456
   11.040    6.4455
   11.070    5.9716
   11.100    6.1506
   11.130    6.1927
   11.160    6.3296
   11.190    6.1822
   11.220    5.8557
   11.250    6.2138
   11.280    6.0664
   11.310    6.3191
   11.340    6.2349
   11.370    6.1822
   11.400    5.9926
   11.430    5.9821
   11.460    5.8873
   11.490    6.3296
   11.520    6.0032
   11.550    6.4034
   11.580    6.6035
   11.610    6.1190
   11.640    6.3086
   11.670    6.0664
   11.700    6.4034
   11.730    6.0242
   11.760    6.0769
   11.790    5.9505
   11.820    6.0032
   11.850    5.9821
   11.880    5.7820
   11.910    5.9716
   11.940    6.2770
   11.970    5.8347
   12.000    5.8768
   12.030    6.0032
   12.060    5.8768
   12.090    5.5608
   12.120    5.6135
   12.150    5.5608
   12.180    5.7399
   12.210    6.0348
   12.240    5.6872
   12.270    6.0558
   12.300    5.7609
   12.330    5.7715
   12.360    5.4344
   12.390    5.6451
   12.420    5.8031
   12.450    5.9716
   12.480    5.6661
   12.510    5.9189
   12.540    5.9926
   12.570    5.6556
   12.600    5.8136
   12.630    5.7715
   12.660    6.0032
   12.690    5.6240
   12.720    5.7188
   12.750    6.0137
   12.780    5.4660
   12.810    5.6451
   12.840    5.7399
   12.870    6.2033
   12.900    5.4239
   12.930    5.9189
   12.960    5.7715
   12.990    5.9294
   13.020    5.8241
   13.050    5.5924
   13.080    5.5503
   13.110    5.6977
   13.140    5.5924
   13.170    5.6977
   13.200    5.8557
   13.230    5.7504
   13.260    5.5503
   13.290    5.3712
   13.320    5.3818
   13.350    5.4766
   13.380    5.4871
   13.410    5.3397
   13.440    5.5187
   13.470    5.5503
   13.500    5.6240
   13.530    5.7188
   13.560    5.5608
   13.590    5.9821
   13.620    5.7399
   13.650    5.4976
   13.680    5.2554
   13.710    5.5714
   13.740    5.7504
   13.770    5.4871
   13.800    5.8557
   13.830    5.6556
   13.860    5.7399
   13.890    5.5503
   13.920    5.6451
   13.950    5.5608
   13.980    5.3291
   14.010    5.6029
   14.040    5.9189
   14.070    5.4028
   14.100    5.6135
   14.130    6.1401
   14.160    5.6977
   14.190    5.1290
   14.220    5.5924
   14.250    5.6451
   14.280    5.3397
   14.310    5.8136
   14.340    5.6977
   14.370    5.8662
   14.400    5.5503
   14.430    5.4976
   14.460    5.6135
   14.490    5.4766
   14.520    6.0137
   14.550    5.6240
   14.580    5.4450
   14.610    5.4660
   14.640    5.3607
   14.670    5.6345
   14.700    5.3397
   14.730    5.5924
   14.760    5.8136
   14.790    5.8662
   14.820    5.4871
   14.850    5.8136
   14.880    5.7188
   14.910    5.3291
   14.940    5.5503
   14.970    5.6135
   15.000    5.8768
   15.030    5.8241
   15.060    5.7820
   15.090    5.4660
   15.120    5.6872
   15.150    5.4660
   15.180    5.4766
   15.210    5.4450
   15.240    5.6029
   15.270    5.2765
   15.300    5.4134
   15.330    5.4871
   15.360    5.9084
   15.390    5.6767
   15.420    5.6661
   15.450    5.5924
   15.480    5.0342
   15.510    5.3502
   15.540    5.6977
   15.570    5.5503
   15.600    5.7399
   15.630    5.3081
   15.660    5.3923
   15.690    5.6029
   15.720    5.4871
   15.750    5.6240
   15.780    5.7715
   15.810    5.6135
   15.840    5.8662
   15.870    5.7504
   15.900    5.5082
   15.930    5.7609
   15.960    5.6977
   15.990    5.3923
   16.020    5.4976
   16.050    5.5714
   16.080    5.7083
   16.110    5.1185
   16.140    5.8347
   16.170    5.5714
   16.200    5.7820
   16.230    5.6661
   16.260    5.6872
   16.290    5.5082
   16.320    5.3607
   16.350    5.7083
   16.380    5.8662
   16.410    6.0242
   16.440    5.8873
   16.470    5.9084
   16.500    5.6556
   16.530    5.8136
   16.560    5.4239
   16.590    5.8241
   16.620    5.5714
   16.650    5.5503
   16.680    5.6661
   16.710    5.8557
   16.740    5.4660
   16.770    6.1717
   16.800    5.8662
   16.830    5.7715
   16.860    5.6872
   16.890    5.2554
   16.920    5.6977
   16.950    5.8768
   16.980    5.6556
   17.010    5.7925
   17.040    5.5398
   17.070    5.8136
   17.100    5.8978
   17.130    5.8978
   17.160    5.5292
   17.190    5.7504
   17.220    5.9400
   17.250    5.5187
   17.280    5.4134
   17.310    5.6029
   17.340    5.7609
   17.370    5.7820
   17.400    5.6556
   17.430    5.7925
   17.460    5.7609
   17.490    6.0032
   17.520    5.6872
   17.550    5.9821
   17.580    5.5819
   17.610    5.8241
   17.640    5.6240
   17.670    5.8347
   17.700    5.2343
   17.730    5.5819
   17.760    5.7925
   17.790    5.7715
   17.820    5.7188
   17.850    5.7820
   17.880    5.8241
   17.910    5.6661
   17.940    5.7504
   17.970    5.6135
   18.000    5.8241
   18.030    5.7715
   18.060    5.8978
   18.090    5.6135
   18.120    5.6872
   18.150    5.6977
   18.180    5.4239
   18.210    6.0032
   18.240    5.7504
   18.270    5.5608
   18.300    5.9716
   18.330    5.7399
   18.360    5.7715
   18.390    5.7188
   18.420    5.6977
   18.450    5.9926
   18.480    5.5082
   18.510    6.1611
   18.540    5.7083
   18.570    5.7715
   18.600    5.9189
   18.630    5.4766
   18.660    5.8241
   18.690    5.2765
   18.720    5.9189
   18.750    5.7925
   18.780    5.7083
   18.810    5.8031
   18.840    5.9926
   18.870    6.2243
   18.900    6.2349
   18.930    6.0558
   18.960    6.6877
   18.990    6.4771
   19.020    6.1085
   19.050    6.1401
   19.080    5.8452
   19.110    5.8347
   19.140    5.8768
   19.170    6.0137
   19.200    5.6451
   19.230    5.9821
   19.260    5.9821
   19.290    5.7820
   19.320    5.6029
   19.350    5.9821
   19.380    5.3186
   19.410    5.8452
   19.440    5.9400
   19.470    6.3402
   19.500    6.0242
   19.530    5.6767
   19.560    5.9294
   19.590    6.0348
   19.620    5.9084
   19.650    5.9821
   19.680    5.8136
   19.710    5.8136
   19.740    6.1506
   19.770    5.8768
   19.800    5.8873
   19.830    5.8031
   19.860    5.9505
   19.890    5.7083
   19.920    5.6556
   19.950    5.6977
   19.980    5.8873
   20.010    5.9400
   20.040    6.1190
   20.070    5.7399
   20.100    5.7609
   20.130    5.8978
   20.160    6.1295
   20.190    6.0242
   20.220    5.8662
   20.250    5.7609
   20.280    5.8662
   20.310    5.8662
   20.340    6.2559
   20.370    5.8873
   20.400    6.0137
   20.430    6.1190
   20.460    6.1611
   20.490    5.9084
   20.520    6.1295
   20.550    6.0664
   20.580    5.9926
   20.610    5.9821
   20.640    5.8347
   20.670    5.8452
   20.700    6.2349
   20.730    5.9716
   20.760    6.4034
   20.790    5.9400
   20.820    5.8241
   20.850    6.4455
   20.880    5.7504
   20.910    5.7609
   20.940    5.9400
   20.970    6.0242
   21.000    6.0979
   21.030    6.6877
   21.060    6.1927
   21.090    5.7820
   21.120    6.2875
   21.150    6.0348
   21.180    6.2665
   21.210    6.1295
   21.240    5.8136
   21.270    6.5508
   21.300    5.9189
   21.330    5.8241
   21.360    5.8136
   21.390    6.0348
   21.420    6.4139
   21.450    5.8978
   21.480    6.1611
   21.510    6.0874
   21.540    6.1927
   21.570    6.3928
   21.600    5.8136
   21.630    6.1085
   21.660    6.0348
   21.690    6.3402
   21.720    5.8768
   21.750    6.2665
   21.780    6.0032
   21.810    6.3507
   21.840    5.9400
   21.870    6.4350
   21.900    6.4350
   21.930    5.8557
   21.960    6.1611
   21.990    6.0979
   22.020    6.0874
   22.050    6.1190
   22.080    6.4560
   22.110    5.8031
   22.140    6.1401
   22.170    6.5087
   22.200    5.9400
   22.230    6.4666
   22.260    6.4666
   22.290    6.2665
   22.320    6.4244
   22.350    6.1401
   22.380    6.2875
   22.410    6.1401
   22.440    6.2981
   22.470    6.2243
   22.500    6.6456
   22.530    6.6035
   22.560    6.5613
   22.590    6.7930
   22.620    6.3823
   22.650    6.4876
   22.680    6.1085
   22.710    6.2349
   22.740    6.2981
   22.770    6.3191
   22.800    6.2454
   22.830    6.4034
   22.860    6.1401
   22.890    6.1927
   22.920    6.1401
   22.950    6.1822
   22.980    6.2875
   23.010    6.1506
   23.040    6.0664
   23.070    6.1506
   23.100    6.5298
   23.130    6.8352
   23.160    6.4666
   23.190    6.3507
   23.220    6.2243
   23.250    6.1611
   23.280    6.1295
   23.310    6.0769
   23.340    6.3718
   23.370    6.0453
   23.400    6.0664
   23.430    6.0769
   23.460    6.6245
   23.490    6.0874
   23.520    6.2559
   23.550    5.9926
   23.580    6.0979
   23.610    5.6029
   23.640    6.6140
   23.670    6.4350
   23.700    6.5508
   23.730    6.0874
   23.760    5.9716
   23.790    6.2243
   23.820    6.1401
   23.850    5.8873
   23.880    6.2770
   23.910    6.4244
   23.940    6.1085
   23.970    6.0348
   24.000    6.2875
   24.030    6.2875
   24.060    5.6556
   24.090    5.9610
   24.120    6.0453
   24.150    6.0137
   24.180    6.1822
   24.210    6.1295
   24.240    6.2875
   24.270    5.7609
   24.300    5.7609
   24.330    5.9294
   24.360    5.9926
   24.390    6.1506
   24.420    5.9610
   24.450    5.8136
   24.480    6.0558
   24.510    5.8347
   24.540    5.7820
   24.570    5.8978
   24.600    6.0664
   24.630    5.6135
   24.660    5.7925
   24.690    5.7715
   24.720    5.9716
   24.750    6.0453
   24.780    6.2243
   24.810    5.8873
   24.840    5.6661
   24.870    6.0242
   24.900    5.9926
   24.930    6.2033
   24.960    5.8452
   24.990    6.0032
   25.020    5.9926
   25.050    5.5398
   25.080    5.8347
   25.110    5.8031
   25.140    5.6661
   25.170    5.8452
   25.200    5.9084
   25.230    5.9189
   25.260    5.7399
   25.290    5.8031
   25.320    5.9294
   25.350    5.7715
   25.380    5.9189
   25.410    5.9821
   25.440    5.9084
   25.470    6.0874
   25.500    5.9610
   25.530    6.1190
   25.560    5.9821
   25.590    5.4450
   25.620    5.8347
   25.650    5.6767
   25.680    5.8873
   25.710    6.5508
   25.740    5.9189
   25.770    5.6977
   25.800    5.6556
   25.830    6.2770
   25.860    5.9716
   25.890    6.0979
   25.920    5.9821
   25.950    5.8031
   25.980    5.8136
   26.010    5.7504
   26.040    5.7293
   26.070    5.7399
   26.100    5.6345
   26.130    5.8557
   26.160    5.8768
   26.190    5.5503
   26.220    6.0242
   26.250    5.6451
   26.280    5.8241
   26.310    5.8768
   26.340    5.5714
   26.370    5.7715
   26.400    5.6451
   26.430    5.8031
   26.460    5.9189
   26.490    5.9716
   26.520    5.6872
   26.550    5.8873
   26.580    5.6977
   26.610    5.6977
   26.640    5.3291
   26.670    5.6451
   26.700    5.8452
   26.730    5.5819
   26.760    5.6135
   26.790    5.9610
   26.820    5.6661
   26.850    5.7293
   26.880    5.7399
   26.910    5.3081
   26.940    5.6661
   26.970    5.4450
   27.000    5.4766
   27.030    5.8557
   27.060    5.7820
   27.090    5.6029
   27.120    5.2343
   27.150    5.4555
   27.180    5.4871
   27.210    5.5082
   27.240    5.5082
   27.270    5.5819
   27.300    5.6977
   27.330    5.2133
   27.360    5.5503
   27.390    6.0032
   27.420    5.6872
   27.450    5.8452
   27.480    5.5187
   27.510    5.4344
   27.540    5.6029
   27.570    5.3291
   27.600    5.8557
   27.630    5.5292
   27.660    5.8978
   27.690    5.4871
   27.720    5.4450
   27.750    5.2870
   27.780    5.3818
   27.810    5.2343
   27.840    5.6240
   27.870    5.5714
   27.900    5.6135
   27.930    5.5292
   27.960    5.6029
   27.990    5.8136
   28.020    5.8557
   28.050    5.4344
   28.080    5.6451
   28.110    5.2133
   28.140    5.8347
   28.170    5.6135
   28.200    5.6977
   28.230    5.6556
   28.260    5.0237
   28.290    5.5503
   28.320    5.2765
   28.350    5.5608
   28.380    5.0448
   28.410    5.5292
   28.440    5.4134
   28.470    5.3397
   28.500    5.4871
   28.530    5.4134
   28.560    5.5187
   28.590    5.3186
   28.620    5.2133
   28.650    5.0974
   28.680    5.4450
   28.710    4.9500
   28.740    5.6345
   28.770    5.1290
   28.800    5.4450
   28.830    5.3923
   28.860    5.2870
   28.890    5.4028
   28.920    5.3397
   28.950    5.3081
   28.980    5.4766
   29.010    5.4344
   29.040    5.6135
   29.070    5.3081
   29.100    5.3502
   29.130    5.3923
   29.160    5.1185
   29.190    5.4766
   29.220    4.9816
   29.250    5.2133
   29.280    5.1817
   29.310    5.4766
   29.340    5.3923
   29.370    5.4028
   29.400    5.2554
   29.430    5.3712
   29.460    5.3081
   29.490    5.1395
   29.520    5.3712
   29.550    5.4976
   29.580    5.1395
   29.610    5.2975
   29.640    5.1290
   29.670    5.3291
   29.700    5.3818
   29.730    5.3923
   29.760    5.4344
   29.790    5.1501
   29.820    5.3186
   29.850    5.1711
   29.880    5.1606
   29.910    5.2765
   29.940    5.2238
   29.970    4.8341
   30.000    5.0448
   30.030    4.9816
   30.060    4.9816
   30.090    5.0448
   30.120    4.8447
   30.150    4.9710
   30.180    4.9394
   30.210    5.2133
   30.240    5.1922
   30.270    5.0764
   30.300    5.1395
   30.330    4.8025
   30.360    5.0869
   30.390    5.0448
   30.420    5.0764
   30.450    5.0342
   30.480    4.9605
   30.510    5.0026
   30.540    4.9921
   30.570    4.9184
   30.600    4.9184
   30.630    5.1711
   30.660    5.1606
   30.690    4.7815
   30.720    5.1606
   30.750    4.9710
   30.780    4.8868
   30.810    4.9289
   30.840    5.0132
   30.870    5.0658
   30.900    4.9289
   30.930    5.0448
   30.960    5.0869
   30.990    4.5814
   31.020    5.0553
   31.050    5.0448
   31.080    4.8552
   31.110    4.7077
   31.140    4.8868
   31.170    4.7709
   31.200    4.8447
   31.230    4.7077
   31.260    4.7183
   31.290    4.9816
   31.320    4.9816
   31.350    4.8236
   31.380    4.6656
   31.410    5.0237
   31.440    4.8657
   31.470    4.9394
   31.500    4.6551
   31.530    5.0132
   31.560    4.6130
   31.590    5.1185
   31.620    4.8763
   31.650    4.8447
   31.680    4.6235
   31.710    4.8763
   31.740    5.0553
   31.770    4.9605
   31.800    4.7183
   31.830    5.1606
   31.860    5.1711
   31.890    5.0764
   31.920    4.5919
   31.950    4.7077
   31.980    4.8973
   32.010    5.1185
   32.040    4.8868
   32.070    5.6872
   32.100    5.3607
   32.130    5.1080
   32.160    4.8341
   32.190    5.2554
   32.220    4.5814
   32.250    4.8341
   32.280    4.6235
   32.310    4.6972
   32.340    4.5814
   32.370    4.4339
   32.400    4.3918
   32.430    4.6867
   32.460    4.7499
   32.490    4.7393
   32.520    4.6130
   32.550    4.8763
   32.580    4.6972
   32.610    4.6130
   32.640    4.4866
   32.670    4.6761
   32.700    4.6972
   32.730    4.6340
   32.760    4.8341
   32.790    4.6656
   32.820    4.7288
   32.850    4.4866
   32.880    4.6235
   32.910    4.4971
   32.940    4.3707
   32.970    4.5919
   33.000    4.8131
   33.030    4.7393
   33.060    4.6445
   33.090    4.6551
   33.120    4.5182
   33.150    4.3497
   33.180    4.4128
   33.210    4.8341
   33.240    4.7393
   33.270    4.5392
   33.300    4.7288
   33.330    4.5076
   33.360    4.4760
   33.390    4.5182
   33.420    4.5708
   33.450    4.4339
   33.480    4.5182
   33.510    4.2970
   33.540    4.6656
   33.570    4.2443
   33.600    4.6761
   33.630    4.4760
   33.660    4.3918
   33.690    4.2759
   33.720    4.6551
   33.750    4.9605
   33.780    4.7604
   33.810    4.9921
   33.840    4.7604
   33.870    4.9500
   33.900    4.2443
   33.930    4.7920
   33.960    4.4866
   33.990    4.4023
   34.020    4.3602
   34.050    4.4023
   34.080    4.7183
   34.110    4.2022
   34.140    4.3497
   34.170    4.2338
   34.200    4.5182
   34.230    4.5392
   34.260    4.0969
   34.290    4.4550
   34.320    4.4234
   34.350    4.3075
   34.380    4.5182
   34.410    4.3497
   34.440    4.4760
   34.470    4.3497
   34.500    4.1496
   34.530    4.4023
   34.560    4.6656
   34.590    4.3391
   34.620    4.4655
   34.650    4.1811
   34.680    4.4760
   34.710    4.4128
   34.740    4.4339
   34.770    4.4760
   34.800    4.0653
   34.830    4.1180
   34.860    4.0126
   34.890    4.3075
   34.920    4.5708
   34.950    4.0969
   34.980    3.9810
   35.010    4.5392
   35.040    4.4444
   35.070    4.1917
   35.100    4.1390
   35.130    4.4023
   35.160    4.2759
   35.190    4.6235
   35.220    4.1074
   35.250    4.4234
   35.280    4.4234
   35.310    4.4866
   35.340    4.4234
   35.370    4.3813
   35.400    4.2022
   35.430    4.2654
   35.460    4.0548
   35.490    4.3391
   35.520    4.4128
   35.550    4.3391
   35.580    4.6867
   35.610    4.4655
   35.640    4.3497
   35.670    4.1706
   35.700    4.0232
   35.730    4.2338
   35.760    4.3813
   35.790    4.2970
   35.820    4.2549
   35.850    4.0548
   35.880    4.3286
   35.910    4.4550
   35.940    4.4550
   35.970    4.2338
   36.000    4.3497
   36.030    4.2338
   36.060    4.0232
   36.090    4.0021
   36.120    4.2654
   36.150    4.1706
   36.180    4.1390
   36.210    4.3181
   36.240    3.8441
   36.270    4.5392
   36.300    4.3813
   36.330    4.4339
   36.360    4.3075
   36.390    4.1180
   36.420    4.3391
   36.450    4.1074
   36.480    4.1706
   36.510    4.5182
   36.540    4.0864
   36.570    4.2127
   36.600    4.2970
   36.630    4.2127
   36.660    4.3813
   36.690    4.2759
   36.720    3.9494
   36.750    4.3391
   36.780    4.0337
   36.810    4.0442
   36.840    4.2338
   36.870    4.2022
   36.900    4.0653
   36.930    4.1601
   36.960    4.1074
   36.990    4.3286
   37.020    4.4655
   37.050    4.2865
   37.080    4.1601
   37.110    4.2654
   37.140    4.4444
   37.170    3.8020
   37.200    3.9810
   37.230    3.8652
   37.260    4.2443
   37.290    3.5914
   37.320    4.2022
   37.350    4.3707
   37.380    4.0232
   37.410    4.2549
   37.440    4.0337
   37.470    3.9705
   37.500    4.0232
   37.530    4.1917
   37.560    3.7809
   37.590    4.0021
   37.620    3.7915
   37.650    3.9600
   37.680    4.1074
   37.710    3.7493
   37.740    4.1601
   37.770    4.4655
   37.800    4.3707
   37.830    4.3181
   37.860    4.1706
   37.890    3.8547
   37.920    4.1601
   37.950    4.1601
   37.980    4.1601
   38.010    4.1390
   38.040    4.1180
   38.070    3.8020
   38.100    4.2759
   38.130    3.8757
   38.160    4.2338
   38.190    3.8441
   38.220    4.2443
   38.250    4.2759
   38.280    4.2970
   38.310    3.8652
   38.340    4.0126
   38.370    4.3075
   38.400    4.6024
   38.430    3.9179
   38.460    4.0126
   38.490    4.0232
   38.520    4.2970
   38.550    3.7388
   38.580    4.3075
   38.610    4.1706
   38.640    3.9073
   38.670    4.2443
   38.700    3.9389
   38.730    3.9073
   38.760    4.0126
   38.790    3.7493
   38.820    3.8652
   38.850    4.2549
   38.880    4.0126
   38.910    3.7599
   38.940    3.9810
   38.970    4.0337
   39.000    3.9284
   39.030    4.0969
   39.060    4.0021
   39.090    4.0232
   39.120    3.9600
   39.150    4.0126
   39.180    3.9073
   39.210    3.8652
   39.240    4.2338
   39.270    3.9073
   39.300    4.2233
   39.330    3.8231
   39.360    3.9916
   39.390    4.1180
   39.420    4.1285
   39.450    3.7704
   39.480    3.8863
   39.510    3.7493
   39.540    3.7915
   39.570    3.7704
   39.600    3.8968
   39.630    4.1811
   39.660    3.7704
   39.690    4.0126
   39.720    4.1811
   39.750    4.0969
   39.780    3.8968
   39.810    3.8757
   39.840    4.2022
   39.870    3.9600
   39.900    4.0864
   39.930    4.2970
   39.960    4.2127
   39.990    4.1390