File: data/PXRD/PXRD_KE-297_Cu-Ka1_film-3mm_3s-deg.xyd
    1.500   11.0760
    1.530   11.0409
    1.560   10.4265
    1.590   11.1287
    1.620    9.3734
    1.650   10.3212
    1.680    9.9877
    1.710    9.7946
    1.740   10.0404
    1.770    9.6015
    1.800   10.3739
    1.830    9.2154
    1.860    9.1803
    1.890    9.3558
    1.920    8.6186
    1.950    8.8292
    1.980    9.1627
    2.010    8.6186
    2.040    8.4606
    2.070    8.4606
    2.100    8.6010
    2.130    8.6712
    2.160    8.3904
    2.190    8.8117
    2.220    8.0218
    2.250    8.5484
    2.280    8.3728
    2.310    7.9516
    2.340    8.5659
    2.370    8.0920
    2.400    8.3202
    2.430    8.1973
    2.460    7.6005
    2.490    8.2149
    2.520    7.0563
    2.550    7.8111
    2.580    7.7936
    2.610    7.5127
    2.640    7.7234
    2.670    7.3547
    2.700    7.7936
    2.730    7.5654
    2.760    7.6532
    2.790    7.1617
    2.820    7.3899
    2.850    7.1266
    2.880    7.4601
    2.910    7.0212
    2.940    7.6180
    2.970    7.3021
    3.000    6.8282
    3.030    7.7936
    3.060    6.9686
    3.090    7.1617
    3.120    7.1968
    3.150    7.0563
    3.180    6.9159
    3.210    7.1968
    3.240    7.3723
    3.270    6.5473
    3.300    6.7930
    3.330    6.9510
    3.360    7.1266
    3.390    7.1441
    3.420    7.1617
    3.450    7.6707
    3.480    7.1617
    3.510    7.2845
    3.540    7.4250
    3.570    7.2143
    3.600    7.7585
    3.630    7.0037
    3.660    7.4425
    3.690    7.2494
    3.720    7.2319
    3.750    7.5127
    3.780    7.1968
    3.810    7.4425
    3.840    7.3372
    3.870    6.9861
    3.900    7.5654
    3.930    6.8282
    3.960    6.7579
    3.990    7.3899
    4.020    7.1266
    4.050    6.7755
    4.080    6.6877
    4.110    7.7409
    4.140    7.3196
    4.170    7.3196
    4.200    7.1968
    4.230    7.4074
    4.260    7.4952
    4.290    7.3723
    4.320    8.0393
    4.350    7.7585
    4.380    7.4601
    4.410    7.1266
    4.440    7.3723
    4.470    7.7936
    4.500    7.0037
    4.530    6.9861
    4.560    7.2845
    4.590    7.4250
    4.620    7.2845
    4.650    7.3899
    4.680    7.4776
    4.710    7.3196
    4.740    7.2670
    4.770    8.1973
    4.800    7.7760
    4.830    7.2319
    4.860    7.5303
    4.890    7.2845
    4.920    7.9164
    4.950    8.1622
    4.980    8.0042
    5.010    8.0042
    5.040    8.7239
    5.070    8.5308
    5.100    7.9516
    5.130    7.9516
    5.160    8.7590
    5.190    8.9872
    5.220    8.6712
    5.250    9.7069
    5.280    9.1101
    5.310    9.4436
    5.340    9.3207
    5.370    9.5313
    5.400   10.0930
    5.430    9.9175
    5.460   10.0053
    5.490   10.2510
    5.520    9.5489
    5.550   10.2510
    5.580    9.8648
    5.610   10.0755
    5.640    9.5313
    5.670    9.4436
    5.700    9.5664
    5.730    8.8468
    5.760    8.9521
    5.790    9.1276
    5.820    8.1446
    5.850    8.3377
    5.880    8.0569
    5.910    8.2500
    5.940    8.2149
    5.970    7.8462
    6.000    8.3202
    6.030    7.3021
    6.060    7.7585
    6.090    8.0218
    6.120    7.7760
    6.150    7.3372
    6.180    6.9861
    6.210    7.1617
    6.240    6.9159
    6.270    6.9159
    6.300    6.6877
    6.330    7.2845
    6.360    6.5649
    6.390    6.8282
    6.420    7.3021
    6.450    7.0212
    6.480    6.5824
    6.510    6.8282
    6.540    6.6877
    6.570    6.4069
    6.600    6.3542
    6.630    6.7579
    6.660    6.6877
    6.690    6.7228
    6.720    7.0388
    6.750    6.5824
    6.780    6.6351
    6.810    6.1260
    6.840    6.1787
    6.870    5.9856
    6.900    6.1085
    6.930    6.0207
    6.960    6.3191
    6.990    6.1611
    7.020    5.9154
    7.050    6.1085
    7.080    5.7399
    7.110    5.7925
    7.140    5.5994
    7.170    5.9505
    7.200    5.4415
    7.230    6.2489
    7.260    5.4064
    7.290    5.4415
    7.320    5.7925
    7.350    5.2835
    7.380    5.2659
    7.410    5.4064
    7.440    5.4064
    7.470    5.7750
    7.500    5.4941
    7.530    5.1431
    7.560    5.6170
    7.590    5.1957
    7.620    5.0377
    7.650    5.2484
    7.680    5.0728
    7.710    5.1957
    7.740    5.1255
    7.770    4.9500
    7.800    5.0377
    7.830    5.2484
    7.860    4.8095
    7.890    4.6165
    7.920    4.7042
    7.950    5.0026
    7.980    5.4239
    8.010    5.0026
    8.040    4.8622
    8.070    5.1080
    8.100    5.5643
    8.130    4.8798
    8.160    4.7218
    8.190    4.9500
    8.220    4.9851
    8.250    4.8973
    8.280    4.5111
    8.310    4.5111
    8.340    4.4760
    8.370    5.2659
    8.400    4.7393
    8.430    4.6165
    8.460    4.6516
    8.490    4.8798
    8.520    4.1776
    8.550    4.3707
    8.580    4.2478
    8.610    4.4585
    8.640    4.5989
    8.670    4.4234
    8.700    4.5463
    8.730    4.0021
    8.760    4.4936
    8.790    4.2830
    8.820    4.2654
    8.850    4.3532
    8.880    4.7393
    8.910    4.7393
    8.940    4.8447
    8.970    4.3883
    9.000    4.5287
    9.030    4.4760
    9.060    4.2654
    9.090    4.4058
    9.120    4.2830
    9.150    4.4936
    9.180    4.3883
    9.210    4.1250
    9.240    4.2830
    9.270    4.2303
    9.300    4.3356
    9.330    4.3883
    9.360    4.4058
    9.390    4.6165
    9.420    4.7569
    9.450    4.4585
    9.480    4.4234
    9.510    4.3181
    9.540    4.6165
    9.570    4.7744
    9.600    4.1425
    9.630    4.2830
    9.660    4.2303
    9.690    4.0197
    9.720    4.2478
    9.750    3.9846
    9.780    4.2478
    9.810    4.3005
    9.840    4.1250
    9.870    4.4058
    9.900    4.4585
    9.930    4.1776
    9.960    4.2303
    9.990    4.4760
   10.020    4.2127
   10.050    4.7042
   10.080    3.8617
   10.110    4.3181
   10.140    3.9846
   10.170    4.4760
   10.200    4.5989
   10.230    4.4058
   10.260    4.1776
   10.290    4.7920
   10.320    4.7393
   10.350    4.4760
   10.380    4.4058
   10.410    4.8973
   10.440    4.2478
   10.470    4.6867
   10.500    4.5638
   10.530    4.3707
   10.560    4.3883
   10.590    4.7744
   10.620    4.5638
   10.650    4.1952
   10.680    4.4936
   10.710    4.7569
   10.740    4.4058
   10.770    4.2303
   10.800    4.7042
   10.830    4.6691
   10.860    4.3356
   10.890    4.4234
   10.920    4.9149
   10.950    4.7042
   10.980    5.0202
   11.010    5.0026
   11.040    4.6165
   11.070    4.6340
   11.100    4.4409
   11.130    5.1606
   11.160    4.5463
   11.190    5.0202
   11.220    4.7920
   11.250    4.8798
   11.280    4.4058
   11.310    5.0728
   11.340    4.6340
   11.370    5.0202
   11.400    4.7569
   11.430    4.6516
   11.460    4.7042
   11.490    4.3883
   11.520    4.9500
   11.550    4.6867
   11.580    4.5814
   11.610    4.5638
   11.640    4.7920
   11.670    4.8622
   11.700    4.6516
   11.730    4.8271
   11.760    4.1250
   11.790    4.8095
   11.820    4.4234
   11.850    4.6340
   11.880    4.6867
   11.910    4.4409
   11.940    4.3707
   11.970    3.8266
   12.000    4.6165
   12.030    4.2127
   12.060    4.3707
   12.090    4.3005
   12.120    4.2303
   12.150    4.2654
   12.180    4.1601
   12.210    4.4936
   12.240    4.2830
   12.270    4.6691
   12.300    4.7393
   12.330    4.4409
   12.360    4.1601
   12.390    4.2303
   12.420    4.8622
   12.450    4.5287
   12.480    4.1952
   12.510    4.1074
   12.540    4.4936
   12.570    4.4585
   12.600    4.2654
   12.630    3.9494
   12.660    4.3707
   12.690    4.4585
   12.720    4.2303
   12.750    4.2303
   12.780    4.6340
   12.810    4.3356
   12.840    4.2303
   12.870    4.3356
   12.900    3.9494
   12.930    4.2654
   12.960    4.3005
   12.990    4.5111
   13.020    4.2478
   13.050    4.2478
   13.080    4.4936
   13.110    4.0723
   13.140    4.4409
   13.170    4.3532
   13.200    4.3707
   13.230    4.0548
   13.260    4.5463
   13.290    4.0197
   13.320    4.5638
   13.350    4.0197
   13.380    3.9143
   13.410    4.0548
   13.440    4.1601
   13.470    4.4234
   13.500    4.1776
   13.530    4.0899
   13.560    4.5287
   13.590    4.3883
   13.620    3.9319
   13.650    4.3707
   13.680    4.4409
   13.710    4.3356
   13.740    4.0021
   13.770    4.4058
   13.800    4.4409
   13.830    4.1425
   13.860    4.2127
   13.890    4.6691
   13.920    3.9143
   13.950    4.4585
   13.980    4.3356
   14.010    4.4409
   14.040    4.4936
   14.070    4.2830
   14.100    4.8973
   14.130    4.4760
   14.160    4.9500
   14.190    4.8095
   14.220    4.8973
   14.250    4.8798
   14.280    4.4585
   14.310    4.3532
   14.340    4.3532
   14.370    4.5814
   14.400    5.0728
   14.430    4.7569
   14.460    4.5989
   14.490    4.8973
   14.520    4.6165
   14.550    5.0728
   14.580    4.8798
   14.610    4.5111
   14.640    4.6165
   14.670    4.4760
   14.700    4.5814
   14.730    4.2830
   14.760    4.1074
   14.790    4.1601
   14.820    4.4936
   14.850    4.7218
   14.880    4.5814
   14.910    4.3005
   14.940    4.3005
   14.970    4.4936
   15.000    4.2830
   15.030    4.2478
   15.060    4.0372
   15.090    4.4760
   15.120    4.5463
   15.150    4.1074
   15.180    4.2127
   15.210    4.0723
   15.240    4.1250
   15.270    3.8441
   15.300    4.1425
   15.330    3.9670
   15.360    4.2303
   15.390    3.9846
   15.420    4.0372
   15.450    4.3707
   15.480    4.5111
   15.510    4.1425
   15.540    4.3181
   15.570    4.1952
   15.600    3.9319
   15.630    4.2127
   15.660    4.1601
   15.690    4.4760
   15.720    4.3005
   15.750    4.0197
   15.780    4.1250
   15.810    4.3532
   15.840    4.1952
   15.870    4.2127
   15.900    4.3181
   15.930    4.4409
   15.960    4.3532
   15.990    4.3356
   16.020    4.1074
   16.050    4.2654
   16.080    4.2127
   16.110    4.4936
   16.140    4.0899
   16.170    4.1776
   16.200    4.3181
   16.230    4.2303
   16.260    4.0899
   16.290    4.4409
   16.320    4.0372
   16.350    4.1074
   16.380    3.7037
   16.410    3.9670
   16.440    4.2303
   16.470    4.3005
   16.500    4.2127
   16.530    4.2654
   16.560    4.1250
   16.590    4.2830
   16.620    4.5814
   16.650    3.9319
   16.680    4.5111
   16.710    4.2830
   16.740    4.1952
   16.770    3.8090
   16.800    4.3883
   16.830    3.8441
   16.860    4.2303
   16.890    4.3356
   16.920    4.1425
   16.950    4.2127
   16.980    4.0372
   17.010    4.2303
   17.040    3.9494
   17.070    4.1074
   17.100    4.0548
   17.130    4.2303
   17.160    3.9319
   17.190    4.2654
   17.220    4.5989
   17.250    4.1425
   17.280    3.8968
   17.310    4.0723
   17.340    4.3356
   17.370    4.0899
   17.400    3.7388
   17.430    4.0197
   17.460    3.8968
   17.490    3.9143
   17.520    3.8968
   17.550    4.1250
   17.580    3.9143
   17.610    4.0372
   17.640    4.0723
   17.670    3.9494
   17.700    4.4760
   17.730    4.2127
   17.760    3.5457
   17.790    3.9846
   17.820    4.0899
   17.850    3.8792
   17.880    3.8792
   17.910    3.9319
   17.940    4.0899
   17.970    3.9494
   18.000    3.7915
   18.030    4.0548
   18.060    3.8090
   18.090    4.2127
   18.120    3.8266
   18.150    3.8968
   18.180    4.0197
   18.210    4.1250
   18.240    3.7564
   18.270    3.9143
   18.300    4.1776
   18.330    4.2478
   18.360    4.0197
   18.390    3.7564
   18.420    3.9846
   18.450    3.8090
   18.480    3.8090
   18.510    4.5111
   18.540    4.1425
   18.570    3.7739
   18.600    4.0723
   18.630    3.7213
   18.660    4.1601
   18.690    3.7037
   18.720    3.9670
   18.750    3.8266
   18.780    4.0021
   18.810    3.8266
   18.840    3.6686
   18.870    3.9670
   18.900    4.3532
   18.930    4.1601
   18.960    4.7744
   18.990    4.8447
   19.020    4.4936
   19.050    4.0899
   19.080    3.7915
   19.110    4.0021
   19.140    4.0899
   19.170    4.2654
   19.200    3.8617
   19.230    3.7564
   19.260    3.8266
   19.290    3.8968
   19.320    4.0899
   19.350    3.6862
   19.380    3.6510
   19.410    3.5808
   19.440    4.3005
   19.470    3.7213
   19.500    4.2303
   19.530    3.7213
   19.560    3.7739
   19.590    4.0548
   19.620    3.8968
   19.650    3.6335
   19.680    3.9319
   19.710    4.0021
   19.740    3.6510
   19.770    3.6159
   19.800    3.6335
   19.830    4.3181
   19.860    4.0723
   19.890    3.9494
   19.920    3.8090
   19.950    3.9319
   19.980    3.7915
   20.010    3.9846
   20.040    3.8441
   20.070    3.5106
   20.100    3.5808
   20.130    4.0372
   20.160    3.5633
   20.190    3.9494
   20.220    3.5457
   20.250    3.6510
   20.280    3.5282
   20.310    3.4404
   20.340    3.8968
   20.370    3.7915
   20.400    3.6510
   20.430    3.3526
   20.460    3.5457
   20.490    3.8090
   20.520    3.7564
   20.550    3.6159
   20.580    3.6510
   20.610    3.4404
   20.640    3.7564
   20.670    3.4755
   20.700    3.9143
   20.730    3.6510
   20.760    3.5984
   20.790    3.3702
   20.820    3.5808
   20.850    3.6862
   20.880    3.9494
   20.910    3.5633
   20.940    3.5633
   20.970    3.2824
   21.000    3.3877
   21.030    3.3526
   21.060    3.6862
   21.090    3.8617
   21.120    3.5984
   21.150    3.5633
   21.180    3.7037
   21.210    3.4404
   21.240    3.3351
   21.270    4.0548
   21.300    3.9670
   21.330    3.5984
   21.360    3.6159
   21.390    3.6862
   21.420    3.7739
   21.450    3.3000
   21.480    3.7739
   21.510    3.5106
   21.540    3.9143
   21.570    3.5282
   21.600    3.6686
   21.630    3.6335
   21.660    3.4755
   21.690    3.7213
   21.720    3.5106
   21.750    3.5106
   21.780    3.2298
   21.810    3.5984
   21.840    3.8617
   21.870    3.4580
   21.900    3.4931
   21.930    4.4585
   21.960    3.5282
   21.990    3.4053
   22.020    3.4580
   22.050    3.6159
   22.080    3.7213
   22.110    3.5106
   22.140    3.4755
   22.170    3.4755
   22.200    3.2298
   22.230    3.4404
   22.260    3.4755
   22.290    3.1771
   22.320    3.4755
   22.350    3.4229
   22.380    3.3877
   22.410    3.1771
   22.440    3.2649
   22.470    3.6159
   22.500    3.4229
   22.530    3.3702
   22.560    3.4755
   22.590    3.7564
   22.620    3.2649
   22.650    3.2298
   22.680    3.6862
   22.710    3.3175
   22.740    3.5457
   22.770    3.2473
   22.800    3.4755
   22.830    3.2824
   22.860    3.3702
   22.890    3.5282
   22.920    3.3877
   22.950    3.4755
   22.980    2.8963
   23.010    3.4755
   23.040    3.2298
   23.070    3.4755
   23.100    3.4053
   23.130    3.6159
   23.160    3.7037
   23.190    3.4755
   23.220    3.3000
   23.250    3.1771
   23.280    2.8787
   23.310    3.6686
   23.340    3.0367
   23.370    3.3000
   23.400    3.3175
   23.430    3.4053
   23.460    3.2122
   23.490    3.0016
   23.520    3.2649
   23.550    3.1596
   23.580    3.3877
   23.610    3.3526
   23.640    3.2298
   23.670    2.9314
   23.700    3.0718
   23.730    3.2824
   23.760    3.0542
   23.790    3.2122
   23.820    3.2824
   23.850    2.8085
   23.880    3.0367
   23.910    3.0367
   23.940    3.3526
   23.970    3.3702
   24.000    2.9138
   24.030    3.2649
   24.060    2.8787
   24.090    3.1947
   24.120    3.4404
   24.150    3.1069
   24.180    2.7383
   24.210    2.8963
   24.240    2.9138
   24.270    2.8085
   24.300    2.7558
   24.330    3.2824
   24.360    3.0718
   24.390    3.2473
   24.420    3.1245
   24.450    2.8612
   24.480    2.9314
   24.510    3.0016
   24.540    3.0367
   24.570    2.9665
   24.600    3.0718
   24.630    2.9138
   24.660    3.3000
   24.690    2.8612
   24.720    2.9489
   24.750    2.8612
   24.780    2.7032
   24.810    3.2298
   24.840    2.8260
   24.870    2.9665
   24.900    2.9489
   24.930    2.8436
   24.960    2.9138
   24.990    3.0016
   25.020    3.1069
   25.050    2.6330
   25.080    3.3702
   25.110    2.9314
   25.140    2.9138
   25.170    2.7909
   25.200    2.9665
   25.230    2.7558
   25.260    3.0016
   25.290    2.9314
   25.320    2.8787
   25.350    2.7383
   25.380    3.2824
   25.410    2.9489
   25.440    2.8085
   25.470    3.2122
   25.500    3.1420
   25.530    2.8085
   25.560    3.0718
   25.590    2.8436
   25.620    2.8260
   25.650    3.1069
   25.680    2.9840
   25.710    3.1069
   25.740    2.7909
   25.770    2.9489
   25.800    3.0718
   25.830    2.9665
   25.860    2.8963
   25.890    2.7032
   25.920    2.9314
   25.950    2.9840
   25.980    2.7383
   26.010    2.9314
   26.040    3.0893
   26.070    2.9138
   26.100    2.5276
   26.130    2.8963
   26.160    2.9840
   26.190    2.8612
   26.220    2.5276
   26.250    2.7909
   26.280    2.7207
   26.310    2.9489
   26.340    3.5106
   26.370    2.8085
   26.400    2.9138
   26.430    2.6330
   26.460    2.9489
   26.490    2.8436
   26.520    2.7207
   26.550    2.6856
   26.580    2.8436
   26.610    2.8085
   26.640    2.7558
   26.670    2.6330
   26.700    2.7207
   26.730    2.3872
   26.760    2.6330
   26.790    2.5101
   26.820    2.5101
   26.850    2.7207
   26.880    2.8787
   26.910    2.6856
   26.940    2.7032
   26.970    2.5803
   27.000    2.4925
   27.030    2.7734
   27.060    3.0016
   27.090    2.8963
   27.120    2.5276
   27.150    2.5803
   27.180    2.5979
   27.210    2.4925
   27.240    2.2643
   27.270    2.7207
   27.300    2.5452
   27.330    2.3872
   27.360    2.3521
   27.390    2.6154
   27.420    2.5101
   27.450    2.2643
   27.480    2.4574
   27.510    2.7207
   27.540    2.8787
   27.570    2.7207
   27.600    2.6330
   27.630    2.4223
   27.660    2.3521
   27.690    2.5803
   27.720    2.3872
   27.750    2.2819
   27.780    2.7032
   27.810    2.5452
   27.840    2.6505
   27.870    2.6154
   27.900    2.4750
   27.930    2.3872
   27.960    2.7909
   27.990    3.1947
   28.020    2.9489
   28.050    2.8260
   28.080    2.4574
   28.110    2.1064
   28.140    2.2643
   28.170    2.1415
   28.200    2.5979
   28.230    2.4048
   28.260    2.2643
   28.290    2.4574
   28.320    2.1941
   28.350    2.4399
   28.380    2.2819
   28.410    2.4399
   28.440    2.9138
   28.470    2.4399
   28.500    2.1064
   28.530    2.1590
   28.560    2.4399
   28.590    2.8085
   28.620    2.4399
   28.650    2.3872
   28.680    2.3170
   28.710    2.6681
   28.740    2.5803
   28.770    2.4399
   28.800    2.5803
   28.830    2.7207
   28.860    2.4574
   28.890    2.4399
   28.920    2.5628
   28.950    3.1420
   28.980    3.1596
   29.010    2.5803
   29.040    2.4048
   29.070    2.7909
   29.100    2.5628
   29.130    2.3346
   29.160    2.6154
   29.190    2.2117
   29.220    2.5452
   29.250    2.4925
   29.280    2.4750
   29.310    2.1941
   29.340    2.1239
   29.370    2.3872
   29.400    2.2292
   29.430    2.3521
   29.460    2.1064
   29.490    2.0186
   29.520    2.1415
   29.550    2.1590
   29.580    2.0713
   29.610    2.2117
   29.640    1.9133
   29.670    2.1766
   29.700    2.1590
   29.730    1.8782
   29.760    1.9835
   29.790    2.1239
   29.820    2.1415
   29.850    2.3697
   29.880    2.2292
   29.910    1.7553
   29.940    2.1415
   29.970    2.1239
   30.000    2.1590
   30.030    2.0011
   30.060    2.0362
   30.090    2.4574
   30.120    2.2292
   30.150    2.0186
   30.180    2.1590
   30.210    2.1239
   30.240    2.0888
   30.270    2.0713
   30.300    2.1590
   30.330    2.0011
   30.360    2.1239
   30.390    2.1415
   30.420    2.1064
   30.450    2.1239
   30.480    1.8957
   30.510    2.1064
   30.540    2.2819
   30.570    2.1239
   30.600    2.1415
   30.630    1.8080
   30.660    1.8080
   30.690    1.8782
   30.720    2.1415
   30.750    2.1415
   30.780    2.0186
   30.810    1.9659
   30.840    2.0713
   30.870    2.3346
   30.900    2.0011
   30.930    1.9484
   30.960    2.0713
   30.990    1.8080
   31.020    2.0713
   31.050    2.0537
   31.080    2.0713
   31.110    2.0362
   31.140    2.1064
   31.170    2.1239
   31.200    1.8957
   31.230    1.9659
   31.260    1.9835
   31.290    1.8255
   31.320    1.8606
   31.350    1.7378
   31.380    1.8957
   31.410    1.9308
   31.440    2.0713
   31.470    2.0011
   31.500    1.8782
   31.530    1.9133
   31.560    2.0186
   31.590    1.7202
   31.620    1.7729
   31.650    1.9484
   31.680    2.0011
   31.710    2.1941
   31.740    2.0713
   31.770    2.3170
   31.800    2.2995
   31.830    2.3346
   31.860    2.0537
   31.890    2.0011
   31.920    2.0537
   31.950    1.8606
   31.980    1.8255
   32.010    2.1766
   32.040    2.2995
   32.070    3.4931
   32.100    3.7037
   32.130    2.7383
   32.160    2.4223
   32.190    1.8080
   32.220    1.9308
   32.250    1.7904
   32.280    1.7027
   32.310    1.5096
   32.340    1.6500
   32.370    1.8606
   32.400    1.7729
   32.430    1.8255
   32.460    1.8080
   32.490    1.7027
   32.520    1.5271
   32.550    1.9835
   32.580    1.9308
   32.610    1.7202
   32.640    1.9308
   32.670    1.6500
   32.700    1.5447
   32.730    1.5798
   32.760    1.3165
   32.790    1.5622
   32.820    1.7553
   32.850    1.7553
   32.880    1.7202
   32.910    1.6149
   32.940    1.7202
   32.970    1.5622
   33.000    1.7027
   33.030    1.7202
   33.060    1.8080
   33.090    1.8606
   33.120    1.7553
   33.150    1.8255
   33.180    1.7904
   33.210    2.0888
   33.240    1.8431
   33.270    1.7904
   33.300    1.5798
   33.330    1.8957
   33.360    1.7378
   33.390    1.7553
   33.420    1.9133
   33.450    1.9659
   33.480    1.8606
   33.510    1.5096
   33.540    1.7202
   33.570    1.7729
   33.600    1.5271
   33.630    1.6500
   33.660    1.7729
   33.690    1.6851
   33.720    1.6324
   33.750    1.6324
   33.780    1.7904
   33.810    2.0362
   33.840    2.1239
   33.870    1.7202
   33.900    1.7027
   33.930    1.4394
   33.960    1.7729
   33.990    1.4394
   34.020    1.5447
   34.050    1.3516
   34.080    1.6675
   34.110    1.4569
   34.140    1.6500
   34.170    1.6675
   34.200    1.5447
   34.230    1.7027
   34.260    1.7202
   34.290    1.5447
   34.320    1.6149
   34.350    1.4920
   34.380    1.7378
   34.410    1.5622
   34.440    1.7202
   34.470    1.5622
   34.500    1.4569
   34.530    1.6675
   34.560    1.4394
   34.590    1.6149
   34.620    1.8782
   34.650    1.8080
   34.680    1.7202
   34.710    1.6324
   34.740    1.6500
   34.770    1.6500
   34.800    1.5622
   34.830    1.3867
   34.860    1.9835
   34.890    1.9133
   34.920    1.3165
   34.950    1.6675
   34.980    1.6851
   35.010    1.5973
   35.040    1.4218
   35.070    1.6149
   35.100    1.4394
   35.130    1.5271
   35.160    1.6675
   35.190    1.7553
   35.220    1.4569
   35.250    1.5096
   35.280    2.1064
   35.310    1.5798
   35.340    1.7378
   35.370    1.6675
   35.400    1.3691
   35.430    1.8957
   35.460    1.8957
   35.490    1.5447
   35.520    1.5973
   35.550    1.6851
   35.580    1.4569
   35.610    1.3165
   35.640    1.7729
   35.670    1.6851
   35.700    1.5447
   35.730    1.5447
   35.760    1.2638
   35.790    1.6149
   35.820    1.4394
   35.850    1.4920
   35.880    1.4394
   35.910    1.6500
   35.940    1.5447
   35.970    1.7729
   36.000    1.7027
   36.030    1.4218
   36.060    1.2814
   36.090    1.8255
   36.120    1.4394
   36.150    1.3165
   36.180    1.6675
   36.210    1.4920
   36.240    1.6324
   36.270    1.6149
   36.300    1.5271
   36.330    1.5622
   36.360    1.5271
   36.390    1.4569
   36.420    1.3691
   36.450    1.6149
   36.480    1.7729
   36.510    1.4920
   36.540    1.7378
   36.570    1.6675
   36.600    1.6500
   36.630    1.6500
   36.660    1.4745
   36.690    1.7553
   36.720    1.6675
   36.750    1.5798
   36.780    1.7729
   36.810    1.4745
   36.840    1.4745
   36.870    1.5447
   36.900    1.6149
   36.930    1.5096
   36.960    1.2463
   36.990    1.4745
   37.020    1.3691
   37.050    1.3691
   37.080    1.4745
   37.110    1.5271
   37.140    1.6500
   37.170    1.4920
   37.200    1.5447
   37.230    1.5271
   37.260    1.5447
   37.290    1.5622
   37.320    1.7378
   37.350    1.5271
   37.380    1.4394
   37.410    1.5096
   37.440    1.4569
   37.470    1.3867
   37.500    1.5447
   37.530    1.6149
   37.560    1.4745
   37.590    1.4569
   37.620    1.6149
   37.650    1.5447
   37.680    1.4569
   37.710    1.5973
   37.740    1.5798
   37.770    1.6675
   37.800    1.4920
   37.830    1.4394
   37.860    1.5798
   37.890    1.3516
   37.920    1.3516
   37.950    1.5798
   37.980    1.2463
   38.010    1.4218
   38.040    1.4920
   38.070    1.6675
   38.100    1.5622
   38.130    1.4218
   38.160    1.4394
   38.190    1.7553
   38.220    1.4745
   38.250    1.4218
   38.280    1.5271
   38.310    1.7553
   38.340    1.7378
   38.370    1.4745
   38.400    1.4745
   38.430    1.6500
   38.460    1.5447
   38.490    1.3691
   38.520    1.4920
   38.550    1.7027
   38.580    1.5447
   38.610    1.8255
   38.640    1.6149
   38.670    1.3340
   38.700    1.3691
   38.730    1.3867
   38.760    1.2463
   38.790    1.3516
   38.820    1.4394
   38.850    1.6324
   38.880    1.3516
   38.910    1.1936
   38.940    1.4394
   38.970    1.6500
   39.000    1.7027
   39.030    1.4569
   39.060    1.3340
   39.090    1.3516
   39.120    1.4218
   39.150    1.5096
   39.180    1.4394
   39.210    1.1410
   39.240    1.4745
   39.270    1.5973
   39.300    1.4569
   39.330    1.5271
   39.360    1.4920
   39.390    1.3691
   39.420    1.6324
   39.450    1.5447
   39.480    1.3691
   39.510    1.5622
   39.540    1.2287
   39.570    1.3516
   39.600    1.5622
   39.630    1.1410
   39.660    1.7027
   39.690    1.2989
   39.720    1.4394
   39.750    1.2989
   39.780    1.5096
   39.810    1.5096
   39.840    1.4042
   39.870    1.3165
   39.900    1.2638
   39.930    1.4218
   39.960    1.3165
   39.990    1.1585