File: data/PXRD/PXRD_KE-305-2E_Cu-Ka1_capillary-1mm_3s-deg.xyd
    1.500   24.8903
    1.530   24.3286
    1.560   23.5387
    1.590   22.6084
    1.620   21.9765
    1.650   20.3616
    1.680   20.2387
    1.710   19.1153
    1.740   19.9930
    1.770   18.7292
    1.800   18.3430
    1.830   17.6935
    1.860   18.5887
    1.890   17.2020
    1.920   17.7462
    1.950   17.0090
    1.980   16.5701
    2.010   16.7457
    2.040   16.4473
    2.070   15.2712
    2.100   15.3239
    2.130   16.4824
    2.160   14.8324
    2.190   15.3414
    2.220   15.1659
    2.250   15.7451
    2.280   15.7978
    2.310   14.7622
    2.340   14.5164
    2.370   14.9903
    2.400   14.8148
    2.430   15.1308
    2.460   15.1483
    2.490   14.5866
    2.520   15.5169
    2.550   15.0781
    2.580   15.4467
    2.610   14.9026
    2.640   16.3068
    2.670   15.3239
    2.700   16.4648
    2.730   16.0962
    2.760   16.5526
    2.790   16.6228
    2.820   17.1318
    2.850   17.6233
    2.880   17.9393
    2.910   17.9919
    2.940   18.8871
    2.970   19.0100
    3.000   20.3616
    3.030   20.2212
    3.060   20.5547
    3.090   22.2222
    3.120   23.8196
    3.150   24.1882
    3.180   24.8727
    3.210   25.9259
    3.240   26.8211
    3.270   27.6812
    3.300   30.6477
    3.330   32.2099
    3.360   33.8775
    3.390   35.5099
    3.420   39.2663
    3.450   40.8110
    3.480   42.8822
    3.510   45.8662
    3.540   51.4481
    3.570   56.1524
    3.600   61.0848
    3.630   67.6145
    3.660   75.3379
    3.690   87.1687
    3.720  100.5793
    3.750  118.5536
    3.780  147.3758
    3.810  194.4357
    3.840  233.0876
    3.870  186.3086
    3.900   90.5213
    3.930   28.5413
    3.960   15.5345
    3.990   12.1467
    4.020   11.2340
    4.050   10.1983
    4.080    9.6367
    4.110    8.4430
    4.140    8.9696
    4.170    8.8819
    4.200    8.8468
    4.230    8.5133
    4.260    8.5659
    4.290    8.7590
    4.320    8.1622
    4.350    7.9164
    4.380    7.7234
    4.410    8.5133
    4.440    8.2851
    4.470    8.2500
    4.500    8.2500
    4.530    8.0744
    4.560    7.3899
    4.590    7.4074
    4.620    7.9164
    4.650    8.4606
    4.680    8.5484
    4.710    8.1095
    4.740    8.4957
    4.770    7.3372
    4.800    8.0393
    4.830    8.2675
    4.860    8.1271
    4.890    9.0750
    4.920    8.5308
    4.950    8.8117
    4.980    9.6893
    5.010    9.2680
    5.040    9.7771
    5.070   10.1457
    5.100   10.8478
    5.130   10.8654
    5.160   11.2515
    5.190   11.7255
    5.220   12.1116
    5.250   13.6914
    5.280   14.3058
    5.310   16.2366
    5.340   17.8164
    5.370   20.4494
    5.400   23.9600
    5.430   31.2621
    5.460   37.3530
    5.490   32.8770
    5.520   19.0978
    5.550   10.4792
    5.580    7.7936
    5.610    7.3723
    5.640    6.3893
    5.670    6.6000
    5.700    6.8808
    5.730    6.9159
    5.760    6.8106
    5.790    7.0388
    5.820    7.0212
    5.850    7.1090
    5.880    6.7404
    5.910    6.0207
    5.940    6.6175
    5.970    6.8457
    6.000    6.4946
    6.030    7.2670
    6.060    7.0212
    6.090    6.7228
    6.120    6.5824
    6.150    6.6351
    6.180    6.7053
    6.210    7.2143
    6.240    6.8106
    6.270    7.0388
    6.300    7.4425
    6.330    7.1441
    6.360    7.2319
    6.390    7.2670
    6.420    6.9861
    6.450    7.6883
    6.480    7.8638
    6.510    8.4079
    6.540    8.3377
    6.570    9.3031
    6.600    9.3031
    6.630   10.1808
    6.660   11.1462
    6.690   13.0244
    6.720   12.9893
    6.750   11.9712
    6.780    7.9516
    6.810    7.4425
    6.840    6.9861
    6.870    6.4946
    6.900    6.9686
    6.930    6.4420
    6.960    6.5122
    6.990    6.8106
    7.020    6.2840
    7.050    6.4069
    7.080    6.6351
    7.110    6.6877
    7.140    6.9335
    7.170    7.2494
    7.200    6.7053
    7.230    6.3016
    7.260    6.5298
    7.290    6.4595
    7.320    6.5824
    7.350    6.5824
    7.380    6.7579
    7.410    6.8633
    7.440    7.1617
    7.470    7.1266
    7.500    7.4074
    7.530    6.9686
    7.560    7.6180
    7.590    7.8989
    7.620    8.9521
    7.650    9.0398
    7.680   10.9707
    7.710   11.9361
    7.740   13.7090
    7.770   13.1824
    7.800   12.2696
    7.830    8.3377
    7.860    6.4595
    7.890    6.4069
    7.920    5.8276
    7.950    6.1436
    7.980    6.2665
    8.010    6.0558
    8.040    6.0383
    8.070    5.8101
    8.100    6.5298
    8.130    6.0032
    8.160    5.9154
    8.190    5.6170
    8.220    6.3893
    8.250    6.0909
    8.280    6.1962
    8.310    6.5473
    8.340    6.5298
    8.370    6.4244
    8.400    6.2489
    8.430    6.4244
    8.460    6.2489
    8.490    6.8457
    8.520    6.2489
    8.550    6.5122
    8.580    6.8808
    8.610    6.1436
    8.640    7.7234
    8.670    7.1441
    8.700    7.4425
    8.730    6.5298
    8.760    6.6351
    8.790    6.6877
    8.820    6.0032
    8.850    6.2313
    8.880    6.5122
    8.910    6.3542
    8.940    6.4771
    8.970    5.8452
    9.000    6.2313
    9.030    6.4244
    9.060    7.1441
    9.090    6.6877
    9.120    7.1968
    9.150    6.6175
    9.180    7.5127
    9.210    8.2500
    9.240    7.8638
    9.270    8.0218
    9.300    9.4436
    9.330   10.2335
    9.360   11.2340
    9.390   12.1643
    9.420   14.7446
    9.450   17.4653
    9.480   22.3802
    9.510   27.3477
    9.540   27.6988
    9.570   19.9228
    9.600   11.8308
    9.630    8.2149
    9.660    6.4771
    9.690    6.5473
    9.720    6.1085
    9.750    6.3542
    9.780    6.4771
    9.810    6.4244
    9.840    6.0032
    9.870    6.7579
    9.900    6.2840
    9.930    6.5649
    9.960    6.3893
    9.990    6.7755
   10.020    6.7930
   10.050    7.0563
   10.080    7.3547
   10.110    8.2500
   10.140    8.0042
   10.170    9.4085
   10.200    9.6893
   10.230   11.6202
   10.260   13.8318
   10.290   15.7802
   10.320   14.4462
   10.350   11.3217
   10.380    7.5303
   10.410    6.0383
   10.440    6.4420
   10.470    6.3542
   10.500    6.0558
   10.530    5.7048
   10.560    6.0032
   10.590    6.1962
   10.620    6.4595
   10.650    6.2489
   10.680    6.1436
   10.710    6.3718
   10.740    7.0739
   10.770    6.2313
   10.800    7.0212
   10.830    6.8106
   10.860    7.0212
   10.890    7.3899
   10.920    7.8287
   10.950    9.7771
   10.980   11.9537
   11.010   12.1292
   11.040   11.8483
   11.070    9.0750
   11.100    6.6877
   11.130    6.2665
   11.160    6.3191
   11.190    6.0207
   11.220    5.9681
   11.250    5.9681
   11.280    5.7048
   11.310    5.7223
   11.340    5.7223
   11.370    6.1611
   11.400    6.6526
   11.430    6.0734
   11.460    6.5473
   11.490    6.8984
   11.520    7.4776
   11.550    7.7585
   11.580    8.0218
   11.610    8.7941
   11.640   11.0760
   11.670   12.9366
   11.700   12.2696
   11.730   11.4973
   11.760    8.7590
   11.790    6.2665
   11.820    6.6000
   11.850    6.1787
   11.880    5.6872
   11.910    5.5292
   11.940    5.6521
   11.970    5.5468
   12.000    5.4590
   12.030    5.7223
   12.060    6.1436
   12.090    6.0032
   12.120    6.1962
   12.150    6.2840
   12.180    6.0207
   12.210    5.7048
   12.240    5.9681
   12.270    6.7404
   12.300    6.4946
   12.330    7.0037
   12.360    6.8984
   12.390    6.3016
   12.420    6.1611
   12.450    5.1957
   12.480    5.7223
   12.510    5.5819
   12.540    5.5819
   12.570    5.3010
   12.600    5.7399
   12.630    6.0909
   12.660    5.7048
   12.690    6.1260
   12.720    6.6877
   12.750    6.8808
   12.780    6.6351
   12.810    7.3723
   12.840    8.1797
   12.870    9.4436
   12.900   11.1638
   12.930   13.4457
   12.960   11.5148
   12.990    9.6191
   13.020    7.1090
   13.050    6.4595
   13.080    5.8803
   13.110    5.7399
   13.140    5.7925
   13.170    6.0383
   13.200    5.4941
   13.230    5.7048
   13.260    5.5292
   13.290    6.1085
   13.320    5.7399
   13.350    6.2665
   13.380    6.2313
   13.410    6.5824
   13.440    7.3899
   13.470    7.5654
   13.500    8.8468
   13.530    8.6010
   13.560    7.6180
   13.590    6.7755
   13.620    5.4766
   13.650    5.7223
   13.680    6.1085
   13.710    6.0032
   13.740    5.4590
   13.770    5.7399
   13.800    5.7750
   13.830    5.8627
   13.860    6.1611
   13.890    5.7223
   13.920    5.8627
   13.950    6.4771
   13.980    6.7930
   14.010    7.0388
   14.040    8.7765
   14.070    8.4781
   14.100    8.9872
   14.130    7.0563
   14.160    6.4595
   14.190    5.6697
   14.220    6.0207
   14.250    5.9154
   14.280    5.7925
   14.310    5.3537
   14.340    5.4239
   14.370    6.1260
   14.400    5.6697
   14.430    5.8276
   14.460    5.6872
   14.490    5.7750
   14.520    5.7048
   14.550    5.9681
   14.580    5.4941
   14.610    5.6697
   14.640    5.5819
   14.670    6.3718
   14.700    5.7223
   14.730    5.4590
   14.760    6.0032
   14.790    5.5643
   14.820    5.5117
   14.850    6.2138
   14.880    6.0734
   14.910    5.3537
   14.940    5.7223
   14.970    5.6521
   15.000    6.1787
   15.030    6.8633
   15.060    6.4244
   15.090    7.0388
   15.120    6.6175
   15.150    6.9159
   15.180    6.1962
   15.210    5.8978
   15.240    5.7574
   15.270    5.9154
   15.300    5.8978
   15.330    5.9329
   15.360    5.5292
   15.390    5.6345
   15.420    5.5117
   15.450    5.2484
   15.480    5.7925
   15.510    5.3712
   15.540    5.3537
   15.570    6.1962
   15.600    5.6170
   15.630    5.9856
   15.660    5.7574
   15.690    5.5643
   15.720    5.8452
   15.750    5.5994
   15.780    5.5819
   15.810    5.7223
   15.840    5.7399
   15.870    6.0734
   15.900    5.6521
   15.930    5.9681
   15.960    5.9329
   15.990    5.8627
   16.020    6.3893
   16.050    6.1085
   16.080    7.0915
   16.110    8.2851
   16.140    7.2670
   16.170    7.0037
   16.200    5.6872
   16.230    6.0558
   16.260    5.9329
   16.290    6.0734
   16.320    6.4771
   16.350    5.4239
   16.380    6.1962
   16.410    5.8978
   16.440    6.2489
   16.470    6.2665
   16.500    7.1090
   16.530    6.9510
   16.560    7.6532
   16.590    8.2675
   16.620    7.7936
   16.650    7.3021
   16.680    6.4420
   16.710    5.9154
   16.740    5.5643
   16.770    6.4946
   16.800    5.9856
   16.830    6.2138
   16.860    5.9154
   16.890    6.4595
   16.920    6.6877
   16.950    8.0744
   16.980    8.1622
   17.010    9.5840
   17.040    9.5313
   17.070   10.0579
   17.100    8.6712
   17.130    6.8808
   17.160    6.2665
   17.190    5.8101
   17.220    5.9681
   17.250    5.3712
   17.280    6.1436
   17.310    5.9681
   17.340    5.9856
   17.370    6.1787
   17.400    6.2313
   17.430    6.3191
   17.460    5.7399
   17.490    6.6702
   17.520    5.9856
   17.550    5.7574
   17.580    6.1436
   17.610    5.8452
   17.640    6.2138
   17.670    5.6872
   17.700    5.9856
   17.730    5.9681
   17.760    5.5643
   17.790    6.2840
   17.820    5.8978
   17.850    6.0909
   17.880    6.7053
   17.910    6.6351
   17.940    6.8106
   17.970    6.1962
   18.000    6.1436
   18.030    6.0909
   18.060    6.1260
   18.090    5.7925
   18.120    5.4415
   18.150    6.1260
   18.180    5.6872
   18.210    6.6175
   18.240    6.6702
   18.270    6.4771
   18.300    7.4952
   18.330    7.1792
   18.360    7.3021
   18.390    7.2845
   18.420    7.1441
   18.450    6.6526
   18.480    5.6170
   18.510    6.1260
   18.540    6.0383
   18.570    5.7223
   18.600    5.9856
   18.630    6.3893
   18.660    6.1436
   18.690    6.1085
   18.720    5.7399
   18.750    6.6702
   18.780    6.3893
   18.810    6.5298
   18.840    6.1611
   18.870    5.8803
   18.900    6.0558
   18.930    6.1260
   18.960    5.7223
   18.990    5.6170
   19.020    5.9856
   19.050    6.2489
   19.080    6.3016
   19.110    6.1787
   19.140    6.2313
   19.170    6.3016
   19.200    6.2840
   19.230    6.6526
   19.260    6.2840
   19.290    6.0558
   19.320    5.8978
   19.350    6.0032
   19.380    6.6877
   19.410    6.0734
   19.440    6.3542
   19.470    6.5473
   19.500    6.3893
   19.530    7.2845
   19.560    7.7234
   19.590    7.3547
   19.620    7.7936
   19.650    7.0739
   19.680    6.6351
   19.710    6.0207
   19.740    5.8276
   19.770    5.3361
   19.800    5.5117
   19.830    6.1260
   19.860    5.5994
   19.890    5.8627
   19.920    5.8101
   19.950    6.3718
   19.980    6.3191
   20.010    6.0207
   20.040    6.6702
   20.070    5.7925
   20.100    5.3537
   20.130    6.0734
   20.160    6.3718
   20.190    6.0909
   20.220    6.6877
   20.250    6.7930
   20.280    6.9686
   20.310    8.4079
   20.340    9.1452
   20.370    9.7595
   20.400    9.5489
   20.430    7.8638
   20.460    7.7058
   20.490    6.0207
   20.520    5.6521
   20.550    6.2313
   20.580    5.9505
   20.610    6.1787
   20.640    6.3191
   20.670    6.2313
   20.700    5.9681
   20.730    6.1962
   20.760    6.2313
   20.790    6.9335
   20.820    6.4946
   20.850    5.9681
   20.880    6.0207
   20.910    5.8276
   20.940    6.4244
   20.970    6.0909
   21.000    5.7048
   21.030    6.0558
   21.060    6.1962
   21.090    6.1787
   21.120    5.9329
   21.150    5.8276
   21.180    5.5292
   21.210    5.8452
   21.240    5.7750
   21.270    5.6697
   21.300    6.5824
   21.330    6.1260
   21.360    5.9856
   21.390    5.7223
   21.420    6.4244
   21.450    6.3016
   21.480    5.8101
   21.510    5.5292
   21.540    5.5468
   21.570    6.3718
   21.600    6.2138
   21.630    6.1787
   21.660    6.1787
   21.690    6.4771
   21.720    6.2489
   21.750    6.3542
   21.780    6.9686
   21.810    7.8111
   21.840    7.3021
   21.870    8.0393
   21.900    6.8633
   21.930    6.6000
   21.960    6.6877
   21.990    6.1260
   22.020    6.0032
   22.050    6.5122
   22.080    6.0558
   22.110    6.6526
   22.140    7.2494
   22.170    8.0744
   22.200    7.9867
   22.230    7.7585
   22.260    7.7234
   22.290    7.0563
   22.320    6.8282
   22.350    6.8984
   22.380    6.5122
   22.410    6.8808
   22.440    7.2670
   22.470    8.0569
   22.500    9.8648
   22.530   10.3388
   22.560   11.4973
   22.590   10.8303
   22.620    8.5659
   22.650    7.7409
   22.680    6.8808
   22.710    6.5649
   22.740    7.1441
   22.770    7.3723
   22.800    7.8462
   22.830    8.7239
   22.860   10.7600
   22.890   12.1116
   22.920   11.2691
   22.950    9.9351
   22.980    8.3026
   23.010    7.0388
   23.040    6.5298
   23.070    6.5824
   23.100    6.6000
   23.130    6.3542
   23.160    7.8111
   23.190    7.8638
   23.220    7.6356
   23.250    7.6707
   23.280    7.4776
   23.310    7.6180
   23.340    6.7053
   23.370    6.2665
   23.400    6.1611
   23.430    6.4771
   23.460    6.5649
   23.490    6.1787
   23.520    6.6526
   23.550    6.4244
   23.580    6.1787
   23.610    6.4946
   23.640    6.2138
   23.670    6.8633
   23.700    6.8282
   23.730    6.0032
   23.760    7.0563
   23.790    6.3191
   23.820    6.8457
   23.850    7.7409
   23.880    7.8462
   23.910    8.4079
   23.940    7.3372
   23.970    7.4425
   24.000    6.4771
   24.030    6.8984
   24.060    6.1260
   24.090    6.2665
   24.120    6.3893
   24.150    5.8452
   24.180    6.1787
   24.210    6.1787
   24.240    6.5298
   24.270    6.2665
   24.300    6.3191
   24.330    5.6872
   24.360    5.9856
   24.390    6.7228
   24.420    6.3542
   24.450    6.0207
   24.480    6.4069
   24.510    6.8457
   24.540    6.5298
   24.570    7.1792
   24.600    6.0909
   24.630    6.8282
   24.660    6.3718
   24.690    5.8276
   24.720    5.8627
   24.750    6.1962
   24.780    6.2665
   24.810    6.7053
   24.840    6.4069
   24.870    6.4946
   24.900    6.0909
   24.930    6.6877
   24.960    5.8276
   24.990    6.0734
   25.020    6.7228
   25.050    6.2665
   25.080    6.4244
   25.110    6.2840
   25.140    6.8633
   25.170    6.8808
   25.200    7.1792
   25.230    6.7755
   25.260    7.1617
   25.290    6.0207
   25.320    6.1260
   25.350    6.7053
   25.380    5.7574
   25.410    6.1260
   25.440    6.3893
   25.470    6.9335
   25.500    7.1792
   25.530    6.9861
   25.560    7.0739
   25.590    6.8106
   25.620    6.1962
   25.650    6.0909
   25.680    6.6000
   25.710    7.3021
   25.740    8.0920
   25.770    9.3558
   25.800   10.1106
   25.830    9.6015
   25.860    8.6712
   25.890    7.8989
   25.920    6.5473
   25.950    6.5649
   25.980    6.4420
   26.010    6.0558
   26.040    6.1962
   26.070    5.9505
   26.100    6.2665
   26.130    6.2489
   26.160    6.1962
   26.190    6.0558
   26.220    6.1962
   26.250    5.8101
   26.280    5.9505
   26.310    6.5122
   26.340    6.0207
   26.370    6.8984
   26.400    7.0915
   26.430    7.4425
   26.460    7.3547
   26.490    6.2840
   26.520    5.8978
   26.550    6.0909
   26.580    6.5122
   26.610    6.0032
   26.640    6.1962
   26.670    6.2489
   26.700    6.0558
   26.730    5.9856
   26.760    5.7223
   26.790    5.9681
   26.820    6.0909
   26.850    6.1962
   26.880    6.3191
   26.910    6.6351
   26.940    7.3021
   26.970    7.7760
   27.000    8.3202
   27.030    7.2845
   27.060    7.5478
   27.090    6.9510
   27.120    6.1085
   27.150    6.0207
   27.180    6.2840
   27.210    5.8452
   27.240    5.9505
   27.270    6.0383
   27.300    5.8978
   27.330    6.3367
   27.360    5.7048
   27.390    5.2133
   27.420    5.8452
   27.450    5.9505
   27.480    5.9681
   27.510    6.4069
   27.540    6.6000
   27.570    6.8106
   27.600    7.5478
   27.630    7.2494
   27.660    6.9686
   27.690    6.2840
   27.720    5.8276
   27.750    5.5994
   27.780    6.0207
   27.810    6.1085
   27.840    5.9681
   27.870    6.8808
   27.900    6.3718
   27.930    6.1436
   27.960    6.0383
   27.990    6.4595
   28.020    6.2313
   28.050    6.1085
   28.080    6.4420
   28.110    6.6175
   28.140    7.6180
   28.170    6.7579
   28.200    7.1792
   28.230    6.9159
   28.260    6.7579
   28.290    6.0032
   28.320    5.9681
   28.350    6.1260
   28.380    6.0558
   28.410    6.8633
   28.440    7.2494
   28.470    6.6702
   28.500    6.6000
   28.530    6.2313
   28.560    6.0909
   28.590    5.7574
   28.620    5.8978
   28.650    5.5292
   28.680    6.0734
   28.710    6.3718
   28.740    5.5994
   28.770    6.1436
   28.800    5.8101
   28.830    5.7048
   28.860    5.7223
   28.890    5.9505
   28.920    6.0734
   28.950    6.1260
   28.980    5.9505
   29.010    5.7750
   29.040    5.4941
   29.070    5.4766
   29.100    5.4064
   29.130    5.1080
   29.160    5.7574
   29.190    5.8452
   29.220    5.9681
   29.250    6.1611
   29.280    7.1090
   29.310    6.8106
   29.340    6.3191
   29.370    5.9681
   29.400    6.4069
   29.430    5.6872
   29.460    5.1957
   29.490    6.0383
   29.520    5.3361
   29.550    5.4415
   29.580    5.3712
   29.610    5.1782
   29.640    5.3010
   29.670    5.7223
   29.700    6.1611
   29.730    6.0383
   29.760    6.0383
   29.790    6.2138
   29.820    5.8452
   29.850    5.9329
   29.880    5.6345
   29.910    6.2138
   29.940    5.5994
   29.970    5.5643
   30.000    5.8978
   30.030    6.0032
   30.060    5.4766
   30.090    5.7223
   30.120    5.6521
   30.150    5.8101
   30.180    5.9154
   30.210    5.5643
   30.240    5.3712
   30.270    5.3888
   30.300    5.5994
   30.330    5.8452
   30.360    5.9505
   30.390    5.3186
   30.420    5.7048
   30.450    5.5292
   30.480    5.5292
   30.510    5.8803
   30.540    5.8627
   30.570    5.5819
   30.600    5.5468
   30.630    5.9505
   30.660    6.0383
   30.690    5.4415
   30.720    5.5819
   30.750    5.1957
   30.780    5.4239
   30.810    5.3010
   30.840    5.2659
   30.870    5.2133
   30.900    5.4941
   30.930    5.2659
   30.960    5.2133
   30.990    5.5819
   31.020    5.5117
   31.050    5.3010
   31.080    5.1255
   31.110    5.2659
   31.140    5.0904
   31.170    5.2308
   31.200    5.4941
   31.230    5.5292
   31.260    5.1606
   31.290    5.1957
   31.320    5.9154
   31.350    5.9681
   31.380    5.5819
   31.410    6.1436
   31.440    5.9329
   31.470    5.8452
   31.500    5.9856
   31.530    5.2835
   31.560    4.8798
   31.590    5.1957
   31.620    4.8798
   31.650    5.1957
   31.680    5.5292
   31.710    5.3186
   31.740    5.6872
   31.770    5.9154
   31.800    5.4590
   31.830    5.9329
   31.860    6.0909
   31.890    5.5117
   31.920    5.3712
   31.950    5.3361
   31.980    5.4239
   32.010    4.7042
   32.040    4.4760
   32.070    5.4239
   32.100    5.5117
   32.130    5.3010
   32.160    5.3712
   32.190    5.4590
   32.220    5.4766
   32.250    5.1255
   32.280    4.9851
   32.310    5.2308
   32.340    5.0202
   32.370    5.0728
   32.400    5.0202
   32.430    5.1431
   32.460    5.0904
   32.490    4.9851
   32.520    4.7042
   32.550    4.7920
   32.580    5.4590
   32.610    5.3186
   32.640    5.3888
   32.670    4.7042
   32.700    4.8622
   32.730    5.4239
   32.760    5.1255
   32.790    4.8447
   32.820    4.9500
   32.850    5.2835
   32.880    5.7750
   32.910    5.4766
   32.940    5.2659
   32.970    4.8622
   33.000    4.9324
   33.030    5.1255
   33.060    4.5814
   33.090    4.5638
   33.120    4.8447
   33.150    4.6691
   33.180    5.0026
   33.210    4.5814
   33.240    4.2303
   33.270    5.0728
   33.300    5.2835
   33.330    5.2659
   33.360    5.2308
   33.390    5.0377
   33.420    4.6691
   33.450    4.8447
   33.480    4.8095
   33.510    5.0026
   33.540    5.0377
   33.570    5.0553
   33.600    5.0202
   33.630    4.8973
   33.660    5.0202
   33.690    4.7569
   33.720    4.7393
   33.750    4.7042
   33.780    5.2659
   33.810    4.9851
   33.840    5.3888
   33.870    5.7574
   33.900    5.5994
   33.930    4.8622
   33.960    5.3361
   33.990    5.4766
   34.020    5.1255
   34.050    5.3888
   34.080    4.8447
   34.110    4.8095
   34.140    5.3186
   34.170    4.6340
   34.200    4.5989
   34.230    4.5111
   34.260    4.7042
   34.290    4.8095
   34.320    4.7920
   34.350    5.1431
   34.380    4.5989
   34.410    4.7569
   34.440    4.8271
   34.470    4.4760
   34.500    4.6516
   34.530    4.8271
   34.560    4.3883
   34.590    4.8798
   34.620    4.4058
   34.650    4.8271
   34.680    4.8095
   34.710    4.8095
   34.740    4.7920
   34.770    4.8095
   34.800    4.9500
   34.830    4.8798
   34.860    4.8095
   34.890    4.7920
   34.920    4.7920
   34.950    4.3707
   34.980    4.6691
   35.010    4.2478
   35.040    4.3532
   35.070    4.4760
   35.100    4.3532
   35.130    4.5814
   35.160    4.7393
   35.190    4.2654
   35.220    4.9149
   35.250    4.4585
   35.280    4.4409
   35.310    4.8973
   35.340    4.5463
   35.370    4.5814
   35.400    4.7042
   35.430    4.4585
   35.460    4.4760
   35.490    4.4585
   35.520    4.4760
   35.550    4.3883
   35.580    4.1425
   35.610    4.9324
   35.640    4.5111
   35.670    4.3532
   35.700    4.8447
   35.730    4.7569
   35.760    4.7920
   35.790    4.8798
   35.820    4.5287
   35.850    4.3707
   35.880    4.5989
   35.910    4.7393
   35.940    4.4936
   35.970    5.0202
   36.000    5.1782
   36.030    4.3532
   36.060    4.4936
   36.090    4.7744
   36.120    4.5111
   36.150    4.6165
   36.180    4.5287
   36.210    4.8095
   36.240    4.7569
   36.270    4.6867
   36.300    4.4936
   36.330    4.7744
   36.360    4.5287
   36.390    4.4936
   36.420    4.4058
   36.450    4.8798
   36.480    4.5638
   36.510    4.7042
   36.540    4.5463
   36.570    5.2133
   36.600    4.6165
   36.630    4.4409
   36.660    4.6340
   36.690    4.8095
   36.720    4.3181
   36.750    4.8622
   36.780    4.8973
   36.810    4.4760
   36.840    4.5814
   36.870    4.5989
   36.900    4.3707
   36.930    3.9143
   36.960    4.1601
   36.990    4.4058
   37.020    4.6867
   37.050    4.6340
   37.080    4.9149
   37.110    4.9500
   37.140    4.7569
   37.170    4.8095
   37.200    4.6165
   37.230    4.1776
   37.260    4.2303
   37.290    3.9846
   37.320    4.1601
   37.350    4.4936
   37.380    4.5814
   37.410    4.3707
   37.440    4.6867
   37.470    4.3707
   37.500    4.0723
   37.530    4.5989
   37.560    4.0372
   37.590    4.7920
   37.620    4.1425
   37.650    4.4760
   37.680    4.5287
   37.710    4.5111
   37.740    4.5111
   37.770    4.3883
   37.800    4.5287
   37.830    4.6165
   37.860    4.1601
   37.890    4.5638
   37.920    4.6516
   37.950    4.5814
   37.980    4.8622
   38.010    4.1425
   38.040    4.3532
   38.070    4.1952
   38.100    4.2478
   38.130    4.4760
   38.160    4.4585
   38.190    4.0899
   38.220    4.3532
   38.250    4.3707
   38.280    4.0548
   38.310    4.1776
   38.340    4.0548
   38.370    4.4234
   38.400    4.1425
   38.430    4.6867
   38.460    4.3356
   38.490    4.6867
   38.520    4.4234
   38.550    4.0372
   38.580    4.0899
   38.610    4.8973
   38.640    4.4585
   38.670    4.3005
   38.700    3.9319
   38.730    4.0899
   38.760    4.3181
   38.790    4.3707
   38.820    4.2127
   38.850    4.5287
   38.880    4.6516
   38.910    4.8798
   38.940    4.1250
   38.970    4.4760
   39.000    4.0197
   39.030    4.1601
   39.060    4.2478
   39.090    4.1952
   39.120    3.5106
   39.150    4.1776
   39.180    4.3883
   39.210    4.4058
   39.240    4.3356
   39.270    4.7393
   39.300    4.3356
   39.330    4.1074
   39.360    4.2478
   39.390    4.4760
   39.420    4.3005
   39.450    4.4760
   39.480    4.1425
   39.510    4.4058
   39.540    4.3181
   39.570    4.2654
   39.600    4.1601
   39.630    4.3356
   39.660    4.1425
   39.690    4.1425
   39.720    4.5111
   39.750    4.5463
   39.780    4.3883
   39.810    4.6867
   39.840    4.2127
   39.870    4.1250
   39.900    4.2127
   39.930    4.0723
   39.960    4.2654
   39.990    4.2127