File: data/PXRD/PXRD_KE-240_Co-Ka1_capillary-1mm_5s-deg.xyd
    1.500    3.4457
    1.530    3.5099
    1.560    3.5527
    1.590    3.4457
    1.620    3.3066
    1.650    2.7715
    1.680    2.5575
    1.710    2.7394
    1.740    2.8571
    1.770    2.5468
    1.800    2.4291
    1.830    2.2793
    1.860    2.2686
    1.890    1.9476
    1.920    2.1830
    1.950    1.9690
    1.980    1.9797
    2.010    1.9583
    2.040    1.8941
    2.070    1.6586
    2.100    1.7549
    2.130    1.5302
    2.160    1.6372
    2.190    1.6265
    2.220    1.5088
    2.250    1.6586
    2.280    1.5088
    2.310    1.4981
    2.340    1.4767
    2.370    1.5623
    2.400    1.5516
    2.430    1.4125
    2.460    1.2841
    2.490    1.2092
    2.520    1.4125
    2.550    1.1985
    2.580    1.2841
    2.610    1.3162
    2.640    1.0273
    2.670    1.3269
    2.700    1.1343
    2.730    1.1022
    2.760    1.1985
    2.790    1.0487
    2.820    1.1771
    2.850    1.0166
    2.880    1.1022
    2.910    1.2948
    2.940    1.1236
    2.970    1.3483
    3.000    1.0380
    3.030    0.9310
    3.060    1.0380
    3.090    1.1985
    3.120    1.0380
    3.150    1.1129
    3.180    1.0808
    3.210    1.1771
    3.240    0.8026
    3.270    0.9310
    3.300    1.0273
    3.330    0.9952
    3.360    1.4339
    3.390    1.0273
    3.420    1.0915
    3.450    1.0059
    3.480    1.1450
    3.510    0.9738
    3.540    1.0380
    3.570    0.9952
    3.600    0.9096
    3.630    1.0915
    3.660    1.0380
    3.690    1.0487
    3.720    0.9203
    3.750    0.8882
    3.780    1.0166
    3.810    0.8989
    3.840    1.1236
    3.870    1.0059
    3.900    0.9631
    3.930    0.9096
    3.960    0.9524
    3.990    0.8668
    4.020    0.9417
    4.050    0.8989
    4.080    0.8882
    4.110    0.8668
    4.140    0.8989
    4.170    1.1022
    4.200    0.8454
    4.230    0.8347
    4.260    0.9738
    4.290    1.1022
    4.320    0.8989
    4.350    0.8775
    4.380    0.9417
    4.410    1.0059
    4.440    0.9631
    4.470    1.0915
    4.500    0.8347
    4.530    1.0487
    4.560    0.9631
    4.590    0.8561
    4.620    0.9631
    4.650    1.0380
    4.680    0.9203
    4.710    0.9417
    4.740    0.9952
    4.770    0.8989
    4.800    0.9096
    4.830    0.8882
    4.860    0.8347
    4.890    0.8989
    4.920    0.8989
    4.950    0.8347
    4.980    0.8989
    5.010    0.9845
    5.040    0.8561
    5.070    0.7384
    5.100    0.9524
    5.130    0.9845
    5.160    0.9417
    5.190    0.8882
    5.220    0.7277
    5.250    0.9524
    5.280    0.7919
    5.310    0.7919
    5.340    0.8775
    5.370    0.8240
    5.400    0.7705
    5.430    0.7170
    5.460    0.8454
    5.490    0.8347
    5.520    0.9738
    5.550    0.7919
    5.580    0.7598
    5.610    0.7277
    5.640    0.9631
    5.670    0.8454
    5.700    0.8347
    5.730    0.7598
    5.760    0.7705
    5.790    0.7384
    5.820    0.7919
    5.850    0.7705
    5.880    0.8989
    5.910    0.8989
    5.940    0.8454
    5.970    0.8026
    6.000    0.8454
    6.030    0.9096
    6.060    0.7812
    6.090    0.7491
    6.120    0.8882
    6.150    0.8026
    6.180    0.7491
    6.210    0.8561
    6.240    0.9417
    6.270    0.7277
    6.300    0.8026
    6.330    0.8347
    6.360    0.8668
    6.390    0.7812
    6.420    0.6956
    6.450    0.7598
    6.480    0.7384
    6.510    0.7384
    6.540    0.7277
    6.570    0.7919
    6.600    0.7705
    6.630    0.8775
    6.660    0.8026
    6.690    0.8347
    6.720    0.7598
    6.750    0.8989
    6.780    0.9203
    6.810    0.8454
    6.840    0.8561
    6.870    0.8775
    6.900    0.8240
    6.930    0.8775
    6.960    0.7598
    6.990    0.9417
    7.020    0.6849
    7.050    0.7063
    7.080    0.7598
    7.110    0.6742
    7.140    0.7598
    7.170    0.8561
    7.200    0.7170
    7.230    0.8668
    7.260    0.7919
    7.290    0.7277
    7.320    0.8668
    7.350    0.8240
    7.380    0.8347
    7.410    0.6421
    7.440    0.8454
    7.470    0.9096
    7.500    0.8454
    7.530    0.7277
    7.560    0.7919
    7.590    0.8561
    7.620    0.7170
    7.650    0.9096
    7.680    0.8347
    7.710    0.9096
    7.740    0.9631
    7.770    0.8454
    7.800    0.8882
    7.830    0.8133
    7.860    0.8347
    7.890    0.8026
    7.920    0.9096
    7.950    0.8668
    7.980    0.7919
    8.010    0.9310
    8.040    0.8882
    8.070    0.8989
    8.100    0.8668
    8.130    0.8989
    8.160    0.8133
    8.190    0.8347
    8.220    0.9310
    8.250    0.8347
    8.280    0.8454
    8.310    0.7919
    8.340    0.7919
    8.370    0.9417
    8.400    0.8882
    8.430    0.7705
    8.460    0.8561
    8.490    0.9096
    8.520    1.0594
    8.550    0.9845
    8.580    0.8347
    8.610    0.8561
    8.640    0.8347
    8.670    0.8989
    8.700    0.7598
    8.730    0.8882
    8.760    0.8775
    8.790    0.8133
    8.820    0.9417
    8.850    0.7812
    8.880    0.8882
    8.910    0.7919
    8.940    0.8240
    8.970    0.8668
    9.000    0.8989
    9.030    0.8240
    9.060    0.8561
    9.090    0.8240
    9.120    0.7598
    9.150    0.8026
    9.180    0.8240
    9.210    0.8775
    9.240    1.0273
    9.270    0.7919
    9.300    0.7598
    9.330    0.9524
    9.360    0.8668
    9.390    0.8668
    9.420    0.9845
    9.450    0.9096
    9.480    0.8240
    9.510    0.9310
    9.540    0.8454
    9.570    0.9417
    9.600    0.9524
    9.630    0.9203
    9.660    0.8133
    9.690    0.9845
    9.720    0.8775
    9.750    0.8668
    9.780    0.9203
    9.810    0.8775
    9.840    1.0059
    9.870    0.8989
    9.900    0.9096
    9.930    1.0380
    9.960    0.8561
    9.990    0.9310
   10.020    0.8347
   10.050    0.8561
   10.080    0.7598
   10.110    0.8347
   10.140    0.8989
   10.170    0.8775
   10.200    1.0380
   10.230    0.8454
   10.260    0.9631
   10.290    0.8347
   10.320    0.8454
   10.350    0.8454
   10.380    0.9952
   10.410    1.0808
   10.440    0.9417
   10.470    0.9417
   10.500    0.8240
   10.530    0.8775
   10.560    0.8026
   10.590    0.9096
   10.620    0.8347
   10.650    0.9203
   10.680    0.7812
   10.710    0.9952
   10.740    0.8882
   10.770    0.9952
   10.800    0.8668
   10.830    0.8133
   10.860    0.9631
   10.890    1.0380
   10.920    0.9738
   10.950    0.8668
   10.980    0.8775
   11.010    1.0701
   11.040    0.9524
   11.070    0.9738
   11.100    0.9096
   11.130    1.0808
   11.160    1.1450
   11.190    0.9310
   11.220    0.9203
   11.250    0.9203
   11.280    1.0059
   11.310    0.9310
   11.340    1.1129
   11.370    1.0380
   11.400    0.9096
   11.430    1.1343
   11.460    0.9631
   11.490    0.9631
   11.520    1.0380
   11.550    0.8882
   11.580    1.1664
   11.610    1.0594
   11.640    0.9631
   11.670    0.8775
   11.700    0.9203
   11.730    0.9845
   11.760    0.9845
   11.790    0.9310
   11.820    1.0273
   11.850    1.0808
   11.880    1.0701
   11.910    1.0273
   11.940    0.8347
   11.970    1.0808
   12.000    0.9738
   12.030    1.0166
   12.060    0.9417
   12.090    0.8775
   12.120    0.8989
   12.150    0.9310
   12.180    1.1236
   12.210    0.9417
   12.240    1.0059
   12.270    0.8668
   12.300    1.0273
   12.330    0.9952
   12.360    0.9952
   12.390    1.0701
   12.420    0.8240
   12.450    0.9524
   12.480    0.9631
   12.510    0.9096
   12.540    0.9524
   12.570    0.9203
   12.600    1.0059
   12.630    1.1557
   12.660    0.9096
   12.690    0.9310
   12.720    1.0487
   12.750    0.9952
   12.780    0.7705
   12.810    0.8133
   12.840    0.9096
   12.870    1.0059
   12.900    0.9738
   12.930    0.8240
   12.960    0.8668
   12.990    0.9417
   13.020    0.8668
   13.050    0.8347
   13.080    1.1450
   13.110    0.9310
   13.140    1.0380
   13.170    0.9524
   13.200    0.8775
   13.230    1.0166
   13.260    0.8347
   13.290    0.8668
   13.320    0.8775
   13.350    0.9524
   13.380    0.9952
   13.410    0.8775
   13.440    0.9310
   13.470    1.0594
   13.500    0.6849
   13.530    0.8668
   13.560    0.9524
   13.590    0.7277
   13.620    0.7919
   13.650    0.8561
   13.680    0.8347
   13.710    0.7170
   13.740    0.7705
   13.770    0.8240
   13.800    0.6635
   13.830    0.8775
   13.860    0.9631
   13.890    0.7598
   13.920    0.8561
   13.950    0.8347
   13.980    0.7919
   14.010    0.7705
   14.040    0.8454
   14.070    0.6956
   14.100    0.8454
   14.130    0.9096
   14.160    0.8454
   14.190    0.7277
   14.220    0.7598
   14.250    0.8026
   14.280    0.9631
   14.310    0.6635
   14.340    0.6635
   14.370    0.7384
   14.400    0.6207
   14.430    0.7063
   14.460    0.8775
   14.490    0.7384
   14.520    0.7705
   14.550    0.8026
   14.580    0.7919
   14.610    0.7384
   14.640    0.8026
   14.670    0.8240
   14.700    0.7384
   14.730    0.6528
   14.760    0.7063
   14.790    0.7277
   14.820    0.8775
   14.850    0.7919
   14.880    0.6207
   14.910    0.7705
   14.940    0.7277
   14.970    0.6207
   15.000    0.7170
   15.030    0.8454
   15.060    0.8133
   15.090    0.7705
   15.120    0.6314
   15.150    0.6635
   15.180    0.6956
   15.210    0.7919
   15.240    0.9417
   15.270    0.7491
   15.300    0.6742
   15.330    0.8561
   15.360    0.6956
   15.390    0.6635
   15.420    0.8026
   15.450    0.7812
   15.480    0.8026
   15.510    0.7812
   15.540    0.8240
   15.570    0.7277
   15.600    0.6100
   15.630    0.6956
   15.660    0.7063
   15.690    0.7384
   15.720    0.7277
   15.750    0.8026
   15.780    0.6956
   15.810    0.7598
   15.840    0.7170
   15.870    0.6742
   15.900    0.8347
   15.930    0.7705
   15.960    0.6849
   15.990    0.6528
   16.020    0.7491
   16.050    0.7170
   16.080    0.9310
   16.110    0.7919
   16.140    0.7384
   16.170    0.6528
   16.200    0.6849
   16.230    0.6635
   16.260    0.6528
   16.290    0.7919
   16.320    0.6635
   16.350    0.7491
   16.380    0.8561
   16.410    0.9845
   16.440    0.6314
   16.470    0.5457
   16.500    0.6956
   16.530    0.6849
   16.560    0.6421
   16.590    0.6207
   16.620    0.6849
   16.650    0.7170
   16.680    0.7384
   16.710    0.7491
   16.740    0.7277
   16.770    0.6849
   16.800    0.7063
   16.830    0.7919
   16.860    0.6314
   16.890    0.6742
   16.920    0.7812
   16.950    0.5993
   16.980    0.8454
   17.010    0.6635
   17.040    0.7812
   17.070    0.7277
   17.100    0.7384
   17.130    0.6956
   17.160    0.6956
   17.190    0.8026
   17.220    0.7812
   17.250    0.7491
   17.280    0.9310
   17.310    0.7812
   17.340    0.7919
   17.370    0.7063
   17.400    0.8133
   17.430    0.8882
   17.460    0.8454
   17.490    0.6528
   17.520    0.8347
   17.550    0.6635
   17.580    0.5886
   17.610    0.7598
   17.640    0.7705
   17.670    0.7384
   17.700    0.8454
   17.730    0.6956
   17.760    0.6314
   17.790    0.6849
   17.820    0.8454
   17.850    0.6314
   17.880    0.8240
   17.910    0.6528
   17.940    0.7384
   17.970    0.5886
   18.000    0.6742
   18.030    0.7812
   18.060    0.6635
   18.090    0.7384
   18.120    0.6849
   18.150    0.6742
   18.180    0.7384
   18.210    0.7919
   18.240    0.6635
   18.270    0.6635
   18.300    0.7812
   18.330    0.7277
   18.360    0.7812
   18.390    0.6635
   18.420    0.7705
   18.450    0.7384
   18.480    0.6635
   18.510    0.7705
   18.540    0.7170
   18.570    0.7277
   18.600    0.7384
   18.630    0.7277
   18.660    0.6635
   18.690    0.6635
   18.720    0.8989
   18.750    0.7063
   18.780    0.7919
   18.810    0.7812
   18.840    0.8240
   18.870    0.7384
   18.900    0.5243
   18.930    0.8454
   18.960    0.6849
   18.990    0.7598
   19.020    0.7919
   19.050    0.6742
   19.080    0.8133
   19.110    0.8240
   19.140    0.6742
   19.170    0.7063
   19.200    0.8882
   19.230    0.6956
   19.260    0.7384
   19.290    0.7063
   19.320    0.7705
   19.350    0.5993
   19.380    0.7812
   19.410    0.7598
   19.440    0.7812
   19.470    0.6635
   19.500    0.7170
   19.530    0.6100
   19.560    0.6100
   19.590    0.6849
   19.620    0.7063
   19.650    0.7705
   19.680    0.6849
   19.710    0.7491
   19.740    0.6635
   19.770    0.6421
   19.800    0.8026
   19.830    0.7063
   19.860    0.8240
   19.890    0.7705
   19.920    0.8240
   19.950    0.7705
   19.980    0.9203
   20.010    0.8775
   20.040    0.8454
   20.070    0.6421
   20.100    0.8133
   20.130    0.7170
   20.160    0.8133
   20.190    0.7277
   20.220    0.7170
   20.250    0.8882
   20.280    0.7170
   20.310    0.9096
   20.340    0.8133
   20.370    0.8454
   20.400    0.7919
   20.430    0.7063
   20.460    0.7919
   20.490    0.8775
   20.520    0.7919
   20.550    0.7812
   20.580    0.7384
   20.610    0.7384
   20.640    0.7705
   20.670    0.7705
   20.700    0.7705
   20.730    0.7598
   20.760    0.9524
   20.790    0.8561
   20.820    0.6528
   20.850    0.8989
   20.880    0.7170
   20.910    0.8240
   20.940    0.8561
   20.970    0.7598
   21.000    0.6207
   21.030    0.6742
   21.060    0.6421
   21.090    0.8668
   21.120    0.7598
   21.150    0.7384
   21.180    0.7277
   21.210    0.7277
   21.240    0.6635
   21.270    0.7812
   21.300    0.8026
   21.330    0.7598
   21.360    0.8026
   21.390    0.7598
   21.420    0.7170
   21.450    0.7705
   21.480    0.8454
   21.510    0.7277
   21.540    0.7170
   21.570    0.6421
   21.600    0.8026
   21.630    0.7491
   21.660    0.7170
   21.690    0.7170
   21.720    0.8026
   21.750    0.8989
   21.780    0.8454
   21.810    0.6314
   21.840    0.6956
   21.870    0.8240
   21.900    0.6956
   21.930    0.9096
   21.960    0.7384
   21.990    0.9203
   22.020    0.7063
   22.050    0.9952
   22.080    0.9845
   22.110    1.0380
   22.140    0.8347
   22.170    0.9524
   22.200    0.8026
   22.230    0.8882
   22.260    0.8240
   22.290    0.8775
   22.320    0.8668
   22.350    0.8026
   22.380    0.7384
   22.410    0.7705
   22.440    0.8026
   22.470    0.8240
   22.500    0.6528
   22.530    0.7705
   22.560    0.7277
   22.590    0.7384
   22.620    0.8668
   22.650    0.7812
   22.680    0.8454
   22.710    0.7705
   22.740    0.6742
   22.770    0.7919
   22.800    0.8133
   22.830    0.6100
   22.860    0.8026
   22.890    0.7919
   22.920    0.8775
   22.950    0.8026
   22.980    0.7705
   23.010    0.9417
   23.040    0.8561
   23.070    0.7491
   23.100    0.7277
   23.130    1.0701
   23.160    0.7170
   23.190    0.8668
   23.220    0.8026
   23.250    0.7705
   23.280    0.8026
   23.310    0.6956
   23.340    0.9310
   23.370    0.7705
   23.400    0.7598
   23.430    0.7919
   23.460    0.7705
   23.490    0.6849
   23.520    0.8347
   23.550    0.7384
   23.580    0.7812
   23.610    0.8775
   23.640    0.6314
   23.670    0.7705
   23.700    0.8133
   23.730    0.7705
   23.760    0.7705
   23.790    0.7705
   23.820    0.8347
   23.850    0.7705
   23.880    0.7812
   23.910    0.7598
   23.940    0.8026
   23.970    0.7919
   24.000    0.8775
   24.030    0.8561
   24.060    0.7384
   24.090    0.8882
   24.120    0.7491
   24.150    0.7705
   24.180    0.7919
   24.210    0.6314
   24.240    0.8454
   24.270    0.8240
   24.300    0.7812
   24.330    0.8561
   24.360    0.9203
   24.390    0.8240
   24.420    0.7812
   24.450    0.9524
   24.480    0.7812
   24.510    0.8668
   24.540    0.7384
   24.570    0.9096
   24.600    0.8026
   24.630    0.8454
   24.660    0.7919
   24.690    0.8240
   24.720    0.8775
   24.750    0.7919
   24.780    0.8882
   24.810    0.9203
   24.840    0.7491
   24.870    0.9631
   24.900    0.8026
   24.930    0.7170
   24.960    0.7812
   24.990    0.8561
   25.020    0.8668
   25.050    0.8454
   25.080    0.8561
   25.110    0.8026
   25.140    0.8240
   25.170    0.7598
   25.200    0.7598
   25.230    0.8561
   25.260    0.8561
   25.290    0.6849
   25.320    0.8347
   25.350    0.7491
   25.380    0.7277
   25.410    0.7705
   25.440    0.7919
   25.470    0.8454
   25.500    0.8561
   25.530    0.8347
   25.560    0.8240
   25.590    0.8561
   25.620    0.7491
   25.650    0.8989
   25.680    0.7705
   25.710    0.9417
   25.740    0.7919
   25.770    0.7384
   25.800    0.7705
   25.830    0.7919
   25.860    0.7705
   25.890    0.8026
   25.920    0.9417
   25.950    0.7598
   25.980    0.6528
   26.010    0.7277
   26.040    0.7170
   26.070    0.9631
   26.100    0.9524
   26.130    0.8561
   26.160    0.7812
   26.190    0.7705
   26.220    0.8454
   26.250    0.8240
   26.280    0.7384
   26.310    0.8775
   26.340    0.8454
   26.370    0.8775
   26.400    0.7812
   26.430    0.7384
   26.460    0.8133
   26.490    0.6849
   26.520    0.8561
   26.550    0.6207
   26.580    0.7384
   26.610    0.8026
   26.640    0.8989
   26.670    0.8668
   26.700    0.8668
   26.730    0.8347
   26.760    0.8882
   26.790    0.7491
   26.820    0.9096
   26.850    0.9417
   26.880    0.8026
   26.910    0.9631
   26.940    0.8026
   26.970    0.8668
   27.000    0.7919
   27.030    0.9738
   27.060    0.9203
   27.090    0.8454
   27.120    0.8668
   27.150    0.6956
   27.180    0.9524
   27.210    0.7812
   27.240    0.7170
   27.270    0.7812
   27.300    0.7705
   27.330    0.7063
   27.360    1.0059
   27.390    0.7170
   27.420    0.9524
   27.450    0.8133
   27.480    0.7705
   27.510    0.7384
   27.540    0.7491
   27.570    0.6849
   27.600    0.7812
   27.630    0.7812
   27.660    0.8133
   27.690    0.7705
   27.720    0.7063
   27.750    0.8561
   27.780    0.8989
   27.810    0.7598
   27.840    0.9524
   27.870    0.8989
   27.900    0.9203
   27.930    0.7063
   27.960    0.7598
   27.990    0.7705
   28.020    0.7812
   28.050    0.7705
   28.080    0.7277
   28.110    0.8668
   28.140    0.7170
   28.170    0.7705
   28.200    0.8026
   28.230    0.8133
   28.260    0.7705
   28.290    0.8026
   28.320    0.9524
   28.350    0.7598
   28.380    0.8240
   28.410    0.8454
   28.440    0.7384
   28.470    0.8026
   28.500    0.8454
   28.530    0.8133
   28.560    0.7598
   28.590    0.9096
   28.620    0.7598
   28.650    0.7705
   28.680    0.8026
   28.710    0.7384
   28.740    0.8561
   28.770    0.8026
   28.800    0.6528
   28.830    0.7277
   28.860    0.8026
   28.890    0.8240
   28.920    0.6742
   28.950    0.7812
   28.980    0.7919
   29.010    0.7277
   29.040    0.7384
   29.070    0.8561
   29.100    0.8561
   29.130    0.7491
   29.160    0.8026
   29.190    0.7812
   29.220    0.8133
   29.250    0.7705
   29.280    0.7384
   29.310    0.6849
   29.340    0.6849
   29.370    0.7705
   29.400    0.7170
   29.430    0.7277
   29.460    0.7812
   29.490    0.6742
   29.520    0.7170
   29.550    0.7491
   29.580    0.8133
   29.610    0.7705
   29.640    0.6956
   29.670    0.7705
   29.700    0.6956
   29.730    0.8347
   29.760    0.6207
   29.790    0.7063
   29.820    0.8561
   29.850    0.6956
   29.880    0.7384
   29.910    0.6956
   29.940    0.7277
   29.970    0.6849
   30.000    0.7491
   30.030    0.7598
   30.060    0.8026
   30.090    0.6635
   30.120    0.7598
   30.150    0.7919
   30.180    0.7170
   30.210    0.6421
   30.240    0.6635
   30.270    0.7277
   30.300    0.8026
   30.330    0.6207
   30.360    0.7170
   30.390    0.6956
   30.420    0.8347
   30.450    0.5886
   30.480    0.8026
   30.510    0.7384
   30.540    0.7598
   30.570    0.6100
   30.600    0.6314
   30.630    0.5993
   30.660    0.7812
   30.690    0.5886
   30.720    0.7812
   30.750    0.7919
   30.780    0.6207
   30.810    0.6742
   30.840    0.4922
   30.870    0.8668
   30.900    0.6849
   30.930    0.6956
   30.960    0.6956
   30.990    0.6528
   31.020    0.7812
   31.050    0.8668
   31.080    0.7812
   31.110    0.6100
   31.140    0.6742
   31.170    0.7384
   31.200    0.7384
   31.230    0.6635
   31.260    0.7170
   31.290    0.7491
   31.320    0.6956
   31.350    0.6314
   31.380    0.7705
   31.410    0.6207
   31.440    0.6207
   31.470    0.6956
   31.500    0.5993
   31.530    0.5993
   31.560    0.6849
   31.590    0.6742
   31.620    0.7277
   31.650    0.6528
   31.680    0.6100
   31.710    0.6421
   31.740    0.6956
   31.770    0.6100
   31.800    0.6314
   31.830    0.6207
   31.860    0.6528
   31.890    0.6207
   31.920    0.7170
   31.950    0.6742
   31.980    0.7063
   32.010    0.5457
   32.040    0.6100
   32.070    0.6849
   32.100    0.5564
   32.130    0.7063
   32.160    0.6742
   32.190    0.7384
   32.220    0.5457
   32.250    0.5457
   32.280    0.6849
   32.310    0.6207
   32.340    0.7063
   32.370    0.7598
   32.400    0.7491
   32.430    0.7598
   32.460    0.5993
   32.490    0.5457
   32.520    0.6207
   32.550    0.6421
   32.580    0.7063
   32.610    0.9417
   32.640    0.8454
   32.670    0.8347
   32.700    0.8668
   32.730    0.6956
   32.760    0.6956
   32.790    0.5778
   32.820    0.5671
   32.850    0.6956
   32.880    0.6849
   32.910    0.5671
   32.940    0.6635
   32.970    0.5671
   33.000    0.6207
   33.030    0.6849
   33.060    0.6207
   33.090    0.7063
   33.120    0.5243
   33.150    0.7384
   33.180    0.5886
   33.210    0.7277
   33.240    0.6207
   33.270    0.5243
   33.300    0.6956
   33.330    0.5886
   33.360    0.6421
   33.390    0.6314
   33.420    0.6849
   33.450    0.6100
   33.480    0.5993
   33.510    0.4922
   33.540    0.5886
   33.570    0.6421
   33.600    0.5778
   33.630    0.6314
   33.660    0.6100
   33.690    0.5993
   33.720    0.7705
   33.750    0.8454
   33.780    0.7277
   33.810    0.6849
   33.840    0.6849
   33.870    0.6421
   33.900    0.5886
   33.930    0.5671
   33.960    0.5564
   33.990    0.6742
   34.020    0.5993
   34.050    0.5350
   34.080    0.6635
   34.110    0.5886
   34.140    0.5564
   34.170    0.6421
   34.200    0.5243
   34.230    0.5886
   34.260    0.5993
   34.290    0.5564
   34.320    0.5457
   34.350    0.5029
   34.380    0.6528
   34.410    0.5457
   34.440    0.5457
   34.470    0.5243
   34.500    0.5457
   34.530    0.5243
   34.560    0.4601
   34.590    0.7919
   34.620    0.4494
   34.650    0.6421
   34.680    0.6742
   34.710    0.5136
   34.740    0.6100
   34.770    0.6207
   34.800    0.5778
   34.830    0.5778
   34.860    0.6207
   34.890    0.6100
   34.920    0.5778
   34.950    0.4494
   34.980    0.5564
   35.010    0.6635
   35.040    0.6421
   35.070    0.5350
   35.100    0.5564
   35.130    0.5457
   35.160    0.5886
   35.190    0.4494
   35.220    0.6100
   35.250    0.5457
   35.280    0.5243
   35.310    0.4708
   35.340    0.6100
   35.370    0.5350
   35.400    0.4066
   35.430    0.5778
   35.460    0.4815
   35.490    0.5350
   35.520    0.5886
   35.550    0.5243
   35.580    0.4815
   35.610    0.5671
   35.640    0.4280
   35.670    0.5886
   35.700    0.6528
   35.730    0.4173
   35.760    0.5564
   35.790    0.5564
   35.820    0.4922
   35.850    0.5350
   35.880    0.5886
   35.910    0.5136
   35.940    0.6528
   35.970    0.4066
   36.000    0.4922
   36.030    0.5243
   36.060    0.4494
   36.090    0.5886
   36.120    0.4815
   36.150    0.4922
   36.180    0.6100
   36.210    0.5350
   36.240    0.4173
   36.270    0.5457
   36.300    0.5243
   36.330    0.4815
   36.360    0.4387
   36.390    0.4922
   36.420    0.4280
   36.450    0.4173
   36.480    0.5243
   36.510    0.5564
   36.540    0.5029
   36.570    0.6100
   36.600    0.4708
   36.630    0.5457
   36.660    0.4922
   36.690    0.3959
   36.720    0.4815
   36.750    0.5243
   36.780    0.4815
   36.810    0.4601
   36.840    0.4173
   36.870    0.5564
   36.900    0.5029
   36.930    0.3959
   36.960    0.3852
   36.990    0.5243
   37.020    0.4494
   37.050    0.4066
   37.080    0.6100
   37.110    0.5886
   37.140    0.6207
   37.170    0.5993
   37.200    0.5564
   37.230    0.5778
   37.260    0.5993
   37.290    0.6207
   37.320    0.6528
   37.350    0.6528
   37.380    0.7170
   37.410    0.8668
   37.440    0.9096
   37.470    0.8454
   37.500    0.7491
   37.530    0.7491
   37.560    0.4601
   37.590    0.5029
   37.620    0.4922
   37.650    0.5029
   37.680    0.4601
   37.710    0.4601
   37.740    0.3959
   37.770    0.4708
   37.800    0.6528
   37.830    0.3210
   37.860    0.4173
   37.890    0.4922
   37.920    0.5457
   37.950    0.4494
   37.980    0.5350
   38.010    0.5350
   38.040    0.3638
   38.070    0.4173
   38.100    0.5671
   38.130    0.4601
   38.160    0.4173
   38.190    0.5136
   38.220    0.4494
   38.250    0.4387
   38.280    0.4173
   38.310    0.5778
   38.340    0.3959
   38.370    0.4601
   38.400    0.4708
   38.430    0.4066
   38.460    0.4708
   38.490    0.4387
   38.520    0.4280
   38.550    0.4066
   38.580    0.3959
   38.610    0.3531
   38.640    0.4601
   38.670    0.4494
   38.700    0.4708
   38.730    0.3959
   38.760    0.3638
   38.790    0.4173
   38.820    0.5136
   38.850    0.4601
   38.880    0.4066
   38.910    0.4066
   38.940    0.4601
   38.970    0.4280
   39.000    0.4280
   39.030    0.5243
   39.060    0.4922
   39.090    0.4387
   39.120    0.4173
   39.150    0.5029
   39.180    0.3424
   39.210    0.3424
   39.240    0.5136
   39.270    0.4280
   39.300    0.3852
   39.330    0.3210
   39.360    0.4173
   39.390    0.4922
   39.420    0.5029
   39.450    0.5671
   39.480    0.6314
   39.510    0.6207
   39.540    0.4387
   39.570    0.4601
   39.600    0.4494
   39.630    0.3638
   39.660    0.3852
   39.690    0.5671
   39.720    0.3638
   39.750    0.3638
   39.780    0.4387
   39.810    0.3424
   39.840    0.4387
   39.870    0.3852
   39.900    0.4494
   39.930    0.3424
   39.960    0.3852
   39.990    0.3424