File: data/PXRD/PXRD_KE-090_Cu-Ka1_capillary-1mm_5s-deg.xyd
    1.500   11.7430
    1.530   11.7430
    1.560   11.0269
    1.590   11.2796
    1.620   10.9742
    1.650   10.9953
    1.680   10.6688
    1.710   11.1111
    1.740   10.6266
    1.770   10.3633
    1.800   10.7109
    1.830   10.3318
    1.860   10.0579
    1.890   10.3423
    1.920   10.2580
    1.950   10.1843
    1.980    9.9737
    2.010   10.1632
    2.040    9.3418
    2.070    9.3628
    2.100    9.9526
    2.130    9.7314
    2.160    9.3207
    2.190   10.4265
    2.220    9.6893
    2.250    9.6472
    2.280    9.8999
    2.310    9.9947
    2.340    9.3944
    2.370    9.7630
    2.400    9.8578
    2.430    9.5419
    2.460   10.3528
    2.490    9.4787
    2.520    9.8684
    2.550    9.8157
    2.580    9.5735
    2.610    9.6261
    2.640   10.2896
    2.670   10.2580
    2.700   10.2580
    2.730    9.5419
    2.760   10.4055
    2.790   10.1843
    2.820   10.1948
    2.850   10.4265
    2.880   10.2264
    2.910   11.4903
    2.940   10.8268
    2.970   11.2164
    3.000   11.0795
    3.030   11.8062
    3.060   11.8273
    3.090   12.3117
    3.120   12.6593
    3.150   13.1438
    3.180   13.7651
    3.210   13.9652
    3.240   15.1448
    3.270   15.3344
    3.300   16.5140
    3.330   17.4829
    3.360   18.6098
    3.390   20.3686
    3.420   21.6746
    3.450   22.6856
    3.480   21.9063
    3.510   20.4107
    3.540   16.9142
    3.570   14.9236
    3.600   13.9337
    3.630   13.4808
    3.660   13.2807
    3.690   12.6172
    3.720   13.5018
    3.750   13.6072
    3.780   14.2180
    3.810   15.2607
    3.840   15.7451
    3.870   15.5977
    3.900   16.9142
    3.930   15.1027
    3.960   12.7962
    3.990   12.7436
    4.020   12.3012
    4.050   12.1011
    4.080   11.8589
    4.110   11.6061
    4.140   10.4897
    4.170    9.7314
    4.200    9.6051
    4.230    9.4681
    4.260    8.9100
    4.290    9.0047
    4.320    8.8152
    4.350    8.2675
    4.380    8.0042
    4.410    7.8778
    4.440    7.7620
    4.470    7.6356
    4.500    8.0674
    4.530    7.4776
    4.560    7.4355
    4.590    7.7409
    4.620    7.1511
    4.650    7.5092
    4.680    7.3828
    4.710    6.8773
    4.740    6.9194
    4.770    7.5092
    4.800    6.9300
    4.830    6.9932
    4.860    6.7299
    4.890    7.0879
    4.920    6.8668
    4.950    6.7615
    4.980    6.7193
    5.010    6.9194
    5.040    6.9300
    5.070    6.9510
    5.100    6.7720
    5.130    6.6351
    5.160    6.7615
    5.190    6.7930
    5.220    7.0985
    5.250    6.7615
    5.280    7.0142
    5.310    7.2459
    5.340    7.0879
    5.370    6.9616
    5.400    7.5092
    5.430    7.5724
    5.460    7.4144
    5.490    7.2459
    5.520    7.2038
    5.550    6.9510
    5.580    5.8978
    5.610    7.0037
    5.640    6.3086
    5.670    6.7088
    5.700    6.4244
    5.730    6.6561
    5.760    6.3823
    5.790    6.7193
    5.820    6.2243
    5.850    6.6035
    5.880    6.4350
    5.910    6.1822
    5.940    6.1085
    5.970    6.3718
    6.000    6.4350
    6.030    6.3402
    6.060    6.2033
    6.090    6.6351
    6.120    6.4455
    6.150    6.4244
    6.180    6.3928
    6.210    6.3823
    6.240    6.3296
    6.270    6.6351
    6.300    6.7825
    6.330    6.8352
    6.360    6.8036
    6.390    6.6351
    6.420    6.7088
    6.450    6.6351
    6.480    6.9405
    6.510    6.3823
    6.540    6.8141
    6.570    6.8036
    6.600    6.9089
    6.630    6.7615
    6.660    7.2459
    6.690    6.7720
    6.720    7.0985
    6.750    6.7615
    6.780    7.2354
    6.810    7.2775
    6.840    7.2565
    6.870    7.2038
    6.900    7.9621
    6.930    7.5303
    6.960    7.4355
    6.990    7.6461
    7.020    7.7830
    7.050    7.3618
    7.080    6.8773
    7.110    7.0563
    7.140    6.8457
    7.170    6.6877
    7.200    6.7615
    7.230    6.6561
    7.260    6.6351
    7.290    6.5929
    7.320    6.9510
    7.350    6.7825
    7.380    6.8984
    7.410    6.8457
    7.440    6.7193
    7.470    6.9510
    7.500    6.8773
    7.530    7.2249
    7.560    6.7615
    7.590    7.0037
    7.620    6.9194
    7.650    6.7825
    7.680    6.9826
    7.710    7.3196
    7.740    7.0669
    7.770    7.2459
    7.800    7.4144
    7.830    7.6040
    7.860    7.2459
    7.890    7.2775
    7.920    7.1090
    7.950    7.3302
    7.980    7.0985
    8.010    7.0458
    8.040    7.1195
    8.070    7.1511
    8.100    6.8878
    8.130    7.2249
    8.160    7.4671
    8.190    7.5197
    8.220    7.3091
    8.250    7.3302
    8.280    7.2775
    8.310    7.0774
    8.340    7.3407
    8.370    6.6351
    8.400    7.2565
    8.430    6.8668
    8.460    6.9089
    8.490    7.3196
    8.520    7.4250
    8.550    7.0774
    8.580    6.7509
    8.610    7.3618
    8.640    7.1617
    8.670    7.1722
    8.700    7.1722
    8.730    7.2038
    8.760    6.9616
    8.790    6.8036
    8.820    6.9826
    8.850    7.3407
    8.880    7.2880
    8.910    7.4355
    8.940    6.7088
    8.970    7.1195
    9.000    6.9932
    9.030    7.0248
    9.060    7.1195
    9.090    6.9826
    9.120    6.8036
    9.150    6.5192
    9.180    6.9932
    9.210    7.1090
    9.240    6.9721
    9.270    7.2670
    9.300    6.8457
    9.330    7.0142
    9.360    7.5408
    9.390    6.8246
    9.420    7.2986
    9.450    7.0458
    9.480    7.1722
    9.510    7.1511
    9.540    7.3302
    9.570    7.3091
    9.600    7.2986
    9.630    7.0669
    9.660    7.1617
    9.690    7.0985
    9.720    6.8773
    9.750    6.9405
    9.780    6.8668
    9.810    6.9194
    9.840    7.0142
    9.870    7.2143
    9.900    6.9616
    9.930    6.6456
    9.960    6.7720
    9.990    7.1722
   10.020    7.0879
   10.050    7.1933
   10.080    6.8246
   10.110    7.0353
   10.140    6.8457
   10.170    7.0458
   10.200    6.9616
   10.230    6.8878
   10.260    6.8773
   10.290    7.2565
   10.320    7.1406
   10.350    6.7720
   10.380    7.1301
   10.410    6.7825
   10.440    7.2459
   10.470    7.0669
   10.500    6.6983
   10.530    6.7299
   10.560    6.7615
   10.590    6.8141
   10.620    6.9826
   10.650    6.8457
   10.680    6.8352
   10.710    6.8773
   10.740    6.6877
   10.770    6.8668
   10.800    6.9405
   10.830    6.7193
   10.860    6.7088
   10.890    6.7720
   10.920    6.5192
   10.950    6.5929
   10.980    6.6351
   11.010    6.9510
   11.040    6.5508
   11.070    6.6667
   11.100    6.4666
   11.130    6.6667
   11.160    6.6456
   11.190    6.7509
   11.220    6.9826
   11.250    6.5192
   11.280    6.3823
   11.310    6.8352
   11.340    6.9721
   11.370    6.4876
   11.400    6.5824
   11.430    6.6667
   11.460    6.3402
   11.490    6.0032
   11.520    6.3823
   11.550    6.7720
   11.580    6.4139
   11.610    6.2770
   11.640    6.6667
   11.670    6.6667
   11.700    6.3928
   11.730    6.4455
   11.760    6.4771
   11.790    6.4350
   11.820    5.9821
   11.850    6.5087
   11.880    6.4771
   11.910    6.2138
   11.940    6.3191
   11.970    6.3928
   12.000    6.2033
   12.030    6.4034
   12.060    5.9821
   12.090    6.1611
   12.120    6.0453
   12.150    5.9189
   12.180    6.3823
   12.210    6.2981
   12.240    6.4244
   12.270    6.1295
   12.300    6.2981
   12.330    6.4560
   12.360    6.2033
   12.390    6.4560
   12.420    6.1927
   12.450    6.1822
   12.480    6.1506
   12.510    6.0137
   12.540    6.5824
   12.570    5.9084
   12.600    6.3402
   12.630    6.0874
   12.660    6.0032
   12.690    6.0769
   12.720    5.9084
   12.750    5.8452
   12.780    6.2665
   12.810    6.2243
   12.840    5.7293
   12.870    6.0348
   12.900    6.5508
   12.930    5.8557
   12.960    6.2349
   12.990    6.4560
   13.020    6.1190
   13.050    5.7820
   13.080    5.9505
   13.110    5.7820
   13.140    6.2033
   13.170    5.8768
   13.200    5.9294
   13.230    6.0874
   13.260    5.8347
   13.290    6.2454
   13.320    5.7820
   13.350    5.7399
   13.380    6.3296
   13.410    6.2033
   13.440    6.1717
   13.470    5.9926
   13.500    6.1190
   13.530    6.2559
   13.560    5.8662
   13.590    5.8662
   13.620    5.5714
   13.650    5.9926
   13.680    6.1085
   13.710    5.7609
   13.740    5.5082
   13.770    5.9084
   13.800    6.1190
   13.830    5.7188
   13.860    5.9189
   13.890    5.8557
   13.920    6.0348
   13.950    6.1611
   13.980    5.7925
   14.010    6.1401
   14.040    5.9505
   14.070    5.7925
   14.100    6.0664
   14.130    5.8347
   14.160    6.2454
   14.190    5.6767
   14.220    6.1295
   14.250    5.2449
   14.280    6.1927
   14.310    5.8873
   14.340    5.7293
   14.370    5.7504
   14.400    5.9821
   14.430    5.8978
   14.460    5.6029
   14.490    6.2770
   14.520    5.6872
   14.550    5.6556
   14.580    5.7399
   14.610    5.9716
   14.640    5.7715
   14.670    5.8662
   14.700    5.6977
   14.730    5.8347
   14.760    5.7715
   14.790    6.0032
   14.820    5.9610
   14.850    6.1611
   14.880    5.7925
   14.910    6.3823
   14.940    5.7715
   14.970    5.6451
   15.000    5.8347
   15.030    5.8557
   15.060    5.9716
   15.090    6.2349
   15.120    6.0348
   15.150    6.0664
   15.180    6.0032
   15.210    5.7820
   15.240    6.3612
   15.270    5.8136
   15.300    5.7715
   15.330    5.9926
   15.360    5.9505
   15.390    5.9400
   15.420    5.7820
   15.450    6.2454
   15.480    5.7188
   15.510    6.0137
   15.540    5.9505
   15.570    6.1506
   15.600    5.9926
   15.630    5.9821
   15.660    6.2665
   15.690    5.9821
   15.720    5.8768
   15.750    6.1190
   15.780    5.7399
   15.810    5.6029
   15.840    5.9610
   15.870    5.5608
   15.900    6.2665
   15.930    6.0874
   15.960    6.1717
   15.990    5.5924
   16.020    6.1295
   16.050    5.6556
   16.080    5.9926
   16.110    6.1822
   16.140    6.0874
   16.170    6.5929
   16.200    5.3397
   16.230    5.9400
   16.260    6.1717
   16.290    5.8241
   16.320    5.8031
   16.350    5.8452
   16.380    6.0453
   16.410    5.9084
   16.440    5.4766
   16.470    5.9821
   16.500    6.2033
   16.530    5.7293
   16.560    6.3507
   16.590    5.9926
   16.620    6.3928
   16.650    6.2033
   16.680    5.5714
   16.710    5.7715
   16.740    5.9084
   16.770    6.0979
   16.800    6.1085
   16.830    5.8347
   16.860    6.1611
   16.890    5.7609
   16.920    5.7820
   16.950    6.2665
   16.980    5.7925
   17.010    6.3402
   17.040    5.9400
   17.070    5.8978
   17.100    5.9084
   17.130    6.0032
   17.160    6.0348
   17.190    5.8978
   17.220    6.0558
   17.250    6.0769
   17.280    6.2981
   17.310    5.8873
   17.340    5.7715
   17.370    5.7504
   17.400    5.9084
   17.430    5.8347
   17.460    6.0242
   17.490    6.2033
   17.520    5.9084
   17.550    6.1717
   17.580    5.9294
   17.610    5.8347
   17.640    5.8557
   17.670    6.1506
   17.700    5.6977
   17.730    5.5924
   17.760    5.7820
   17.790    5.9716
   17.820    6.0453
   17.850    5.5292
   17.880    6.1190
   17.910    5.9400
   17.940    6.0979
   17.970    6.0558
   18.000    6.1611
   18.030    6.1085
   18.060    5.7925
   18.090    5.9084
   18.120    5.9084
   18.150    5.9189
   18.180    5.9505
   18.210    5.8031
   18.240    5.9189
   18.270    6.0664
   18.300    5.9926
   18.330    5.9926
   18.360    5.6029
   18.390    5.9716
   18.420    5.7504
   18.450    6.1822
   18.480    5.8768
   18.510    5.9505
   18.540    6.0874
   18.570    6.3507
   18.600    6.1085
   18.630    5.8768
   18.660    6.0137
   18.690    6.2665
   18.720    6.0769
   18.750    6.0242
   18.780    6.2138
   18.810    6.0242
   18.840    5.9400
   18.870    5.9084
   18.900    6.2033
   18.930    6.0032
   18.960    6.4771
   18.990    6.4982
   19.020    6.6035
   19.050    6.4771
   19.080    6.2349
   19.110    6.2138
   19.140    5.9716
   19.170    6.6245
   19.200    5.9716
   19.230    5.9821
   19.260    6.1717
   19.290    6.2770
   19.320    5.9821
   19.350    5.9084
   19.380    6.1190
   19.410    6.3612
   19.440    6.3507
   19.470    6.0979
   19.500    6.1401
   19.530    6.1927
   19.560    6.2349
   19.590    5.9294
   19.620    6.0242
   19.650    6.5613
   19.680    6.0558
   19.710    6.2454
   19.740    6.4034
   19.770    6.0032
   19.800    6.3296
   19.830    6.0348
   19.860    5.9189
   19.890    6.2138
   19.920    6.2033
   19.950    6.2454
   19.980    6.1717
   20.010    6.0137
   20.040    6.2981
   20.070    6.4560
   20.100    6.1822
   20.130    6.3928
   20.160    5.9294
   20.190    6.4982
   20.220    6.2770
   20.250    6.1295
   20.280    5.9821
   20.310    6.5087
   20.340    6.2454
   20.370    6.4139
   20.400    6.7404
   20.430    6.3191
   20.460    6.2875
   20.490    6.1401
   20.520    5.8557
   20.550    6.1295
   20.580    6.1085
   20.610    6.2138
   20.640    6.3823
   20.670    6.2033
   20.700    6.4350
   20.730    6.2349
   20.760    6.4982
   20.790    6.2454
   20.820    6.1927
   20.850    6.0769
   20.880    6.0874
   20.910    6.1190
   20.940    6.1295
   20.970    6.3718
   21.000    5.9821
   21.030    6.6140
   21.060    6.0348
   21.090    6.3402
   21.120    6.2875
   21.150    6.2770
   21.180    6.2243
   21.210    5.9400
   21.240    6.4244
   21.270    6.4034
   21.300    6.2033
   21.330    6.1085
   21.360    6.0979
   21.390    6.6140
   21.420    6.4244
   21.450    6.5929
   21.480    6.1822
   21.510    6.5508
   21.540    6.3191
   21.570    6.2559
   21.600    6.5719
   21.630    5.9505
   21.660    6.4455
   21.690    6.5298
   21.720    6.5929
   21.750    6.1927
   21.780    5.9926
   21.810    6.4350
   21.840    6.0558
   21.870    6.0769
   21.900    6.4034
   21.930    6.4982
   21.960    6.0137
   21.990    6.0348
   22.020    6.7720
   22.050    6.2559
   22.080    6.3928
   22.110    6.4139
   22.140    6.4876
   22.170    6.4982
   22.200    6.6561
   22.230    6.4244
   22.260    6.2243
   22.290    6.4034
   22.320    6.3191
   22.350    6.4982
   22.380    6.5298
   22.410    6.3507
   22.440    6.1611
   22.470    6.2981
   22.500    6.3507
   22.530    6.4876
   22.560    6.7299
   22.590    6.4034
   22.620    6.4350
   22.650    6.4034
   22.680    6.3402
   22.710    6.2243
   22.740    6.0874
   22.770    6.0453
   22.800    6.4666
   22.830    6.2243
   22.860    6.2665
   22.890    6.5298
   22.920    6.1822
   22.950    6.0769
   22.980    6.2665
   23.010    6.2559
   23.040    6.4666
   23.070    6.4771
   23.100    6.3823
   23.130    6.2243
   23.160    6.1611
   23.190    6.4771
   23.220    6.4455
   23.250    6.4771
   23.280    6.5403
   23.310    6.6456
   23.340    6.2665
   23.370    6.1190
   23.400    6.5719
   23.430    6.3928
   23.460    6.3718
   23.490    6.3296
   23.520    6.3507
   23.550    6.2454
   23.580    6.2138
   23.610    6.6351
   23.640    6.1927
   23.670    6.3507
   23.700    6.0874
   23.730    6.3612
   23.760    5.9084
   23.790    6.4034
   23.820    6.2875
   23.850    6.4139
   23.880    6.1717
   23.910    6.1190
   23.940    6.2770
   23.970    5.8662
   24.000    6.2033
   24.030    6.1295
   24.060    6.2559
   24.090    5.8347
   24.120    5.9821
   24.150    5.9926
   24.180    6.3086
   24.210    6.3718
   24.240    6.2454
   24.270    6.0979
   24.300    6.0874
   24.330    6.4666
   24.360    5.7715
   24.390    6.0242
   24.420    5.7820
   24.450    5.6556
   24.480    5.8662
   24.510    6.1401
   24.540    5.6872
   24.570    6.1822
   24.600    6.0874
   24.630    6.2770
   24.660    6.0348
   24.690    6.2033
   24.720    6.1506
   24.750    6.1085
   24.780    5.7293
   24.810    6.1611
   24.840    6.5613
   24.870    5.9610
   24.900    5.9505
   24.930    6.4876
   24.960    6.2243
   24.990    6.1611
   25.020    5.7083
   25.050    5.7293
   25.080    6.0874
   25.110    5.5819
   25.140    5.8978
   25.170    6.1611
   25.200    5.8873
   25.230    6.0769
   25.260    5.6872
   25.290    6.0979
   25.320    6.1085
   25.350    5.8241
   25.380    6.2349
   25.410    6.0137
   25.440    5.8452
   25.470    6.0348
   25.500    5.8347
   25.530    5.8347
   25.560    5.7399
   25.590    6.0242
   25.620    6.0558
   25.650    5.7293
   25.680    6.0664
   25.710    6.2033
   25.740    5.7715
   25.770    6.3296
   25.800    5.9505
   25.830    5.9610
   25.860    6.0242
   25.890    5.6240
   25.920    5.8557
   25.950    5.9610
   25.980    6.0558
   26.010    5.9400
   26.040    6.1611
   26.070    5.9189
   26.100    5.8873
   26.130    5.8662
   26.160    5.7925
   26.190    6.0979
   26.220    6.0348
   26.250    5.7399
   26.280    6.0348
   26.310    5.7083
   26.340    5.7504
   26.370    5.7083
   26.400    6.0242
   26.430    5.7609
   26.460    5.7820
   26.490    5.8241
   26.520    5.9189
   26.550    5.8768
   26.580    5.4134
   26.610    5.7820
   26.640    5.4239
   26.670    5.3923
   26.700    5.4028
   26.730    5.4555
   26.760    5.9505
   26.790    5.7188
   26.820    5.6345
   26.850    5.6029
   26.880    5.7293
   26.910    5.9189
   26.940    6.0242
   26.970    5.8452
   27.000    5.8347
   27.030    5.7609
   27.060    5.7504
   27.090    5.3397
   27.120    5.5503
   27.150    5.5924
   27.180    5.6977
   27.210    5.2449
   27.240    5.5819
   27.270    5.9294
   27.300    5.8557
   27.330    6.0453
   27.360    5.3923
   27.390    5.7820
   27.420    5.3818
   27.450    5.4976
   27.480    5.7820
   27.510    5.4555
   27.540    5.4344
   27.570    5.3712
   27.600    5.6029
   27.630    5.4344
   27.660    5.6872
   27.690    5.5082
   27.720    5.5608
   27.750    5.6977
   27.780    5.5924
   27.810    5.4239
   27.840    5.4134
   27.870    5.3186
   27.900    5.6661
   27.930    5.5924
   27.960    5.9400
   27.990    5.8978
   28.020    5.7925
   28.050    5.6240
   28.080    5.8347
   28.110    5.9505
   28.140    5.7504
   28.170    5.7609
   28.200    5.7820
   28.230    5.6977
   28.260    5.5819
   28.290    5.7188
   28.320    5.7820
   28.350    5.6451
   28.380    5.2870
   28.410    5.5608
   28.440    5.6240
   28.470    5.7399
   28.500    5.2554
   28.530    5.2765
   28.560    5.2449
   28.590    5.1817
   28.620    5.3923
   28.650    5.6767
   28.680    5.9610
   28.710    5.5819
   28.740    5.1290
   28.770    5.3712
   28.800    5.1501
   28.830    5.4344
   28.860    5.2027
   28.890    5.3186
   28.920    5.6767
   28.950    5.6029
   28.980    5.3818
   29.010    5.4555
   29.040    5.6135
   29.070    5.4871
   29.100    5.4028
   29.130    5.4239
   29.160    5.3081
   29.190    5.2765
   29.220    5.1817
   29.250    5.4555
   29.280    5.0764
   29.310    5.5292
   29.340    5.0132
   29.370    5.5714
   29.400    5.3607
   29.430    5.1290
   29.460    4.9710
   29.490    5.1501
   29.520    5.1185
   29.550    5.4976
   29.580    5.3081
   29.610    5.3818
   29.640    5.4450
   29.670    5.0553
   29.700    5.4976
   29.730    4.7604
   29.760    5.1817
   29.790    5.7293
   29.820    5.1606
   29.850    5.1817
   29.880    5.5398
   29.910    5.1817
   29.940    5.1395
   29.970    5.4871
   30.000    5.4871
   30.030    5.0237
   30.060    5.1501
   30.090    5.4450
   30.120    5.4344
   30.150    5.0974
   30.180    5.1080
   30.210    5.4028
   30.240    4.9710
   30.270    5.2449
   30.300    4.8341
   30.330    5.3081
   30.360    4.9710
   30.390    5.2133
   30.420    5.1290
   30.450    5.1395
   30.480    5.2343
   30.510    5.1395
   30.540    5.1817
   30.570    5.0553
   30.600    5.0237
   30.630    5.0658
   30.660    5.2238
   30.690    5.4028
   30.720    4.9500
   30.750    4.7288
   30.780    4.8236
   30.810    5.1290
   30.840    5.2238
   30.870    4.9710
   30.900    5.2238
   30.930    5.2343
   30.960    4.9500
   30.990    5.2449
   31.020    5.1080
   31.050    4.9394
   31.080    4.9816
   31.110    5.1606
   31.140    5.2659
   31.170    4.8447
   31.200    4.6867
   31.230    4.7604
   31.260    5.1290
   31.290    4.8868
   31.320    4.9500
   31.350    4.8025
   31.380    4.8552
   31.410    4.8973
   31.440    4.9394
   31.470    5.0764
   31.500    5.3607
   31.530    5.1501
   31.560    4.6445
   31.590    5.1080
   31.620    5.2343
   31.650    4.8341
   31.680    4.9394
   31.710    5.0869
   31.740    4.9710
   31.770    4.7815
   31.800    5.3818
   31.830    5.3186
   31.860    5.3712
   31.890    5.3081
   31.920    5.0764
   31.950    4.9184
   31.980    4.9184
   32.010    5.2554
   32.040    5.6661
   32.070    5.8452
   32.100    5.9610
   32.130    5.7293
   32.160    5.3923
   32.190    5.0553
   32.220    4.9710
   32.250    4.8552
   32.280    4.8552
   32.310    4.8763
   32.340    4.6024
   32.370    4.8973
   32.400    4.9394
   32.430    4.6656
   32.460    4.6340
   32.490    4.8341
   32.520    4.8657
   32.550    4.5603
   32.580    4.7288
   32.610    4.7815
   32.640    4.2654
   32.670    4.7077
   32.700    5.1080
   32.730    4.5708
   32.760    4.8025
   32.790    4.2654
   32.820    4.6867
   32.850    4.7604
   32.880    4.8236
   32.910    4.9500
   32.940    4.6235
   32.970    4.6340
   33.000    4.6445
   33.030    4.8868
   33.060    4.7288
   33.090    4.6972
   33.120    4.4655
   33.150    4.9605
   33.180    4.6235
   33.210    4.5392
   33.240    4.4444
   33.270    4.9921
   33.300    4.2338
   33.330    4.7499
   33.360    4.8657
   33.390    4.5814
   33.420    4.8341
   33.450    5.1395
   33.480    4.4128
   33.510    4.5392
   33.540    4.8025
   33.570    4.7393
   33.600    4.5603
   33.630    4.6867
   33.660    4.6972
   33.690    4.7499
   33.720    4.7920
   33.750    4.9394
   33.780    4.7077
   33.810    4.8868
   33.840    5.1290
   33.870    4.9710
   33.900    4.9710
   33.930    5.1185
   33.960    4.9921
   33.990    4.2233
   34.020    4.4971
   34.050    4.4550
   34.080    4.6445
   34.110    4.5498
   34.140    4.1706
   34.170    4.6445
   34.200    4.7288
   34.230    4.7183
   34.260    4.6235
   34.290    4.4655
   34.320    4.8025
   34.350    4.5076
   34.380    4.2549
   34.410    4.6235
   34.440    4.4339
   34.470    4.5182
   34.500    4.4971
   34.530    4.4023
   34.560    4.5919
   34.590    4.3813
   34.620    4.1074
   34.650    4.3707
   34.680    4.6867
   34.710    4.3602
   34.740    4.6867
   34.770    4.8131
   34.800    4.5708
   34.830    4.4234
   34.860    4.6340
   34.890    4.4234
   34.920    4.4760
   34.950    4.3602
   34.980    4.7499
   35.010    4.5392
   35.040    4.3497
   35.070    4.6340
   35.100    4.4550
   35.130    4.3602
   35.160    4.6972
   35.190    4.3391
   35.220    4.6130
   35.250    4.4444
   35.280    4.3181
   35.310    4.1917
   35.340    4.3181
   35.370    4.2127
   35.400    4.5919
   35.430    4.2865
   35.460    4.5076
   35.490    4.3602
   35.520    4.5076
   35.550    4.4655
   35.580    4.3813
   35.610    4.3181
   35.640    4.3497
   35.670    4.2759
   35.700    4.6761
   35.730    4.2654
   35.760    4.3918
   35.790    4.2127
   35.820    4.3813
   35.850    4.2443
   35.880    4.4971
   35.910    4.0758
   35.940    4.2233
   35.970    4.2338
   36.000    4.2865
   36.030    4.6972
   36.060    4.0969
   36.090    4.0442
   36.120    4.3391
   36.150    4.2338
   36.180    4.2970
   36.210    4.0864
   36.240    3.8336
   36.270    4.3918
   36.300    4.5076
   36.330    4.4339
   36.360    4.3391
   36.390    4.2865
   36.420    4.4128
   36.450    4.3813
   36.480    4.3391
   36.510    4.3918
   36.540    4.3918
   36.570    4.0969
   36.600    4.3075
   36.630    4.0864
   36.660    4.1601
   36.690    4.3075
   36.720    4.6024
   36.750    4.5919
   36.780    4.2127
   36.810    4.4023
   36.840    4.4760
   36.870    4.4760
   36.900    4.3813
   36.930    4.5603
   36.960    4.4550
   36.990    3.9494
   37.020    4.0653
   37.050    4.1285
   37.080    4.4550
   37.110    4.2759
   37.140    4.3181
   37.170    4.1706
   37.200    4.1496
   37.230    4.2233
   37.260    4.1917
   37.290    4.0126
   37.320    3.9600
   37.350    4.5287
   37.380    4.2654
   37.410    4.1180
   37.440    4.0864
   37.470    4.0442
   37.500    4.0758
   37.530    4.0548
   37.560    4.2022
   37.590    4.4866
   37.620    4.3181
   37.650    4.0864
   37.680    4.1601
   37.710    4.3497
   37.740    4.0758
   37.770    4.1706
   37.800    4.4444
   37.830    4.3707
   37.860    4.5392
   37.890    3.9389
   37.920    4.0337
   37.950    4.4550
   37.980    3.9179
   38.010    4.2127
   38.040    4.2127
   38.070    4.1811
   38.100    4.1917
   38.130    4.3075
   38.160    4.3391
   38.190    4.2233
   38.220    4.4655
   38.250    4.5814
   38.280    4.3813
   38.310    4.2970
   38.340    4.5392
   38.370    3.9600
   38.400    4.0969
   38.430    4.5076
   38.460    4.1285
   38.490    4.3602
   38.520    4.1180
   38.550    4.3707
   38.580    4.3918
   38.610    4.0653
   38.640    4.0021
   38.670    4.3391
   38.700    4.0021
   38.730    4.1601
   38.760    4.1390
   38.790    4.1917
   38.820    4.0548
   38.850    3.8757
   38.880    3.7493
   38.910    4.5814
   38.940    4.2233
   38.970    4.2865
   39.000    3.8652
   39.030    4.1285
   39.060    4.2759
   39.090    3.9073
   39.120    4.1074
   39.150    4.0969
   39.180    3.9073
   39.210    4.1180
   39.240    4.2233
   39.270    3.8968
   39.300    3.8547
   39.330    4.2022
   39.360    4.1917
   39.390    4.0969
   39.420    4.3918
   39.450    4.1285
   39.480    4.1706
   39.510    4.2022
   39.540    3.8757
   39.570    4.2338
   39.600    3.9810
   39.630    4.1180
   39.660    3.8863
   39.690    4.1917
   39.720    4.2338
   39.750    3.9810
   39.780    4.0969
   39.810    4.3181
   39.840    3.9810
   39.870    4.2443
   39.900    3.9494
   39.930    3.8863
   39.960    4.0969
   39.990    4.1917