File: data/PXRD/PXRD_KE-049-2_Cu-Ka1_capillary-1mm_5s-deg.xyd
    1.500   26.1085
    1.515   26.1927
    1.530   26.0137
    1.545   25.4976
    1.560   25.5187
    1.575   25.6345
    1.590   25.5187
    1.605   24.7393
    1.620   24.4971
    1.635   25.0342
    1.650   23.1596
    1.665   23.7388
    1.680   23.9494
    1.695   23.5914
    1.710   23.4334
    1.725   23.7283
    1.740   24.0021
    1.755   23.1385
    1.770   22.9489
    1.785   22.7172
    1.800   22.3486
    1.815   22.7804
    1.830   22.1064
    1.845   22.3275
    1.860   21.8115
    1.875   22.1801
    1.890   21.9905
    1.905   21.5482
    1.920   21.6008
    1.935   21.8957
    1.950   21.5166
    1.965   22.0011
    1.980   21.2533
    1.995   21.1269
    2.010   20.9689
    2.025   21.0427
    2.040   20.9479
    2.055   21.5061
    2.070   21.3375
    2.085   20.8004
    2.100   20.7583
    2.115   21.3270
    2.130   21.9063
    2.145   22.3065
    2.160   21.6640
    2.175   22.2328
    2.190   21.9379
    2.205   21.3270
    2.220   21.8220
    2.235   22.0116
    2.250   22.6224
    2.265   22.8857
    2.280   21.9168
    2.295   22.1274
    2.310   22.2433
    2.325   22.5066
    2.340   23.1385
    2.355   23.3913
    2.370   23.4229
    2.385   23.1490
    2.400   23.8547
    2.415   23.6756
    2.430   24.6446
    2.445   24.5287
    2.460   23.9600
    2.475   24.5182
    2.490   25.1395
    2.505   25.2870
    2.520   25.7925
    2.535   24.8341
    2.550   25.5819
    2.565   26.1295
    2.580   26.0979
    2.595   26.5192
    2.610   27.7199
    2.625   28.4992
    2.640   29.7946
    2.655   28.9626
    2.670   28.3412
    2.685   29.4787
    2.700   29.5735
    2.715   29.8368
    2.730   32.3117
    2.745   32.1959
    2.760   32.5540
    2.775   32.5645
    2.790   34.2601
    2.805   34.4076
    2.820   34.5234
    2.835   37.1880
    2.850   36.7878
    2.865   37.5250
    2.880   38.7888
    2.895   39.1259
    2.910   40.4213
    2.925   39.5893
    2.940   43.3491
    2.955   44.5392
    2.970   43.5282
    2.985   46.9300
    3.000   47.5303
    3.015   47.8041
    3.030   49.1943
    3.045   50.6161
    3.060   52.5224
    3.075   54.7867
    3.090   57.2301
    3.105   59.5577
    3.120   59.8947
    3.135   61.4639
    3.150   64.2970
    3.165   65.7504
    3.180   68.9942
    3.195   71.0058
    3.210   75.4713
    3.225   77.8620
    3.240   80.0948
    3.255   82.9595
    3.270   88.0674
    3.285   91.3007
    3.300   95.9558
    3.315  100.1475
    3.330  106.9089
    3.345  113.2175
    3.360  119.4313
    3.375  127.4250
    3.390  136.6614
    3.405  146.9721
    3.420  157.6725
    3.435  171.7325
    3.450  183.6651
    3.465  191.5535
    3.480  194.2180
    3.495  187.4460
    3.510  175.0290
    3.525  154.9868
    3.540  131.0058
    3.555  107.3091
    3.570   88.5098
    3.585   73.1859
    3.600   62.7488
    3.615   56.4508
    3.630   51.9853
    3.645   49.8368
    3.660   48.1201
    3.675   46.5719
    3.690   48.4571
    3.705   48.8678
    3.720   48.3518
    3.735   49.5629
    3.750   50.1106
    3.765   51.2164
    3.780   54.1338
    3.795   55.3765
    3.810   58.4097
    3.825   59.6419
    3.840   62.4645
    3.855   64.5708
    3.870   68.9521
    3.885   73.3123
    3.900   78.2412
    3.915   79.7894
    3.930   81.5166
    3.945   83.1596
    3.960   82.4013
    3.975   79.0627
    3.990   79.4208
    4.005   80.7583
    4.020   83.1385
    4.035   86.2770
    4.050   87.1722
    4.065   89.9210
    4.080   90.0369
    4.095   89.9421
    4.110   89.1733
    4.125   87.1090
    4.140   84.6235
    4.155   81.8852
    4.170   77.4934
    4.185   73.2070
    4.200   69.8789
    4.215   65.1185
    4.230   59.7262
    4.245   55.2185
    4.260   51.5219
    4.275   46.5087
    4.290   42.1906
    4.305   38.7362
    4.320   35.0922
    4.335   31.9747
    4.350   29.6788
    4.365   27.4987
    4.380   24.9289
    4.395   23.2227
    4.410   21.1901
    4.425   19.5682
    4.440   18.7783
    4.455   17.5566
    4.470   16.5561
    4.485   15.3660
    4.500   14.4497
    4.515   14.3865
    4.530   13.3649
    4.545   12.7014
    4.560   12.6593
    4.575   12.5856
    4.590   11.8167
    4.605   11.6798
    4.620   11.3217
    4.635   11.4271
    4.650   11.1006
    4.665   10.7530
    4.680   10.1843
    4.695   10.1843
    4.710   10.2054
    4.725   10.0369
    4.740   10.0790
    4.755    9.6261
    4.770    9.8578
    4.785    9.5840
    4.800    9.3102
    4.815    9.3734
    4.830    9.0995
    4.845    9.1311
    4.860    9.0363
    4.875    9.0679
    4.890    8.8784
    4.905    9.0574
    4.920    8.5413
    4.935    9.0258
    4.950    8.9942
    4.965    9.1943
    4.980    9.2154
    4.995    8.8784
    5.010    8.4887
    5.025    8.1938
    5.040    8.5940
    5.055    8.6467
    5.070    8.4044
    5.085    8.6783
    5.100    8.6256
    5.115    8.9310
    5.130    8.8889
    5.145    8.7836
    5.160    9.4155
    5.175    9.1417
    5.190    8.8257
    5.205    8.6993
    5.220    9.1101
    5.235    8.8573
    5.250    8.8362
    5.265    9.1627
    5.280    9.2154
    5.295    9.1101
    5.310    9.1311
    5.325    9.2048
    5.340    9.3523
    5.355    9.6893
    5.370    9.1943
    5.385    9.8578
    5.400    9.5524
    5.415    9.7209
    5.430    9.5419
    5.445   10.0685
    5.460   10.2686
    5.475   10.2054
    5.490   10.4687
    5.505   11.5219
    5.520   12.0169
    5.535   12.4803
    5.550   11.7641
    5.565   11.6588
    5.580   10.3318
    5.595    9.1732
    5.610    8.4571
    5.625    8.1201
    5.640    7.2670
    5.655    7.7936
    5.670    7.8884
    5.685    7.8778
    5.700    7.6461
    5.715    7.7830
    5.730    7.4987
    5.745    7.7936
    5.760    7.3618
    5.775    7.2038
    5.790    7.2354
    5.805    7.3723
    5.820    7.7409
    5.835    7.4039
    5.850    7.0142
    5.865    7.5197
    5.880    7.1090
    5.895    7.4460
    5.910    7.8146
    5.925    7.4987
    5.940    7.7409
    5.955    7.6672
    5.970    7.6567
    5.985    7.4355
    6.000    7.5408
    6.015    7.6145
    6.030    7.5935
    6.045    7.8884
    6.060    7.5513
    6.075    7.3196
    6.090    7.4250
    6.105    7.9726
    6.120    7.5935
    6.135    7.5197
    6.150    7.9937
    6.165    8.0253
    6.180    7.9410
    6.195    7.6461
    6.210    7.6145
    6.225    7.9726
    6.240    8.2149
    6.255    8.0463
    6.270    7.9937
    6.285    8.0042
    6.300    7.9621
    6.315    7.9094
    6.330    8.0674
    6.345    8.2780
    6.360    8.8362
    6.375    8.6045
    6.390    8.3939
    6.405    8.5413
    6.420    8.5729
    6.435    8.4150
    6.450    8.7941
    6.465    8.8046
    6.480    9.1627
    6.495    9.1732
    6.510    9.4787
    6.525    9.8157
    6.540    9.4997
    6.555    9.9421
    6.570    9.8473
    6.585    9.7314
    6.600   10.4055
    6.615   10.2580
    6.630   10.2475
    6.645   10.0579
    6.660   11.0058
    6.675   11.8167
    6.690   11.5008
    6.705   12.3539
    6.720   12.4381
    6.735   12.9542
    6.750   13.1438
    6.765   14.3971
    6.780   14.5024
    6.795   15.3449
    6.810   15.4608
    6.825   16.1769
    6.840   16.5456
    6.855   17.1775
    6.870   18.1780
    6.885   19.4523
    6.900   20.4739
    6.915   22.4329
    6.930   23.8652
    6.945   25.7083
    6.960   26.8773
    6.975   26.5613
    6.990   26.0453
    7.005   24.4866
    7.020   22.2117
    7.035   20.4739
    7.050   17.6303
    7.065   15.0290
    7.080   12.7751
    7.095   11.5534
    7.110   10.8794
    7.125    9.8684
    7.140    9.4576
    7.155    9.2048
    7.170    8.7309
    7.185    8.8678
    7.200    8.4466
    7.215    8.2570
    7.230    8.3096
    7.245    7.7725
    7.260    8.0147
    7.275    8.0147
    7.290    7.7830
    7.305    8.0147
    7.320    8.1622
    7.335    8.0147
    7.350    8.1411
    7.365    7.9726
    7.380    8.0569
    7.395    8.0253
    7.410    8.0569
    7.425    8.0569
    7.440    8.0147
    7.455    8.3202
    7.470    7.8041
    7.485    8.1833
    7.500    7.9726
    7.515    8.3518
    7.530    8.7309
    7.545    8.1306
    7.560    8.1938
    7.575    8.1201
    7.590    8.5308
    7.605    8.5835
    7.620    8.8573
    7.635    8.5624
    7.650    8.1727
    7.665    8.7309
    7.680    8.9521
    7.695    9.3628
    7.710    9.3628
    7.725    9.4787
    7.740    9.7420
    7.755    9.5735
    7.770    9.9315
    7.785    9.6472
    7.800   10.5108
    7.815   10.6688
    7.830   11.1006
    7.845   11.1006
    7.860   10.7214
    7.875   11.0795
    7.890   10.9215
    7.905   11.0479
    7.920   11.3217
    7.935   10.7214
    7.950   11.5113
    7.965   11.7009
    7.980   11.1532
    7.995   12.0274
    8.010   12.1222
    8.025   12.5750
    8.040   12.4487
    8.055   12.5224
    8.070   13.3228
    8.085   13.9758
    8.100   13.9652
    8.115   14.3339
    8.130   14.4602
    8.145   14.0706
    8.160   14.3971
    8.175   14.6709
    8.190   14.7973
    8.205   15.0395
    8.220   14.7657
    8.235   14.9868
    8.250   15.0922
    8.265   15.3239
    8.280   15.2817
    8.295   15.0290
    8.310   15.2923
    8.325   14.6709
    8.340   14.9236
    8.355   14.7762
    8.370   14.4076
    8.385   13.8494
    8.400   14.0600
    8.415   13.4597
    8.430   13.0911
    8.445   13.0174
    8.460   13.1648
    8.475   12.7330
    8.490   12.7541
    8.505   12.5224
    8.520   12.3644
    8.535   11.9010
    8.550   12.3644
    8.565   11.9221
    8.580   10.9426
    8.595   11.3112
    8.610   11.1322
    8.625   11.0795
    8.640   10.6793
    8.655   10.7425
    8.670   10.5108
    8.685   10.3739
    8.700    9.9842
    8.715    9.9210
    8.730    9.7525
    8.745    9.8999
    8.760    9.5313
    8.775    9.5103
    8.790    9.2154
    8.805    8.7730
    8.820    8.7309
    8.835    8.8678
    8.850    8.5519
    8.865    8.3834
    8.880    8.5413
    8.895    8.7520
    8.910    9.0363
    8.925    8.8678
    8.940    8.1938
    8.955    8.4992
    8.970    8.7730
    8.985    8.5203
    9.000    8.4887
    9.015    8.6361
    9.030    8.1833
    9.045    8.0674
    9.060    8.6572
    9.075    8.8362
    9.090    8.6677
    9.105    8.4571
    9.120    8.9310
    9.135    8.6888
    9.150    8.6256
    9.165    8.9837
    9.180    9.4681
    9.195    9.5313
    9.210    9.2048
    9.225    9.5840
    9.240    9.3944
    9.255    9.9737
    9.270   10.4687
    9.285   10.8057
    9.300   10.4371
    9.315   10.3318
    9.330   10.1632
    9.345    9.8684
    9.360    9.8052
    9.375    9.3839
    9.390    8.9205
    9.405    9.2680
    9.420    9.4997
    9.435    9.3102
    9.450    9.1732
    9.465    8.9205
    9.480    8.7098
    9.495    8.7414
    9.510    8.6888
    9.525    8.7730
    9.540    8.7520
    9.555    8.3202
    9.570    8.7836
    9.585    9.4365
    9.600    9.7525
    9.615    9.1101
    9.630    8.8784
    9.645    8.9521
    9.660    8.7520
    9.675    8.2359
    9.690    8.2991
    9.705    7.5092
    9.720    7.6777
    9.735    7.3618
    9.750    7.4355
    9.765    7.1301
    9.780    7.3302
    9.795    7.6883
    9.810    7.2880
    9.825    7.5197
    9.840    7.6672
    9.855    8.0253
    9.870    7.4987
    9.885    7.8989
    9.900    7.3828
    9.915    7.8673
    9.930    7.8778
    9.945    7.7304
    9.960    7.6567
    9.975    7.1827
    9.990    7.4355