File: data/PXRD/PXRD_KE-173_Cu-Ka1_capillary-1mm_5s-deg.xyd
    1.500   18.3044
    1.530   18.4623
    1.560   18.4623
    1.590   18.1043
    1.620   17.5987
    1.650   17.0090
    1.680   16.3033
    1.710   16.4192
    1.740   16.8088
    1.770   16.2296
    1.800   15.6925
    1.830   15.7135
    1.860   15.3133
    1.890   15.3660
    1.920   14.6919
    1.950   15.1448
    1.980   14.9342
    2.010   15.1132
    2.040   14.7973
    2.070   14.9763
    2.100   14.4286
    2.130   14.4392
    2.160   14.9447
    2.190   15.9242
    2.220   15.2396
    2.250   15.1343
    2.280   14.7446
    2.310   15.6503
    2.340   16.6403
    2.370   15.7346
    2.400   16.6930
    2.430   16.6087
    2.460   17.1353
    2.490   17.2722
    2.520   18.2306
    2.550   18.1991
    2.580   19.1259
    2.610   19.5682
    2.640   19.9473
    2.670   20.0421
    2.700   21.9063
    2.730   21.7799
    2.760   22.5698
    2.790   24.7604
    2.820   25.0132
    2.850   26.5403
    2.880   27.0985
    2.910   28.2254
    2.940   29.4576
    2.970   31.3639
    3.000   33.1122
    3.030   34.6709
    3.060   36.6509
    3.090   39.0732
    3.120   42.7172
    3.150   45.1290
    3.180   47.4882
    3.210   51.3639
    3.240   57.3144
    3.270   62.6014
    3.300   67.3407
    3.330   74.7341
    3.360   84.7499
    3.390   93.6914
    3.420  102.0116
    3.450  106.0137
    3.480  102.7909
    3.510   91.1638
    3.540   74.7130
    3.570   60.2001
    3.600   48.1517
    3.630   42.8963
    3.660   38.0832
    3.690   36.5771
    3.720   36.3244
    3.750   35.4924
    3.780   35.6398
    3.810   36.2507
    3.840   38.7256
    3.870   39.0732
    3.900   40.1896
    3.930   40.5687
    3.960   41.7272
    3.990   42.4539
    4.020   41.5903
    4.050   41.9695
    4.080   41.2006
    4.110   39.9157
    4.140   37.3881
    4.170   35.8715
    4.200   34.3549
    4.230   30.5003
    4.260   27.1933
    4.290   25.3081
    4.320   23.2017
    4.350   20.1159
    4.380   18.1464
    4.410   15.5766
    4.440   14.9342
    4.470   13.7546
    4.500   11.7746
    4.530   11.3955
    4.560   10.1843
    4.590    9.8262
    4.620    9.0153
    4.650    8.7625
    4.680    8.2464
    4.710    8.0147
    4.740    7.6040
    4.770    7.1722
    4.800    6.8562
    4.830    6.8773
    4.860    6.4771
    4.890    6.4771
    4.920    6.2243
    4.950    6.4350
    4.980    6.3086
    5.010    6.1506
    5.040    5.8241
    5.070    5.9294
    5.100    5.8978
    5.130    5.5398
    5.160    5.7293
    5.190    5.8873
    5.220    5.5714
    5.250    5.9189
    5.280    5.4871
    5.310    5.6135
    5.340    5.4239
    5.370    5.3502
    5.400    5.6345
    5.430    5.3291
    5.460    5.3818
    5.490    5.2554
    5.520    5.2554
    5.550    5.1395
    5.580    5.2133
    5.610    4.9394
    5.640    5.0869
    5.670    5.0237
    5.700    4.9078
    5.730    5.2133
    5.760    4.8763
    5.790    5.1185
    5.820    4.8025
    5.850    4.8973
    5.880    4.8131
    5.910    4.6972
    5.940    4.8868
    5.970    4.9184
    6.000    5.2343
    6.030    5.0237
    6.060    4.6867
    6.090    4.8341
    6.120    5.0237
    6.150    5.1501
    6.180    4.9500
    6.210    4.9816
    6.240    5.1922
    6.270    5.0342
    6.300    5.1185
    6.330    5.5608
    6.360    5.4028
    6.390    5.1606
    6.420    5.8978
    6.450    5.5608
    6.480    5.6451
    6.510    6.0242
    6.540    6.1927
    6.570    6.4666
    6.600    6.7299
    6.630    6.8984
    6.660    7.0985
    6.690    7.4566
    6.720    7.9516
    6.750    8.4150
    6.780    9.3523
    6.810   10.1527
    6.840   11.0900
    6.870   12.2064
    6.900   13.0700
    6.930   13.5861
    6.960   13.9863
    6.990   12.9963
    7.020   11.9431
    7.050   10.2054
    7.080    8.4676
    7.110    7.5197
    7.140    7.0669
    7.170    6.5719
    7.200    5.9189
    7.230    5.6767
    7.260    6.0769
    7.290    5.9294
    7.320    5.8873
    7.350    5.5503
    7.380    5.2554
    7.410    5.5292
    7.440    5.7083
    7.470    5.6451
    7.500    5.7083
    7.530    5.3818
    7.560    6.0558
    7.590    5.5082
    7.620    5.9610
    7.650    5.9821
    7.680    6.0348
    7.710    5.6767
    7.740    6.2033
    7.770    5.8347
    7.800    6.2033
    7.830    6.3928
    7.860    6.5929
    7.890    6.8457
    7.920    6.6035
    7.950    7.1617
    7.980    7.0985
    8.010    7.0985
    8.040    6.9826
    8.070    7.3828
    8.100    7.5513
    8.130    7.2459
    8.160    7.4776
    8.190    7.4987
    8.220    7.8462
    8.250    7.6988
    8.280    7.3618
    8.310    8.0358
    8.340    8.1411
    8.370    7.5935
    8.400    7.5513
    8.430    7.8252
    8.460    7.1195
    8.490    7.3512
    8.520    7.5303
    8.550    6.9510
    8.580    6.6561
    8.610    6.8141
    8.640    6.2454
    8.670    6.3191
    8.700    6.0979
    8.730    5.8347
    8.760    6.2033
    8.790    6.0979
    8.820    6.0348
    8.850    5.3186
    8.880    5.4134
    8.910    5.2133
    8.940    5.2554
    8.970    4.9605
    9.000    5.3397
    9.030    5.2133
    9.060    5.0553
    9.090    5.0237
    9.120    4.6551
    9.150    5.0448
    9.180    4.9921
    9.210    4.4234
    9.240    4.7393
    9.270    4.4128
    9.300    4.8131
    9.330    4.5919
    9.360    4.3918
    9.390    4.4023
    9.420    4.5076
    9.450    4.4866
    9.480    4.6761
    9.510    4.4550
    9.540    4.8131
    9.570    4.4128
    9.600    4.6761
    9.630    4.2549
    9.660    4.8657
    9.690    4.7709
    9.720    4.8236
    9.750    4.5392
    9.780    4.2549
    9.810    4.5919
    9.840    4.3497
    9.870    4.5076
    9.900    4.5708
    9.930    4.2654
    9.960    4.5603
    9.990    4.4760
   10.020    4.3813
   10.050    4.4234
   10.080    4.3707
   10.110    4.6656
   10.140    4.5182
   10.170    4.6761
   10.200    4.7077
   10.230    4.6235
   10.260    4.8657
   10.290    4.6867
   10.320    4.8025
   10.350    5.1080
   10.380    4.8447
   10.410    4.8341
   10.440    4.9500
   10.470    5.0869
   10.500    5.2659
   10.530    4.7499
   10.560    4.9921
   10.590    4.8131
   10.620    4.5287
   10.650    4.3602
   10.680    4.6551
   10.710    4.5708
   10.740    4.8131
   10.770    4.1706
   10.800    4.3497
   10.830    4.2022
   10.860    4.4760
   10.890    4.5076
   10.920    4.8763
   10.950    4.4444
   10.980    4.7604
   11.010    4.4444
   11.040    4.2338
   11.070    4.7604
   11.100    4.2443
   11.130    4.7077
   11.160    4.2865
   11.190    4.4760
   11.220    4.5076
   11.250    4.4866
   11.280    4.5919
   11.310    4.6340
   11.340    4.2127
   11.370    4.6130
   11.400    4.3602
   11.430    4.2549
   11.460    4.3707
   11.490    4.3813
   11.520    4.3707
   11.550    4.5919
   11.580    4.0442
   11.610    4.6551
   11.640    4.7393
   11.670    4.5182
   11.700    4.5076
   11.730    4.6972
   11.760    4.6340
   11.790    4.7815
   11.820    4.3181
   11.850    4.7288
   11.880    4.9078
   11.910    4.4339
   11.940    4.6867
   11.970    4.8236
   12.000    4.7288
   12.030    4.5814
   12.060    4.5498
   12.090    4.7604
   12.120    4.9289
   12.150    4.9078
   12.180    4.9184
   12.210    4.9394
   12.240    5.0448
   12.270    4.7920
   12.300    5.1290
   12.330    5.0553
   12.360    4.8131
   12.390    5.0237
   12.420    4.9710
   12.450    4.9816
   12.480    4.8763
   12.510    5.0132
   12.540    4.8657
   12.570    4.9816
   12.600    4.8025
   12.630    4.8973
   12.660    4.7815
   12.690    5.1922
   12.720    5.3502
   12.750    5.2449
   12.780    4.5708
   12.810    4.9710
   12.840    4.6761
   12.870    4.5919
   12.900    4.7499
   12.930    4.6972
   12.960    4.8973
   12.990    5.1290
   13.020    5.0132
   13.050    5.0342
   13.080    4.4550
   13.110    4.7393
   13.140    4.8131
   13.170    4.7077
   13.200    4.7815
   13.230    4.8657
   13.260    4.5603
   13.290    4.6656
   13.320    4.6867
   13.350    4.8763
   13.380    4.6235
   13.410    4.5287
   13.440    4.8236
   13.470    4.7077
   13.500    4.4444
   13.530    4.6761
   13.560    4.6445
   13.590    4.6340
   13.620    4.6867
   13.650    5.1501
   13.680    4.7499
   13.710    4.7288
   13.740    4.6340
   13.770    4.7183
   13.800    4.5287
   13.830    5.0764
   13.860    4.8447
   13.890    4.6340
   13.920    4.7393
   13.950    4.5708
   13.980    4.4971
   14.010    4.6235
   14.040    4.6761
   14.070    4.5392
   14.100    4.7288
   14.130    4.3707
   14.160    4.6130
   14.190    4.2759
   14.220    4.7920
   14.250    4.4444
   14.280    4.4444
   14.310    4.6445
   14.340    4.4128
   14.370    4.1390
   14.400    4.3181
   14.430    3.9494
   14.460    4.5603
   14.490    4.6235
   14.520    4.6130
   14.550    4.2970
   14.580    4.5814
   14.610    4.3497
   14.640    4.1496
   14.670    4.4866
   14.700    4.4339
   14.730    4.0653
   14.760    4.4866
   14.790    4.4655
   14.820    4.5182
   14.850    4.7604
   14.880    4.5287
   14.910    4.4234
   14.940    4.6130
   14.970    4.2022
   15.000    4.1496
   15.030    4.2759
   15.060    4.4760
   15.090    4.2549
   15.120    4.2654
   15.150    4.3391
   15.180    4.1706
   15.210    4.2338
   15.240    4.4128
   15.270    4.3707
   15.300    4.2970
   15.330    4.3497
   15.360    4.2233
   15.390    4.4550
   15.420    4.5603
   15.450    4.4971
   15.480    4.4234
   15.510    4.4866
   15.540    4.6235
   15.570    4.3497
   15.600    4.4550
   15.630    4.3181
   15.660    4.6761
   15.690    4.3181
   15.720    4.7077
   15.750    4.3181
   15.780    4.2970
   15.810    4.2338
   15.840    4.2654
   15.870    4.5708
   15.900    4.3497
   15.930    4.1601
   15.960    4.6130
   15.990    4.5498
   16.020    4.1917
   16.050    4.0548
   16.080    4.7815
   16.110    4.5287
   16.140    4.3813
   16.170    4.3497
   16.200    4.2654
   16.230    4.4971
   16.260    4.7393
   16.290    4.1496
   16.320    4.6972
   16.350    4.3391
   16.380    4.5287
   16.410    4.2443
   16.440    4.4128
   16.470    4.1706
   16.500    4.1811
   16.530    4.2759
   16.560    4.3918
   16.590    4.5392
   16.620    4.7183
   16.650    4.0969
   16.680    4.1601
   16.710    4.4655
   16.740    4.4128
   16.770    4.2338
   16.800    4.0126
   16.830    4.3602
   16.860    4.5182
   16.890    4.2022
   16.920    4.5708
   16.950    4.3497
   16.980    4.2549
   17.010    4.6235
   17.040    4.1074
   17.070    4.4550
   17.100    4.4971
   17.130    4.5076
   17.160    4.2127
   17.190    4.3918
   17.220    4.2443
   17.250    4.0126
   17.280    4.3075
   17.310    4.2970
   17.340    4.2338
   17.370    4.3602
   17.400    4.4655
   17.430    4.3075
   17.460    4.3497
   17.490    4.5182
   17.520    4.3918
   17.550    4.4760
   17.580    4.4971
   17.610    4.7288
   17.640    4.2759
   17.670    4.3707
   17.700    4.3286
   17.730    4.4760
   17.760    3.9810
   17.790    4.3391
   17.820    4.3918
   17.850    4.6551
   17.880    4.5392
   17.910    4.2443
   17.940    4.6445
   17.970    4.1074
   18.000    4.4866
   18.030    4.7393
   18.060    4.4655
   18.090    4.5392
   18.120    4.5603
   18.150    4.2970
   18.180    4.8025
   18.210    4.3497
   18.240    4.6024
   18.270    4.6340
   18.300    4.5076
   18.330    4.7077
   18.360    4.6656
   18.390    4.1601
   18.420    4.4550
   18.450    4.5287
   18.480    4.0442
   18.510    4.1811
   18.540    4.6024
   18.570    4.3813
   18.600    4.4234
   18.630    4.7288
   18.660    4.3602
   18.690    4.4339
   18.720    4.5392
   18.750    4.4444
   18.780    4.3075
   18.810    4.9078
   18.840    4.4760
   18.870    4.4550
   18.900    4.2759
   18.930    4.5392
   18.960    4.4444
   18.990    4.5287
   19.020    4.5287
   19.050    4.5287
   19.080    4.2549
   19.110    4.1706
   19.140    4.5919
   19.170    4.6340
   19.200    4.2654
   19.230    4.4866
   19.260    4.6235
   19.290    4.2865
   19.320    4.4550
   19.350    4.6972
   19.380    4.8868
   19.410    4.6445
   19.440    4.6024
   19.470    4.3286
   19.500    4.5919
   19.530    4.7288
   19.560    4.8763
   19.590    4.6130
   19.620    4.9078
   19.650    4.8657
   19.680    4.5392
   19.710    4.2022
   19.740    4.8657
   19.770    4.7815
   19.800    4.9289
   19.830    4.4655
   19.860    4.9078
   19.890    5.0026
   19.920    4.7077
   19.950    5.2975
   19.980    4.7499
   20.010    5.1290
   20.040    5.0237
   20.070    4.7288
   20.100    5.0026
   20.130    5.3081
   20.160    4.6445
   20.190    4.9078
   20.220    5.1080
   20.250    4.8236
   20.280    4.9184
   20.310    4.8447
   20.340    4.5603
   20.370    4.9078
   20.400    4.8973
   20.430    4.8236
   20.460    5.0764
   20.490    4.6024
   20.520    4.9184
   20.550    5.1922
   20.580    5.1817
   20.610    4.6235
   20.640    4.8131
   20.670    4.6340
   20.700    4.9078
   20.730    5.4344
   20.760    4.9921
   20.790    4.7815
   20.820    4.8447
   20.850    4.6445
   20.880    4.9394
   20.910    4.8763
   20.940    4.8447
   20.970    5.1080
   21.000    5.1922
   21.030    5.1501
   21.060    4.5392
   21.090    5.0974
   21.120    5.0237
   21.150    4.5287
   21.180    5.1185
   21.210    4.6024
   21.240    4.6235
   21.270    5.0342
   21.300    4.6761
   21.330    4.8236
   21.360    4.7393
   21.390    4.7604
   21.420    4.4444
   21.450    4.9500
   21.480    5.0342
   21.510    4.9078
   21.540    5.1290
   21.570    4.8025
   21.600    5.0448
   21.630    4.9816
   21.660    4.6867
   21.690    4.7077
   21.720    4.9184
   21.750    4.2865
   21.780    4.8341
   21.810    5.2554
   21.840    4.9289
   21.870    4.6867
   21.900    4.3813
   21.930    4.8447
   21.960    4.8868
   21.990    4.5814
   22.020    5.1185
   22.050    5.0974
   22.080    5.0553
   22.110    4.8552
   22.140    5.0553
   22.170    4.8447
   22.200    5.2765
   22.230    4.9605
   22.260    4.8868
   22.290    5.1711
   22.320    5.1395
   22.350    5.1290
   22.380    4.9289
   22.410    4.7604
   22.440    4.9605
   22.470    5.2238
   22.500    5.0026
   22.530    4.9710
   22.560    4.8868
   22.590    4.8763
   22.620    5.0237
   22.650    4.8973
   22.680    5.0764
   22.710    4.6972
   22.740    5.1185
   22.770    4.7920
   22.800    4.6761
   22.830    4.7393
   22.860    4.3813
   22.890    4.8131
   22.920    4.7604
   22.950    4.7393
   22.980    4.8973
   23.010    4.5182
   23.040    4.9500
   23.070    4.8341
   23.100    4.8341
   23.130    4.7499
   23.160    4.5182
   23.190    4.6235
   23.220    4.4128
   23.250    4.8025
   23.280    4.6551
   23.310    4.1811
   23.340    5.0237
   23.370    4.5708
   23.400    4.7077
   23.430    4.8447
   23.460    4.5498
   23.490    4.4655
   23.520    4.7920
   23.550    4.3707
   23.580    4.5182
   23.610    4.7077
   23.640    4.4339
   23.670    4.7183
   23.700    4.4234
   23.730    4.8657
   23.760    4.7183
   23.790    4.6972
   23.820    4.6761
   23.850    4.4234
   23.880    4.8552
   23.910    4.5392
   23.940    4.3602
   23.970    4.4971
   24.000    4.6761
   24.030    4.6024
   24.060    4.6024
   24.090    4.6024
   24.120    4.4444
   24.150    4.6235
   24.180    4.6867
   24.210    4.4023
   24.240    4.3602
   24.270    4.1180
   24.300    4.6024
   24.330    4.5919
   24.360    4.8552
   24.390    4.2654
   24.420    4.5814
   24.450    4.9605
   24.480    4.5603
   24.510    4.3602
   24.540    4.7709
   24.570    4.3181
   24.600    4.9184
   24.630    4.8236
   24.660    4.5919
   24.690    4.7288
   24.720    4.5603
   24.750    4.4444
   24.780    4.6761
   24.810    4.7815
   24.840    4.6551
   24.870    4.3707
   24.900    4.4339
   24.930    4.3813
   24.960    4.7183
   24.990    4.5287
   25.020    4.5392
   25.050    4.3286
   25.080    4.5392
   25.110    4.3707
   25.140    4.2970
   25.170    4.1496
   25.200    4.3602
   25.230    4.5392
   25.260    4.2233
   25.290    4.0969
   25.320    4.4234
   25.350    4.4444
   25.380    4.1285
   25.410    4.2970
   25.440    4.3813
   25.470    4.4339
   25.500    4.2654
   25.530    4.2443
   25.560    3.9810
   25.590    4.4760
   25.620    4.1811
   25.650    4.2549
   25.680    4.4234
   25.710    4.4550
   25.740    4.4339
   25.770    4.0653
   25.800    4.4550
   25.830    4.0548
   25.860    4.2549
   25.890    4.2022
   25.920    4.3181
   25.950    4.2233
   25.980    4.0969
   26.010    4.1706
   26.040    4.0969
   26.070    3.7283
   26.100    4.1917
   26.130    4.2549
   26.160    3.9494
   26.190    4.1390
   26.220    4.3707
   26.250    4.1706
   26.280    4.0864
   26.310    3.9916
   26.340    4.0864
   26.370    3.9494
   26.400    4.0548
   26.430    4.3286
   26.460    4.3707
   26.490    4.1811
   26.520    4.0337
   26.550    4.2233
   26.580    4.1496
   26.610    3.8757
   26.640    4.0442
   26.670    4.0021
   26.700    3.9705
   26.730    4.1180
   26.760    4.3707
   26.790    3.8652
   26.820    3.8441
   26.850    4.0021
   26.880    4.0548
   26.910    4.2443
   26.940    3.9494
   26.970    3.7809
   27.000    3.9810
   27.030    3.8336
   27.060    4.1917
   27.090    4.5919
   27.120    4.5392
   27.150    4.4550
   27.180    4.2022
   27.210    4.0232
   27.240    3.9600
   27.270    4.3707
   27.300    4.0864
   27.330    4.2022
   27.360    3.8231
   27.390    4.0653
   27.420    3.7915
   27.450    3.9705
   27.480    4.4760
   27.510    3.9494
   27.540    4.2865
   27.570    3.8757
   27.600    4.0337
   27.630    4.1285
   27.660    4.0442
   27.690    3.8863
   27.720    3.8020
   27.750    4.0864
   27.780    3.8757
   27.810    4.1180
   27.840    3.9810
   27.870    4.3391
   27.900    4.2865
   27.930    4.0864
   27.960    4.0864
   27.990    4.1285
   28.020    4.0232
   28.050    4.1811
   28.080    4.3602
   28.110    4.0232
   28.140    4.0337
   28.170    4.3918
   28.200    4.3813
   28.230    4.1285
   28.260    4.2865
   28.290    4.5392
   28.320    4.2022
   28.350    3.9600
   28.380    4.0021
   28.410    4.1496
   28.440    3.9073
   28.470    4.0864
   28.500    4.3497
   28.530    4.1285
   28.560    4.1285
   28.590    4.0653
   28.620    3.9916
   28.650    4.4234
   28.680    4.3181
   28.710    3.8652
   28.740    3.8125
   28.770    4.0653
   28.800    3.9073
   28.830    4.2127
   28.860    3.7072
   28.890    3.8336
   28.920    4.0021
   28.950    3.8125
   28.980    3.7915
   29.010    3.9494
   29.040    3.8757
   29.070    3.6546
   29.100    3.6862
   29.130    3.6335
   29.160    4.0337
   29.190    3.5176
   29.220    3.7704
   29.250    3.6440
   29.280    3.8652
   29.310    4.0548
   29.340    3.9179
   29.370    4.3075
   29.400    3.9389
   29.430    3.9179
   29.460    3.8231
   29.490    4.0969
   29.520    3.7599
   29.550    3.6756
   29.580    3.8231
   29.610    4.0021
   29.640    3.7915
   29.670    3.7493
   29.700    3.7915
   29.730    3.7177
   29.760    3.7283
   29.790    3.7493
   29.820    3.5914
   29.850    3.6862
   29.880    3.8968
   29.910    3.6335
   29.940    3.7599
   29.970    3.8968
   30.000    3.7283
   30.030    3.7177
   30.060    3.7493
   30.090    3.8441
   30.120    3.7809
   30.150    3.6019
   30.180    3.6651
   30.210    3.9179
   30.240    3.5598
   30.270    3.9916
   30.300    3.7072
   30.330    3.8125
   30.360    3.8020
   30.390    3.8125
   30.420    3.6546
   30.450    3.7388
   30.480    3.8547
   30.510    3.6651
   30.540    3.6651
   30.570    3.9494
   30.600    3.6440
   30.630    3.5703
   30.660    3.6862
   30.690    3.6546
   30.720    3.9916
   30.750    3.5598
   30.780    3.7072
   30.810    3.8441
   30.840    3.7915
   30.870    3.6440
   30.900    3.6124
   30.930    3.5282
   30.960    3.6862
   30.990    3.8547
   31.020    3.6335
   31.050    3.8757
   31.080    3.5914
   31.110    3.4755
   31.140    3.5492
   31.170    3.9389
   31.200    4.0021
   31.230    3.6651
   31.260    3.7072
   31.290    3.6230
   31.320    3.8652
   31.350    3.7809
   31.380    3.4966
   31.410    3.9600
   31.440    3.3281
   31.470    3.6651
   31.500    3.5071
   31.530    3.4018
   31.560    3.8020
   31.590    3.7388
   31.620    3.6862
   31.650    3.5808
   31.680    3.7072
   31.710    3.7177
   31.740    3.4123
   31.770    3.8231
   31.800    3.9179
   31.830    3.7283
   31.860    3.9284
   31.890    3.6230
   31.920    3.5808
   31.950    3.6651
   31.980    3.7072
   32.010    3.5703
   32.040    3.5808
   32.070    3.6440
   32.100    3.4755
   32.130    3.7177
   32.160    3.7072
   32.190    3.1385
   32.220    3.6124
   32.250    3.5808
   32.280    3.6335
   32.310    3.4018
   32.340    3.6756
   32.370    3.6019
   32.400    3.2543
   32.430    3.2649
   32.460    3.6756
   32.490    3.3597
   32.520    3.4018
   32.550    3.7177
   32.580    3.5282
   32.610    3.6335
   32.640    3.6019
   32.670    3.3807
   32.700    3.5598
   32.730    3.2227
   32.760    3.3070
   32.790    3.6124
   32.820    3.5598
   32.850    3.5598
   32.880    3.5282
   32.910    3.7599
   32.940    3.4229
   32.970    3.3597
   33.000    3.4860
   33.030    3.5071
   33.060    3.2965
   33.090    3.6335
   33.120    3.4860
   33.150    3.4544
   33.180    3.4123
   33.210    3.5176
   33.240    3.3807
   33.270    3.4439
   33.300    3.3702
   33.330    3.3913
   33.360    3.3070
   33.390    3.4755
   33.420    3.4860
   33.450    3.4018
   33.480    3.5492
   33.510    3.5282
   33.540    3.4544
   33.570    3.4439
   33.600    3.4755
   33.630    3.4439
   33.660    3.3597
   33.690    3.4334
   33.720    3.4123
   33.750    3.2754
   33.780    3.3175
   33.810    3.2965
   33.840    3.5598
   33.870    3.3597
   33.900    3.3386
   33.930    3.3070
   33.960    3.4123
   33.990    3.2754
   34.020    3.4334
   34.050    3.3281
   34.080    3.6230
   34.110    3.1806
   34.140    3.4966
   34.170    3.2227
   34.200    3.4755
   34.230    3.3386
   34.260    3.2965
   34.290    3.2333
   34.320    3.6440
   34.350    3.3070
   34.380    3.2543
   34.410    3.4439
   34.440    3.3175
   34.470    3.1912
   34.500    3.4018
   34.530    3.0437
   34.560    3.1069
   34.590    2.9068
   34.620    3.3070
   34.650    3.4123
   34.680    3.2859
   34.710    3.3597
   34.740    3.3702
   34.770    3.4755
   34.800    3.0648
   34.830    3.2965
   34.860    3.3491
   34.890    3.5176
   34.920    3.3175
   34.950    3.2754
   34.980    3.0332
   35.010    2.9173
   35.040    3.1912
   35.070    3.1069
   35.100    3.4544
   35.130    3.1806
   35.160    3.0332
   35.190    2.8541
   35.220    3.2859
   35.250    2.8541
   35.280    2.9595
   35.310    3.3175
   35.340    3.5176
   35.370    3.1280
   35.400    2.7067
   35.430    2.9384
   35.460    3.3386
   35.490    3.3913
   35.520    3.1385
   35.550    2.7909
   35.580    3.0542
   35.610    3.2227
   35.640    3.1912
   35.670    3.2438
   35.700    2.9068
   35.730    3.2333
   35.760    3.0648
   35.790    3.0016
   35.820    3.1596
   35.850    3.0226
   35.880    3.0226
   35.910    3.0016
   35.940    3.3070
   35.970    3.0648
   36.000    3.2649
   36.030    3.3491
   36.060    3.2438
   36.090    2.9700
   36.120    2.9700
   36.150    3.4439
   36.180    3.0016
   36.210    2.9805
   36.240    2.9805
   36.270    3.0964
   36.300    3.0542
   36.330    3.2017
   36.360    2.8541
   36.390    3.0648
   36.420    3.1596
   36.450    2.7804
   36.480    2.8331
   36.510    3.1490
   36.540    3.0964
   36.570    3.0332
   36.600    3.2122
   36.630    2.8857
   36.660    2.9384
   36.690    3.0542
   36.720    2.9173
   36.750    2.8015
   36.780    2.9489
   36.810    3.0332
   36.840    2.6751
   36.870    2.9595
   36.900    2.8541
   36.930    2.7383
   36.960    2.9279
   36.990    3.0226
   37.020    2.8541
   37.050    2.9700
   37.080    3.0226
   37.110    2.9595
   37.140    2.9595
   37.170    3.2649
   37.200    2.8541
   37.230    3.0964
   37.260    3.0542
   37.290    2.6646
   37.320    3.1280
   37.350    2.8331
   37.380    2.9068
   37.410    3.0016
   37.440    2.8225
   37.470    2.8331
   37.500    2.7804
   37.530    2.7488
   37.560    3.0542
   37.590    3.1069
   37.620    2.8120
   37.650    2.9279
   37.680    2.8015
   37.710    2.9489
   37.740    2.9384
   37.770    2.7909
   37.800    2.8857
   37.830    2.9279
   37.860    2.6962
   37.890    2.8857
   37.920    2.8331
   37.950    2.8857
   37.980    2.6856
   38.010    2.9805
   38.040    3.1280
   38.070    3.0226
   38.100    3.0648
   38.130    3.0121
   38.160    2.7699
   38.190    2.6856
   38.220    2.8015
   38.250    2.9279
   38.280    3.0648
   38.310    3.0858
   38.340    2.9173
   38.370    3.0226
   38.400    2.9279
   38.430    2.9489
   38.460    2.8963
   38.490    2.9173
   38.520    2.8331
   38.550    2.8857
   38.580    2.6751
   38.610    3.1490
   38.640    2.8436
   38.670    3.0226
   38.700    2.6962
   38.730    3.0858
   38.760    3.0964
   38.790    2.8963
   38.820    3.0858
   38.850    2.8436
   38.880    3.1385
   38.910    3.0226
   38.940    3.0226
   38.970    2.8752
   39.000    2.8015
   39.030    2.8225
   39.060    2.6435
   39.090    2.9489
   39.120    2.8436
   39.150    2.7909
   39.180    2.7804
   39.210    2.8752
   39.240    3.0542
   39.270    2.6646
   39.300    2.9068
   39.330    3.0226
   39.360    2.9068
   39.390    2.9384
   39.420    2.6962
   39.450    2.9384
   39.480    2.8225
   39.510    2.9279
   39.540    2.6540
   39.570    2.5698
   39.600    2.8752
   39.630    2.9173
   39.660    3.0121
   39.690    2.7172
   39.720    2.7593
   39.750    2.9910
   39.780    2.8752
   39.810    2.7172
   39.840    2.8963
   39.870    2.9489
   39.900    2.8120
   39.930    3.1069
   39.960    2.7383
   39.990    3.0858