File: data/PXRD/PXRD_KE-020_Cu-Ka1_capillary-1mm_5s-deg.xyd
    1.500   44.7499
    1.530   44.0442
    1.560   42.8647
    1.590   41.0321
    1.620   39.6630
    1.650   39.6735
    1.680   38.3149
    1.710   36.8720
    1.740   35.5872
    1.770   34.6604
    1.800   34.1443
    1.830   34.6393
    1.860   33.1964
    1.890   32.4381
    1.920   32.3117
    1.950   31.3744
    1.980   30.9321
    2.010   30.3633
    2.040   30.5108
    2.070   29.1101
    2.100   29.6156
    2.130   29.1417
    2.160   28.1622
    2.190   28.4255
    2.220   28.7309
    2.250   27.6777
    2.280   27.0669
    2.310   26.6456
    2.340   27.6145
    2.370   28.1938
    2.400   27.0563
    2.430   26.3718
    2.460   26.9616
    2.490   26.5929
    2.520   27.4460
    2.550   26.6140
    2.580   28.7204
    2.610   27.8252
    2.640   27.3407
    2.670   28.7309
    2.700   28.6361
    2.730   29.1206
    2.760   29.9947
    2.790   29.7841
    2.820   30.5108
    2.850   31.7746
    2.880   31.9326
    2.910   33.0490
    2.940   33.4387
    2.970   33.9863
    3.000   35.5556
    3.030   37.4092
    3.060   37.5671
    3.090   39.0205
    3.120   40.6003
    3.150   42.8015
    3.180   45.5608
    3.210   47.5619
    3.240   48.1727
    3.270   53.3965
    3.300   56.3349
    3.330   60.6530
    3.360   64.1812
    3.390   69.5524
    3.420   75.7030
    3.450   79.1890
    3.480   81.4745
    3.510   78.4202
    3.540   70.1738
    3.570   61.0111
    3.600   53.1543
    3.630   48.8046
    3.660   46.4771
    3.690   44.5076
    3.720   44.3602
    3.750   44.4550
    3.780   45.2133
    3.810   44.8552
    3.840   45.7083
    3.870   46.1717
    3.900   45.5082
    3.930   44.4760
    3.960   41.3902
    3.990   37.5040
    4.020   33.7862
    4.050   30.8373
    4.080   26.9089
    4.110   24.4128
    4.140   22.4329
    4.170   20.6635
    4.200   19.3576
    4.230   17.9358
    4.260   16.5666
    4.290   16.5561
    4.320   15.3028
    4.350   14.0706
    4.380   14.7341
    4.410   13.9863
    4.440   13.5861
    4.470   13.0595
    4.500   13.2385
    4.530   12.9858
    4.560   12.7225
    4.590   12.2591
    4.620   12.2064
    4.650   13.1859
    4.680   11.5008
    4.710   11.4271
    4.740   11.6798
    4.770   11.3217
    4.800   11.3112
    4.830   10.9321
    4.860   11.6798
    4.890   10.8794
    4.920   10.7425
    4.950   11.6904
    4.980   10.7425
    5.010   10.5108
    5.040   10.6688
    5.070   10.8583
    5.100   10.5319
    5.130   10.3844
    5.160   10.0474
    5.190   10.1527
    5.220   10.5845
    5.250   10.2896
    5.280   10.7636
    5.310   10.0263
    5.340    9.9105
    5.370    9.6998
    5.400    9.8894
    5.430   10.0369
    5.460   10.0474
    5.490    9.3628
    5.520    9.6051
    5.550    9.8157
    5.580    9.4892
    5.610    9.3207
    5.640    9.5313
    5.670    9.2680
    5.700    9.4997
    5.730   10.1738
    5.760    9.5945
    5.790    9.0995
    5.820    9.2259
    5.850    9.8473
    5.880    9.1206
    5.910    9.4365
    5.940    9.1838
    5.970    9.2259
    6.000    9.3523
    6.030    9.0890
    6.060    9.2786
    6.090    9.0890
    6.120    9.2259
    6.150    9.3628
    6.180    8.9942
    6.210    9.1101
    6.240    9.3523
    6.270    9.3312
    6.300    9.6788
    6.330    9.5524
    6.360    9.6998
    6.390    9.8157
    6.420    9.9210
    6.450   10.0053
    6.480   10.3423
    6.510    9.9210
    6.540   10.1843
    6.570   10.5529
    6.600   10.1316
    6.630   11.5534
    6.660   11.2480
    6.690   11.6798
    6.720   12.3644
    6.750   12.4381
    6.780   13.5650
    6.810   14.0495
    6.840   14.5024
    6.870   15.3555
    6.900   16.7562
    6.930   17.4408
    6.960   19.1469
    6.990   18.7151
    7.020   19.1153
    7.050   16.3665
    7.080   15.3449
    7.110   13.8283
    7.140   12.6066
    7.170   11.9747
    7.200   11.4271
    7.230   11.8483
    7.260   11.5745
    7.290   10.4581
    7.320   11.1532
    7.350   10.7530
    7.380   11.0690
    7.410   10.8899
    7.440   10.7741
    7.470   10.8268
    7.500   11.5534
    7.530   11.5219
    7.560   11.9326
    7.590   11.6693
    7.620   12.3117
    7.650   13.3228
    7.680   13.1648
    7.710   13.8705
    7.740   14.0600
    7.770   14.9552
    7.800   15.3449
    7.830   16.6930
    7.860   16.0295
    7.890   16.3770
    7.920   15.8399
    7.950   15.7346
    7.980   15.2607
    8.010   15.1975
    8.040   13.8599
    8.070   13.6809
    8.100   12.8594
    8.130   13.1122
    8.160   12.3012
    8.190   12.0906
    8.220   11.2164
    8.250   10.5213
    8.280   10.6582
    8.310   10.2475
    8.340    9.7736
    8.370   10.1316
    8.400    9.8578
    8.430    9.3734
    8.460    9.2575
    8.490    9.4576
    8.520    8.8678
    8.550    9.5103
    8.580    9.3523
    8.610    9.4892
    8.640    9.5419
    8.670    9.2259
    8.700    9.1732
    8.730    8.7730
    8.760    9.0679
    8.790    8.9731
    8.820    8.9626
    8.850    9.0363
    8.880    8.8362
    8.910    8.8994
    8.940    9.0785
    8.970    8.1727
    9.000    8.6677
    9.030    9.0785
    9.060    8.2780
    9.090    8.7204
    9.120    9.0153
    9.150    8.7625
    9.180    8.6045
    9.210    8.9626
    9.240    8.6888
    9.270    8.5097
    9.300    8.3096
    9.330    8.8994
    9.360    8.6467
    9.390    9.0258
    9.420    9.0258
    9.450    9.0574
    9.480    9.0047
    9.510    8.9521
    9.540    8.8994
    9.570    9.0785
    9.600    8.5308
    9.630    8.5308
    9.660    9.0153
    9.690    8.6045
    9.720    8.7836
    9.750    8.8889
    9.780    8.7520
    9.810    8.7730
    9.840    8.9415
    9.870    9.3734
    9.900    9.2048
    9.930    9.2364
    9.960    9.0890
    9.990    8.8362
   10.020    8.7309
   10.050    9.1206
   10.080    9.0785
   10.110    8.6361
   10.140    9.1522
   10.170    9.4050
   10.200    9.1943
   10.230    9.3207
   10.260    9.1522
   10.290    9.8368
   10.320    9.6367
   10.350    9.4576
   10.380   10.1527
   10.410    9.5735
   10.440    9.7630
   10.470   10.2370
   10.500    9.5840
   10.530    9.9526
   10.560    9.3944
   10.590    9.6367
   10.620    9.8578
   10.650    9.6788
   10.680    9.0469
   10.710    9.2575
   10.740    9.2996
   10.770    8.9942
   10.800    8.6361
   10.830    9.1522
   10.860    9.4576
   10.890    8.6888
   10.920    8.7730
   10.950    8.6467
   10.980    9.2154
   11.010    8.8046
   11.040    9.1522
   11.070    8.9942
   11.100    8.8362
   11.130    8.2675
   11.160    8.6677
   11.190    9.0258
   11.220    8.9942
   11.250    8.5729
   11.280    8.9942
   11.310    8.4781
   11.340    8.5308
   11.370    8.5097
   11.400    8.8362
   11.430    8.5940
   11.460    8.4255
   11.490    8.8362
   11.520    8.9942
   11.550    8.7204
   11.580    8.7309
   11.610    8.5729
   11.640    8.8573
   11.670    8.9205
   11.700    9.1838
   11.730    8.5624
   11.760    8.7309
   11.790    9.3102
   11.820    9.3207
   11.850    9.2259
   11.880    9.0469
   11.910    8.9205
   11.940    8.9415
   11.970    8.8152
   12.000    8.6993
   12.030    8.9837
   12.060    8.7625
   12.090    8.9521
   12.120    8.4992
   12.150    8.8784
   12.180    8.8678
   12.210    8.8362
   12.240    8.8362
   12.270    9.4471
   12.300    8.5097
   12.330    8.6045
   12.360    8.6572
   12.390    8.9415
   12.420    8.1201
   12.450    9.1311
   12.480    8.4571
   12.510    8.4676
   12.540    8.4571
   12.570    8.6677
   12.600    8.0253
   12.630    7.9621
   12.660    8.2043
   12.690    8.4676
   12.720    8.2886
   12.750    8.0990
   12.780    8.1201
   12.810    8.0779
   12.840    8.2780
   12.870    8.8046
   12.900    8.5097
   12.930    8.3518
   12.960    8.2043
   12.990    8.3307
   13.020    8.2991
   13.050    8.0779
   13.080    8.6361
   13.110    8.3728
   13.140    8.1201
   13.170    8.0253
   13.200    8.7414
   13.230    8.0990
   13.260    8.2464
   13.290    8.1833
   13.320    8.4781
   13.350    8.2149
   13.380    8.3939
   13.410    8.0674
   13.440    8.2359
   13.470    8.1306
   13.500    8.6256
   13.530    8.4676
   13.560    8.0253
   13.590    8.2043
   13.620    8.3623
   13.650    7.9094
   13.680    7.8989
   13.710    7.6461
   13.740    8.3623
   13.770    7.8989
   13.800    7.9410
   13.830    7.7620
   13.860    7.8462
   13.890    8.2886
   13.920    8.2570
   13.950    8.1938
   13.980    7.8884
   14.010    7.8462
   14.040    7.8989
   14.070    8.1727
   14.100    8.3412
   14.130    7.9200
   14.160    8.3939
   14.190    8.1306
   14.220    8.0358
   14.250    8.2359
   14.280    7.8252
   14.310    7.7936
   14.340    7.8357
   14.370    8.4887
   14.400    8.0463
   14.430    7.9726
   14.460    7.8989
   14.490    7.7093
   14.520    7.9726
   14.550    8.0779
   14.580    7.5829
   14.610    7.7199
   14.640    8.2043
   14.670    8.2359
   14.700    8.2254
   14.730    7.6567
   14.760    7.9726
   14.790    8.1517
   14.820    7.5408
   14.850    7.7725
   14.880    7.7620
   14.910    8.1622
   14.940    8.5097
   14.970    7.7936
   15.000    7.8357
   15.030    8.1833
   15.060    7.7199
   15.090    7.9094
   15.120    7.8989
   15.150    7.7514
   15.180    8.2991
   15.210    7.8252
   15.240    7.7514
   15.270    8.1306
   15.300    8.1095
   15.330    8.4255
   15.360    7.7620
   15.390    7.7093
   15.420    7.9831
   15.450    7.8673
   15.480    8.1201
   15.510    7.6461
   15.540    8.0674
   15.570    8.0042
   15.600    8.0885
   15.630    7.9937
   15.660    7.8146
   15.690    8.5203
   15.720    8.1622
   15.750    8.1727
   15.780    8.1938
   15.810    8.0147
   15.840    7.7514
   15.870    8.5729
   15.900    8.3518
   15.930    8.1095
   15.960    7.9937
   15.990    7.8778
   16.020    7.7936
   16.050    8.1095
   16.080    7.8989
   16.110    7.7199
   16.140    8.2254
   16.170    7.6672
   16.200    8.2043
   16.230    8.1201
   16.260    7.8884
   16.290    7.8989
   16.320    8.1306
   16.350    7.6040
   16.380    8.0779
   16.410    7.9726
   16.440    7.9200
   16.470    7.7725
   16.500    7.8778
   16.530    7.6672
   16.560    7.7409
   16.590    8.3518
   16.620    8.1727
   16.650    7.8673
   16.680    7.8568
   16.710    8.0990
   16.740    7.7199
   16.770    7.8462
   16.800    8.4676
   16.830    8.1727
   16.860    7.8989
   16.890    8.0253
   16.920    7.6356
   16.950    8.0779
   16.980    7.7093
   17.010    8.4255
   17.040    7.9831
   17.070    7.7514
   17.100    8.0147
   17.130    7.7409
   17.160    8.1727
   17.190    7.4566
   17.220    8.2886
   17.250    8.2570
   17.280    8.1201
   17.310    8.5413
   17.340    7.9094
   17.370    7.8778
   17.400    8.6467
   17.430    8.6045
   17.460    8.0358
   17.490    8.1938
   17.520    8.1727
   17.550    8.1622
   17.580    8.6151
   17.610    8.0253
   17.640    8.3096
   17.670    8.0569
   17.700    8.0779
   17.730    8.2886
   17.760    8.3412
   17.790    8.5097
   17.820    8.1938
   17.850    8.3202
   17.880    7.8778
   17.910    8.4255
   17.940    7.9305
   17.970    8.1201
   18.000    8.2570
   18.030    8.2149
   18.060    7.8568
   18.090    8.2675
   18.120    7.9410
   18.150    8.3202
   18.180    8.2043
   18.210    7.9305
   18.240    7.5935
   18.270    8.3518
   18.300    7.4355
   18.330    8.0779
   18.360    8.1411
   18.390    7.6672
   18.420    8.2570
   18.450    8.1411
   18.480    8.3939
   18.510    9.0469
   18.540    8.1727
   18.570    8.2991
   18.600    8.3728
   18.630    8.6361
   18.660    8.1201
   18.690    8.3412
   18.720    8.1938
   18.750    8.2043
   18.780    8.5308
   18.810    8.0569
   18.840    8.3623
   18.870    8.1411
   18.900    8.5308
   18.930    8.5729
   18.960    8.2886
   18.990    8.3307
   19.020    7.9305
   19.050    8.0358
   19.080    8.5203
   19.110    8.0463
   19.140    8.4992
   19.170    8.5835
   19.200    8.8046
   19.230    8.1938
   19.260    8.2570
   19.290    8.1095
   19.320    8.5413
   19.350    8.4466
   19.380    8.8784
   19.410    8.7730
   19.440    8.5413
   19.470    8.0990
   19.500    8.7941
   19.530    8.7204
   19.560    8.6045
   19.590    8.4466
   19.620    8.3623
   19.650    8.4571
   19.680    8.6151
   19.710    8.5519
   19.740    8.5519
   19.770    8.7730
   19.800    8.9310
   19.830    8.5203
   19.860    8.6256
   19.890    8.6993
   19.920    8.4150
   19.950    8.7730
   19.980    8.7625
   20.010    9.0047
   20.040    8.6256
   20.070    8.7309
   20.100    8.6151
   20.130    9.0995
   20.160    8.4466
   20.190    8.7625
   20.220    8.6993
   20.250    8.4360
   20.280    8.7414
   20.310    9.2364
   20.340    8.6467
   20.370    8.6045
   20.400    8.8784
   20.430    8.7625
   20.460    9.0153
   20.490    8.3728
   20.520    8.4992
   20.550    8.8257
   20.580    8.6677
   20.610    9.2154
   20.640    8.4044
   20.670    8.5624
   20.700    9.1206
   20.730    8.8573
   20.760    8.5203
   20.790    8.5308
   20.820    8.7730
   20.850    8.8046
   20.880    9.0995
   20.910    8.8362
   20.940    8.7836
   20.970    8.6572
   21.000    8.8573
   21.030    8.6256
   21.060    8.7836
   21.090    9.0679
   21.120    9.2364
   21.150    9.4155
   21.180    9.1838
   21.210    9.0363
   21.240    9.4471
   21.270    8.6783
   21.300    8.4044
   21.330    8.8362
   21.360    8.6783
   21.390    8.7836
   21.420    9.0258
   21.450    8.6888
   21.480    9.0890
   21.510    9.1206
   21.540    8.8046
   21.570    9.0469
   21.600    8.5729
   21.630    8.4887
   21.660    8.5308
   21.690    8.8046
   21.720    8.9521
   21.750    9.1311
   21.780    8.7941
   21.810    8.8994
   21.840    9.2996
   21.870    8.6151
   21.900    8.6467
   21.930    9.2575
   21.960    8.8362
   21.990    9.2048
   22.020    9.1417
   22.050    9.0258
   22.080    9.1943
   22.110    9.1101
   22.140    9.1522
   22.170    9.1417
   22.200    9.2364
   22.230    8.8784
   22.260    9.2364
   22.290    8.6993
   22.320    8.6993
   22.350    8.8994
   22.380    9.1206
   22.410    9.2680
   22.440    8.8046
   22.470    9.4681
   22.500    8.9731
   22.530    9.2470
   22.560    9.1732
   22.590    9.1627
   22.620    9.1943
   22.650    9.2891
   22.680    9.4365
   22.710    9.6367
   22.740    9.4050
   22.770    9.2786
   22.800   10.0474
   22.830    8.8994
   22.860    9.3418
   22.890    9.4787
   22.920    9.0679
   22.950    9.5313
   22.980    9.0574
   23.010    8.9205
   23.040    8.7520
   23.070    8.9415
   23.100    9.0153
   23.130    8.7730
   23.160    9.1943
   23.190    8.7204
   23.220    8.9415
   23.250    8.9310
   23.280    8.2359
   23.310    8.5097
   23.340    8.7520
   23.370    8.7098
   23.400    8.6361
   23.430    8.9100
   23.460    9.0995
   23.490    8.4781
   23.520    8.6888
   23.550    8.7625
   23.580    9.0890
   23.610    8.8257
   23.640    8.7941
   23.670    8.6993
   23.700    8.4255
   23.730    8.5519
   23.760    8.7625
   23.790    8.6993
   23.820    8.9205
   23.850    8.4781
   23.880    8.7309
   23.910    8.2991
   23.940    8.4466
   23.970    8.8468
   24.000    8.5624
   24.030    8.5203
   24.060    8.1306
   24.090    8.2886
   24.120    8.3623
   24.150    8.9100
   24.180    8.2886
   24.210    8.5729
   24.240    8.1833
   24.270    8.3623
   24.300    8.7520
   24.330    8.5413
   24.360    8.8468
   24.390    8.6677
   24.420    8.3307
   24.450    8.5940
   24.480    8.7309
   24.510    8.5940
   24.540    8.7730
   24.570    8.4992
   24.600    8.8257
   24.630    8.5940
   24.660    8.5519
   24.690    8.9100
   24.720    8.5413
   24.750    8.2359
   24.780    8.8468
   24.810    8.8678
   24.840    8.8152
   24.870    8.7098
   24.900    8.5940
   24.930    8.2886
   24.960    8.2043
   24.990    8.2991
   25.020    8.7836
   25.050    8.5308
   25.080    8.9205
   25.110    8.3412
   25.140    8.6677
   25.170    8.5097
   25.200    8.1095
   25.230    8.7520
   25.260    8.3202
   25.290    8.0147
   25.320    8.4044
   25.350    7.7830
   25.380    8.4781
   25.410    8.3412
   25.440    8.2359
   25.470    7.7199
   25.500    8.3307
   25.530    7.8568
   25.560    8.3518
   25.590    8.0042
   25.620    7.8989
   25.650    7.9831
   25.680    7.8568
   25.710    7.7936
   25.740    8.1306
   25.770    7.9410
   25.800    8.2464
   25.830    8.0779
   25.860    8.2254
   25.890    7.7304
   25.920    8.2149
   25.950    7.8146
   25.980    7.5092
   26.010    7.7409
   26.040    7.8146
   26.070    7.9516
   26.100    7.6988
   26.130    7.9831
   26.160    7.9410
   26.190    7.7830
   26.220    7.9094
   26.250    8.2991
   26.280    7.5408
   26.310    7.7093
   26.340    8.0990
   26.370    8.0885
   26.400    7.7620
   26.430    8.2570
   26.460    7.5935
   26.490    7.8568
   26.520    8.0463
   26.550    7.6777
   26.580    8.0885
   26.610    7.6988
   26.640    7.8146
   26.670    8.0885
   26.700    7.5619
   26.730    7.8357
   26.760    7.8357
   26.790    7.6777
   26.820    7.3407
   26.850    7.7199
   26.880    7.8778
   26.910    8.2043
   26.940    7.8146
   26.970    7.5935
   27.000    7.8568
   27.030    7.9410
   27.060    8.0147
   27.090    7.9305
   27.120    7.5092
   27.150    7.7830
   27.180    7.5829
   27.210    7.8252
   27.240    7.4039
   27.270    7.5513
   27.300    7.9094
   27.330    7.8778
   27.360    7.5303
   27.390    7.6988
   27.420    8.1306
   27.450    7.3196
   27.480    7.4460
   27.510    7.6461
   27.540    7.8778
   27.570    7.4460
   27.600    7.6251
   27.630    7.8778
   27.660    7.7514
   27.690    7.3407
   27.720    7.6461
   27.750    7.4250
   27.780    7.8568
   27.810    7.7936
   27.840    7.8989
   27.870    7.9410
   27.900    7.8673
   27.930    8.1517
   27.960    7.7514
   27.990    7.7620
   28.020    7.5935
   28.050    7.6883
   28.080    7.5197
   28.110    7.6567
   28.140    7.7830
   28.170    7.3618
   28.200    7.6461
   28.230    7.4460
   28.260    7.6777
   28.290    7.5829
   28.320    7.3828
   28.350    7.7199
   28.380    7.7514
   28.410    7.5935
   28.440    7.8884
   28.470    7.2880
   28.500    7.5724
   28.530    7.7725
   28.560    7.0353
   28.590    7.4987
   28.620    7.6040
   28.650    7.5935
   28.680    7.7409
   28.710    7.4039
   28.740    7.5829
   28.770    7.2354
   28.800    7.3618
   28.830    7.4566
   28.860    7.7409
   28.890    7.1722
   28.920    7.4882
   28.950    7.3091
   28.980    7.3302
   29.010    7.6567
   29.040    7.2565
   29.070    7.0353
   29.100    7.4460
   29.130    7.5619
   29.160    6.9826
   29.190    7.0985
   29.220    7.3196
   29.250    7.2986
   29.280    7.3723
   29.310    7.2986
   29.340    7.0985
   29.370    6.9405
   29.400    7.2459
   29.430    7.2670
   29.460    7.2459
   29.490    7.0879
   29.520    7.3723
   29.550    7.0353
   29.580    7.2038
   29.610    7.2986
   29.640    7.3618
   29.670    7.3407
   29.700    7.2354
   29.730    7.6040
   29.760    7.3618
   29.790    7.2670
   29.820    7.2986
   29.850    7.3723
   29.880    7.1722
   29.910    7.0669
   29.940    7.1511
   29.970    7.1722
   30.000    6.9510
   30.030    7.0774
   30.060    7.2565
   30.090    6.9932
   30.120    6.9616
   30.150    6.8773
   30.180    6.7615
   30.210    7.2354
   30.240    7.0669
   30.270    7.0142
   30.300    6.8668
   30.330    6.7299
   30.360    7.2880
   30.390    7.0248
   30.420    6.5824
   30.450    6.6351
   30.480    7.0248
   30.510    6.8668
   30.540    6.6140
   30.570    7.0879
   30.600    7.0037
   30.630    7.2249
   30.660    6.8668
   30.690    6.8773
   30.720    6.9616
   30.750    7.0458
   30.780    6.8562
   30.810    7.1406
   30.840    6.7615
   30.870    7.0563
   30.900    7.0879
   30.930    7.1301
   30.960    7.3828
   30.990    6.9405
   31.020    6.7720
   31.050    6.8036
   31.080    7.0248
   31.110    7.0142
   31.140    6.7088
   31.170    7.1511
   31.200    7.0248
   31.230    6.8984
   31.260    7.0458
   31.290    6.8773
   31.320    6.9510
   31.350    6.9194
   31.380    7.0879
   31.410    6.8457
   31.440    6.6245
   31.470    6.1085
   31.500    6.6245
   31.530    6.8457
   31.560    6.7615
   31.590    6.7930
   31.620    7.1933
   31.650    7.3091
   31.680    6.9932
   31.710    6.8878
   31.740    7.2143
   31.770    6.4982
   31.800    6.9826
   31.830    7.1617
   31.860    6.9405
   31.890    7.0458
   31.920    6.8562
   31.950    6.7720
   31.980    6.9510
   32.010    6.9194
   32.040    6.8773
   32.070    6.3402
   32.100    6.8773
   32.130    7.0985
   32.160    6.9932
   32.190    6.5824
   32.220    6.9300
   32.250    6.8984
   32.280    6.6456
   32.310    6.7615
   32.340    7.1195
   32.370    7.1933
   32.400    6.8036
   32.430    7.4250
   32.460    6.8773
   32.490    6.9826
   32.520    6.4350
   32.550    6.6667
   32.580    6.3296
   32.610    6.3718
   32.640    6.8141
   32.670    6.7930
   32.700    6.3928
   32.730    6.5719
   32.760    6.5192
   32.790    6.2454
   32.820    6.6561
   32.850    6.4350
   32.880    6.4771
   32.910    6.9194
   32.940    6.8773
   32.970    6.8878
   33.000    6.2665
   33.030    6.5087
   33.060    6.4982
   33.090    6.4350
   33.120    6.8773
   33.150    6.4666
   33.180    6.4666
   33.210    6.3718
   33.240    6.3402
   33.270    6.8562
   33.300    6.7509
   33.330    6.6772
   33.360    6.7088
   33.390    6.6561
   33.420    6.5824
   33.450    6.7720
   33.480    6.5087
   33.510    6.8141
   33.540    6.5087
   33.570    6.2770
   33.600    6.3296
   33.630    6.2665
   33.660    6.4244
   33.690    6.0979
   33.720    6.6667
   33.750    6.1927
   33.780    6.4034
   33.810    6.5929
   33.840    6.7930
   33.870    6.4666
   33.900    6.3296
   33.930    6.4982
   33.960    6.2981
   33.990    6.4771
   34.020    6.4244
   34.050    6.5929
   34.080    6.2559
   34.110    6.2349
   34.140    6.2138
   34.170    6.5508
   34.200    6.1085
   34.230    6.2875
   34.260    6.3191
   34.290    6.5824
   34.320    6.4560
   34.350    6.5613
   34.380    6.2349
   34.410    6.4455
   34.440    6.6561
   34.470    6.3296
   34.500    6.1822
   34.530    6.2665
   34.560    6.7193
   34.590    6.4666
   34.620    6.6351
   34.650    6.6667
   34.680    6.1822
   34.710    6.2349
   34.740    6.5192
   34.770    6.1085
   34.800    6.3296
   34.830    6.2981
   34.860    6.0874
   34.890    6.3718
   34.920    6.0453
   34.950    6.1822
   34.980    6.4771
   35.010    6.5192
   35.040    6.1611
   35.070    6.1190
   35.100    6.0979
   35.130    6.3612
   35.160    6.0874
   35.190    6.1717
   35.220    6.3612
   35.250    6.5508
   35.280    5.8873
   35.310    6.0874
   35.340    5.9294
   35.370    6.4350
   35.400    6.1295
   35.430    6.3507
   35.460    6.4771
   35.490    6.1295
   35.520    6.4982
   35.550    6.4244
   35.580    6.1295
   35.610    6.1295
   35.640    6.1190
   35.670    6.2454
   35.700    6.2454
   35.730    6.0137
   35.760    5.9610
   35.790    6.1401
   35.820    6.2981
   35.850    6.2033
   35.880    6.1190
   35.910    6.0979
   35.940    5.8768
   35.970    6.4560
   36.000    5.7715
   36.030    6.2981
   36.060    6.0032
   36.090    6.1085
   36.120    6.2981
   36.150    5.8452
   36.180    6.2033
   36.210    6.2349
   36.240    6.2349
   36.270    6.2349
   36.300    5.7820
   36.330    6.1190
   36.360    6.5613
   36.390    6.2454
   36.420    5.7399
   36.450    5.9610
   36.480    5.9926
   36.510    6.5824
   36.540    6.2138
   36.570    6.0874
   36.600    6.2559
   36.630    5.9505
   36.660    6.3296
   36.690    6.5192
   36.720    6.1401
   36.750    6.0769
   36.780    6.1085
   36.810    6.2349
   36.840    5.8978
   36.870    6.3507
   36.900    5.8873
   36.930    6.0874
   36.960    6.0137
   36.990    5.6872
   37.020    5.7925
   37.050    5.8031
   37.080    6.1717
   37.110    5.9821
   37.140    6.3296
   37.170    6.2559
   37.200    5.9505
   37.230    5.9716
   37.260    5.6451
   37.290    5.7925
   37.320    6.1611
   37.350    6.0874
   37.380    6.0874
   37.410    5.8873
   37.440    6.3507
   37.470    5.7820
   37.500    5.9189
   37.530    6.1611
   37.560    6.1822
   37.590    6.2559
   37.620    6.1190
   37.650    5.7925
   37.680    5.8452
   37.710    5.8347
   37.740    6.1822
   37.770    6.0032
   37.800    6.1401
   37.830    6.0032
   37.860    6.1190
   37.890    5.9294
   37.920    6.0664
   37.950    6.0242
   37.980    5.3607
   38.010    5.9505
   38.040    5.6977
   38.070    6.0348
   38.100    5.9505
   38.130    5.7083
   38.160    6.0769
   38.190    5.9716
   38.220    6.3718
   38.250    5.7504
   38.280    5.8768
   38.310    5.8347
   38.340    5.7504
   38.370    5.9084
   38.400    5.8873
   38.430    6.1822
   38.460    6.0242
   38.490    5.8662
   38.520    5.8452
   38.550    5.6556
   38.580    5.7820
   38.610    6.0348
   38.640    5.6767
   38.670    5.5608
   38.700    5.9400
   38.730    6.0874
   38.760    5.8452
   38.790    5.9294
   38.820    6.1611
   38.850    5.7504
   38.880    5.9189
   38.910    6.1822
   38.940    6.0558
   38.970    6.0242
   39.000    6.0979
   39.030    5.6556
   39.060    5.9716
   39.090    6.0979
   39.120    5.7715
   39.150    5.8768
   39.180    5.9610
   39.210    6.0453
   39.240    6.0348
   39.270    5.9189
   39.300    5.9610
   39.330    6.1085
   39.360    5.8452
   39.390    5.6977
   39.420    5.7820
   39.450    5.9610
   39.480    6.1822
   39.510    6.0453
   39.540    6.0242
   39.570    6.0874
   39.600    6.0348
   39.630    5.9821
   39.660    6.0558
   39.690    6.1822
   39.720    6.2665
   39.750    5.6872
   39.780    5.8768
   39.810    6.1611
   39.840    5.5924
   39.870    5.9189
   39.900    6.1085
   39.930    5.8873
   39.960    6.0242
   39.990    5.5503