File: data/PXRD/PXRD_KE-155_Cu-Ka1_capillary-1mm_5s-deg.xyd
    1.500   42.6856
    1.530   42.5066
    1.560   41.2112
    1.590   40.0632
    1.620   39.8631
    1.650   38.9784
    1.680   37.3354
    1.710   36.3876
    1.740   36.5456
    1.770   34.7341
    1.800   35.4081
    1.830   35.0395
    1.860   33.9758
    1.890   33.0490
    1.920   32.8278
    1.950   33.3439
    1.980   31.8905
    2.010   31.5219
    2.040   31.8483
    2.070   32.1538
    2.100   31.9853
    2.130   32.2696
    2.160   30.9426
    2.190   31.9431
    2.220   30.9953
    2.250   30.8899
    2.280   32.9858
    2.310   32.9542
    2.340   32.9015
    2.370   32.5224
    2.400   33.1332
    2.430   33.7125
    2.460   32.9858
    2.490   35.1975
    2.520   35.1659
    2.550   36.9036
    2.580   37.6198
    2.610   37.2723
    2.640   39.4313
    2.670   40.1369
    2.700   40.6740
    2.730   43.0437
    2.760   44.1285
    2.790   45.4660
    2.820   47.1933
    2.850   48.9416
    2.880   51.2586
    2.910   53.7757
    2.940   55.1975
    2.970   59.2944
    3.000   62.2328
    3.030   65.9084
    3.060   69.4365
    3.090   74.3865
    3.120   79.0627
    3.150   84.8341
    3.180   92.4697
    3.210   97.9779
    3.240  106.0874
    3.270  115.3976
    3.300  127.0458
    3.330  143.0542
    3.360  157.3354
    3.390  179.5787
    3.420  203.1806
    3.450  220.0843
    3.480  209.5524
    3.510  175.1238
    3.540  127.6988
    3.570   97.3670
    3.600   79.4208
    3.630   69.4787
    3.660   64.4339
    3.690   64.6340
    3.720   64.2022
    3.750   64.1706
    3.780   68.2149
    3.810   70.6477
    3.840   72.9542
    3.870   77.8199
    3.900   82.0011
    3.930   85.6767
    3.960   86.6877
    3.990   89.9421
    4.020   92.4381
    4.050   90.2791
    4.080   87.5198
    4.110   83.6230
    4.140   78.7783
    4.170   71.1848
    4.200   65.6872
    4.230   57.4092
    4.260   51.7009
    4.290   44.6340
    4.320   39.4734
    4.350   34.6604
    4.380   29.8684
    4.410   26.3086
    4.440   23.6546
    4.470   20.8952
    4.500   20.1685
    4.530   18.6625
    4.560   16.3665
    4.590   15.9136
    4.620   16.0084
    4.650   14.2285
    4.680   13.8494
    4.710   13.6388
    4.740   13.0595
    4.770   13.0068
    4.800   12.4697
    4.830   12.0695
    4.860   11.7114
    4.890   11.4481
    4.920   11.4376
    4.950   11.0585
    4.980   10.4371
    5.010   10.6793
    5.040   11.1006
    5.070   10.7846
    5.100   10.4055
    5.130   10.3949
    5.160   10.6372
    5.190   10.7214
    5.220   10.2159
    5.250   10.0685
    5.280   10.3212
    5.310   10.2370
    5.340   10.0474
    5.370   10.1527
    5.400    9.5629
    5.430    9.6893
    5.460    9.5629
    5.490    9.8473
    5.520    9.7736
    5.550    9.7104
    5.580    9.3734
    5.610    9.1943
    5.640    9.1101
    5.670    8.8889
    5.700    9.1311
    5.730    9.3523
    5.760    8.6572
    5.790    8.6151
    5.820    8.9731
    5.850    8.8046
    5.880    8.8046
    5.910    8.4571
    5.940    9.1101
    5.970    8.8046
    6.000    8.9837
    6.030    8.7204
    6.060    9.2575
    6.090    8.6361
    6.120    8.9205
    6.150    9.1417
    6.180    9.3628
    6.210    9.4050
    6.240    9.9105
    6.270    9.2786
    6.300    8.9415
    6.330    9.2680
    6.360    9.6893
    6.390    9.6472
    6.420    9.8473
    6.450   10.4476
    6.480   10.4160
    6.510   10.7004
    6.540   10.5108
    6.570   11.3323
    6.600   11.8273
    6.630   12.2064
    6.660   12.7962
    6.690   13.4597
    6.720   13.9968
    6.750   14.8394
    6.780   16.1032
    6.810   17.8094
    6.840   19.1890
    6.870   21.2217
    6.900   24.0232
    6.930   27.1827
    6.960   27.5829
    6.990   26.3402
    7.020   22.7699
    7.050   18.0832
    7.080   15.6714
    7.110   12.6382
    7.140   12.3855
    7.170   11.3955
    7.200   10.6266
    7.230   10.1527
    7.260   10.0053
    7.290    9.8368
    7.320   10.3107
    7.350    9.4576
    7.380   10.1211
    7.410   10.1316
    7.440   10.5845
    7.470   10.8268
    7.500   10.3423
    7.530   10.4265
    7.560   10.4792
    7.590   10.5845
    7.620   10.6582
    7.650   10.5635
    7.680   10.6477
    7.710   11.5324
    7.740   11.4060
    7.770   11.6904
    7.800   12.7120
    7.830   11.8273
    7.860   12.5329
    7.890   12.8173
    7.920   13.2701
    7.950   13.2912
    7.980   13.9126
    8.010   13.3649
    8.040   14.0495
    8.070   14.3233
    8.100   14.3233
    8.130   14.3760
    8.160   14.1969
    8.190   14.9026
    8.220   14.5445
    8.250   14.3444
    8.280   14.2496
    8.310   13.9126
    8.340   14.4181
    8.370   13.8915
    8.400   13.5334
    8.430   13.5650
    8.460   12.6698
    8.490   12.4592
    8.520   12.4487
    8.550   11.6482
    8.580   11.2902
    8.610   11.2902
    8.640   11.2691
    8.670   11.0374
    8.700   10.5635
    8.730   10.3949
    8.760   10.3318
    8.790   10.2264
    8.820    9.5945
    8.850    9.4050
    8.880    9.8368
    8.910    9.1417
    8.940    8.8889
    8.970    9.2259
    9.000    8.8046
    9.030    8.8678
    9.060    8.6572
    9.090    8.3623
    9.120    8.7204
    9.150    8.2359
    9.180    8.5835
    9.210    8.4360
    9.240    8.1411
    9.270    8.2464
    9.300    8.3307
    9.330    8.1095
    9.360    8.2780
    9.390    8.4676
    9.420    8.7309
    9.450    8.1201
    9.480    8.2254
    9.510    8.0674
    9.540    7.9831
    9.570    8.6045
    9.600    7.9726
    9.630    8.4360
    9.660    8.0990
    9.690    8.0147
    9.720    7.7830
    9.750    8.5203
    9.780    8.0463
    9.810    8.3307
    9.840    7.9410
    9.870    8.3307
    9.900    7.9831
    9.930    8.1411
    9.960    7.9410
    9.990    8.3623
   10.020    7.9305
   10.050    8.3202
   10.080    8.0358
   10.110    8.0147
   10.140    8.4571
   10.170    7.7830
   10.200    8.0358
   10.230    8.0674
   10.260    7.8462
   10.290    8.3623
   10.320    8.5413
   10.350    9.1101
   10.380    8.7309
   10.410    8.8784
   10.440    9.9947
   10.470    9.2786
   10.500    9.3944
   10.530    9.2154
   10.560    9.1732
   10.590    9.0679
   10.620    8.4360
   10.650    8.6572
   10.680    8.1622
   10.710    8.3202
   10.740    8.0569
   10.770    8.2675
   10.800    8.1411
   10.830    7.8462
   10.860    7.9305
   10.890    8.1622
   10.920    8.1833
   10.950    8.0674
   10.980    8.3202
   11.010    8.0042
   11.040    7.9937
   11.070    8.3518
   11.100    8.3728
   11.130    8.0990
   11.160    8.2675
   11.190    8.1727
   11.220    8.0253
   11.250    7.9937
   11.280    8.1517
   11.310    8.0358
   11.340    8.0990
   11.370    8.2675
   11.400    8.2359
   11.430    8.1727
   11.460    7.9305
   11.490    7.9305
   11.520    8.6256
   11.550    8.3834
   11.580    7.8041
   11.610    8.1201
   11.640    7.9410
   11.670    8.4044
   11.700    8.8362
   11.730    8.2043
   11.760    8.2570
   11.790    8.2254
   11.820    8.4887
   11.850    8.3307
   11.880    8.0042
   11.910    8.3834
   11.940    8.4360
   11.970    8.8678
   12.000    8.7730
   12.030    8.8152
   12.060    8.7520
   12.090    8.6256
   12.120    9.1522
   12.150    8.8994
   12.180    8.4992
   12.210    8.7941
   12.240    8.9626
   12.270    8.8994
   12.300    9.1943
   12.330    9.0258
   12.360    8.8468
   12.390    8.4360
   12.420    8.7836
   12.450    8.5519
   12.480    8.9731
   12.510    8.7625
   12.540    8.8046
   12.570    8.2043
   12.600    8.8468
   12.630    8.8889
   12.660    8.6467
   12.690    8.8889
   12.720    8.5413
   12.750    8.8994
   12.780    8.8784
   12.810    8.7414
   12.840    8.6783
   12.870    8.4255
   12.900    8.3518
   12.930    8.4150
   12.960    8.4887
   12.990    8.5413
   13.020    8.2149
   13.050    8.5835
   13.080    8.5519
   13.110    8.2780
   13.140    8.9626
   13.170    7.9305
   13.200    7.9621
   13.230    8.3096
   13.260    8.2359
   13.290    8.3412
   13.320    8.4150
   13.350    8.4150
   13.380    8.4466
   13.410    8.3412
   13.440    8.3623
   13.470    8.1517
   13.500    7.8357
   13.530    8.4150
   13.560    8.5097
   13.590    8.2991
   13.620    8.3834
   13.650    8.4150
   13.680    8.0569
   13.710    8.4781
   13.740    8.6256
   13.770    8.1095
   13.800    8.6151
   13.830    7.8884
   13.860    8.1727
   13.890    8.1622
   13.920    7.9516
   13.950    8.2675
   13.980    8.0779
   14.010    8.3096
   14.040    8.0147
   14.070    8.4571
   14.100    8.2149
   14.130    7.8989
   14.160    8.2991
   14.190    8.4044
   14.220    8.0463
   14.250    8.3307
   14.280    7.6672
   14.310    8.2780
   14.340    7.7620
   14.370    8.1095
   14.400    7.6988
   14.430    7.8357
   14.460    7.9094
   14.490    8.0253
   14.520    7.9305
   14.550    7.4039
   14.580    7.8884
   14.610    7.7725
   14.640    7.6145
   14.670    7.7936
   14.700    7.8778
   14.730    8.0885
   14.760    7.5513
   14.790    7.9200
   14.820    7.5829
   14.850    7.5408
   14.880    7.7830
   14.910    8.0569
   14.940    8.1833
   14.970    7.8252
   15.000    7.7304
   15.030    7.8462
   15.060    7.7093
   15.090    7.6040
   15.120    7.8357
   15.150    7.3934
   15.180    7.4460
   15.210    8.2675
   15.240    7.9305
   15.270    7.8673
   15.300    7.6040
   15.330    7.6040
   15.360    7.6883
   15.390    8.0358
   15.420    7.7620
   15.450    8.0147
   15.480    7.6988
   15.510    7.6777
   15.540    8.0569
   15.570    7.9410
   15.600    8.1727
   15.630    8.1201
   15.660    8.3202
   15.690    7.7409
   15.720    7.8146
   15.750    8.0147
   15.780    8.1411
   15.810    7.6145
   15.840    8.1727
   15.870    7.7830
   15.900    8.1095
   15.930    8.1727
   15.960    7.9726
   15.990    8.2043
   16.020    8.0042
   16.050    8.0147
   16.080    7.7830
   16.110    8.1411
   16.140    8.0147
   16.170    8.1727
   16.200    7.2986
   16.230    7.9200
   16.260    7.9410
   16.290    7.5092
   16.320    7.2354
   16.350    7.7830
   16.380    8.0885
   16.410    7.6567
   16.440    7.6040
   16.470    7.6461
   16.500    7.4250
   16.530    7.7725
   16.560    7.5724
   16.590    8.1201
   16.620    7.7093
   16.650    8.1411
   16.680    7.9410
   16.710    7.6251
   16.740    7.7093
   16.770    7.4460
   16.800    7.4355
   16.830    7.4039
   16.860    7.8884
   16.890    7.4671
   16.920    7.5303
   16.950    8.1201
   16.980    7.9410
   17.010    7.5829
   17.040    7.9937
   17.070    7.7409
   17.100    7.7936
   17.130    7.6672
   17.160    7.7409
   17.190    7.7199
   17.220    7.8778
   17.250    7.7936
   17.280    8.0042
   17.310    7.5829
   17.340    7.8568
   17.370    7.4355
   17.400    7.7514
   17.430    7.7514
   17.460    7.5619
   17.490    8.1622
   17.520    7.3407
   17.550    7.9305
   17.580    7.6672
   17.610    8.0463
   17.640    7.7620
   17.670    8.0253
   17.700    7.8568
   17.730    7.9937
   17.760    8.1727
   17.790    7.7093
   17.820    7.8357
   17.850    7.2459
   17.880    8.1622
   17.910    7.8673
   17.940    7.8462
   17.970    8.0569
   18.000    7.8357
   18.030    7.6251
   18.060    7.9516
   18.090    7.9094
   18.120    7.8252
   18.150    7.9410
   18.180    8.1938
   18.210    8.1622
   18.240    7.5303
   18.270    7.5197
   18.300    7.6145
   18.330    7.7199
   18.360    8.1938
   18.390    7.7725
   18.420    7.7725
   18.450    7.8462
   18.480    7.8989
   18.510    7.2354
   18.540    7.9726
   18.570    7.8462
   18.600    7.9726
   18.630    8.0569
   18.660    8.0042
   18.690    8.2464
   18.720    7.6251
   18.750    7.6672
   18.780    8.0358
   18.810    7.8357
   18.840    8.0358
   18.870    7.8462
   18.900    7.8252
   18.930    7.5619
   18.960    7.9410
   18.990    7.9621
   19.020    7.7199
   19.050    8.1727
   19.080    8.1306
   19.110    8.2886
   19.140    8.0042
   19.170    7.9621
   19.200    7.8041
   19.230    8.3623
   19.260    8.3096
   19.290    8.1622
   19.320    7.9200
   19.350    8.3307
   19.380    8.2780
   19.410    8.6993
   19.440    8.2359
   19.470    8.4255
   19.500    8.4992
   19.530    8.2886
   19.560    8.6677
   19.590    8.4044
   19.620    8.1306
   19.650    8.3307
   19.680    8.3307
   19.710    8.8152
   19.740    8.6783
   19.770    9.0363
   19.800    8.5519
   19.830    8.5203
   19.860    9.2575
   19.890    8.4466
   19.920    8.3518
   19.950    8.3202
   19.980    8.5729
   20.010    9.1417
   20.040    8.4887
   20.070    8.4676
   20.100    8.8784
   20.130    8.5413
   20.160    8.2570
   20.190    8.4360
   20.220    8.6361
   20.250    8.8152
   20.280    9.1732
   20.310    8.9942
   20.340    8.4360
   20.370    8.6361
   20.400    9.0258
   20.430    8.2675
   20.460    8.9942
   20.490    8.8046
   20.520    8.8468
   20.550    8.7204
   20.580    8.8889
   20.610    8.8889
   20.640    8.5413
   20.670    8.5097
   20.700    8.5413
   20.730    8.6888
   20.760    8.3412
   20.790    8.4150
   20.820    8.3307
   20.850    8.6467
   20.880    8.4466
   20.910    8.2464
   20.940    9.0785
   20.970    9.0469
   21.000    8.8046
   21.030    8.8573
   21.060    9.0995
   21.090    8.4466
   21.120    8.4992
   21.150    9.1311
   21.180    9.1732
   21.210    8.6256
   21.240    8.7836
   21.270    8.8573
   21.300    9.0047
   21.330    8.2570
   21.360    8.6572
   21.390    8.6151
   21.420    8.8784
   21.450    8.3202
   21.480    8.6993
   21.510    8.7836
   21.540    8.8152
   21.570    8.4466
   21.600    9.3312
   21.630    8.6993
   21.660    8.6993
   21.690    8.4360
   21.720    8.6467
   21.750    9.0153
   21.780    8.7730
   21.810    8.6361
   21.840    9.0363
   21.870    8.4887
   21.900    8.5203
   21.930    9.2154
   21.960    8.8362
   21.990    8.5308
   22.020    8.6993
   22.050    8.5203
   22.080    8.5308
   22.110    8.3623
   22.140    8.6256
   22.170    8.9626
   22.200    8.7625
   22.230    8.7309
   22.260    8.3307
   22.290    8.5519
   22.320    8.4150
   22.350    8.9100
   22.380    8.6677
   22.410    8.7098
   22.440    8.4466
   22.470    8.7941
   22.500    8.9100
   22.530    8.5308
   22.560    9.0785
   22.590    8.8046
   22.620    8.5835
   22.650    8.0253
   22.680    8.8257
   22.710    8.8152
   22.740    8.5413
   22.770    8.3834
   22.800    8.7414
   22.830    8.5835
   22.860    8.5729
   22.890    8.4676
   22.920    8.5308
   22.950    8.8678
   22.980    8.1833
   23.010    8.4044
   23.040    8.3096
   23.070    8.3096
   23.100    8.1833
   23.130    8.5097
   23.160    8.7098
   23.190    8.4044
   23.220    8.6467
   23.250    8.6993
   23.280    8.5624
   23.310    8.4571
   23.340    8.5835
   23.370    8.1622
   23.400    8.0569
   23.430    8.3518
   23.460    8.6045
   23.490    8.2254
   23.520    8.0885
   23.550    8.4044
   23.580    8.3412
   23.610    8.6151
   23.640    8.0569
   23.670    8.4360
   23.700    8.1095
   23.730    8.2886
   23.760    8.5835
   23.790    8.1411
   23.820    8.3307
   23.850    8.0779
   23.880    8.0253
   23.910    8.1622
   23.940    8.6467
   23.970    8.0147
   24.000    8.1095
   24.030    8.1833
   24.060    8.5835
   24.090    7.8673
   24.120    7.9410
   24.150    8.0042
   24.180    8.2886
   24.210    8.1201
   24.240    8.1833
   24.270    8.0463
   24.300    8.5624
   24.330    8.2570
   24.360    8.0463
   24.390    8.3096
   24.420    8.1727
   24.450    8.4887
   24.480    8.3939
   24.510    8.0779
   24.540    8.4150
   24.570    8.8468
   24.600    8.2570
   24.630    8.0990
   24.660    8.2675
   24.690    7.8778
   24.720    7.9305
   24.750    8.1727
   24.780    8.2991
   24.810    8.0569
   24.840    8.0885
   24.870    8.2570
   24.900    8.0569
   24.930    8.0358
   24.960    8.1201
   24.990    8.3939
   25.020    8.5624
   25.050    7.9831
   25.080    8.1306
   25.110    7.4987
   25.140    7.9305
   25.170    8.3096
   25.200    7.9200
   25.230    7.8989
   25.260    7.8884
   25.290    7.5935
   25.320    7.7725
   25.350    8.4044
   25.380    7.5303
   25.410    7.5724
   25.440    7.7725
   25.470    7.7514
   25.500    7.6251
   25.530    7.7093
   25.560    7.8673
   25.590    7.7199
   25.620    7.6461
   25.650    7.3407
   25.680    7.7304
   25.710    7.9621
   25.740    7.7830
   25.770    7.8041
   25.800    7.5303
   25.830    7.9305
   25.860    7.6567
   25.890    7.3618
   25.920    7.8673
   25.950    7.2459
   25.980    7.6356
   26.010    7.7620
   26.040    7.6251
   26.070    8.1833
   26.100    7.1933
   26.130    7.4460
   26.160    7.3723
   26.190    7.7409
   26.220    7.7514
   26.250    7.6988
   26.280    7.3618
   26.310    7.1301
   26.340    7.5303
   26.370    7.4460
   26.400    7.2986
   26.430    7.6461
   26.460    7.4250
   26.490    7.3407
   26.520    7.3618
   26.550    7.3512
   26.580    7.5408
   26.610    7.7409
   26.640    7.2670
   26.670    7.5724
   26.700    7.2143
   26.730    7.2354
   26.760    7.3407
   26.790    7.5724
   26.820    6.9826
   26.850    6.9826
   26.880    7.1722
   26.910    6.9510
   26.940    7.4039
   26.970    7.4355
   27.000    7.0142
   27.030    7.3934
   27.060    6.9510
   27.090    7.5619
   27.120    7.0563
   27.150    7.6040
   27.180    7.2249
   27.210    7.3196
   27.240    7.2143
   27.270    7.0985
   27.300    7.4355
   27.330    7.2354
   27.360    6.9616
   27.390    7.4250
   27.420    7.4566
   27.450    7.1722
   27.480    7.4250
   27.510    7.4144
   27.540    7.5408
   27.570    7.2354
   27.600    7.7514
   27.630    7.1827
   27.660    7.3828
   27.690    7.2459
   27.720    7.1933
   27.750    7.0353
   27.780    7.4039
   27.810    7.2986
   27.840    7.1617
   27.870    7.5303
   27.900    7.4144
   27.930    7.4250
   27.960    7.1195
   27.990    7.3091
   28.020    7.6145
   28.050    7.6777
   28.080    7.4355
   28.110    7.5408
   28.140    7.7409
   28.170    7.4987
   28.200    7.7409
   28.230    7.7620
   28.260    7.1933
   28.290    7.3934
   28.320    7.4776
   28.350    7.3723
   28.380    7.4987
   28.410    7.1301
   28.440    7.2143
   28.470    7.1406
   28.500    7.3091
   28.530    6.9826
   28.560    7.4566
   28.590    7.4671
   28.620    7.4144
   28.650    7.4355
   28.680    7.3723
   28.710    6.9510
   28.740    6.9932
   28.770    6.9826
   28.800    7.1722
   28.830    7.2249
   28.860    7.0774
   28.890    6.9616
   28.920    7.3723
   28.950    7.1617
   28.980    6.9300
   29.010    7.0879
   29.040    7.0353
   29.070    7.3828
   29.100    6.9194
   29.130    6.9721
   29.160    6.9510
   29.190    6.9405
   29.220    7.1617
   29.250    7.1827
   29.280    6.7930
   29.310    7.1301
   29.340    7.0353
   29.370    6.8878
   29.400    7.1511
   29.430    7.3828
   29.460    6.8141
   29.490    6.6351
   29.520    6.9826
   29.550    7.3934
   29.580    7.1722
   29.610    6.9616
   29.640    7.0353
   29.670    7.2354
   29.700    6.8246
   29.730    7.0353
   29.760    6.9405
   29.790    7.2775
   29.820    6.9089
   29.850    6.9826
   29.880    7.1511
   29.910    6.8036
   29.940    7.0248
   29.970    6.7509
   30.000    6.8668
   30.030    6.8562
   30.060    6.9300
   30.090    6.8668
   30.120    6.9826
   30.150    6.6351
   30.180    6.4244
   30.210    6.8246
   30.240    7.0142
   30.270    7.1406
   30.300    6.6245
   30.330    7.1511
   30.360    7.1722
   30.390    7.0669
   30.420    6.9616
   30.450    6.9826
   30.480    6.7088
   30.510    7.3196
   30.540    6.7720
   30.570    7.1617
   30.600    6.7193
   30.630    6.8562
   30.660    7.0879
   30.690    6.4876
   30.720    6.7615
   30.750    6.9616
   30.780    7.1933
   30.810    7.2986
   30.840    6.8668
   30.870    7.0353
   30.900    6.9826
   30.930    6.7088
   30.960    6.6877
   30.990    6.8773
   31.020    6.7825
   31.050    6.7193
   31.080    6.6772
   31.110    7.1617
   31.140    7.0248
   31.170    6.3718
   31.200    6.8036
   31.230    6.8878
   31.260    6.6667
   31.290    6.6035
   31.320    6.9194
   31.350    6.7404
   31.380    7.3723
   31.410    7.0669
   31.440    6.6983
   31.470    7.1722
   31.500    6.7720
   31.530    6.6983
   31.560    6.7615
   31.590    6.9616
   31.620    6.7825
   31.650    6.8562
   31.680    7.3723
   31.710    6.6877
   31.740    7.2670
   31.770    6.8562
   31.800    6.7825
   31.830    7.5197
   31.860    7.2354
   31.890    6.6772
   31.920    6.9826
   31.950    7.3828
   31.980    6.8878
   32.010    7.1933
   32.040    6.7615
   32.070    6.7088
   32.100    6.5719
   32.130    7.0142
   32.160    6.8984
   32.190    6.6245
   32.220    6.4771
   32.250    6.3928
   32.280    6.9089
   32.310    6.8352
   32.340    6.5298
   32.370    6.5192
   32.400    6.8668
   32.430    6.2349
   32.460    6.7720
   32.490    6.6983
   32.520    6.5719
   32.550    6.8668
   32.580    6.4876
   32.610    6.4560
   32.640    6.7088
   32.670    6.5613
   32.700    6.5719
   32.730    6.4139
   32.760    6.3402
   32.790    7.0563
   32.820    6.9510
   32.850    6.4244
   32.880    6.4982
   32.910    6.3612
   32.940    6.9826
   32.970    6.9405
   33.000    6.2665
   33.030    6.3086
   33.060    6.1611
   33.090    7.0563
   33.120    6.2875
   33.150    6.4666
   33.180    6.4560
   33.210    6.7299
   33.240    6.7720
   33.270    6.6772
   33.300    6.1717
   33.330    6.8246
   33.360    6.2033
   33.390    6.5087
   33.420    6.4666
   33.450    6.4876
   33.480    6.7509
   33.510    6.2981
   33.540    6.3823
   33.570    6.4560
   33.600    6.0874
   33.630    6.4034
   33.660    6.2454
   33.690    6.7509
   33.720    6.3507
   33.750    6.8246
   33.780    6.6351
   33.810    6.4982
   33.840    6.3296
   33.870    6.3718
   33.900    5.8031
   33.930    5.9716
   33.960    6.2559
   33.990    6.2770
   34.020    6.3402
   34.050    6.4244
   34.080    5.9821
   34.110    6.3718
   34.140    6.6561
   34.170    6.6456
   34.200    6.4771
   34.230    6.1085
   34.260    6.1190
   34.290    6.2559
   34.320    6.2875
   34.350    6.3296
   34.380    5.9610
   34.410    6.4982
   34.440    6.2033
   34.470    6.0558
   34.500    6.1927
   34.530    6.5613
   34.560    6.3612
   34.590    6.3191
   34.620    6.8878
   34.650    6.1611
   34.680    6.4455
   34.710    6.4876
   34.740    6.1611
   34.770    6.3612
   34.800    6.2559
   34.830    6.5719
   34.860    6.2875
   34.890    6.3718
   34.920    6.3928
   34.950    5.8873
   34.980    5.9926
   35.010    5.8873
   35.040    6.0979
   35.070    6.3823
   35.100    6.5719
   35.130    6.1085
   35.160    6.2349
   35.190    6.2559
   35.220    6.3507
   35.250    6.2875
   35.280    6.1822
   35.310    6.3823
   35.340    6.3086
   35.370    6.2875
   35.400    6.3823
   35.430    6.2770
   35.460    6.1295
   35.490    6.6772
   35.520    6.6667
   35.550    6.5298
   35.580    6.5613
   35.610    6.0558
   35.640    5.9505
   35.670    6.4560
   35.700    6.3612
   35.730    6.5087
   35.760    6.1717
   35.790    6.3612
   35.820    6.4560
   35.850    5.8241
   35.880    5.7609
   35.910    6.3191
   35.940    6.3507
   35.970    6.0664
   36.000    6.0242
   36.030    6.4455
   36.060    5.9294
   36.090    6.3823
   36.120    6.4560
   36.150    6.3612
   36.180    6.3086
   36.210    6.1822
   36.240    6.1401
   36.270    5.8452
   36.300    6.0242
   36.330    5.6556
   36.360    6.3191
   36.390    5.9400
   36.420    6.3191
   36.450    6.5192
   36.480    6.2981
   36.510    6.0874
   36.540    5.9716
   36.570    5.9505
   36.600    6.0348
   36.630    6.1295
   36.660    6.5192
   36.690    6.0558
   36.720    5.8347
   36.750    6.5824
   36.780    5.9716
   36.810    6.2138
   36.840    6.2559
   36.870    6.2138
   36.900    6.0979
   36.930    6.3718
   36.960    6.0664
   36.990    6.1085
   37.020    5.9294
   37.050    5.8662
   37.080    6.0874
   37.110    6.1085
   37.140    5.9505
   37.170    6.0032
   37.200    6.0558
   37.230    6.1822
   37.260    5.9821
   37.290    5.7188
   37.320    6.1611
   37.350    6.0348
   37.380    6.1401
   37.410    6.1717
   37.440    6.1611
   37.470    6.2138
   37.500    6.3296
   37.530    5.9716
   37.560    6.2138
   37.590    6.0558
   37.620    6.0453
   37.650    6.0979
   37.680    6.4982
   37.710    5.8873
   37.740    6.1611
   37.770    6.2559
   37.800    5.7820
   37.830    6.3296
   37.860    5.9505
   37.890    6.2559
   37.920    6.2770
   37.950    6.4666
   37.980    6.2981
   38.010    6.2559
   38.040    6.1190
   38.070    6.1822
   38.100    6.0032
   38.130    5.9610
   38.160    6.3507
   38.190    6.0664
   38.220    5.8662
   38.250    6.0242
   38.280    6.2138
   38.310    6.1717
   38.340    6.0137
   38.370    5.6872
   38.400    6.0453
   38.430    5.8557
   38.460    6.0558
   38.490    6.1190
   38.520    5.9716
   38.550    5.8768
   38.580    6.2243
   38.610    6.4350
   38.640    5.7820
   38.670    6.1717
   38.700    5.9610
   38.730    6.0874
   38.760    6.0453
   38.790    5.6661
   38.820    5.8662
   38.850    6.2138
   38.880    6.0769
   38.910    6.0348
   38.940    5.6029
   38.970    6.1190
   39.000    6.5403
   39.030    5.9505
   39.060    6.1927
   39.090    5.9505
   39.120    5.7609
   39.150    5.9716
   39.180    5.4976
   39.210    5.8241
   39.240    5.8662
   39.270    5.9821
   39.300    5.8662
   39.330    6.3823
   39.360    5.8241
   39.390    6.2349
   39.420    6.2559
   39.450    5.9294
   39.480    6.0242
   39.510    6.0558
   39.540    6.5298
   39.570    6.1506
   39.600    6.0979
   39.630    6.2665
   39.660    5.8347
   39.690    5.7715
   39.720    6.4666
   39.750    5.8662
   39.780    5.7293
   39.810    6.0874
   39.840    5.8347
   39.870    5.9084
   39.900    5.6240
   39.930    5.6240
   39.960    5.9505
   39.990    6.1717