File: data/PXRD/PXRD_KE-288_Cu-Ka1_capillary-1mm_3s-deg.xyd
    1.500   27.1546
    1.530   26.9791
    1.560   25.6451
    1.590   26.1541
    1.620   25.5398
    1.650   25.0483
    1.680   24.3813
    1.710   23.4509
    1.740   23.7142
    1.770   23.2403
    1.800   22.6786
    1.830   22.3626
    1.860   21.4674
    1.890   20.9408
    1.920   20.2212
    1.950   20.6775
    1.980   20.2387
    2.010   19.3260
    2.040   20.3616
    2.070   19.2206
    2.100   19.2031
    2.130   20.5371
    2.160   19.0978
    2.190   19.0978
    2.220   19.0978
    2.250   18.9047
    2.280   18.3956
    2.310   18.8520
    2.340   19.7121
    2.370   18.6414
    2.400   17.9744
    2.430   19.5366
    2.460   18.4308
    2.490   18.9573
    2.520   18.4132
    2.550   19.0627
    2.580   18.7467
    2.610   20.1861
    2.640   19.3435
    2.670   19.7648
    2.700   20.1510
    2.730   21.0988
    2.760   21.6254
    2.790   21.2392
    2.820   22.6786
    2.850   23.1350
    2.880   22.2047
    2.910   23.1525
    2.940   24.7674
    2.970   25.1360
    3.000   25.1887
    3.030   27.0142
    3.060   27.5233
    3.090   27.7866
    3.120   29.7876
    3.150   31.3674
    3.180   32.9296
    3.210   33.8775
    3.240   34.5094
    3.270   38.3360
    3.300   39.4594
    3.330   41.8115
    3.360   45.4801
    3.390   47.5689
    3.420   50.8689
    3.450   53.9933
    3.480   58.5571
    3.510   62.9279
    3.540   70.0544
    3.570   74.8815
    3.600   82.0958
    3.630   92.6979
    3.660  101.8080
    3.690  115.0606
    3.720  131.2796
    3.750  154.0460
    3.780  194.4708
    3.810  261.6992
    3.840  318.3079
    3.870  253.3790
    3.900  117.1494
    3.930   29.7525
    3.960   16.0786
    3.990   12.4803
    4.020   11.6026
    4.050   11.0058
    4.080   10.7249
    4.110    9.9526
    4.140    9.6542
    4.170    9.9702
    4.200   10.0579
    4.230    9.5313
    4.260    9.4085
    4.290    9.8297
    4.320    9.8999
    4.350    9.6718
    4.380    9.9877
    4.410    9.0925
    4.440    8.9170
    4.470    9.4260
    4.500    9.7244
    4.530    9.5840
    4.560   10.1808
    4.590    9.8297
    4.620    9.8824
    4.650   10.5670
    4.680    9.9175
    4.710   10.4616
    4.740   11.0058
    4.770   11.1287
    4.800   11.0058
    4.830   11.1111
    4.860   11.8483
    4.890   12.3749
    4.920   12.1467
    4.950   12.5680
    4.980   13.2350
    5.010   13.9372
    5.040   13.6914
    5.070   14.7095
    5.100   15.6749
    5.130   16.4648
    5.160   17.9217
    5.190   18.3430
    5.220   19.9754
    5.250   23.1876
    5.280   24.6972
    5.310   27.4882
    5.340   30.6653
    5.370   36.4753
    5.400   45.1641
    5.430   61.7167
    5.460   72.4767
    5.490   61.2954
    5.520   33.6668
    5.550   12.8664
    5.580    9.3031
    5.610    8.4781
    5.640    8.7765
    5.670    7.8111
    5.700    7.7409
    5.730    8.2851
    5.760    8.0393
    5.790    7.3547
    5.820    8.0218
    5.850    7.9164
    5.880    8.0042
    5.910    7.6532
    5.940    7.6180
    5.970    7.9340
    6.000    7.9340
    6.030    7.7936
    6.060    8.0744
    6.090    8.2149
    6.120    7.8287
    6.150    7.8638
    6.180    7.9164
    6.210    8.0218
    6.240    7.8462
    6.270    8.2324
    6.300    8.0042
    6.330    8.6537
    6.360    8.3553
    6.390    8.3904
    6.420    8.0218
    6.450    9.0398
    6.480    8.7590
    6.510    9.0047
    6.540    9.0750
    6.570    9.5489
    6.600    9.9175
    6.630   11.0936
    6.660   12.3223
    6.690   13.1297
    6.720   13.2526
    6.750   11.4973
    6.780    8.7941
    6.810    7.8287
    6.840    8.1622
    6.870    7.7234
    6.900    8.1973
    6.930    7.9691
    6.960    8.1271
    6.990    7.6707
    7.020    7.7936
    7.050    7.6005
    7.080    7.4250
    7.110    7.7234
    7.140    8.0744
    7.170    8.4606
    7.200    8.7414
    7.230    7.8638
    7.260    8.3904
    7.290    9.1803
    7.320    8.9696
    7.350    8.8819
    7.380   10.0579
    7.410    9.6015
    7.440   10.0579
    7.470   10.8654
    7.500   11.6026
    7.530   12.4100
    7.560   14.1829
    7.590   14.1478
    7.620   15.8153
    7.650   18.9398
    7.680   22.0642
    7.710   26.3472
    7.740   34.6849
    7.770   38.1780
    7.800   26.2594
    7.830   14.3584
    7.860    8.4606
    7.890    7.9340
    7.920    7.8638
    7.950    7.3723
    7.980    7.7585
    8.010    7.1441
    8.040    7.4425
    8.070    7.6532
    8.100    7.0563
    8.130    7.1792
    8.160    7.6532
    8.190    7.7409
    8.220    7.3899
    8.250    7.6005
    8.280    7.6005
    8.310    7.8111
    8.340    7.3547
    8.370    7.2845
    8.400    7.3899
    8.430    8.1446
    8.460    7.6356
    8.490    8.1271
    8.520    8.5308
    8.550    8.6010
    8.580    9.7595
    8.610   10.0755
    8.640   11.0585
    8.670   13.1122
    8.700   13.5685
    8.730   11.5675
    8.760    8.1622
    8.790    7.7409
    8.820    7.7936
    8.850    7.3196
    8.880    7.3723
    8.910    7.3547
    8.940    7.1266
    8.970    7.4601
    9.000    7.5829
    9.030    8.3026
    9.060    7.6883
    9.090    8.6010
    9.120    8.8643
    9.150    9.0574
    9.180    9.9702
    9.210   10.8829
    9.240   11.1813
    9.270   12.6031
    9.300   14.2531
    9.330   15.3941
    9.360   17.3951
    9.390   21.0462
    9.420   23.3983
    9.450   30.9110
    9.480   42.8647
    9.510   55.7486
    9.540   51.2902
    9.570   34.0004
    9.600   14.3935
    9.630    8.6712
    9.660    7.7760
    9.690    6.9861
    9.720    6.9510
    9.750    7.4952
    9.780    7.6532
    9.810    7.0388
    9.840    7.4074
    9.870    6.9159
    9.900    6.6702
    9.930    7.0388
    9.960    7.4601
    9.990    7.8462
   10.020    7.8111
   10.050    7.4074
   10.080    7.9340
   10.110    7.6883
   10.140    8.7590
   10.170    8.8819
   10.200    9.7946
   10.230   11.0760
   10.260   12.7435
   10.290   13.3052
   10.320   12.7084
   10.350    9.4787
   10.380    7.3196
   10.410    6.9159
   10.440    6.8282
   10.470    6.5824
   10.500    7.0563
   10.530    6.9335
   10.560    7.1968
   10.590    6.8633
   10.620    7.2845
   10.650    6.7930
   10.680    7.0037
   10.710    7.9867
   10.740    7.5303
   10.770    7.6707
   10.800    7.8638
   10.830    9.2329
   10.860   10.6021
   10.890   10.9356
   10.920   11.0936
   10.950   14.9903
   10.980   18.4834
   11.010   20.7127
   11.040   17.7462
   11.070   12.2872
   11.100    8.1446
   11.130    6.9510
   11.160    7.0739
   11.190    7.2670
   11.220    6.2138
   11.250    6.8106
   11.280    7.2143
   11.310    7.0563
   11.340    7.1090
   11.370    7.4250
   11.400    7.6180
   11.430    7.5478
   11.460    8.0042
   11.490    8.3202
   11.520    8.4957
   11.550    9.5664
   11.580   10.2335
   11.610   10.9531
   11.640   13.3755
   11.670   16.5526
   11.700   16.5701
   11.730   13.2175
   11.760    8.8292
   11.790    7.1968
   11.820    7.1441
   11.850    6.9510
   11.880    7.0388
   11.910    7.1266
   11.940    6.4595
   11.970    7.1441
   12.000    6.7930
   12.030    6.7755
   12.060    7.1792
   12.090    7.0388
   12.120    6.5649
   12.150    6.8106
   12.180    6.7228
   12.210    6.9686
   12.240    7.4250
   12.270    7.7936
   12.300    8.1973
   12.330    8.7063
   12.360    7.6707
   12.390    7.1266
   12.420    6.4069
   12.450    6.4069
   12.480    6.7579
   12.510    7.1617
   12.540    6.8282
   12.570    6.9159
   12.600    6.7053
   12.630    6.8282
   12.660    7.1441
   12.690    7.3021
   12.720    6.8984
   12.750    7.4601
   12.780    7.1617
   12.810    7.9867
   12.840    8.9170
   12.870    9.4611
   12.900   11.2866
   12.930   12.6031
   12.960   10.8478
   12.990    9.3734
   13.020    7.5829
   13.050    6.9335
   13.080    6.8106
   13.110    6.6351
   13.140    6.4946
   13.170    6.7579
   13.200    6.7755
   13.230    6.8633
   13.260    6.9159
   13.290    6.8808
   13.320    6.8984
   13.350    6.8808
   13.380    7.3196
   13.410    6.5649
   13.440    7.3021
   13.470    7.6707
   13.500    7.9691
   13.530    7.6883
   13.560    7.4601
   13.590    6.9159
   13.620    6.7228
   13.650    6.7053
   13.680    6.8633
   13.710    6.4946
   13.740    7.0037
   13.770    6.8808
   13.800    6.9861
   13.830    7.1792
   13.860    7.9164
   13.890    7.5654
   13.920    6.6702
   13.950    8.6186
   13.980    8.6537
   14.010   10.2159
   14.040   11.1462
   14.070   11.9888
   14.100   11.0233
   14.130    9.1978
   14.160    7.8813
   14.190    6.4595
   14.220    6.8106
   14.250    6.5473
   14.280    6.8984
   14.310    7.1617
   14.340    6.8106
   14.370    6.9861
   14.400    6.5649
   14.430    6.3718
   14.460    7.3021
   14.490    6.6526
   14.520    6.7579
   14.550    6.7404
   14.580    7.0037
   14.610    6.3367
   14.640    6.8106
   14.670    7.4425
   14.700    6.1962
   14.730    7.5654
   14.760    6.3893
   14.790    6.7579
   14.820    6.3893
   14.850    6.8282
   14.880    7.0212
   14.910    6.4946
   14.940    6.7755
   14.970    6.8984
   15.000    6.6000
   15.030    6.9159
   15.060    7.6532
   15.090    7.7760
   15.120    7.8813
   15.150    7.4776
   15.180    7.2670
   15.210    7.1617
   15.240    7.0037
   15.270    6.6000
   15.300    7.1968
   15.330    6.6000
   15.360    6.5649
   15.390    7.1617
   15.420    7.1441
   15.450    6.6877
   15.480    6.8282
   15.510    6.8106
   15.540    6.4771
   15.570    6.5824
   15.600    6.8984
   15.630    6.6351
   15.660    7.5654
   15.690    7.0739
   15.720    7.2143
   15.750    6.8457
   15.780    6.8984
   15.810    7.0915
   15.840    6.5298
   15.870    6.8633
   15.900    7.0037
   15.930    7.2670
   15.960    6.8633
   15.990    6.9686
   16.020    7.7760
   16.050    8.6888
   16.080    9.6367
   16.110    9.8473
   16.140    9.7595
   16.170    8.4430
   16.200    7.6883
   16.230    6.8282
   16.260    7.6005
   16.290    6.4420
   16.320    7.0037
   16.350    6.5649
   16.380    6.8457
   16.410    6.8282
   16.440    6.7228
   16.470    6.7579
   16.500    7.0563
   16.530    7.1968
   16.560    7.1441
   16.590    6.8106
   16.620    6.6702
   16.650    7.1792
   16.680    7.1266
   16.710    6.8808
   16.740    6.7404
   16.770    7.0212
   16.800    7.0563
   16.830    7.2494
   16.860    7.5303
   16.890    7.6883
   16.920    8.3553
   16.950   10.2686
   16.980   11.5324
   17.010   14.0074
   17.040   15.1834
   17.070   13.8669
   17.100   10.6898
   17.130    8.2149
   17.160    7.1266
   17.190    7.0388
   17.220    7.2143
   17.250    6.9335
   17.280    6.7930
   17.310    7.4250
   17.340    6.6702
   17.370    6.8808
   17.400    7.2494
   17.430    8.2324
   17.460    8.5484
   17.490    8.1095
   17.520    7.8111
   17.550    7.3372
   17.580    6.7228
   17.610    6.8106
   17.640    6.8808
   17.670    7.1090
   17.700    7.2845
   17.730    6.7053
   17.760    7.0563
   17.790    7.0563
   17.820    7.3899
   17.850    7.6707
   17.880    8.2149
   17.910    8.5484
   17.940    7.9340
   17.970    7.8813
   18.000    7.1090
   18.030    7.2319
   18.060    6.5298
   18.090    7.1968
   18.120    7.2670
   18.150    6.9510
   18.180    6.7755
   18.210    7.2143
   18.240    6.7755
   18.270    6.8633
   18.300    7.3899
   18.330    7.5829
   18.360    7.5829
   18.390    6.8457
   18.420    7.1792
   18.450    7.0563
   18.480    7.0915
   18.510    7.3196
   18.540    7.6707
   18.570    7.4952
   18.600    7.0915
   18.630    7.2670
   18.660    6.9335
   18.690    7.0915
   18.720    6.9510
   18.750    6.7579
   18.780    7.6707
   18.810    7.2670
   18.840    7.0563
   18.870    6.8984
   18.900    7.1441
   18.930    6.8106
   18.960    6.9861
   18.990    7.0388
   19.020    6.9686
   19.050    6.6702
   19.080    6.5298
   19.110    7.3547
   19.140    6.7579
   19.170    6.6175
   19.200    6.7228
   19.230    6.1962
   19.260    7.0915
   19.290    7.1090
   19.320    6.1787
   19.350    6.5649
   19.380    6.9159
   19.410    6.8633
   19.440    6.9510
   19.470    7.2845
   19.500    8.0218
   19.530    9.1627
   19.560    8.8292
   19.590    9.2154
   19.620    9.5489
   19.650    7.9867
   19.680    6.9510
   19.710    6.6702
   19.740    7.3196
   19.770    6.8984
   19.800    6.8808
   19.830    7.3547
   19.860    6.4946
   19.890    6.6351
   19.920    7.1968
   19.950    6.9686
   19.980    7.6180
   20.010    7.5829
   20.040    6.7404
   20.070    7.0212
   20.100    6.6877
   20.130    7.0037
   20.160    7.3899
   20.190    7.3899
   20.220    7.1266
   20.250    7.6532
   20.280    8.4781
   20.310    9.3031
   20.340    9.9526
   20.370   10.1106
   20.400    9.4962
   20.430    8.1797
   20.460    7.2670
   20.490    7.1792
   20.520    7.0739
   20.550    6.5122
   20.580    6.3542
   20.610    6.8984
   20.640    6.3718
   20.670    6.6702
   20.700    7.1968
   20.730    6.7228
   20.760    7.3547
   20.790    6.9686
   20.820    6.3893
   20.850    6.9861
   20.880    6.3542
   20.910    6.8984
   20.940    7.1266
   20.970    7.0915
   21.000    6.9510
   21.030    6.5649
   21.060    6.6526
   21.090    6.2840
   21.120    6.8457
   21.150    6.5122
   21.180    6.8808
   21.210    7.0915
   21.240    6.5473
   21.270    6.7579
   21.300    6.5298
   21.330    7.1441
   21.360    6.7755
   21.390    7.0388
   21.420    7.3196
   21.450    6.7228
   21.480    6.9861
   21.510    6.3718
   21.540    6.8633
   21.570    6.9510
   21.600    6.7755
   21.630    7.3196
   21.660    6.3016
   21.690    7.0388
   21.720    7.4425
   21.750    7.7936
   21.780    7.2143
   21.810    8.1271
   21.840    8.1622
   21.870    8.0920
   21.900    7.5654
   21.930    7.5303
   21.960    7.0739
   21.990    7.2143
   22.020    7.2319
   22.050    6.4244
   22.080    7.4425
   22.110    7.0037
   22.140    7.9340
   22.170    8.1973
   22.200    7.8111
   22.230    8.4079
   22.260    7.7058
   22.290    7.3372
   22.320    6.8106
   22.350    7.3723
   22.380    7.4074
   22.410    8.4606
   22.440    9.0750
   22.470    9.7069
   22.500   12.1994
   22.530   13.6563
   22.560   13.5159
   22.590   11.9186
   22.620   10.0404
   22.650    8.1622
   22.680    7.3899
   22.710    7.4776
   22.740    8.2500
   22.770    8.0744
   22.800    9.5840
   22.830   10.6723
   22.860   12.3047
   22.890   11.4271
   22.920   11.1813
   22.950   10.2335
   22.980    8.3026
   23.010    7.1617
   23.040    7.0388
   23.070    7.1968
   23.100    6.9159
   23.130    7.6180
   23.160    8.1095
   23.190    8.1271
   23.220    8.3377
   23.250    8.7239
   23.280    7.8638
   23.310    7.8287
   23.340    7.2494
   23.370    7.2319
   23.400    7.1968
   23.430    7.1266
   23.460    7.2494
   23.490    7.4601
   23.520    7.7760
   23.550    7.8111
   23.580    8.3904
   23.610    7.6883
   23.640    7.9516
   23.670    7.2670
   23.700    7.5829
   23.730    7.1266
   23.760    6.7053
   23.790    7.5478
   23.820    7.4952
   23.850    8.3026
   23.880    8.5484
   23.910    9.0925
   23.940    8.8117
   23.970    8.0393
   24.000    7.4074
   24.030    6.6351
   24.060    6.8106
   24.090    6.8633
   24.120    7.0739
   24.150    6.8633
   24.180    7.0739
   24.210    7.6005
   24.240    7.3723
   24.270    7.5303
   24.300    7.0915
   24.330    6.6351
   24.360    7.4074
   24.390    7.0563
   24.420    7.0037
   24.450    6.4946
   24.480    7.5127
   24.510    7.6883
   24.540    6.9861
   24.570    7.8111
   24.600    7.4250
   24.630    7.3723
   24.660    6.8457
   24.690    6.5122
   24.720    7.2143
   24.750    7.0212
   24.780    6.7755
   24.810    7.0037
   24.840    6.7053
   24.870    6.8984
   24.900    7.2670
   24.930    6.8808
   24.960    6.8633
   24.990    6.8633
   25.020    6.8633
   25.050    6.8282
   25.080    7.3899
   25.110    6.9510
   25.140    7.9340
   25.170    7.4601
   25.200    7.3196
   25.230    7.1441
   25.260    6.8282
   25.290    7.2670
   25.320    6.7930
   25.350    7.0037
   25.380    6.9510
   25.410    7.1266
   25.440    7.4074
   25.470    7.8287
   25.500    7.5478
   25.530    7.1090
   25.560    7.2845
   25.590    6.5298
   25.620    7.0563
   25.650    7.0212
   25.680    7.9867
   25.710    8.1271
   25.740   10.8303
   25.770   11.2164
   25.800   11.1813
   25.830   10.9180
   25.860    9.8648
   25.890    7.9691
   25.920    7.1090
   25.950    7.4250
   25.980    6.8457
   26.010    6.9686
   26.040    6.9159
   26.070    6.8457
   26.100    7.8111
   26.130    7.0037
   26.160    7.1792
   26.190    6.9510
   26.220    6.1436
   26.250    6.8984
   26.280    6.1436
   26.310    7.4952
   26.340    7.6180
   26.370    7.5829
   26.400    7.4425
   26.430    7.3723
   26.460    7.7760
   26.490    6.6702
   26.520    6.5824
   26.550    6.8984
   26.580    6.7930
   26.610    6.8457
   26.640    6.3893
   26.670    6.3542
   26.700    6.3718
   26.730    6.4946
   26.760    7.0037
   26.790    6.8808
   26.820    6.3016
   26.850    6.7579
   26.880    6.6702
   26.910    7.3547
   26.940    8.0920
   26.970    8.3377
   27.000    8.1622
   27.030    8.8468
   27.060    8.1622
   27.090    7.3899
   27.120    6.8633
   27.150    6.7930
   27.180    6.5122
   27.210    6.9335
   27.240    6.9686
   27.270    6.1787
   27.300    6.9335
   27.330    6.4244
   27.360    6.7228
   27.390    6.9159
   27.420    6.3893
   27.450    6.5122
   27.480    7.4776
   27.510    7.4601
   27.540    7.3723
   27.570    7.8638
   27.600    7.6356
   27.630    7.1090
   27.660    6.5298
   27.690    6.4420
   27.720    6.1962
   27.750    6.1436
   27.780    7.2670
   27.810    6.5473
   27.840    6.9159
   27.870    6.5298
   27.900    6.6702
   27.930    7.0388
   27.960    6.7930
   27.990    7.0037
   28.020    6.9159
   28.050    6.9159
   28.080    7.1968
   28.110    7.4776
   28.140    7.6005
   28.170    7.6707
   28.200    7.7234
   28.230    6.8984
   28.260    6.7930
   28.290    5.9154
   28.320    6.6000
   28.350    7.0037
   28.380    7.7585
   28.410    8.0218
   28.440    8.0393
   28.470    7.7058
   28.500    7.8287
   28.530    6.5649
   28.560    6.8457
   28.590    6.3016
   28.620    7.0915
   28.650    6.3367
   28.680    6.4771
   28.710    6.5298
   28.740    6.7930
   28.770    6.3191
   28.800    6.5473
   28.830    6.3893
   28.860    6.4069
   28.890    6.7404
   28.920    6.4595
   28.950    6.4244
   28.980    7.2143
   29.010    6.9686
   29.040    6.8633
   29.070    6.6175
   29.100    6.7930
   29.130    6.5824
   29.160    6.6702
   29.190    6.8984
   29.220    7.0739
   29.250    7.6532
   29.280    7.1792
   29.310    7.3899
   29.340    6.9510
   29.370    6.6702
   29.400    6.2840
   29.430    6.4420
   29.460    6.2138
   29.490    6.1085
   29.520    6.1436
   29.550    6.3191
   29.580    6.2840
   29.610    6.3367
   29.640    6.0383
   29.670    6.3191
   29.700    6.7228
   29.730    7.1266
   29.760    7.1090
   29.790    7.0563
   29.820    6.8457
   29.850    7.3372
   29.880    6.7404
   29.910    6.0558
   29.940    6.0734
   29.970    6.2138
   30.000    6.5122
   30.030    6.0207
   30.060    6.0558
   30.090    7.2670
   30.120    6.5473
   30.150    6.1787
   30.180    6.1962
   30.210    6.2489
   30.240    6.6877
   30.270    6.2489
   30.300    6.4244
   30.330    6.3016
   30.360    6.3718
   30.390    6.3893
   30.420    6.6877
   30.450    5.8627
   30.480    5.9505
   30.510    6.6877
   30.540    6.4595
   30.570    6.6351
   30.600    6.2313
   30.630    6.4069
   30.660    6.3542
   30.690    6.5473
   30.720    5.8978
   30.750    5.4941
   30.780    5.9154
   30.810    6.0032
   30.840    6.2665
   30.870    6.2313
   30.900    6.1260
   30.930    5.7399
   30.960    5.9681
   30.990    6.3191
   31.020    5.8803
   31.050    5.6521
   31.080    5.7750
   31.110    5.7750
   31.140    5.5819
   31.170    5.9329
   31.200    5.5819
   31.230    6.4771
   31.260    5.9505
   31.290    6.2489
   31.320    6.6000
   31.350    7.0037
   31.380    6.6526
   31.410    6.4595
   31.440    6.9510
   31.470    6.2313
   31.500    5.9505
   31.530    5.7574
   31.560    6.6877
   31.590    6.0383
   31.620    6.8457
   31.650    6.8457
   31.680    6.3542
   31.710    6.4771
   31.740    6.4595
   31.770    6.5649
   31.800    6.6000
   31.830    6.0383
   31.860    6.1962
   31.890    6.1611
   31.920    6.2489
   31.950    6.3893
   31.980    6.3718
   32.010    5.4415
   32.040    5.9681
   32.070    6.2665
   32.100    5.7925
   32.130    6.1611
   32.160    6.5298
   32.190    6.3542
   32.220    6.1260
   32.250    6.0032
   32.280    5.7925
   32.310    5.7925
   32.340    5.7223
   32.370    5.3361
   32.400    6.2138
   32.430    6.1260
   32.460    6.3016
   32.490    5.8452
   32.520    5.4415
   32.550    5.4941
   32.580    5.9154
   32.610    6.0558
   32.640    5.5117
   32.670    5.5117
   32.700    5.8452
   32.730    5.5292
   32.760    5.8978
   32.790    6.5473
   32.820    6.0909
   32.850    6.7755
   32.880    6.7930
   32.910    6.1085
   32.940    6.1611
   32.970    5.5117
   33.000    5.8803
   33.030    5.7399
   33.060    5.6697
   33.090    5.7925
   33.120    5.4590
   33.150    5.3361
   33.180    5.8452
   33.210    5.7925
   33.240    5.4415
   33.270    5.5819
   33.300    5.7048
   33.330    5.5468
   33.360    5.8101
   33.390    5.3712
   33.420    5.7223
   33.450    5.8276
   33.480    5.7399
   33.510    5.5643
   33.540    5.8978
   33.570    5.8803
   33.600    6.2138
   33.630    5.7399
   33.660    5.8803
   33.690    5.7925
   33.720    5.9505
   33.750    6.3542
   33.780    6.0734
   33.810    6.8282
   33.840    6.8106
   33.870    6.3718
   33.900    6.2665
   33.930    6.1787
   33.960    6.0734
   33.990    6.0734
   34.020    5.6697
   34.050    6.5473
   34.080    5.8978
   34.110    5.5643
   34.140    5.6170
   34.170    6.1436
   34.200    5.3888
   34.230    5.2133
   34.260    5.7574
   34.290    5.9154
   34.320    5.7399
   34.350    5.9681
   34.380    5.6697
   34.410    5.4766
   34.440    5.1782
   34.470    5.4941
   34.500    5.2835
   34.530    5.2133
   34.560    5.6345
   34.590    5.3888
   34.620    5.5994
   34.650    5.4941
   34.680    5.5117
   34.710    6.1085
   34.740    5.8627
   34.770    6.0909
   34.800    5.6697
   34.830    5.6345
   34.860    5.5468
   34.890    5.1782
   34.920    5.5994
   34.950    5.2484
   34.980    5.4239
   35.010    4.8973
   35.040    5.1255
   35.070    5.4590
   35.100    5.1431
   35.130    5.3712
   35.160    5.3361
   35.190    5.1957
   35.220    5.0904
   35.250    5.3010
   35.280    5.2835
   35.310    5.6697
   35.340    5.6697
   35.370    5.0904
   35.400    5.3537
   35.430    5.0026
   35.460    5.2484
   35.490    5.0377
   35.520    5.3186
   35.550    4.9500
   35.580    5.2659
   35.610    5.1431
   35.640    5.3010
   35.670    5.4239
   35.700    5.3888
   35.730    5.3888
   35.760    5.3537
   35.790    5.3361
   35.820    5.6872
   35.850    5.4239
   35.880    5.1431
   35.910    5.5117
   35.940    5.5117
   35.970    5.7925
   36.000    5.0377
   36.030    5.8276
   36.060    5.1080
   36.090    5.5292
   36.120    5.5468
   36.150    5.5819
   36.180    4.6340
   36.210    5.3010
   36.240    5.0553
   36.270    5.2133
   36.300    5.2308
   36.330    4.8798
   36.360    5.2308
   36.390    5.3186
   36.420    4.9851
   36.450    5.3361
   36.480    5.4415
   36.510    5.4239
   36.540    5.6170
   36.570    5.5292
   36.600    5.2133
   36.630    4.9500
   36.660    5.2308
   36.690    5.3712
   36.720    4.8798
   36.750    5.3888
   36.780    5.0377
   36.810    5.0377
   36.840    4.9851
   36.870    4.9500
   36.900    5.2308
   36.930    5.3537
   36.960    4.9500
   36.990    5.5468
   37.020    5.9329
   37.050    6.0383
   37.080    5.4064
   37.110    6.0032
   37.140    5.1080
   37.170    5.4590
   37.200    6.0207
   37.230    4.6691
   37.260    4.4760
   37.290    4.5989
   37.320    4.7744
   37.350    5.0553
   37.380    5.3010
   37.410    5.3186
   37.440    5.0904
   37.470    5.2659
   37.500    5.3537
   37.530    5.6170
   37.560    5.0904
   37.590    5.2308
   37.620    5.2308
   37.650    5.3712
   37.680    5.2133
   37.710    5.6345
   37.740    5.1782
   37.770    5.2484
   37.800    5.0377
   37.830    5.0202
   37.860    5.1957
   37.890    5.2835
   37.920    5.6872
   37.950    5.1782
   37.980    5.5117
   38.010    5.2308
   38.040    4.8095
   38.070    5.0904
   38.100    5.1080
   38.130    5.0728
   38.160    5.1782
   38.190    4.8095
   38.220    4.6691
   38.250    4.8095
   38.280    5.1431
   38.310    5.0202
   38.340    5.0202
   38.370    5.0202
   38.400    5.4766
   38.430    5.1782
   38.460    4.8622
   38.490    4.9851
   38.520    5.3712
   38.550    4.9851
   38.580    5.6521
   38.610    4.6165
   38.640    4.2830
   38.670    5.3537
   38.700    5.4064
   38.730    5.2308
   38.760    4.9500
   38.790    4.7393
   38.820    4.7744
   38.850    5.0553
   38.880    5.0026
   38.910    4.8447
   38.940    4.6340
   38.970    4.9675
   39.000    5.1606
   39.030    4.8447
   39.060    5.2133
   39.090    5.1606
   39.120    5.0728
   39.150    5.0202
   39.180    5.0026
   39.210    5.2308
   39.240    5.8276
   39.270    5.2308
   39.300    5.3361
   39.330    5.2133
   39.360    4.9500
   39.390    5.0904
   39.420    5.4064
   39.450    4.6340
   39.480    4.7569
   39.510    5.0553
   39.540    5.3712
   39.570    4.8095
   39.600    4.6867
   39.630    4.8622
   39.660    5.1606
   39.690    4.9500
   39.720    5.0202
   39.750    5.3888
   39.780    5.1957
   39.810    4.9500
   39.840    4.6691
   39.870    5.0026
   39.900    5.1255
   39.930    4.5814
   39.960    5.1080
   39.990    4.8973