File: data/PXRD/PXRD_KE-145_Cu-Ka1_capillary-1mm_5s-deg.xyd
    1.500   15.0922
    1.530   15.1132
    1.560   15.1869
    1.590   14.8499
    1.620   13.5966
    1.650   12.8489
    1.680   12.9121
    1.710   12.1748
    1.740   12.0484
    1.770   11.7430
    1.800   11.3639
    1.830   10.9110
    1.860   11.0585
    1.890    9.9210
    1.920   10.4160
    1.950    9.6472
    1.980   10.1106
    2.010    9.4260
    2.040    9.3839
    2.070    8.9521
    2.100    8.9731
    2.130    8.8994
    2.160    8.5413
    2.190    9.1101
    2.220    8.5729
    2.250    8.5097
    2.280    8.2991
    2.310    7.9200
    2.340    8.5729
    2.370    7.7409
    2.400    7.8252
    2.430    8.0253
    2.460    7.8357
    2.490    7.8252
    2.520    8.0674
    2.550    8.0990
    2.580    7.5724
    2.610    7.7409
    2.640    7.8778
    2.670    7.3196
    2.700    7.0879
    2.730    7.4039
    2.760    7.4355
    2.790    7.4882
    2.820    7.1827
    2.850    7.3302
    2.880    7.1090
    2.910    7.0985
    2.940    6.8562
    2.970    6.6983
    3.000    7.2143
    3.030    6.9616
    3.060    6.6667
    3.090    6.9405
    3.120    6.9089
    3.150    6.8457
    3.180    6.8457
    3.210    6.5824
    3.240    6.5403
    3.270    6.9616
    3.300    6.2349
    3.330    6.7193
    3.360    6.8036
    3.390    6.5298
    3.420    6.7088
    3.450    6.7088
    3.480    6.6983
    3.510    6.5929
    3.540    6.4876
    3.570    6.8141
    3.600    6.4560
    3.630    6.4560
    3.660    6.5403
    3.690    6.6456
    3.720    6.3296
    3.750    6.2559
    3.780    6.3402
    3.810    6.6561
    3.840    6.3823
    3.870    6.4034
    3.900    6.8773
    3.930    6.2559
    3.960    6.5613
    3.990    6.6140
    4.020    6.4876
    4.050    6.2981
    4.080    6.6772
    4.110    6.5403
    4.140    6.2033
    4.170    6.3718
    4.200    6.2559
    4.230    6.4455
    4.260    6.3086
    4.290    6.9300
    4.320    6.3928
    4.350    6.4876
    4.380    6.3296
    4.410    6.3612
    4.440    6.7720
    4.470    6.6667
    4.500    6.5087
    4.530    6.6351
    4.560    6.6456
    4.590    6.5613
    4.620    6.2033
    4.650    6.1927
    4.680    6.6351
    4.710    6.1506
    4.740    6.3928
    4.770    6.5719
    4.800    6.1611
    4.830    6.6351
    4.860    6.5087
    4.890    6.5087
    4.920    6.2770
    4.950    6.0769
    4.980    6.5298
    5.010    6.6983
    5.040    6.4034
    5.070    6.1295
    5.100    6.5192
    5.130    6.0032
    5.160    6.5298
    5.190    6.3823
    5.220    6.0979
    5.250    6.4034
    5.280    6.6877
    5.310    6.5613
    5.340    6.2349
    5.370    6.8773
    5.400    6.3928
    5.430    6.4771
    5.460    6.6772
    5.490    6.5824
    5.520    6.4560
    5.550    6.5824
    5.580    6.2454
    5.610    6.2770
    5.640    6.5824
    5.670    6.4244
    5.700    6.6772
    5.730    6.1506
    5.760    6.2665
    5.790    6.0664
    5.820    6.4455
    5.850    6.4771
    5.880    6.4139
    5.910    6.1822
    5.940    6.1506
    5.970    6.6140
    6.000    6.4034
    6.030    6.3086
    6.060    6.5824
    6.090    6.5298
    6.120    6.4244
    6.150    6.4666
    6.180    6.4139
    6.210    6.3191
    6.240    6.4982
    6.270    6.5719
    6.300    6.3086
    6.330    6.6561
    6.360    6.6140
    6.390    6.1506
    6.420    6.2770
    6.450    6.7615
    6.480    6.0137
    6.510    6.4139
    6.540    6.8036
    6.570    6.0874
    6.600    6.5824
    6.630    5.9505
    6.660    6.8141
    6.690    6.4982
    6.720    6.7088
    6.750    6.7088
    6.780    6.3928
    6.810    6.3612
    6.840    6.4876
    6.870    6.4350
    6.900    6.6983
    6.930    6.4560
    6.960    6.2665
    6.990    6.4876
    7.020    6.5508
    7.050    6.5403
    7.080    6.5403
    7.110    6.6456
    7.140    6.2559
    7.170    6.5298
    7.200    6.9089
    7.230    6.4139
    7.260    6.8036
    7.290    6.8562
    7.320    6.6035
    7.350    6.1190
    7.380    6.5929
    7.410    6.4350
    7.440    6.4139
    7.470    6.5929
    7.500    6.5719
    7.530    6.1295
    7.560    6.4771
    7.590    6.2138
    7.620    6.9932
    7.650    6.7404
    7.680    6.1190
    7.710    6.4350
    7.740    6.2559
    7.770    6.4139
    7.800    6.4139
    7.830    6.6035
    7.860    7.0879
    7.890    6.9089
    7.920    6.8773
    7.950    6.7615
    7.980    6.6456
    8.010    7.0037
    8.040    7.0458
    8.070    6.4666
    8.100    6.3507
    8.130    6.7930
    8.160    6.8246
    8.190    7.0879
    8.220    6.8246
    8.250    6.6667
    8.280    6.7930
    8.310    6.6456
    8.340    6.6140
    8.370    6.7299
    8.400    6.5719
    8.430    6.5087
    8.460    6.7930
    8.490    6.7193
    8.520    6.8773
    8.550    6.7930
    8.580    6.9300
    8.610    6.8352
    8.640    6.8773
    8.670    7.0879
    8.700    6.5613
    8.730    6.8036
    8.760    6.6983
    8.790    7.1827
    8.820    7.3091
    8.850    7.2880
    8.880    6.4876
    8.910    6.9616
    8.940    6.5192
    8.970    6.6983
    9.000    7.1406
    9.030    7.1090
    9.060    6.8984
    9.090    7.1406
    9.120    6.9932
    9.150    7.0142
    9.180    6.5403
    9.210    7.1406
    9.240    6.7088
    9.270    6.8773
    9.300    6.7825
    9.330    6.8878
    9.360    7.0458
    9.390    6.8141
    9.420    7.1195
    9.450    6.8773
    9.480    6.5508
    9.510    6.9721
    9.540    7.0142
    9.570    7.1301
    9.600    7.0353
    9.630    6.9616
    9.660    7.0142
    9.690    6.6772
    9.720    6.8773
    9.750    7.5092
    9.780    7.0985
    9.810    6.6772
    9.840    6.8562
    9.870    7.3091
    9.900    7.5303
    9.930    7.2459
    9.960    6.8352
    9.990    7.2354
   10.020    6.9510
   10.050    7.2670
   10.080    7.3828
   10.110    7.1617
   10.140    7.1511
   10.170    7.1301
   10.200    7.0248
   10.230    7.2459
   10.260    6.9721
   10.290    7.2459
   10.320    7.1406
   10.350    7.0142
   10.380    6.7509
   10.410    6.7193
   10.440    7.1933
   10.470    6.8773
   10.500    7.2565
   10.530    6.8668
   10.560    7.3723
   10.590    6.8773
   10.620    6.5298
   10.650    7.2670
   10.680    6.9616
   10.710    7.0142
   10.740    6.7193
   10.770    6.5613
   10.800    7.0669
   10.830    6.7509
   10.860    6.9721
   10.890    6.6772
   10.920    7.0458
   10.950    6.6877
   10.980    6.9932
   11.010    6.2875
   11.040    6.8668
   11.070    6.5298
   11.100    6.6245
   11.130    6.7615
   11.160    6.2559
   11.190    6.6140
   11.220    6.8773
   11.250    6.7615
   11.280    6.5192
   11.310    6.8457
   11.340    6.7404
   11.370    6.2349
   11.400    6.1401
   11.430    6.3402
   11.460    6.4771
   11.490    6.5192
   11.520    6.8668
   11.550    6.5298
   11.580    6.5508
   11.610    6.5298
   11.640    6.6877
   11.670    6.4560
   11.700    6.7404
   11.730    6.3823
   11.760    6.3402
   11.790    6.3823
   11.820    6.2033
   11.850    6.1085
   11.880    6.2665
   11.910    6.3086
   11.940    6.2981
   11.970    6.2875
   12.000    6.4771
   12.030    6.1717
   12.060    6.3402
   12.090    6.1295
   12.120    6.2770
   12.150    6.1927
   12.180    5.8557
   12.210    6.3507
   12.240    6.5508
   12.270    6.3507
   12.300    6.2665
   12.330    6.0453
   12.360    6.3191
   12.390    6.3928
   12.420    6.1190
   12.450    6.0979
   12.480    5.9926
   12.510    5.9505
   12.540    6.0558
   12.570    5.8241
   12.600    6.0348
   12.630    6.1401
   12.660    6.0979
   12.690    6.2138
   12.720    6.0769
   12.750    6.4666
   12.780    6.0558
   12.810    6.0664
   12.840    5.9400
   12.870    6.0979
   12.900    6.1506
   12.930    6.3718
   12.960    5.9821
   12.990    6.4034
   13.020    5.9716
   13.050    5.5503
   13.080    5.8978
   13.110    6.1401
   13.140    6.1085
   13.170    5.9821
   13.200    5.8136
   13.230    5.7504
   13.260    6.3191
   13.290    6.0664
   13.320    6.0769
   13.350    6.2033
   13.380    5.9294
   13.410    5.7504
   13.440    5.9084
   13.470    5.3818
   13.500    5.6977
   13.530    5.6872
   13.560    6.1717
   13.590    6.1611
   13.620    5.9505
   13.650    6.1611
   13.680    5.9189
   13.710    6.2770
   13.740    5.9084
   13.770    5.4344
   13.800    6.0137
   13.830    5.8873
   13.860    5.7399
   13.890    5.8557
   13.920    5.7609
   13.950    5.7715
   13.980    6.1927
   14.010    6.0032
   14.040    5.4239
   14.070    6.0242
   14.100    6.4139
   14.130    5.9821
   14.160    5.6767
   14.190    5.6767
   14.220    5.6029
   14.250    5.9084
   14.280    6.0032
   14.310    5.7504
   14.340    5.7504
   14.370    6.0348
   14.400    5.8662
   14.430    5.8662
   14.460    5.8347
   14.490    5.8978
   14.520    5.7925
   14.550    6.0137
   14.580    5.5503
   14.610    5.7504
   14.640    5.7609
   14.670    5.5292
   14.700    5.7820
   14.730    5.8241
   14.760    6.2875
   14.790    5.9084
   14.820    5.9926
   14.850    6.0874
   14.880    5.5819
   14.910    6.1611
   14.940    6.1506
   14.970    5.8241
   15.000    5.9610
   15.030    5.8347
   15.060    5.8347
   15.090    5.9084
   15.120    5.8557
   15.150    5.5714
   15.180    5.7399
   15.210    5.9821
   15.240    6.0979
   15.270    5.9294
   15.300    5.5714
   15.330    5.9189
   15.360    5.6451
   15.390    5.6240
   15.420    5.8136
   15.450    5.8136
   15.480    6.1295
   15.510    6.0137
   15.540    5.9505
   15.570    5.7609
   15.600    5.3818
   15.630    5.7083
   15.660    6.1927
   15.690    5.7188
   15.720    6.0242
   15.750    6.2349
   15.780    5.8347
   15.810    6.1822
   15.840    5.8768
   15.870    6.0874
   15.900    6.3718
   15.930    6.0979
   15.960    6.1506
   15.990    6.0453
   16.020    6.2875
   16.050    6.3718
   16.080    6.0979
   16.110    5.9926
   16.140    6.0453
   16.170    6.0769
   16.200    6.5192
   16.230    5.9926
   16.260    5.8873
   16.290    6.2665
   16.320    6.3823
   16.350    6.1717
   16.380    6.0874
   16.410    6.1190
   16.440    6.0558
   16.470    6.1085
   16.500    5.6767
   16.530    5.8768
   16.560    5.8347
   16.590    5.8873
   16.620    5.9189
   16.650    6.1401
   16.680    6.0664
   16.710    5.6240
   16.740    6.0242
   16.770    5.8347
   16.800    6.1190
   16.830    6.3296
   16.860    5.9505
   16.890    5.9926
   16.920    5.5924
   16.950    5.8873
   16.980    5.7504
   17.010    6.0032
   17.040    5.9926
   17.070    5.9821
   17.100    6.0769
   17.130    6.1190
   17.160    6.0348
   17.190    6.1190
   17.220    5.9821
   17.250    6.2138
   17.280    6.0874
   17.310    5.8978
   17.340    5.9400
   17.370    6.3296
   17.400    6.2033
   17.430    5.4134
   17.460    6.2033
   17.490    5.8136
   17.520    6.1401
   17.550    6.1085
   17.580    5.6977
   17.610    6.0558
   17.640    6.2138
   17.670    6.2559
   17.700    5.7715
   17.730    5.9926
   17.760    6.0348
   17.790    6.2138
   17.820    6.0242
   17.850    6.1085
   17.880    5.7293
   17.910    6.3191
   17.940    6.2138
   17.970    6.2770
   18.000    6.2349
   18.030    6.3718
   18.060    6.3612
   18.090    5.3502
   18.120    5.6977
   18.150    5.9926
   18.180    5.6345
   18.210    6.2559
   18.240    6.3928
   18.270    5.7925
   18.300    6.0874
   18.330    5.6029
   18.360    6.1822
   18.390    5.8978
   18.420    6.1295
   18.450    5.4766
   18.480    5.8347
   18.510    5.9294
   18.540    6.0453
   18.570    5.7820
   18.600    5.4344
   18.630    5.8662
   18.660    6.0558
   18.690    6.0558
   18.720    6.0242
   18.750    6.0558
   18.780    6.0242
   18.810    5.9716
   18.840    6.1822
   18.870    6.4139
   18.900    6.2243
   18.930    6.2033
   18.960    6.3928
   18.990    6.5824
   19.020    6.4666
   19.050    6.1717
   19.080    6.2033
   19.110    6.4139
   19.140    6.0769
   19.170    6.3086
   19.200    6.1401
   19.230    6.1822
   19.260    5.9926
   19.290    6.2454
   19.320    5.8873
   19.350    6.1717
   19.380    6.1295
   19.410    6.4244
   19.440    6.0137
   19.470    6.0453
   19.500    6.1611
   19.530    6.0874
   19.560    6.2559
   19.590    5.8978
   19.620    6.1295
   19.650    6.0874
   19.680    6.0032
   19.710    5.9084
   19.740    5.9294
   19.770    5.9294
   19.800    6.2665
   19.830    5.9400
   19.860    5.7715
   19.890    6.2454
   19.920    6.5298
   19.950    6.0242
   19.980    5.7083
   20.010    6.1611
   20.040    6.1295
   20.070    5.8662
   20.100    5.7399
   20.130    6.2138
   20.160    6.0348
   20.190    5.8662
   20.220    5.7925
   20.250    6.4666
   20.280    6.2770
   20.310    6.5929
   20.340    6.1822
   20.370    5.9294
   20.400    6.0979
   20.430    6.0874
   20.460    6.2770
   20.490    5.9294
   20.520    6.2349
   20.550    6.3823
   20.580    6.3823
   20.610    6.2033
   20.640    6.2243
   20.670    6.2454
   20.700    6.0979
   20.730    6.1611
   20.760    6.1295
   20.790    5.8662
   20.820    6.2875
   20.850    6.1401
   20.880    6.4455
   20.910    5.9189
   20.940    6.0453
   20.970    6.5403
   21.000    6.5087
   21.030    6.2770
   21.060    6.0242
   21.090    6.2454
   21.120    6.0769
   21.150    6.3296
   21.180    6.1295
   21.210    5.9716
   21.240    6.4244
   21.270    6.3191
   21.300    6.2138
   21.330    6.8246
   21.360    6.2559
   21.390    6.3718
   21.420    6.3296
   21.450    6.2665
   21.480    5.9505
   21.510    6.2665
   21.540    5.9610
   21.570    6.2665
   21.600    5.9821
   21.630    6.2559
   21.660    6.1295
   21.690    6.3296
   21.720    6.3191
   21.750    6.0558
   21.780    6.0874
   21.810    6.2981
   21.840    6.1295
   21.870    6.7088
   21.900    6.4244
   21.930    6.7404
   21.960    6.0558
   21.990    6.5087
   22.020    6.4034
   22.050    6.4771
   22.080    6.8036
   22.110    6.0032
   22.140    6.0874
   22.170    6.5929
   22.200    6.3718
   22.230    6.3086
   22.260    6.4982
   22.290    6.2033
   22.320    6.3612
   22.350    6.7615
   22.380    6.0874
   22.410    6.7930
   22.440    6.5192
   22.470    6.3718
   22.500    6.6035
   22.530    6.4034
   22.560    6.1295
   22.590    6.3507
   22.620    6.5824
   22.650    6.6245
   22.680    6.6877
   22.710    6.4034
   22.740    6.2138
   22.770    5.6661
   22.800    6.0137
   22.830    6.4139
   22.860    6.4244
   22.890    6.5403
   22.920    6.5719
   22.950    6.6140
   22.980    6.3612
   23.010    6.7825
   23.040    6.2770
   23.070    6.5824
   23.100    6.2875
   23.130    6.3928
   23.160    6.4455
   23.190    6.4350
   23.220    6.2770
   23.250    6.4139
   23.280    6.5087
   23.310    6.1190
   23.340    6.2138
   23.370    6.5508
   23.400    6.1611
   23.430    6.4244
   23.460    6.4034
   23.490    6.5192
   23.520    6.2349
   23.550    6.2981
   23.580    6.6035
   23.610    6.0242
   23.640    6.3507
   23.670    6.3718
   23.700    6.4560
   23.730    6.3612
   23.760    6.4455
   23.790    6.2981
   23.820    6.2454
   23.850    6.3296
   23.880    6.6245
   23.910    6.2875
   23.940    6.2349
   23.970    6.3402
   24.000    6.3612
   24.030    6.1085
   24.060    6.5192
   24.090    6.2665
   24.120    6.2559
   24.150    6.1506
   24.180    6.2454
   24.210    6.6561
   24.240    6.6561
   24.270    6.3402
   24.300    6.3507
   24.330    6.3296
   24.360    6.2665
   24.390    5.9505
   24.420    6.1927
   24.450    5.6556
   24.480    6.2033
   24.510    6.6035
   24.540    6.1927
   24.570    5.9084
   24.600    6.4455
   24.630    6.6245
   24.660    6.1401
   24.690    6.3612
   24.720    6.2033
   24.750    6.4034
   24.780    6.4034
   24.810    6.1822
   24.840    6.2559
   24.870    6.1295
   24.900    6.2033
   24.930    6.0874
   24.960    6.2243
   24.990    6.2981
   25.020    6.4350
   25.050    6.3191
   25.080    6.0769
   25.110    6.2243
   25.140    6.7825
   25.170    6.3823
   25.200    6.5613
   25.230    6.3086
   25.260    6.0874
   25.290    6.4982
   25.320    5.7293
   25.350    6.2770
   25.380    6.2875
   25.410    5.9084
   25.440    5.8031
   25.470    6.2559
   25.500    6.3296
   25.530    6.4560
   25.560    6.4876
   25.590    6.0769
   25.620    6.4034
   25.650    5.8662
   25.680    5.8557
   25.710    5.8768
   25.740    6.2138
   25.770    5.6872
   25.800    6.1822
   25.830    5.8768
   25.860    5.9084
   25.890    6.0558
   25.920    6.1717
   25.950    6.2875
   25.980    6.1822
   26.010    6.1401
   26.040    6.1717
   26.070    6.0769
   26.100    6.0874
   26.130    6.3086
   26.160    6.0558
   26.190    6.2770
   26.220    6.4244
   26.250    5.5608
   26.280    5.6451
   26.310    5.9084
   26.340    5.8452
   26.370    6.2875
   26.400    5.9716
   26.430    6.0137
   26.460    5.8768
   26.490    6.2138
   26.520    5.8241
   26.550    6.5192
   26.580    5.8873
   26.610    5.9926
   26.640    5.7609
   26.670    6.0664
   26.700    5.7820
   26.730    6.2770
   26.760    5.7188
   26.790    5.8452
   26.820    6.0769
   26.850    6.2559
   26.880    5.9189
   26.910    6.0032
   26.940    6.0769
   26.970    6.1506
   27.000    6.3507
   27.030    6.4560
   27.060    5.8136
   27.090    5.6345
   27.120    5.8978
   27.150    5.9189
   27.180    6.0979
   27.210    6.1717
   27.240    5.9610
   27.270    5.9189
   27.300    5.7293
   27.330    5.7293
   27.360    5.5292
   27.390    5.9610
   27.420    6.2665
   27.450    5.9400
   27.480    5.5082
   27.510    6.4034
   27.540    5.8136
   27.570    5.9821
   27.600    5.8768
   27.630    5.9821
   27.660    5.9610
   27.690    5.9084
   27.720    5.7504
   27.750    6.2981
   27.780    5.6872
   27.810    5.9189
   27.840    6.0558
   27.870    5.6240
   27.900    5.6661
   27.930    6.2770
   27.960    5.8768
   27.990    5.8662
   28.020    5.8452
   28.050    6.0137
   28.080    5.9189
   28.110    5.8978
   28.140    5.8662
   28.170    5.4555
   28.200    5.8662
   28.230    5.6345
   28.260    5.5398
   28.290    5.4239
   28.320    5.5398
   28.350    5.6345
   28.380    5.6872
   28.410    5.2343
   28.440    5.9189
   28.470    5.5187
   28.500    5.9189
   28.530    5.7399
   28.560    5.6135
   28.590    5.7820
   28.620    5.9610
   28.650    5.4239
   28.680    5.5398
   28.710    5.8452
   28.740    5.7715
   28.770    5.8978
   28.800    5.4134
   28.830    5.6977
   28.860    5.5292
   28.890    5.8978
   28.920    6.0348
   28.950    5.6029
   28.980    5.8347
   29.010    5.9610
   29.040    5.7820
   29.070    5.7083
   29.100    5.5924
   29.130    5.6240
   29.160    5.4028
   29.190    5.5082
   29.220    5.7715
   29.250    6.0137
   29.280    5.7188
   29.310    5.1606
   29.340    5.4871
   29.370    5.6240
   29.400    5.8662
   29.430    5.7188
   29.460    5.1501
   29.490    5.6556
   29.520    5.6451
   29.550    5.7399
   29.580    6.0137
   29.610    5.1606
   29.640    5.7083
   29.670    5.7083
   29.700    5.5398
   29.730    5.5398
   29.760    5.6661
   29.790    5.5608
   29.820    5.7609
   29.850    5.3818
   29.880    5.4344
   29.910    5.1606
   29.940    5.5819
   29.970    5.4766
   30.000    5.7083
   30.030    5.2659
   30.060    5.6029
   30.090    5.1080
   30.120    5.3081
   30.150    5.2765
   30.180    5.7925
   30.210    5.4028
   30.240    5.3712
   30.270    5.5082
   30.300    5.2659
   30.330    5.6661
   30.360    5.2554
   30.390    5.2343
   30.420    5.4239
   30.450    5.2659
   30.480    5.4976
   30.510    5.3397
   30.540    5.2975
   30.570    5.3923
   30.600    5.6345
   30.630    5.4976
   30.660    5.5503
   30.690    5.6240
   30.720    5.0658
   30.750    5.5187
   30.780    5.3712
   30.810    5.2554
   30.840    5.4450
   30.870    5.5082
   30.900    5.5187
   30.930    5.4450
   30.960    5.3291
   30.990    5.2238
   31.020    5.4450
   31.050    5.5292
   31.080    5.3502
   31.110    5.3186
   31.140    5.1711
   31.170    5.5082
   31.200    5.4134
   31.230    5.4239
   31.260    5.4239
   31.290    4.9289
   31.320    5.3397
   31.350    5.1606
   31.380    5.3397
   31.410    5.1606
   31.440    5.0553
   31.470    5.5187
   31.500    5.2027
   31.530    5.1606
   31.560    5.5187
   31.590    5.0132
   31.620    5.4028
   31.650    5.4555
   31.680    4.7183
   31.710    5.8662
   31.740    5.2449
   31.770    5.3397
   31.800    5.6767
   31.830    5.2870
   31.860    4.9710
   31.890    5.5398
   31.920    5.3923
   31.950    5.4134
   31.980    5.0974
   32.010    5.4239
   32.040    5.5292
   32.070    5.7188
   32.100    6.3612
   32.130    5.5924
   32.160    5.6345
   32.190    5.4450
   32.220    5.3291
   32.250    5.4134
   32.280    5.1290
   32.310    5.3607
   32.340    5.3607
   32.370    5.3081
   32.400    5.3502
   32.430    5.1711
   32.460    4.8025
   32.490    5.0132
   32.520    5.3186
   32.550    5.4028
   32.580    5.2765
   32.610    5.2133
   32.640    5.0026
   32.670    5.2343
   32.700    5.1711
   32.730    4.8763
   32.760    5.1185
   32.790    5.0974
   32.820    5.0658
   32.850    5.0764
   32.880    5.3291
   32.910    5.1606
   32.940    5.1711
   32.970    5.0132
   33.000    4.9289
   33.030    4.7604
   33.060    4.8868
   33.090    4.9816
   33.120    5.4871
   33.150    4.8131
   33.180    4.6340
   33.210    5.0132
   33.240    4.7393
   33.270    5.0869
   33.300    4.8973
   33.330    5.0974
   33.360    5.0237
   33.390    4.5498
   33.420    4.5708
   33.450    4.8131
   33.480    4.7709
   33.510    4.9710
   33.540    4.9710
   33.570    4.8973
   33.600    4.8447
   33.630    4.9605
   33.660    4.9184
   33.690    4.9710
   33.720    4.8025
   33.750    4.6761
   33.780    4.8447
   33.810    5.2449
   33.840    5.3397
   33.870    5.1080
   33.900    4.8657
   33.930    5.1185
   33.960    5.1501
   33.990    5.0658
   34.020    5.1185
   34.050    4.5498
   34.080    4.6235
   34.110    4.8236
   34.140    4.8868
   34.170    5.1080
   34.200    4.8763
   34.230    4.8763
   34.260    4.8131
   34.290    4.8025
   34.320    4.8236
   34.350    4.7499
   34.380    5.0658
   34.410    4.7920
   34.440    5.2765
   34.470    4.8657
   34.500    4.7604
   34.530    4.6761
   34.560    4.4655
   34.590    4.8025
   34.620    5.0658
   34.650    4.7920
   34.680    4.8657
   34.710    4.8552
   34.740    4.9289
   34.770    4.4128
   34.800    4.6656
   34.830    4.5603
   34.860    4.7920
   34.890    4.7288
   34.920    4.8552
   34.950    4.7393
   34.980    5.0974
   35.010    4.8025
   35.040    4.6340
   35.070    5.0132
   35.100    4.9605
   35.130    4.8868
   35.160    4.2549
   35.190    4.7288
   35.220    4.3813
   35.250    4.7604
   35.280    4.7183
   35.310    4.9184
   35.340    4.6340
   35.370    4.7393
   35.400    4.9078
   35.430    4.7815
   35.460    4.5814
   35.490    4.5076
   35.520    4.5287
   35.550    4.6130
   35.580    4.6867
   35.610    4.6761
   35.640    4.6656
   35.670    4.7183
   35.700    4.4444
   35.730    4.3813
   35.760    4.5603
   35.790    4.5498
   35.820    4.6340
   35.850    4.9078
   35.880    4.6024
   35.910    4.8025
   35.940    4.7604
   35.970    4.6551
   36.000    4.2970
   36.030    4.5076
   36.060    4.6972
   36.090    4.4128
   36.120    4.3918
   36.150    5.0553
   36.180    4.4550
   36.210    4.4655
   36.240    4.6551
   36.270    4.7288
   36.300    4.5919
   36.330    4.6235
   36.360    4.3813
   36.390    4.5498
   36.420    4.5498
   36.450    4.8868
   36.480    4.4971
   36.510    4.5708
   36.540    4.5392
   36.570    4.6445
   36.600    4.8552
   36.630    4.5919
   36.660    4.2338
   36.690    4.1601
   36.720    4.8868
   36.750    4.2127
   36.780    4.6551
   36.810    4.4866
   36.840    4.7288
   36.870    4.2865
   36.900    4.5287
   36.930    4.7815
   36.960    4.3286
   36.990    4.7393
   37.020    4.5603
   37.050    4.3918
   37.080    4.3181
   37.110    4.6235
   37.140    4.3813
   37.170    4.6235
   37.200    4.6235
   37.230    4.2759
   37.260    4.4760
   37.290    4.2549
   37.320    4.5287
   37.350    4.4760
   37.380    4.4128
   37.410    4.6340
   37.440    4.5287
   37.470    4.4971
   37.500    4.4023
   37.530    4.4866
   37.560    4.4760
   37.590    4.5392
   37.620    4.3707
   37.650    4.0442
   37.680    4.6130
   37.710    4.5498
   37.740    4.5287
   37.770    4.3075
   37.800    4.7077
   37.830    4.5287
   37.860    4.4234
   37.890    4.6656
   37.920    4.4550
   37.950    4.6656
   37.980    4.4655
   38.010    4.6340
   38.040    4.6340
   38.070    4.3602
   38.100    4.1601
   38.130    4.7709
   38.160    4.1917
   38.190    4.4866
   38.220    4.5814
   38.250    4.5392
   38.280    4.6761
   38.310    4.4444
   38.340    4.6024
   38.370    4.3497
   38.400    4.6445
   38.430    4.6445
   38.460    4.3075
   38.490    4.7815
   38.520    4.7815
   38.550    4.2865
   38.580    4.5182
   38.610    4.5814
   38.640    5.0553
   38.670    4.4866
   38.700    4.4023
   38.730    4.3075
   38.760    4.4760
   38.790    4.4339
   38.820    4.3075
   38.850    5.0132
   38.880    4.4339
   38.910    4.7393
   38.940    4.5076
   38.970    4.4655
   39.000    5.0764
   39.030    4.6130
   39.060    4.6024
   39.090    4.6867
   39.120    4.9816
   39.150    4.4760
   39.180    4.4550
   39.210    4.8025
   39.240    4.8341
   39.270    4.7288
   39.300    4.7815
   39.330    4.4866
   39.360    4.5392
   39.390    4.7604
   39.420    4.6551
   39.450    4.7393
   39.480    4.7604
   39.510    4.6972
   39.540    4.1706
   39.570    4.4128
   39.600    4.8025
   39.630    4.6761
   39.660    4.1496
   39.690    4.3813
   39.720    4.3391
   39.750    4.2233
   39.780    4.4866
   39.810    4.4866
   39.840    4.4550
   39.870    4.4760
   39.900    4.3707
   39.930    4.6340
   39.960    4.3707
   39.990    4.6656