File: data/PXRD/PXRD_KE-229-2_Co-Ka1_film-3mm_5s-deg.xyd
    1.500    6.5383
    1.530    6.5490
    1.560    6.1316
    1.590    6.0674
    1.620    5.7250
    1.650    5.7678
    1.680    5.2220
    1.710    5.5003
    1.740    5.3719
    1.770    4.9331
    1.800    5.0722
    1.830    5.2648
    1.860    4.9117
    1.890    4.9117
    1.920    4.4730
    1.950    4.7833
    1.980    4.6014
    2.010    4.1306
    2.040    4.4730
    2.070    4.3981
    2.100    4.2483
    2.130    4.3232
    2.160    4.2483
    2.190    3.8951
    2.220    3.7560
    2.250    3.8951
    2.280    3.8844
    2.310    3.5848
    2.340    3.4992
    2.370    3.7453
    2.400    3.2103
    2.430    3.7667
    2.460    3.1354
    2.490    3.1782
    2.520    3.6490
    2.550    3.3173
    2.580    3.1782
    2.610    3.2210
    2.640    3.0712
    2.670    3.2210
    2.700    3.0819
    2.730    3.1140
    2.760    2.9535
    2.790    2.8999
    2.820    2.9213
    2.850    2.8357
    2.880    3.1140
    2.910    2.6324
    2.940    2.9642
    2.970    2.9106
    3.000    2.6752
    3.030    2.8678
    3.060    2.5789
    3.090    2.7715
    3.120    2.7929
    3.150    2.7608
    3.180    2.5896
    3.210    2.3756
    3.240    2.6110
    3.270    2.4077
    3.300    2.5147
    3.330    2.5682
    3.360    2.4826
    3.390    2.5254
    3.420    2.3542
    3.450    2.4505
    3.480    2.6003
    3.510    2.4826
    3.540    2.2686
    3.570    2.3221
    3.600    2.2793
    3.630    2.4505
    3.660    2.4505
    3.690    2.3114
    3.720    2.3114
    3.750    2.2258
    3.780    2.1509
    3.810    2.4398
    3.840    2.5040
    3.870    2.1402
    3.900    2.3114
    3.930    2.4612
    3.960    2.6538
    3.990    2.8036
    4.020    2.5254
    4.050    2.9428
    4.080    3.6062
    4.110    3.5634
    4.140    3.8416
    4.170    4.9866
    4.200    5.5538
    4.230    6.1423
    4.260    7.5120
    4.290    8.4109
    4.320   11.2895
    4.350   13.0230
    4.380   14.8208
    4.410   20.4173
    4.440   26.1851
    4.470   34.4783
    4.500   54.0396
    4.530   80.8454
    4.560   11.6533
    4.590    3.1996
    4.620    2.4826
    4.650    2.3649
    4.680    1.8834
    4.710    2.0439
    4.740    1.8192
    4.770    1.9262
    4.800    1.8727
    4.830    1.8406
    4.860    1.8620
    4.890    2.1081
    4.920    1.7335
    4.950    1.6907
    4.980    1.7335
    5.010    1.8085
    5.040    1.7549
    5.070    1.8085
    5.100    1.7014
    5.130    1.7657
    5.160    1.5730
    5.190    1.8727
    5.220    1.7657
    5.250    1.9583
    5.280    1.7014
    5.310    1.6158
    5.340    1.7442
    5.370    1.8834
    5.400    1.7764
    5.430    1.7871
    5.460    1.6800
    5.490    2.0546
    5.520    1.4767
    5.550    1.7014
    5.580    1.7764
    5.610    1.5944
    5.640    1.6265
    5.670    1.7228
    5.700    1.7978
    5.730    2.0011
    5.760    1.5837
    5.790    1.8727
    5.820    1.7764
    5.850    1.7442
    5.880    1.9155
    5.910    1.8620
    5.940    1.7121
    5.970    1.9048
    6.000    1.9904
    6.030    2.0867
    6.060    2.1402
    6.090    2.0546
    6.120    2.1616
    6.150    2.4933
    6.180    2.4505
    6.210    2.8678
    6.240    3.1247
    6.270    3.6169
    6.300    4.2483
    6.330    5.3612
    6.360    6.5276
    6.390   10.8828
    6.420   11.1718
    6.450    2.9320
    6.480    2.1081
    6.510    2.3221
    6.540    1.9048
    6.570    2.1937
    6.600    1.9476
    6.630    1.9690
    6.660    2.2472
    6.690    2.0225
    6.720    1.8513
    6.750    1.9048
    6.780    1.5516
    6.810    1.6800
    6.840    1.7121
    6.870    1.7764
    6.900    1.8085
    6.930    1.7657
    6.960    1.6907
    6.990    1.6907
    7.020    1.8941
    7.050    1.6693
    7.080    1.5944
    7.110    1.7442
    7.140    1.4553
    7.170    1.4339
    7.200    1.5516
    7.230    1.5623
    7.260    1.7228
    7.290    1.4446
    7.320    1.5837
    7.350    1.4232
    7.380    1.5088
    7.410    1.4660
    7.440    1.4339
    7.470    1.4232
    7.500    1.2841
    7.530    1.4125
    7.560    1.4125
    7.590    1.3269
    7.620    1.5516
    7.650    1.3483
    7.680    1.4981
    7.710    1.4232
    7.740    1.6479
    7.770    1.8620
    7.800    2.1723
    7.830    3.0284
    7.860    3.5313
    7.890    1.5944
    7.920    1.3697
    7.950    1.1343
    7.980    1.2092
    8.010    1.4874
    8.040    1.4018
    8.070    1.3483
    8.100    1.3055
    8.130    1.3911
    8.160    1.4232
    8.190    1.0808
    8.220    1.2948
    8.250    1.2306
    8.280    1.1236
    8.310    1.2306
    8.340    1.2948
    8.370    1.0915
    8.400    1.1557
    8.430    1.2092
    8.460    1.2520
    8.490    1.1557
    8.520    1.0808
    8.550    1.0701
    8.580    1.1129
    8.610    1.1450
    8.640    1.0380
    8.670    1.1343
    8.700    1.1557
    8.730    0.8989
    8.760    1.2413
    8.790    1.2841
    8.820    1.1878
    8.850    1.2306
    8.880    1.2734
    8.910    1.2841
    8.940    1.2092
    8.970    1.5195
    9.000    1.8941
    9.030    2.3221
    9.060    3.4457
    9.090    2.7715
    9.120    1.1450
    9.150    0.9096
    9.180    0.8882
    9.210    1.1450
    9.240    1.1450
    9.270    1.1129
    9.300    0.9524
    9.330    1.0273
    9.360    0.9952
    9.390    1.0380
    9.420    0.9096
    9.450    0.9524
    9.480    1.0166
    9.510    0.9631
    9.540    1.0273
    9.570    0.9203
    9.600    1.0059
    9.630    1.0273
    9.660    0.9845
    9.690    0.8668
    9.720    0.9310
    9.750    0.8989
    9.780    0.9310
    9.810    1.0166
    9.840    0.9952
    9.870    0.9096
    9.900    0.9524
    9.930    0.8240
    9.960    0.9524
    9.990    0.8989
   10.020    1.0273
   10.050    0.8989
   10.080    0.8454
   10.110    1.1022
   10.140    1.0487
   10.170    0.9952
   10.200    0.9096
   10.230    0.8668
   10.260    0.8347
   10.290    0.9417
   10.320    0.9524
   10.350    0.7812
   10.380    0.8347
   10.410    0.8240
   10.440    0.7598
   10.470    0.9310
   10.500    0.9631
   10.530    0.9417
   10.560    0.8026
   10.590    0.8668
   10.620    0.8454
   10.650    0.7277
   10.680    0.7812
   10.710    0.6100
   10.740    0.9631
   10.770    0.7384
   10.800    0.8026
   10.830    0.8240
   10.860    0.9310
   10.890    1.0059
   10.920    1.1985
   10.950    1.1450
   10.980    1.2948
   11.010    1.6800
   11.040    2.1509
   11.070    3.7132
   11.100    6.0460
   11.130    8.0899
   11.160    1.6479
   11.190    1.0166
   11.220    0.9096
   11.250    0.8240
   11.280    0.7491
   11.310    0.9310
   11.340    0.9203
   11.370    0.9417
   11.400    0.9096
   11.430    0.8668
   11.460    0.9738
   11.490    0.7063
   11.520    0.8775
   11.550    0.8454
   11.580    0.9203
   11.610    0.9952
   11.640    0.7491
   11.670    0.9845
   11.700    0.7170
   11.730    0.8989
   11.760    0.6849
   11.790    0.8240
   11.820    0.8454
   11.850    0.8454
   11.880    1.0273
   11.910    1.0059
   11.940    1.1985
   11.970    1.6158
   12.000    2.4077
   12.030    2.4398
   12.060    1.0273
   12.090    0.9096
   12.120    0.7812
   12.150    0.9417
   12.180    0.9203
   12.210    0.9524
   12.240    0.9952
   12.270    1.0594
   12.300    0.8668
   12.330    0.9096
   12.360    0.8561
   12.390    0.7919
   12.420    0.8347
   12.450    0.8989
   12.480    0.8133
   12.510    1.0380
   12.540    0.9845
   12.570    0.9952
   12.600    0.8240
   12.630    0.8989
   12.660    0.7812
   12.690    1.0915
   12.720    1.1343
   12.750    1.0380
   12.780    1.4446
   12.810    1.5944
   12.840    2.8357
   12.870    2.2579
   12.900    0.9631
   12.930    0.8882
   12.960    0.9845
   12.990    0.6635
   13.020    0.9203
   13.050    0.9631
   13.080    0.8668
   13.110    0.9096
   13.140    0.9631
   13.170    1.1343
   13.200    0.8775
   13.230    0.8989
   13.260    0.7598
   13.290    0.9845
   13.320    0.8882
   13.350    0.7919
   13.380    0.7919
   13.410    0.7705
   13.440    1.0380
   13.470    0.9310
   13.500    1.0166
   13.530    1.1557
   13.560    1.3483
   13.590    1.7335
   13.620    3.1354
   13.650    2.6645
   13.680    1.1129
   13.710    1.0594
   13.740    0.8347
   13.770    1.0166
   13.800    0.7598
   13.830    0.9310
   13.860    0.7491
   13.890    0.8668
   13.920    0.7705
   13.950    0.8133
   13.980    0.6956
   14.010    0.6742
   14.040    0.9203
   14.070    0.7812
   14.100    0.7170
   14.130    0.8347
   14.160    0.8561
   14.190    0.9845
   14.220    0.8454
   14.250    0.9096
   14.280    0.9524
   14.310    1.0059
   14.340    1.0273
   14.370    1.1343
   14.400    1.0166
   14.430    0.8454
   14.460    0.8133
   14.490    0.8026
   14.520    0.7919
   14.550    0.9417
   14.580    0.8133
   14.610    0.8989
   14.640    0.8026
   14.670    0.9096
   14.700    0.9096
   14.730    0.8026
   14.760    0.7919
   14.790    0.8454
   14.820    0.7598
   14.850    0.8668
   14.880    0.8133
   14.910    0.8454
   14.940    0.8454
   14.970    0.8882
   15.000    1.0380
   15.030    1.3376
   15.060    2.1081
   15.090    2.8999
   15.120    1.0166
   15.150    0.9738
   15.180    0.7919
   15.210    0.8133
   15.240    0.7598
   15.270    0.7705
   15.300    0.8561
   15.330    0.8561
   15.360    0.8668
   15.390    0.6528
   15.420    0.7812
   15.450    0.7170
   15.480    0.7919
   15.510    0.8133
   15.540    0.8026
   15.570    0.7063
   15.600    0.8026
   15.630    0.8775
   15.660    0.8882
   15.690    0.8882
   15.720    1.3269
   15.750    1.7335
   15.780    1.4018
   15.810    0.6635
   15.840    0.7705
   15.870    0.7919
   15.900    0.8347
   15.930    0.6314
   15.960    0.8347
   15.990    0.8561
   16.020    0.9524
   16.050    0.8454
   16.080    0.8668
   16.110    0.7277
   16.140    0.7170
   16.170    0.7491
   16.200    0.8347
   16.230    0.8026
   16.260    0.7705
   16.290    0.9096
   16.320    0.9952
   16.350    1.0166
   16.380    1.5195
   16.410    2.4077
   16.440    1.1664
   16.470    0.7170
   16.500    0.8775
   16.530    0.7812
   16.560    0.7491
   16.590    0.9524
   16.620    0.9524
   16.650    0.9845
   16.680    0.8989
   16.710    1.0059
   16.740    1.0166
   16.770    0.8240
   16.800    0.8668
   16.830    0.7919
   16.860    0.8989
   16.890    0.8668
   16.920    0.8668
   16.950    0.8133
   16.980    0.8240
   17.010    0.8026
   17.040    0.8240
   17.070    0.7384
   17.100    0.7705
   17.130    0.8668
   17.160    0.7705
   17.190    0.8454
   17.220    0.8240
   17.250    1.0059
   17.280    0.8775
   17.310    0.9310
   17.340    0.7919
   17.370    0.7384
   17.400    1.0166
   17.430    0.7812
   17.460    0.8454
   17.490    0.8240
   17.520    0.7598
   17.550    0.9203
   17.580    0.7812
   17.610    0.9203
   17.640    1.1343
   17.670    0.8668
   17.700    0.8454
   17.730    0.8882
   17.760    0.7277
   17.790    0.7063
   17.820    0.8133
   17.850    0.7705
   17.880    0.8561
   17.910    0.8133
   17.940    0.7919
   17.970    0.8775
   18.000    0.7063
   18.030    0.7491
   18.060    0.7705
   18.090    0.6635
   18.120    0.8454
   18.150    0.6207
   18.180    0.8133
   18.210    0.8133
   18.240    0.9310
   18.270    0.6956
   18.300    0.7598
   18.330    0.7919
   18.360    0.7812
   18.390    0.7598
   18.420    0.8775
   18.450    0.7491
   18.480    0.7598
   18.510    0.7491
   18.540    0.6956
   18.570    0.7919
   18.600    0.7277
   18.630    0.8561
   18.660    0.8347
   18.690    0.8454
   18.720    0.8882
   18.750    0.9631
   18.780    1.1557
   18.810    0.9096
   18.840    0.9952
   18.870    1.0166
   18.900    0.7063
   18.930    0.6742
   18.960    0.8775
   18.990    0.7705
   19.020    0.9845
   19.050    0.7277
   19.080    0.8347
   19.110    0.7705
   19.140    0.8454
   19.170    0.8882
   19.200    0.7491
   19.230    0.9417
   19.260    0.7598
   19.290    0.9524
   19.320    1.1129
   19.350    1.1557
   19.380    0.9417
   19.410    0.7491
   19.440    0.7277
   19.470    0.8561
   19.500    0.7384
   19.530    0.7598
   19.560    0.8347
   19.590    0.7170
   19.620    0.7598
   19.650    0.7598
   19.680    0.6742
   19.710    0.7705
   19.740    0.7170
   19.770    0.9096
   19.800    1.0273
   19.830    1.1129
   19.860    2.2472
   19.890    1.5944
   19.920    0.9952
   19.950    0.7705
   19.980    0.6421
   20.010    0.7919
   20.040    0.6528
   20.070    0.8133
   20.100    0.8026
   20.130    0.7384
   20.160    0.9417
   20.190    0.8561
   20.220    0.9845
   20.250    0.7063
   20.280    0.7812
   20.310    0.8026
   20.340    0.7812
   20.370    0.9203
   20.400    1.2413
   20.430    0.7705
   20.460    0.8240
   20.490    0.7705
   20.520    0.8882
   20.550    0.9524
   20.580    0.6849
   20.610    0.7491
   20.640    0.8668
   20.670    0.7919
   20.700    0.8240
   20.730    0.8240
   20.760    0.8775
   20.790    0.7919
   20.820    0.6635
   20.850    0.9096
   20.880    0.8775
   20.910    1.2734
   20.940    1.0380
   20.970    0.6314
   21.000    0.9096
   21.030    0.8775
   21.060    0.7063
   21.090    0.8882
   21.120    0.8240
   21.150    0.6849
   21.180    0.6849
   21.210    0.7812
   21.240    0.8989
   21.270    0.8668
   21.300    0.6742
   21.330    0.8133
   21.360    0.8454
   21.390    1.0594
   21.420    0.9417
   21.450    0.7919
   21.480    0.8133
   21.510    0.6956
   21.540    0.8026
   21.570    0.7598
   21.600    0.7170
   21.630    0.7919
   21.660    0.7598
   21.690    0.6314
   21.720    0.7277
   21.750    0.8133
   21.780    0.7705
   21.810    0.7598
   21.840    0.7919
   21.870    0.8775
   21.900    0.7705
   21.930    0.6528
   21.960    0.6635
   21.990    0.7812
   22.020    0.5993
   22.050    0.6956
   22.080    0.7705
   22.110    0.7598
   22.140    0.6421
   22.170    0.7491
   22.200    0.5350
   22.230    0.7277
   22.260    0.7598
   22.290    0.6314
   22.320    0.7170
   22.350    0.8133
   22.380    0.9417
   22.410    0.8240
   22.440    0.6528
   22.470    0.6849
   22.500    0.7812
   22.530    0.7919
   22.560    0.7812
   22.590    0.5671
   22.620    0.7812
   22.650    0.7384
   22.680    0.7384
   22.710    0.7919
   22.740    0.8454
   22.770    0.8347
   22.800    0.9524
   22.830    1.1129
   22.860    0.9845
   22.890    0.8668
   22.920    0.8561
   22.950    0.6956
   22.980    0.6528
   23.010    0.7063
   23.040    0.7277
   23.070    0.5457
   23.100    0.6849
   23.130    0.7598
   23.160    0.7063
   23.190    0.8026
   23.220    0.6528
   23.250    0.7170
   23.280    0.6849
   23.310    0.7812
   23.340    0.6635
   23.370    0.8026
   23.400    0.8133
   23.430    0.6742
   23.460    0.6528
   23.490    0.6956
   23.520    0.6528
   23.550    0.6956
   23.580    0.8026
   23.610    0.8775
   23.640    0.6742
   23.670    0.8454
   23.700    0.9524
   23.730    1.6907
   23.760    1.7442
   23.790    0.8240
   23.820    0.6528
   23.850    0.7598
   23.880    0.6421
   23.910    0.6421
   23.940    0.5993
   23.970    0.6956
   24.000    0.6100
   24.030    0.5993
   24.060    0.6100
   24.090    0.7170
   24.120    0.6314
   24.150    0.7063
   24.180    0.8240
   24.210    0.6742
   24.240    0.7063
   24.270    0.6742
   24.300    0.6528
   24.330    0.6742
   24.360    0.6314
   24.390    0.5778
   24.420    0.5778
   24.450    0.8133
   24.480    0.5671
   24.510    0.7170
   24.540    0.5457
   24.570    0.6528
   24.600    0.8133
   24.630    0.7491
   24.660    0.7598
   24.690    0.6528
   24.720    0.6956
   24.750    0.7384
   24.780    0.7919
   24.810    0.6528
   24.840    0.6528
   24.870    0.5457
   24.900    0.7598
   24.930    0.8240
   24.960    0.7170
   24.990    0.6956
   25.020    0.7277
   25.050    0.6635
   25.080    0.5564
   25.110    0.6100
   25.140    0.6742
   25.170    0.5243
   25.200    0.6849
   25.230    0.6207
   25.260    0.6100
   25.290    0.6849
   25.320    0.6635
   25.350    0.6421
   25.380    0.7063
   25.410    0.7919
   25.440    0.8347
   25.470    1.0059
   25.500    0.8133
   25.530    0.7705
   25.560    0.5886
   25.590    0.7384
   25.620    0.6100
   25.650    0.6314
   25.680    0.6956
   25.710    0.5564
   25.740    0.7170
   25.770    0.6314
   25.800    0.7384
   25.830    0.6635
   25.860    0.9096
   25.890    1.0059
   25.920    0.7170
   25.950    0.6421
   25.980    0.6742
   26.010    0.5457
   26.040    0.7170
   26.070    0.6956
   26.100    0.7170
   26.130    0.6635
   26.160    0.6956
   26.190    0.5564
   26.220    0.6742
   26.250    0.9310
   26.280    1.7549
   26.310    1.5837
   26.340    0.8668
   26.370    0.9310
   26.400    0.6849
   26.430    0.5993
   26.460    0.5993
   26.490    0.7384
   26.520    0.5564
   26.550    0.7277
   26.580    0.5886
   26.610    0.6528
   26.640    0.7812
   26.670    1.2092
   26.700    2.0760
   26.730    1.0059
   26.760    0.6421
   26.790    0.6421
   26.820    0.5243
   26.850    0.5350
   26.880    0.6742
   26.910    0.6528
   26.940    0.6207
   26.970    0.4708
   27.000    0.5350
   27.030    0.6314
   27.060    0.8454
   27.090    1.0701
   27.120    0.8240
   27.150    0.5886
   27.180    0.6421
   27.210    0.7277
   27.240    0.6100
   27.270    0.6635
   27.300    0.5778
   27.330    0.6314
   27.360    0.7705
   27.390    0.5778
   27.420    0.5457
   27.450    0.6849
   27.480    0.6421
   27.510    0.6207
   27.540    0.5029
   27.570    0.5350
   27.600    0.5457
   27.630    0.4815
   27.660    0.5993
   27.690    0.4601
   27.720    0.5993
   27.750    0.4922
   27.780    0.5457
   27.810    0.6314
   27.840    0.8026
   27.870    0.9310
   27.900    0.7598
   27.930    0.5457
   27.960    0.6742
   27.990    0.6635
   28.020    0.4815
   28.050    0.7063
   28.080    0.5136
   28.110    0.5457
   28.140    0.5350
   28.170    0.5778
   28.200    0.5350
   28.230    0.5136
   28.260    0.6421
   28.290    0.5350
   28.320    0.6100
   28.350    0.5029
   28.380    0.5243
   28.410    0.5457
   28.440    0.6742
   28.470    0.4815
   28.500    0.5136
   28.530    0.5029
   28.560    0.5350
   28.590    0.4708
   28.620    0.5886
   28.650    0.5564
   28.680    0.5778
   28.710    0.5350
   28.740    0.5029
   28.770    0.4708
   28.800    0.4173
   28.830    0.5564
   28.860    0.6207
   28.890    0.4922
   28.920    0.5243
   28.950    0.5564
   28.980    0.6528
   29.010    0.6849
   29.040    0.5457
   29.070    0.6742
   29.100    0.4280
   29.130    0.5993
   29.160    0.5136
   29.190    0.5029
   29.220    0.4922
   29.250    0.5029
   29.280    0.5350
   29.310    0.6314
   29.340    0.7063
   29.370    0.6635
   29.400    0.7812
   29.430    0.5457
   29.460    0.5886
   29.490    0.5564
   29.520    0.5564
   29.550    0.5136
   29.580    0.4601
   29.610    0.3852
   29.640    0.3959
   29.670    0.5564
   29.700    0.4601
   29.730    0.6849
   29.760    0.6100
   29.790    0.5778
   29.820    0.4922
   29.850    0.5564
   29.880    0.5136
   29.910    0.5029
   29.940    0.4601
   29.970    0.5243
   30.000    0.3531
   30.030    0.7063
   30.060    0.7812
   30.090    1.3162
   30.120    1.3804
   30.150    0.6421
   30.180    0.6314
   30.210    0.4815
   30.240    0.6207
   30.270    0.5886
   30.300    0.5350
   30.330    0.5778
   30.360    0.5029
   30.390    0.5350
   30.420    0.5350
   30.450    0.6314
   30.480    0.6207
   30.510    0.5886
   30.540    0.4387
   30.570    0.5136
   30.600    0.5243
   30.630    0.4601
   30.660    0.4815
   30.690    0.5778
   30.720    0.5350
   30.750    0.6100
   30.780    0.6314
   30.810    0.9417
   30.840    0.5350
   30.870    0.4387
   30.900    0.6207
   30.930    0.4280
   30.960    0.4922
   30.990    0.4494
   31.020    0.5778
   31.050    0.4815
   31.080    0.3745
   31.110    0.4815
   31.140    0.5029
   31.170    0.4708
   31.200    0.6207
   31.230    0.6100
   31.260    0.6314
   31.290    0.4922
   31.320    0.4922
   31.350    0.4280
   31.380    0.5029
   31.410    0.5243
   31.440    0.4280
   31.470    0.5671
   31.500    0.9631
   31.530    0.7919
   31.560    0.5564
   31.590    0.5243
   31.620    0.5350
   31.650    0.5029
   31.680    0.5243
   31.710    0.3852
   31.740    0.3745
   31.770    0.5029
   31.800    0.4601
   31.830    0.4708
   31.860    0.6207
   31.890    0.5136
   31.920    0.4922
   31.950    0.5350
   31.980    0.5029
   32.010    0.4601
   32.040    0.4387
   32.070    0.4173
   32.100    0.5136
   32.130    0.5350
   32.160    0.5457
   32.190    0.6956
   32.220    0.5778
   32.250    0.4708
   32.280    0.3745
   32.310    0.4280
   32.340    0.5029
   32.370    0.4708
   32.400    0.4708
   32.430    0.4387
   32.460    0.4922
   32.490    0.5350
   32.520    0.6314
   32.550    0.5350
   32.580    0.4387
   32.610    0.3638
   32.640    0.3852
   32.670    0.3959
   32.700    0.4708
   32.730    0.4387
   32.760    0.3852
   32.790    0.5671
   32.820    0.5993
   32.850    1.0059
   32.880    0.7170
   32.910    0.5671
   32.940    0.5029
   32.970    0.4815
   33.000    0.5993
   33.030    0.5029
   33.060    0.4280
   33.090    0.5564
   33.120    0.4708
   33.150    0.5564
   33.180    0.8454
   33.210    0.5671
   33.240    0.6421
   33.270    0.5136
   33.300    0.4066
   33.330    0.4494
   33.360    0.4387
   33.390    0.4815
   33.420    0.3745
   33.450    0.4280
   33.480    0.4815
   33.510    0.4601
   33.540    0.5564
   33.570    0.5886
   33.600    0.3745
   33.630    0.4066
   33.660    0.4387
   33.690    0.4494
   33.720    0.4494
   33.750    0.4815
   33.780    0.5457
   33.810    0.4494
   33.840    0.5564
   33.870    0.5457
   33.900    0.5243
   33.930    0.4173
   33.960    0.4601
   33.990    0.4387
   34.020    0.4066
   34.050    0.4922
   34.080    0.3317
   34.110    0.4815
   34.140    0.6100
   34.170    0.6421
   34.200    0.5564
   34.230    0.4387
   34.260    0.4173
   34.290    0.3745
   34.320    0.3531
   34.350    0.3745
   34.380    0.4173
   34.410    0.4387
   34.440    0.4708
   34.470    0.3745
   34.500    0.4066
   34.530    0.3531
   34.560    0.4173
   34.590    0.3424
   34.620    0.4173
   34.650    0.4387
   34.680    0.3852
   34.710    0.4708
   34.740    0.3531
   34.770    0.4708
   34.800    0.5886
   34.830    0.5029
   34.860    0.3638
   34.890    0.2889
   34.920    0.4387
   34.950    0.3959
   34.980    0.3959
   35.010    0.4173
   35.040    0.4066
   35.070    0.3745
   35.100    0.4922
   35.130    0.4066
   35.160    0.3103
   35.190    0.4387
   35.220    0.5136
   35.250    0.4601
   35.280    0.3210
   35.310    0.3317
   35.340    0.4066
   35.370    0.4708
   35.400    0.3103
   35.430    0.4815
   35.460    0.4494
   35.490    0.4173
   35.520    0.3638
   35.550    0.3103
   35.580    0.4280
   35.610    0.3424
   35.640    0.3852
   35.670    0.3317
   35.700    0.4387
   35.730    0.5350
   35.760    0.4708
   35.790    0.2996
   35.820    0.3959
   35.850    0.3745
   35.880    0.4066
   35.910    0.2782
   35.940    0.2782
   35.970    0.3210
   36.000    0.3317
   36.030    0.3959
   36.060    0.4387
   36.090    0.4601
   36.120    0.4494
   36.150    0.2568
   36.180    0.3210
   36.210    0.3531
   36.240    0.2996
   36.270    0.3317
   36.300    0.3424
   36.330    0.3210
   36.360    0.2675
   36.390    0.3852
   36.420    0.2889
   36.450    0.3103
   36.480    0.3745
   36.510    0.3210
   36.540    0.4066
   36.570    0.4173
   36.600    0.4066
   36.630    0.4815
   36.660    0.4280
   36.690    0.4173
   36.720    0.3852
   36.750    0.3424
   36.780    0.2889
   36.810    0.2675
   36.840    0.3745
   36.870    0.3317
   36.900    0.3531
   36.930    0.3852
   36.960    0.3424
   36.990    0.2889
   37.020    0.3424
   37.050    0.2782
   37.080    0.4387
   37.110    0.3424
   37.140    0.3959
   37.170    0.3638
   37.200    0.4387
   37.230    0.3852
   37.260    0.2782
   37.290    0.2568
   37.320    0.2996
   37.350    0.3103
   37.380    0.3210
   37.410    0.2782
   37.440    0.2996
   37.470    0.3424
   37.500    0.2996
   37.530    0.3745
   37.560    0.4601
   37.590    0.3103
   37.620    0.3210
   37.650    0.3103
   37.680    0.3531
   37.710    0.3531
   37.740    0.2889
   37.770    0.3103
   37.800    0.4387
   37.830    0.3103
   37.860    0.4173
   37.890    0.3424
   37.920    0.3210
   37.950    0.3424
   37.980    0.2889
   38.010    0.3103
   38.040    0.3210
   38.070    0.2782
   38.100    0.3317
   38.130    0.3210
   38.160    0.2675
   38.190    0.3210
   38.220    0.3210
   38.250    0.2354
   38.280    0.2675
   38.310    0.3103
   38.340    0.2568
   38.370    0.2996
   38.400    0.4280
   38.430    0.4173
   38.460    0.3317
   38.490    0.2996
   38.520    0.2568
   38.550    0.2568
   38.580    0.3424
   38.610    0.2782
   38.640    0.3424
   38.670    0.3638
   38.700    0.2675
   38.730    0.2568
   38.760    0.2461
   38.790    0.3210
   38.820    0.2782
   38.850    0.3210
   38.880    0.3317
   38.910    0.2247
   38.940    0.2568
   38.970    0.3103
   39.000    0.2247
   39.030    0.3424
   39.060    0.2675
   39.090    0.2996
   39.120    0.2996
   39.150    0.3103
   39.180    0.3103
   39.210    0.3638
   39.240    0.2461
   39.270    0.3317
   39.300    0.3103
   39.330    0.3531
   39.360    0.3424
   39.390    0.3959
   39.420    0.3317
   39.450    0.2782
   39.480    0.2889
   39.510    0.2247
   39.540    0.3959
   39.570    0.4280
   39.600    0.3424
   39.630    0.2996
   39.660    0.3317
   39.690    0.3103
   39.720    0.2782
   39.750    0.3317
   39.780    0.2354
   39.810    0.2782
   39.840    0.3424
   39.870    0.3852
   39.900    0.2889
   39.930    0.2140
   39.960    0.2889
   39.990    0.2461