File: data/PXRD/PXRD_KE-254_Co-Ka1_film-3mm_3s-deg.xyd
    1.500    3.2994
    1.515    3.4421
    1.530    3.1389
    1.545    3.6026
    1.560    3.4956
    1.575    3.7275
    1.590    3.2281
    1.605    3.1746
    1.620    3.3351
    1.635    2.9963
    1.650    3.6205
    1.665    2.8179
    1.680    2.8714
    1.695    3.0498
    1.710    2.7466
    1.725    3.2638
    1.740    3.2103
    1.755    3.1389
    1.770    2.9606
    1.785    2.4969
    1.800    2.5504
    1.815    2.7822
    1.830    2.8536
    1.845    2.6217
    1.860    2.4790
    1.875    2.4434
    1.890    2.8536
    1.905    2.6396
    1.920    2.6039
    1.935    2.4612
    1.950    2.3364
    1.965    2.2294
    1.980    2.2650
    1.995    2.3364
    2.010    2.1402
    2.025    2.5147
    2.040    2.2472
    2.055    2.7287
    2.070    2.4790
    2.085    2.3542
    2.100    2.3007
    2.115    2.3720
    2.130    2.5682
    2.145    2.4255
    2.160    2.0332
    2.175    2.1045
    2.190    2.2650
    2.205    2.3899
    2.220    1.9618
    2.235    2.1045
    2.250    1.9618
    2.265    2.2650
    2.280    2.3007
    2.295    2.3364
    2.310    2.4434
    2.325    2.3185
    2.340    2.1937
    2.355    2.1223
    2.370    1.9797
    2.385    1.9618
    2.400    2.3185
    2.415    1.8905
    2.430    1.8548
    2.445    1.9797
    2.460    1.9975
    2.475    2.0867
    2.490    1.9797
    2.505    1.9262
    2.520    2.1045
    2.535    2.1223
    2.550    1.9975
    2.565    2.0510
    2.580    1.8727
    2.595    1.8905
    2.610    1.8192
    2.625    2.2650
    2.640    1.8013
    2.655    1.5516
    2.670    1.7478
    2.685    1.9618
    2.700    1.7478
    2.715    1.6230
    2.730    1.6230
    2.745    1.8013
    2.760    2.0153
    2.775    1.8727
    2.790    2.1045
    2.805    1.5873
    2.820    1.6408
    2.835    1.6765
    2.850    1.5160
    2.865    1.5873
    2.880    1.6408
    2.895    1.7478
    2.910    1.9083
    2.925    1.6230
    2.940    1.6051
    2.955    1.6765
    2.970    1.6943
    2.985    1.6943
    3.000    1.8370
    3.015    1.8192
    3.030    1.8370
    3.045    1.6586
    3.060    1.5873
    3.075    1.8192
    3.090    1.7300
    3.105    1.6051
    3.120    1.6230
    3.135    1.7300
    3.150    1.6408
    3.165    1.7121
    3.180    1.8548
    3.195    1.6408
    3.210    1.6765
    3.225    1.7478
    3.240    1.4268
    3.255    1.4446
    3.270    1.6586
    3.285    1.5873
    3.300    1.7300
    3.315    1.9797
    3.330    1.4981
    3.345    1.4268
    3.360    1.6943
    3.375    1.6586
    3.390    1.5160
    3.405    1.6586
    3.420    1.5160
    3.435    1.4268
    3.450    1.5338
    3.465    1.6943
    3.480    1.5516
    3.495    1.4625
    3.510    1.7121
    3.525    1.5695
    3.540    1.6765
    3.555    1.7657
    3.570    1.4446
    3.585    1.6230
    3.600    1.7121
    3.615    1.7300
    3.630    1.5873
    3.645    1.5873
    3.660    1.7121
    3.675    1.5695
    3.690    1.4625
    3.705    1.8192
    3.720    1.6051
    3.735    1.5160
    3.750    1.8192
    3.765    1.6943
    3.780    1.7478
    3.795    1.8905
    3.810    1.8370
    3.825    1.7300
    3.840    2.0510
    3.855    2.2472
    3.870    1.9083
    3.885    2.0688
    3.900    2.2829
    3.915    2.2829
    3.930    2.0332
    3.945    2.1223
    3.960    2.0153
    3.975    2.3007
    3.990    2.5861
    4.005    2.5682
    4.020    2.3007
    4.035    2.4255
    4.050    2.6396
    4.065    2.4790
    4.080    2.4612
    4.095    2.2829
    4.110    2.5861
    4.125    2.0688
    4.140    2.2650
    4.155    2.5147
    4.170    2.4612
    4.185    2.4434
    4.200    2.4969
    4.215    2.8892
    4.230    3.0676
    4.245    2.8714
    4.260    3.0319
    4.275    3.0854
    4.290    3.5491
    4.305    3.5313
    4.320    3.8167
    4.335    4.2625
    4.350    5.1364
    4.365    5.3505
    4.380    5.3861
    4.395    5.8677
    4.410    6.7594
    4.425    7.5620
    4.440    8.2575
    4.455    9.4525
    4.470   11.1289
    4.485   13.9290
    4.500   17.6387
    4.515   21.8477
    4.530   18.4769
    4.545    6.7416
    4.560    3.0854
    4.575    2.1580
    4.590    2.1759
    4.605    1.8727
    4.620    1.6408
    4.635    1.5160
    4.650    1.8013
    4.665    1.9262
    4.680    1.9440
    4.695    1.9797
    4.710    1.6230
    4.725    1.5695
    4.740    1.6051
    4.755    1.5873
    4.770    1.6051
    4.785    1.4981
    4.800    1.6586
    4.815    1.8013
    4.830    1.7121
    4.845    1.5516
    4.860    1.5338
    4.875    1.7657
    4.890    1.6230
    4.905    1.4803
    4.920    1.4268
    4.935    1.4803
    4.950    1.5160
    4.965    1.5695
    4.980    1.7657
    4.995    1.6586
    5.010    1.5338
    5.025    1.6408
    5.040    1.5160
    5.055    1.4446
    5.070    1.3376
    5.085    1.5338
    5.100    1.5338
    5.115    1.3376
    5.130    1.4268
    5.145    1.6408
    5.160    1.4803
    5.175    1.2841
    5.190    1.2663
    5.205    1.3733
    5.220    1.5873
    5.235    1.6408
    5.250    1.5160
    5.265    1.6408
    5.280    1.9083
    5.295    1.7657
    5.310    1.7478
    5.325    1.6051
    5.340    1.4625
    5.355    1.5516
    5.370    1.4981
    5.385    1.6586
    5.400    1.5338
    5.415    1.3376
    5.430    1.5338
    5.445    1.6051
    5.460    1.1949
    5.475    1.1949
    5.490    1.5516
    5.505    1.6408
    5.520    1.5695
    5.535    1.4625
    5.550    1.3554
    5.565    1.4268
    5.580    1.3733
    5.595    1.9618
    5.610    1.7121
    5.625    1.5338
    5.640    1.4803
    5.655    1.3554
    5.670    1.4625
    5.685    1.4803
    5.700    1.3198
    5.715    1.4090
    5.730    1.5695
    5.745    1.5160
    5.760    1.2484
    5.775    1.5338
    5.790    1.7657
    5.805    1.6765
    5.820    1.7300
    5.835    1.6765
    5.850    1.6408
    5.865    1.5516
    5.880    1.6408
    5.895    1.5160
    5.910    1.4090
    5.925    1.4268
    5.940    1.6230
    5.955    1.7478
    5.970    1.5160
    5.985    1.7657
    6.000    2.1045
    6.015    1.8013
    6.030    1.5338
    6.045    2.0688
    6.060    1.6230
    6.075    2.0688
    6.090    2.0510
    6.105    1.7478
    6.120    2.0332
    6.135    2.4255
    6.150    2.2472
    6.165    2.1045
    6.180    1.9975
    6.195    2.6217
    6.210    2.6752
    6.225    3.0319
    6.240    2.7466
    6.255    2.9249
    6.270    2.8536
    6.285    3.4600
    6.300    3.7632
    6.315    3.9415
    6.330    4.9581
    6.345    5.4931
    6.360    6.4205
    6.375    7.3480
    6.390    9.1671
    6.405    8.8639
    6.420    4.8511
    6.435    2.6752
    6.450    2.4612
    6.465    2.3899
    6.480    2.1402
    6.495    1.8727
    6.510    2.0510
    6.525    2.1223
    6.540    1.7300
    6.555    1.8192
    6.570    2.1045
    6.585    2.0510
    6.600    1.9083
    6.615    1.8192
    6.630    1.9975
    6.645    2.1402
    6.660    2.1402
    6.675    2.2829
    6.690    1.7478
    6.705    1.5873
    6.720    1.6230
    6.735    1.6408
    6.750    2.0688
    6.765    1.8370
    6.780    1.7121
    6.795    1.9797
    6.810    2.2294
    6.825    1.7835
    6.840    1.7121
    6.855    1.6230
    6.870    1.4981
    6.885    1.8013
    6.900    1.6230
    6.915    1.7121
    6.930    1.3554
    6.945    1.2841
    6.960    1.8192
    6.975    1.3911
    6.990    1.4803
    7.005    1.5338
    7.020    1.6943
    7.035    1.6586
    7.050    1.6943
    7.065    1.6230
    7.080    1.5338
    7.095    1.4625
    7.110    1.4090
    7.125    1.6051
    7.140    1.4625
    7.155    1.4625
    7.170    1.3198
    7.185    1.6765
    7.200    1.7478
    7.215    1.5160
    7.230    1.2841
    7.245    1.3376
    7.260    1.4268
    7.275    1.3554
    7.290    1.2484
    7.305    1.5695
    7.320    1.2841
    7.335    1.3554
    7.350    1.2306
    7.365    1.2841
    7.380    1.3198
    7.395    1.4090
    7.410    1.4981
    7.425    1.1771
    7.440    1.3911
    7.455    1.6586
    7.470    1.6051
    7.485    1.5160
    7.500    1.3019
    7.515    1.1593
    7.530    1.3198
    7.545    1.5516
    7.560    0.9809
    7.575    1.3019
    7.590    1.4803
    7.605    1.3376
    7.620    1.4625
    7.635    1.2128
    7.650    1.1414
    7.665    1.4803
    7.680    1.4268
    7.695    1.4625
    7.710    1.4625
    7.725    1.6765
    7.740    1.7300
    7.755    1.6943
    7.770    2.1937
    7.785    1.9975
    7.800    2.4969
    7.815    2.6752
    7.830    3.8345
    7.845    3.7275
    7.860    2.2294
    7.875    1.4446
    7.890    1.4981
    7.905    1.5160
    7.920    1.3376
    7.935    1.3019
    7.950    1.1949
    7.965    1.2841
    7.980    1.3911
    7.995    1.3019
    8.010    1.2663
    8.025    1.1593
    8.040    1.3019
    8.055    1.3019
    8.070    1.2306
    8.085    1.1236
    8.100    1.3198
    8.115    1.3911
    8.130    1.1236
    8.145    1.1236
    8.160    1.2306
    8.175    1.1058
    8.190    1.2128
    8.205    1.1414
    8.220    0.9988
    8.235    1.2128
    8.250    1.0166
    8.265    1.1414
    8.280    1.0344
    8.295    1.2128
    8.310    1.3376
    8.325    1.0166
    8.340    1.0166
    8.355    1.1414
    8.370    1.0701
    8.385    1.3019
    8.400    1.3733
    8.415    1.0344
    8.430    1.2306
    8.445    1.1414
    8.460    1.1058
    8.475    1.1058
    8.490    1.0344
    8.505    0.9631
    8.520    1.1236
    8.535    0.9452
    8.550    0.9631
    8.565    0.9809
    8.580    1.0344
    8.595    1.1236
    8.610    1.1949
    8.625    1.0701
    8.640    1.0879
    8.655    0.8917
    8.670    0.9988
    8.685    0.9274
    8.700    1.0166
    8.715    1.1771
    8.730    0.9809
    8.745    0.9274
    8.760    0.9631
    8.775    1.0879
    8.790    1.0879
    8.805    1.0879
    8.820    1.0701
    8.835    1.1236
    8.850    1.1414
    8.865    0.9988
    8.880    1.1058
    8.895    1.2841
    8.910    1.1771
    8.925    1.4268
    8.940    1.1414
    8.955    1.0523
    8.970    1.3198
    8.985    1.4625
    9.000    1.8727
    9.015    1.9440
    9.030    2.1937
    9.045    2.2472
    9.060    2.3542
    9.075    1.5516
    9.090    1.2306
    9.105    1.1236
    9.120    0.9274
    9.135    0.9988
    9.150    1.1058
    9.165    1.2306
    9.180    0.9452
    9.195    0.8382
    9.210    0.8739
    9.225    0.8026
    9.240    0.9274
    9.255    0.9452
    9.270    0.8561
    9.285    1.0523
    9.300    0.8561
    9.315    1.0879
    9.330    1.0879
    9.345    1.1771
    9.360    1.2128
    9.375    0.9452
    9.390    0.9274
    9.405    1.0344
    9.420    0.8739
    9.435    0.8917
    9.450    1.0344
    9.465    1.0523
    9.480    1.0879
    9.495    0.9274
    9.510    0.8026
    9.525    0.7312
    9.540    0.9452
    9.555    1.0166
    9.570    0.9452
    9.585    0.7312
    9.600    0.8739
    9.615    0.8917
    9.630    0.8917
    9.645    0.9096
    9.660    0.8917
    9.675    0.8739
    9.690    0.9096
    9.705    0.9631
    9.720    0.9452
    9.735    1.1236
    9.750    0.7847
    9.765    0.8026
    9.780    0.8382
    9.795    0.9452
    9.810    0.9631
    9.825    0.9274
    9.840    0.9274
    9.855    0.8026
    9.870    0.6064
    9.885    0.6599
    9.900    1.0701
    9.915    0.8382
    9.930    0.8739
    9.945    0.7491
    9.960    0.9631
    9.975    0.6599
    9.990    1.1414
   10.005    1.0879
   10.020    0.9274
   10.035    0.9809
   10.050    0.8561
   10.065    0.8561
   10.080    0.9274
   10.095    0.9452
   10.110    0.9452
   10.125    0.8917
   10.140    0.8917
   10.155    0.9274
   10.170    0.8917
   10.185    1.0166
   10.200    0.9452
   10.215    0.9452
   10.230    0.8561
   10.245    0.6956
   10.260    0.9809
   10.275    0.9452
   10.290    0.9809
   10.305    0.8382
   10.320    0.9452
   10.335    0.7134
   10.350    0.9631
   10.365    0.9274
   10.380    0.9274
   10.395    0.9274
   10.410    0.9452
   10.425    0.9096
   10.440    0.8204
   10.455    0.7847
   10.470    0.5529
   10.485    0.7847
   10.500    1.0166
   10.515    0.8026
   10.530    0.7312
   10.545    0.7847
   10.560    0.7669
   10.575    0.8382
   10.590    0.8204
   10.605    0.9274
   10.620    0.8382
   10.635    0.7847
   10.650    0.7669
   10.665    0.6599
   10.680    0.8204
   10.695    0.7491
   10.710    0.9631
   10.725    0.6956
   10.740    0.7847
   10.755    0.7134
   10.770    0.7491
   10.785    0.7134
   10.800    0.7134
   10.815    0.8026
   10.830    0.7491
   10.845    0.8917
   10.860    0.7312
   10.875    0.8917
   10.890    0.8204
   10.905    1.0879
   10.920    0.9988
   10.935    1.0344
   10.950    0.8382
   10.965    0.9809
   10.980    1.0523
   10.995    1.1949
   11.010    1.1414
   11.025    1.4803
   11.040    1.7121
   11.055    1.9440
   11.070    2.5682
   11.085    3.7096
   11.100    4.1377
   11.115    2.7644
   11.130    1.4446
   11.145    0.9631
   11.160    0.9274
   11.175    0.6777
   11.190    0.8561
   11.205    0.8561
   11.220    0.8917
   11.235    0.7669
   11.250    0.8739
   11.265    0.8739
   11.280    0.8204
   11.295    0.9096
   11.310    0.8204
   11.325    0.7312
   11.340    0.8561
   11.355    0.8917
   11.370    1.0701
   11.385    0.9452
   11.400    0.8382
   11.415    0.9096
   11.430    0.9631
   11.445    0.8739
   11.460    0.9274
   11.475    0.7669
   11.490    0.7669
   11.505    0.7847
   11.520    0.7847
   11.535    0.8382
   11.550    0.9096
   11.565    0.8917
   11.580    0.9452
   11.595    0.9631
   11.610    0.8561
   11.625    0.9096
   11.640    0.9809
   11.655    0.8382
   11.670    0.9096
   11.685    0.7491
   11.700    0.8204
   11.715    0.8382
   11.730    0.9631
   11.745    0.8382
   11.760    0.8917
   11.775    0.7847
   11.790    0.8026
   11.805    0.7312
   11.820    0.9274
   11.835    1.0701
   11.850    1.1236
   11.865    1.0523
   11.880    0.8382
   11.895    1.1593
   11.910    0.8739
   11.925    1.1236
   11.940    1.3554
   11.955    1.1236
   11.970    1.4446
   11.985    1.6230
   12.000    1.6765
   12.015    1.1414
   12.030    1.0344
   12.045    0.8026
   12.060    0.7134
   12.075    0.7312
   12.090    0.8382
   12.105    0.8739
   12.120    0.8917
   12.135    0.8026
   12.150    0.6421
   12.165    0.5707
   12.180    0.9988
   12.195    1.0523
   12.210    0.8382
   12.225    0.8382
   12.240    0.7491
   12.255    0.7312
   12.270    0.8739
   12.285    0.9096
   12.300    0.9096
   12.315    0.8739
   12.330    0.8382
   12.345    0.7847
   12.360    0.8739
   12.375    0.8204
   12.390    0.9096
   12.405    0.9809
   12.420    0.8739
   12.435    0.7669
   12.450    0.6956
   12.465    0.8204
   12.480    0.8561
   12.495    0.8739
   12.510    0.8561
   12.525    0.8026
   12.540    1.0879
   12.555    0.9809
   12.570    0.8204
   12.585    0.8204
   12.600    0.6956
   12.615    0.7669
   12.630    0.8382
   12.645    0.9809
   12.660    0.8739
   12.675    0.9274
   12.690    0.9274
   12.705    0.8382
   12.720    0.8026
   12.735    0.9452
   12.750    1.1593
   12.765    1.0166
   12.780    1.3198
   12.795    1.3911
   12.810    1.5338
   12.825    2.0153
   12.840    1.3376
   12.855    0.9631
   12.870    0.8739
   12.885    0.8917
   12.900    1.0701
   12.915    0.8382
   12.930    0.8561
   12.945    0.9096
   12.960    0.6777
   12.975    1.1593
   12.990    0.8026
   13.005    0.8204
   13.020    0.8382
   13.035    0.9452
   13.050    0.7847
   13.065    0.9809
   13.080    0.8739
   13.095    0.9096
   13.110    0.8917
   13.125    0.9809
   13.140    0.7312
   13.155    0.6421
   13.170    0.8382
   13.185    0.8382
   13.200    0.7847
   13.215    0.8204
   13.230    0.9631
   13.245    0.8917
   13.260    0.7847
   13.275    0.6956
   13.290    0.9274