File: data/PXRD/PXRD_KE-321A_Cu-Ka1_capillary-1mm_3s-deg.xyd
    1.500   14.1829
    1.545   13.5159
    1.590   13.4281
    1.635   12.5856
    1.680   11.5499
    1.725   11.3744
    1.770   10.7425
    1.815   10.1457
    1.860    9.9526
    1.905    9.4962
    1.950    8.6888
    1.995    8.6361
    2.040    8.5835
    2.085    7.7058
    2.130    8.0218
    2.175    7.9164
    2.220    7.9691
    2.265    7.6180
    2.310    7.3021
    2.355    7.8462
    2.400    6.8457
    2.445    7.4776
    2.490    7.4776
    2.535    6.9861
    2.580    6.6000
    2.625    6.7755
    2.670    7.0915
    2.715    6.6000
    2.760    7.3723
    2.805    6.8984
    2.850    6.8984
    2.895    6.3016
    2.940    6.6000
    2.985    7.0037
    3.030    6.8457
    3.075    7.2845
    3.120    7.2494
    3.165    7.7760
    3.210    7.7936
    3.255    8.1271
    3.300    7.9164
    3.345    8.8292
    3.390    8.8292
    3.435    9.6191
    3.480   10.2335
    3.525   10.9005
    3.570   11.1111
    3.615   13.0068
    3.660   13.7441
    3.705   16.5701
    3.750   19.4664
    3.795   25.0658
    3.840   30.1913
    3.885   17.7111
    3.930    8.6888
    3.975    6.5649
    4.020    5.8101
    4.065    5.3712
    4.110    5.1606
    4.155    5.4064
    4.200    5.7223
    4.245    5.3010
    4.290    5.5117
    4.335    5.5468
    4.380    5.6170
    4.425    5.2308
    4.470    5.2835
    4.515    5.5819
    4.560    5.2835
    4.605    5.5468
    4.650    5.6872
    4.695    5.7048
    4.740    5.7574
    4.785    5.3361
    4.830    5.3361
    4.875    5.4941
    4.920    5.5994
    4.965    6.2313
    5.010    6.0032
    5.055    6.1436
    5.100    6.7755
    5.145    7.1090
    5.190    7.5478
    5.235    8.2851
    5.280    8.4781
    5.325    9.6718
    5.370   11.4271
    5.415   13.6037
    5.460   15.7627
    5.505    9.6718
    5.550    6.2489
    5.595    5.7574
    5.640    5.3186
    5.685    5.2308
    5.730    5.3010
    5.775    5.4941
    5.820    4.9500
    5.865    5.5117
    5.910    5.3186
    5.955    5.1255
    6.000    5.1431
    6.045    5.2659
    6.090    5.1606
    6.135    5.4239
    6.180    5.2308
    6.225    5.7048
    6.270    5.5292
    6.315    5.5468
    6.360    5.2659
    6.405    6.1611
    6.450    5.4590
    6.495    6.3718
    6.540    6.6351
    6.585    6.6526
    6.630    7.1792
    6.675    8.4606
    6.720    8.4430
    6.765    6.0207
    6.810    5.4064
    6.855    5.8101
    6.900    5.4590
    6.945    4.8095
    6.990    5.2835
    7.035    5.0904
    7.080    5.2659
    7.125    4.8798
    7.170    5.0728
    7.215    4.8447
    7.260    5.4766
    7.305    5.7574
    7.350    5.1782
    7.395    5.1255
    7.440    5.5117
    7.485    5.4415
    7.530    5.4064
    7.575    5.7574
    7.620    5.5819
    7.665    6.0383
    7.710    6.6526
    7.755    6.9510
    7.800    6.1611
    7.845    5.8803
    7.890    5.5819
    7.935    5.7048
    7.980    5.6170
    8.025    5.7925
    8.070    5.7048
    8.115    5.0728
    8.160    4.8973
    8.205    5.1255
    8.250    6.0032
    8.295    6.1436
    8.340    5.7399
    8.385    5.5643
    8.430    5.4590
    8.475    5.9329
    8.520    5.7048
    8.565    6.0558
    8.610    6.1436
    8.655    5.9329
    8.700    5.7223
    8.745    5.5117
    8.790    6.0383
    8.835    5.7750
    8.880    5.6697
    8.925    5.3712
    8.970    5.2659
    9.015    5.4064
    9.060    5.8101
    9.105    5.7048
    9.150    6.2489
    9.195    6.3191
    9.240    5.9154
    9.285    6.2840
    9.330    6.7228
    9.375    7.2494
    9.420    8.0920
    9.465    9.0398
    9.510   10.2686
    9.555    8.1271
    9.600    6.6000
    9.645    5.9154
    9.690    5.9856
    9.735    6.1085
    9.780    5.5468
    9.825    6.1962
    9.870    5.7399
    9.915    5.8101
    9.960    6.0558
   10.005    6.0032
   10.050    6.3542
   10.095    5.9505
   10.140    6.1085
   10.185    6.1611
   10.230    7.1090
   10.275    6.9335
   10.320    7.2319
   10.365    5.7048
   10.410    5.9681
   10.455    5.9681
   10.500    5.7399
   10.545    5.8101
   10.590    5.5468
   10.635    5.5117
   10.680    5.7925
   10.725    5.5819
   10.770    5.9329
   10.815    5.3537
   10.860    6.1962
   10.905    5.9681
   10.950    6.5824
   10.995    7.4074
   11.040    6.3542
   11.085    5.2484
   11.130    5.4239
   11.175    5.3010
   11.220    5.4239
   11.265    5.6345
   11.310    5.7048
   11.355    6.0032
   11.400    5.6872
   11.445    5.4941
   11.490    5.8627
   11.535    6.0734
   11.580    5.5468
   11.625    7.0563
   11.670    6.9159
   11.715    6.2840
   11.760    5.4941
   11.805    5.4590
   11.850    5.0553
   11.895    5.5643
   11.940    5.5643
   11.985    5.0026
   12.030    5.3888
   12.075    5.3010
   12.120    5.0377
   12.165    5.2308
   12.210    5.5468
   12.255    5.1782
   12.300    5.0904
   12.345    5.1431
   12.390    5.2308
   12.435    5.6170
   12.480    5.1431
   12.525    5.2659
   12.570    4.9149
   12.615    4.8798
   12.660    5.2659
   12.705    5.6170
   12.750    5.5468
   12.795    5.7750
   12.840    5.1782
   12.885    5.6345
   12.930    6.3367
   12.975    5.0026
   13.020    4.8095
   13.065    5.0553
   13.110    4.5463
   13.155    4.9500
   13.200    5.0377
   13.245    5.3186
   13.290    4.8622
   13.335    4.7744
   13.380    5.0728
   13.425    5.1957
   13.470    5.5819
   13.515    5.0728
   13.560    5.4239
   13.605    4.6867
   13.650    5.1606
   13.695    4.6165
   13.740    4.5638
   13.785    5.0728
   13.830    5.6521
   13.875    4.9500
   13.920    4.9675
   13.965    5.7399
   14.010    5.6521
   14.055    6.0207
   14.100    5.0728
   14.145    5.0904
   14.190    4.8973
   14.235    5.3010
   14.280    5.1782
   14.325    4.6691
   14.370    5.1431
   14.415    5.2659
   14.460    5.0377
   14.505    4.9324
   14.550    4.6340
   14.595    4.5638
   14.640    5.1255
   14.685    4.8095
   14.730    4.8447
   14.775    5.1255
   14.820    4.8798
   14.865    5.0377
   14.910    5.0904
   14.955    4.5111
   15.000    5.3712
   15.045    5.1957
   15.090    4.5287
   15.135    4.6165
   15.180    5.1782
   15.225    5.1431
   15.270    4.9324
   15.315    5.1431
   15.360    4.9324
   15.405    4.8973
   15.450    4.8798
   15.495    4.6340
   15.540    4.6340
   15.585    4.9500
   15.630    4.6516
   15.675    4.8447
   15.720    4.6867
   15.765    5.2484
   15.810    4.6516
   15.855    4.9149
   15.900    4.7042
   15.945    5.2308
   15.990    4.9324
   16.035    5.5468
   16.080    5.4064
   16.125    5.0026
   16.170    5.0553
   16.215    5.3712
   16.260    5.0026
   16.305    4.8798
   16.350    4.5463
   16.395    4.5989
   16.440    5.1782
   16.485    4.9851
   16.530    5.0026
   16.575    4.5463
   16.620    4.6867
   16.665    4.8973
   16.710    4.8095
   16.755    4.9324
   16.800    4.9851
   16.845    5.0553
   16.890    5.2659
   16.935    5.3888
   16.980    5.0202
   17.025    5.4590
   17.070    4.9675
   17.115    4.8095
   17.160    4.6867
   17.205    5.0728
   17.250    4.8271
   17.295    4.8622
   17.340    5.0553
   17.385    4.7569
   17.430    5.1431
   17.475    5.1606
   17.520    5.0377
   17.565    5.0728
   17.610    4.7569
   17.655    4.7744
   17.700    4.9851
   17.745    4.8095
   17.790    4.6691
   17.835    5.1957
   17.880    4.7744
   17.925    4.9500
   17.970    4.7744
   18.015    5.0553
   18.060    4.7569
   18.105    4.8798
   18.150    4.6867
   18.195    4.9149
   18.240    4.3532
   18.285    4.8271
   18.330    4.9675
   18.375    4.7042
   18.420    4.8798
   18.465    5.0728
   18.510    4.9675
   18.555    4.6340
   18.600    5.0377
   18.645    5.0377
   18.690    5.2484
   18.735    4.9149
   18.780    5.4239
   18.825    5.2484
   18.870    5.4941
   18.915    4.7744
   18.960    4.6516
   19.005    4.9324
   19.050    5.0202
   19.095    4.9324
   19.140    4.9851
   19.185    5.0553
   19.230    4.9500
   19.275    4.9149
   19.320    4.7042
   19.365    4.8798
   19.410    4.7218
   19.455    5.1080
   19.500    5.3186
   19.545    4.8095
   19.590    5.0553
   19.635    5.0728
   19.680    4.9149
   19.725    4.7920
   19.770    4.7218
   19.815    4.8622
   19.860    4.6340
   19.905    5.3712
   19.950    5.4766
   19.995    4.8622
   20.040    4.8271
   20.085    5.3537
   20.130    4.7920
   20.175    5.0904
   20.220    5.4064
   20.265    5.3361
   20.310    5.1080
   20.355    5.0202
   20.400    5.0202
   20.445    5.3186
   20.490    4.6691
   20.535    5.0026
   20.580    5.0202
   20.625    5.3010
   20.670    4.9851
   20.715    5.1431
   20.760    4.9500
   20.805    4.5287
   20.850    5.1957
   20.895    5.4064
   20.940    4.8447
   20.985    5.3537
   21.030    5.3537
   21.075    4.8271
   21.120    5.2659
   21.165    5.0202
   21.210    5.4766
   21.255    4.8622
   21.300    5.1080
   21.345    4.7569
   21.390    5.2133
   21.435    5.1606
   21.480    5.0026
   21.525    5.2308
   21.570    5.3712
   21.615    4.4760
   21.660    5.1431
   21.705    4.5989
   21.750    5.3186
   21.795    5.1255
   21.840    5.2659
   21.885    5.1080
   21.930    4.8622
   21.975    5.6345
   22.020    5.5468
   22.065    5.0904
   22.110    4.9324
   22.155    4.8798
   22.200    4.7569
   22.245    5.3888
   22.290    5.0377
   22.335    5.2308
   22.380    5.9154
   22.425    5.2659
   22.470    5.8452
   22.515    5.4415
   22.560    5.2835
   22.605    5.5994
   22.650    5.0026
   22.695    5.0377
   22.740    5.3010
   22.785    5.5819
   22.830    5.4590
   22.875    5.6872
   22.920    5.5292
   22.965    5.0553
   23.010    4.6691
   23.055    5.3186
   23.100    4.6165
   23.145    5.1606
   23.190    5.7223
   23.235    5.5117
   23.280    5.8803
   23.325    4.9149
   23.370    5.0553
   23.415    5.4766
   23.460    5.2484
   23.505    4.9675
   23.550    5.0728
   23.595    4.8622
   23.640    5.0377
   23.685    4.8271
   23.730    5.0553
   23.775    5.3537
   23.820    4.9149
   23.865    4.6516
   23.910    4.8447
   23.955    5.0377
   24.000    5.1080
   24.045    4.9675
   24.090    4.6340
   24.135    5.3186
   24.180    4.4234
   24.225    5.1957
   24.270    4.9851
   24.315    5.3186
   24.360    4.8447
   24.405    5.2133
   24.450    5.1957
   24.495    4.8447
   24.540    4.7920
   24.585    4.6691
   24.630    4.9324
   24.675    4.5638
   24.720    4.9675
   24.765    4.9851
   24.810    4.7569
   24.855    5.1255
   24.900    5.1782
   24.945    5.2133
   24.990    4.9324
   25.035    4.9851
   25.080    4.7744
   25.125    4.9675
   25.170    4.4234
   25.215    4.7042
   25.260    5.0553
   25.305    4.5111
   25.350    4.8973
   25.395    4.5287
   25.440    4.9324
   25.485    4.7393
   25.530    4.7218
   25.575    4.9851
   25.620    4.6516
   25.665    5.0377
   25.710    5.6872
   25.755    4.7920
   25.800    5.5643
   25.845    4.7042
   25.890    4.8095
   25.935    4.6867
   25.980    4.8798
   26.025    4.8798
   26.070    4.8271
   26.115    4.7744
   26.160    4.3532
   26.205    4.8973
   26.250    4.5287
   26.295    4.8447
   26.340    4.8622
   26.385    4.9851
   26.430    5.1782
   26.475    4.5111
   26.520    4.5463
   26.565    4.1074
   26.610    4.4936
   26.655    4.5814
   26.700    4.7042
   26.745    4.4058
   26.790    4.4585
   26.835    4.6516
   26.880    4.9324
   26.925    4.8447
   26.970    5.1606
   27.015    4.8622
   27.060    4.6867
   27.105    4.6867
   27.150    4.5111
   27.195    4.4760
   27.240    4.4585
   27.285    4.9324
   27.330    4.7569
   27.375    4.5111
   27.420    4.7218
   27.465    4.7569
   27.510    4.5287
   27.555    4.5989
   27.600    5.2484
   27.645    4.8622
   27.690    5.0728
   27.735    4.3005
   27.780    4.7042
   27.825    4.6340
   27.870    4.3356
   27.915    4.7393
   27.960    4.5989
   28.005    4.2654
   28.050    4.7744
   28.095    5.0728
   28.140    5.2484
   28.185    4.7920
   28.230    4.4585
   28.275    4.4585
   28.320    4.5814
   28.365    5.0026
   28.410    4.6691
   28.455    4.7042
   28.500    4.3883
   28.545    4.7218
   28.590    4.1601
   28.635    4.7920
   28.680    4.4585
   28.725    4.3181
   28.770    4.3356
   28.815    4.6165
   28.860    4.5814
   28.905    4.3707
   28.950    4.6165
   28.995    4.8798
   29.040    4.5463
   29.085    4.2478
   29.130    4.4234
   29.175    4.4760
   29.220    4.4409
   29.265    4.4058
   29.310    4.2654
   29.355    4.7920
   29.400    4.3356
   29.445    4.7042
   29.490    4.3356
   29.535    4.2830
   29.580    4.1776
   29.625    4.5638
   29.670    4.2830
   29.715    4.5989
   29.760    4.3532
   29.805    4.5111
   29.850    4.6867
   29.895    4.5638
   29.940    4.7393
   29.985    4.7393
   30.030    4.0899
   30.075    4.3005
   30.120    4.7042
   30.165    4.5638
   30.210    4.4760
   30.255    4.3707
   30.300    4.2303
   30.345    4.2478
   30.390    4.4585
   30.435    4.6165
   30.480    4.5111
   30.525    4.2654
   30.570    4.3707
   30.615    4.3707
   30.660    4.1952
   30.705    4.0021
   30.750    4.1250
   30.795    4.3356
   30.840    4.4936
   30.885    4.3181
   30.930    4.6691
   30.975    4.1776
   31.020    3.8792
   31.065    4.0548
   31.110    4.3181
   31.155    3.9143
   31.200    4.0372
   31.245    4.4936
   31.290    4.0548
   31.335    4.7393
   31.380    4.1250
   31.425    4.2303
   31.470    4.5989
   31.515    4.3883
   31.560    4.3532
   31.605    4.3707
   31.650    4.0899
   31.695    4.1425
   31.740    4.7042
   31.785    3.9846
   31.830    3.9143
   31.875    4.0548
   31.920    4.3356
   31.965    4.3005
   32.010    3.9670
   32.055    4.0197
   32.100    4.1601
   32.145    4.3356
   32.190    4.1601
   32.235    4.3883
   32.280    3.8441
   32.325    4.0021
   32.370    3.6510
   32.415    4.0197
   32.460    3.7564
   32.505    3.9143
   32.550    4.1425
   32.595    3.8617
   32.640    3.8441
   32.685    3.8090
   32.730    3.8090
   32.775    4.0197
   32.820    3.7564
   32.865    4.2654
   32.910    4.2303
   32.955    4.0548
   33.000    3.8968
   33.045    4.0548
   33.090    4.0021
   33.135    3.8090
   33.180    3.3877
   33.225    3.6686
   33.270    3.8617
   33.315    4.0372
   33.360    3.8792
   33.405    4.0197
   33.450    4.0548
   33.495    3.7388
   33.540    3.5633
   33.585    3.8090
   33.630    3.9846
   33.675    3.9670
   33.720    3.9846
   33.765    3.9143
   33.810    3.7915
   33.855    4.2478
   33.900    4.0548
   33.945    4.1776
   33.990    4.0548
   34.035    4.3181
   34.080    3.5808
   34.125    3.5633
   34.170    4.0548
   34.215    3.9143
   34.260    3.8441
   34.305    3.7915
   34.350    4.0021
   34.395    4.0021
   34.440    4.0197
   34.485    3.7388
   34.530    3.8090
   34.575    3.7915
   34.620    3.4580
   34.665    4.0372
   34.710    3.6159
   34.755    3.8792
   34.800    4.0372
   34.845    4.0197
   34.890    3.7213
   34.935    3.8090
   34.980    3.5808
   35.025    3.8441
   35.070    4.3005
   35.115    4.0197
   35.160    3.7564
   35.205    3.7564
   35.250    4.0197
   35.295    3.7564
   35.340    3.8441
   35.385    4.0899
   35.430    3.6862
   35.475    3.4229
   35.520    4.2303
   35.565    3.6862
   35.610    3.5282
   35.655    4.1776
   35.700    3.9319
   35.745    3.6510
   35.790    3.7213
   35.835    3.6335
   35.880    3.9494
   35.925    3.9494
   35.970    4.0197
   36.015    4.1952
   36.060    3.5106
   36.105    3.8792
   36.150    3.7213
   36.195    3.6335
   36.240    3.6335
   36.285    3.9494
   36.330    3.7564
   36.375    3.7213
   36.420    3.9670
   36.465    3.3175
   36.510    3.6686
   36.555    3.6510
   36.600    3.7739
   36.645    4.0021
   36.690    3.5984
   36.735    3.6510
   36.780    3.7213
   36.825    3.5633
   36.870    3.5106
   36.915    3.3175
   36.960    3.6686
   37.005    3.7739
   37.050    3.7037
   37.095    3.9494
   37.140    3.4580
   37.185    3.6510
   37.230    3.9319
   37.275    3.2473
   37.320    3.8090
   37.365    3.4229
   37.410    3.8441
   37.455    3.6686
   37.500    3.5984
   37.545    3.5984
   37.590    3.8090
   37.635    3.3351
   37.680    3.6335
   37.725    3.6335
   37.770    3.6159
   37.815    3.8617
   37.860    3.4755
   37.905    3.9143
   37.950    3.7564
   37.995    3.4229
   38.040    3.9494
   38.085    3.7739
   38.130    3.6335
   38.175    3.5984
   38.220    3.8266
   38.265    3.4931
   38.310    3.7037
   38.355    3.8266
   38.400    3.8266
   38.445    3.8617
   38.490    3.4229
   38.535    3.7739
   38.580    3.7915
   38.625    3.9846
   38.670    3.0542
   38.715    3.3702
   38.760    3.7213
   38.805    3.8266
   38.850    3.6686
   38.895    3.4404
   38.940    3.4053
   38.985    3.7037
   39.030    3.4053
   39.075    3.6510
   39.120    3.4755
   39.165    3.7739
   39.210    3.7564
   39.255    3.7388
   39.300    3.5808
   39.345    3.4580
   39.390    3.5808
   39.435    4.0021
   39.480    3.4931
   39.525    3.7915
   39.570    3.9846
   39.615    3.4931
   39.660    3.6335
   39.705    4.0372
   39.750    3.4053
   39.795    3.6686
   39.840    4.2478
   39.885    3.7037
   39.930    4.0548
   39.975    3.7213
   40.020    3.4580
   40.065    3.4755
   40.110    3.4755
   40.155    3.3877
   40.200    3.9846
   40.245    3.5106
   40.290    3.5106
   40.335    3.5633
   40.380    3.5633
   40.425    4.0021
   40.470    3.4229
   40.515    3.9319
   40.560    3.6686
   40.605    3.6159
   40.650    3.7915
   40.695    3.6510
   40.740    3.7388
   40.785    3.7213
   40.830    3.4229
   40.875    3.5633
   40.920    3.9143
   40.965    3.6510
   41.010    3.7388
   41.055    3.5282
   41.100    3.7564
   41.145    3.7915
   41.190    3.8266
   41.235    3.4229
   41.280    3.4931
   41.325    3.2122
   41.370    3.6686
   41.415    3.7388
   41.460    3.7037
   41.505    3.5282
   41.550    4.0021
   41.595    3.6862
   41.640    3.0542
   41.685    3.5457
   41.730    3.3526
   41.775    3.6862
   41.820    3.6159
   41.865    3.5633
   41.910    3.5984
   41.955    3.9494
   42.000    3.7037
   42.045    4.0021
   42.090    3.4931
   42.135    3.8617
   42.180    4.1952
   42.225    3.6862
   42.270    3.4580
   42.315    3.6335
   42.360    3.5633
   42.405    3.7564
   42.450    3.2298
   42.495    3.3351
   42.540    3.5457
   42.585    3.3702
   42.630    3.7564
   42.675    3.9143
   42.720    3.3526
   42.765    3.8441
   42.810    3.4053
   42.855    3.7213
   42.900    3.4755
   42.945    3.7388
   42.990    3.7564
   43.035    3.7037
   43.080    3.5984
   43.125    3.4229
   43.170    3.4404
   43.215    3.5808
   43.260    3.9319
   43.305    3.5984
   43.350    3.5457
   43.395    3.4404
   43.440    3.4053
   43.485    3.6335
   43.530    3.3000
   43.575    3.3351
   43.620    3.2824
   43.665    4.0723
   43.710    3.5808
   43.755    3.9143
   43.800    3.2649
   43.845    3.4755
   43.890    3.6862
   43.935    3.5808
   43.980    3.4229
   44.025    3.7037
   44.070    3.6862
   44.115    3.4229
   44.160    3.6686
   44.205    3.6862
   44.250    3.2473
   44.295    3.3175
   44.340    3.8441
   44.385    3.1771
   44.430    3.5457
   44.475    3.4404
   44.520    3.2824
   44.565    3.4229
   44.610    3.5106
   44.655    3.7388
   44.700    3.6686
   44.745    3.8792
   44.790    3.7564
   44.835    3.2824
   44.880    3.3351
   44.925    3.5633
   44.970    3.7037
   45.015    3.2473
   45.060    3.7388
   45.105    3.3000
   45.150    3.4053
   45.195    3.3000
   45.240    3.5984
   45.285    3.5808
   45.330    3.5106
   45.375    3.7564
   45.420    3.7213
   45.465    3.4755
   45.510    3.3702
   45.555    3.3000
   45.600    3.1420
   45.645    3.3702
   45.690    3.2649
   45.735    3.7388
   45.780    3.5106
   45.825    3.1771
   45.870    3.4580
   45.915    3.5457
   45.960    3.5633
   46.005    3.3877
   46.050    3.5106
   46.095    3.1596
   46.140    3.4755
   46.185    3.5106
   46.230    3.4931
   46.275    3.2649
   46.320    3.4229
   46.365    3.6862
   46.410    3.3000
   46.455    3.3000
   46.500    3.2298
   46.545    3.3351
   46.590    3.3175
   46.635    3.6159
   46.680    3.4755
   46.725    3.5106
   46.770    3.4931
   46.815    3.4580
   46.860    3.2122
   46.905    3.3702
   46.950    3.7915
   46.995    3.4755
   47.040    3.4229
   47.085    3.5106
   47.130    3.3526
   47.175    3.2122
   47.220    3.2649
   47.265    3.0542
   47.310    3.2824
   47.355    3.9143
   47.400    3.7213
   47.445    3.8968
   47.490    3.5106
   47.535    3.2649
   47.580    3.4931
   47.625    3.0718
   47.670    3.1596
   47.715    3.3175
   47.760    3.3351
   47.805    3.5282
   47.850    3.4053
   47.895    3.2298
   47.940    3.5984
   47.985    3.4229
   48.030    3.4931
   48.075    3.8090
   48.120    3.5106
   48.165    3.3175
   48.210    3.1069
   48.255    3.5106
   48.300    3.1420
   48.345    3.7213
   48.390    3.7037
   48.435    3.1596
   48.480    3.6686
   48.525    3.6335
   48.570    3.6686
   48.615    3.8090
   48.660    3.4404
   48.705    3.4053
   48.750    3.0367
   48.795    3.4404
   48.840    3.1596
   48.885    3.2649
   48.930    3.7739
   48.975    3.6335
   49.020    3.5633
   49.065    3.4229
   49.110    3.6862
   49.155    3.6159
   49.200    3.4755
   49.245    3.0367
   49.290    3.4404
   49.335    3.7037
   49.380    3.4931
   49.425    3.6159
   49.470    3.6862
   49.515    3.7037
   49.560    3.2473
   49.605    3.5106
   49.650    3.2473
   49.695    3.6335
   49.740    3.4580
   49.785    3.0718
   49.830    3.6159
   49.875    3.2473
   49.920    3.5457
   49.965    3.6335
   49.980    3.2824