File: data/PXRD/PXRD_KE-149_Cu-Ka1_capillary-1mm_5s-deg.xyd
    1.500   14.9447
    1.530   14.7762
    1.560   14.9658
    1.590   14.7130
    1.620   14.3444
    1.650   14.3760
    1.680   13.8810
    1.710   13.7125
    1.740   13.7862
    1.770   13.3544
    1.800   13.0068
    1.830   13.4176
    1.860   12.6593
    1.890   12.8278
    1.920   12.6488
    1.950   12.4697
    1.980   12.2170
    2.010   12.3539
    2.040   11.8589
    2.070   11.8905
    2.100   12.1748
    2.130   11.9958
    2.160   12.1327
    2.190   12.4697
    2.220   11.9326
    2.250   11.7641
    2.280   11.3744
    2.310   11.0058
    2.340   11.7430
    2.370   11.6061
    2.400   11.3639
    2.430   11.0795
    2.460   11.6061
    2.490   11.6061
    2.520   12.0590
    2.550   12.0169
    2.580   11.6904
    2.610   12.1538
    2.640   12.0063
    2.670   11.7220
    2.700   11.3323
    2.730   12.1854
    2.760   11.6693
    2.790   12.4908
    2.820   12.2907
    2.850   12.4592
    2.880   12.5013
    2.910   12.3749
    2.940   12.8489
    2.970   13.1016
    3.000   13.6914
    3.030   13.2070
    3.060   13.7230
    3.090   14.2812
    3.120   14.6498
    3.150   15.7030
    3.180   15.4713
    3.210   16.2823
    3.240   16.5034
    3.270   17.1985
    3.300   17.6303
    3.330   18.9889
    3.360   20.2001
    3.390   20.0843
    3.420   21.2533
    3.450   23.0753
    3.480   23.0648
    3.510   23.8336
    3.540   25.0764
    3.570   25.9189
    3.600   26.3718
    3.630   28.0885
    3.660   30.9005
    3.690   33.7441
    3.720   35.4924
    3.750   40.4107
    3.780   44.8868
    3.810   52.9647
    3.840   62.8436
    3.870   71.2691
    3.900   65.2449
    3.930   44.8236
    3.960   25.1080
    3.990   17.8515
    4.020   15.1237
    4.050   13.5650
    4.080   11.9431
    4.110   11.3323
    4.140   10.7636
    4.170   10.0369
    4.200   10.5108
    4.230    9.7209
    4.260   10.1632
    4.290    9.1943
    4.320    8.6361
    4.350    9.4997
    4.380    9.2891
    4.410    8.6993
    4.440    9.0785
    4.470    8.6888
    4.500    8.6572
    4.530    8.8046
    4.560    8.6993
    4.590    8.5519
    4.620    8.4887
    4.650    8.9205
    4.680    8.8573
    4.710    8.8152
    4.740    8.3518
    4.770    8.5729
    4.800    8.4571
    4.830    8.6467
    4.860    8.7730
    4.890    8.6993
    4.920    8.4466
    4.950    8.3834
    4.980    9.0047
    5.010    8.8889
    5.040    9.1311
    5.070    9.1311
    5.100    9.4681
    5.130    9.2154
    5.160    9.4365
    5.190    9.9421
    5.220    9.8999
    5.250   10.2159
    5.280   10.0369
    5.310   10.6372
    5.340   11.5008
    5.370   11.6904
    5.400   12.1538
    5.430   13.2385
    5.460   14.9026
    5.490   15.9663
    5.520   15.5766
    5.550   13.2280
    5.580   10.2686
    5.610    8.9310
    5.640    8.3307
    5.670    8.5308
    5.700    8.2359
    5.730    8.2254
    5.760    8.0253
    5.790    7.8462
    5.820    8.1306
    5.850    8.1727
    5.880    8.4044
    5.910    8.1517
    5.940    8.3307
    5.970    7.6672
    6.000    8.0569
    6.030    7.9410
    6.060    8.2464
    6.090    7.9726
    6.120    7.6672
    6.150    7.7725
    6.180    8.0990
    6.210    7.7409
    6.240    7.7093
    6.270    7.8989
    6.300    7.6356
    6.330    7.9726
    6.360    7.5724
    6.390    7.8778
    6.420    7.7830
    6.450    7.8462
    6.480    7.9094
    6.510    8.1833
    6.540    8.2886
    6.570    8.4781
    6.600    8.1833
    6.630    8.0358
    6.660    8.4781
    6.690    8.7625
    6.720    8.7625
    6.750    9.2364
    6.780    8.5308
    6.810    9.1311
    6.840    8.6256
    6.870    8.4255
    6.900    8.2254
    6.930    8.3412
    6.960    8.4781
    6.990    8.5308
    7.020    8.0042
    7.050    8.1727
    7.080    8.4044
    7.110    8.1201
    7.140    8.0042
    7.170    7.8357
    7.200    7.7936
    7.230    8.0042
    7.260    7.7725
    7.290    8.4044
    7.320    7.6988
    7.350    8.0463
    7.380    7.7725
    7.410    8.3939
    7.440    8.0358
    7.470    8.5203
    7.500    8.5519
    7.530    8.9100
    7.560    8.3202
    7.590    8.3202
    7.620    8.7204
    7.650    8.7098
    7.680    8.9415
    7.710    9.0469
    7.740   10.1422
    7.770   10.1422
    7.800   10.5635
    7.830   10.0474
    7.860    9.2259
    7.890    8.6783
    7.920    8.6361
    7.950    8.7204
    7.980    8.4044
    8.010    8.1095
    8.040    8.3518
    8.070    8.2991
    8.100    8.0042
    8.130    8.1727
    8.160    8.0569
    8.190    7.9516
    8.220    8.1411
    8.250    8.6572
    8.280    8.6361
    8.310    8.1938
    8.340    8.3834
    8.370    8.5835
    8.400    8.7520
    8.430    8.7098
    8.460    8.3412
    8.490    8.5203
    8.520    8.3202
    8.550    8.4466
    8.580    8.4887
    8.610    8.7730
    8.640    8.6783
    8.670    8.8678
    8.700    8.6045
    8.730    8.3412
    8.760    8.3623
    8.790    8.4676
    8.820    8.6783
    8.850    8.7730
    8.880    8.8152
    8.910    8.6256
    8.940    8.7520
    8.970    8.5940
    9.000    8.6572
    9.030    8.8889
    9.060    9.0785
    9.090    8.7098
    9.120    9.1522
    9.150    8.9100
    9.180    8.6783
    9.210    8.6677
    9.240    9.4260
    9.270    9.0995
    9.300    9.3102
    9.330    9.2048
    9.360    9.2154
    9.390    9.4997
    9.420   10.4581
    9.450   10.1843
    9.480   11.2059
    9.510   11.4903
    9.540   13.4387
    9.570   12.9753
    9.600   12.6277
    9.630   11.7009
    9.660    9.6367
    9.690    9.4260
    9.720    8.7941
    9.750    8.5203
    9.780    8.8362
    9.810    9.0047
    9.840    9.1417
    9.870    8.8362
    9.900    8.9521
    9.930    8.7309
    9.960    9.1101
    9.990    9.3207
   10.020    9.0363
   10.050    8.8573
   10.080    9.0469
   10.110    9.1732
   10.140    9.1732
   10.170    9.1417
   10.200    9.5840
   10.230    9.4997
   10.260    9.5524
   10.290    9.3523
   10.320   10.0053
   10.350   10.1632
   10.380   10.3739
   10.410    8.9100
   10.440    8.7204
   10.470    8.9942
   10.500    8.8468
   10.530    8.4676
   10.560    8.7098
   10.590    9.1627
   10.620    8.2254
   10.650    8.5413
   10.680    9.2259
   10.710    8.3939
   10.740    8.5203
   10.770    8.8784
   10.800    8.5413
   10.830    8.7625
   10.860    8.7098
   10.890    8.9521
   10.920    8.6993
   10.950    9.1101
   10.980    9.2259
   11.010    9.3628
   11.040    9.4050
   11.070    9.6156
   11.100    9.1417
   11.130    9.0047
   11.160    8.8468
   11.190    8.0990
   11.220    8.6467
   11.250    8.4676
   11.280    8.3202
   11.310    8.1517
   11.340    7.9937
   11.370    7.9305
   11.400    8.2359
   11.430    8.7625
   11.460    8.3518
   11.490    8.5308
   11.520    8.3307
   11.550    8.5413
   11.580    8.4255
   11.610    8.4150
   11.640    8.9626
   11.670    9.3628
   11.700    9.1101
   11.730    9.4892
   11.760    9.0153
   11.790    9.2048
   11.820    8.2043
   11.850    7.9410
   11.880    7.8041
   11.910    7.8146
   11.940    7.8252
   11.970    8.2886
   12.000    7.9200
   12.030    8.0358
   12.060    7.9937
   12.090    8.0042
   12.120    7.5724
   12.150    7.8146
   12.180    7.8884
   12.210    7.8673
   12.240    8.1201
   12.270    7.7830
   12.300    8.0042
   12.330    7.7093
   12.360    7.9621
   12.390    7.4250
   12.420    7.6461
   12.450    7.5513
   12.480    7.6672
   12.510    7.5724
   12.540    7.4355
   12.570    7.9726
   12.600    7.4882
   12.630    7.8041
   12.660    7.2775
   12.690    7.6883
   12.720    7.4776
   12.750    8.0463
   12.780    8.0147
   12.810    7.2670
   12.840    7.7199
   12.870    7.8146
   12.900    8.1622
   12.930    8.1938
   12.960    8.4781
   12.990    8.4571
   13.020    7.7936
   13.050    8.0042
   13.080    7.4566
   13.110    7.7093
   13.140    7.2986
   13.170    7.4776
   13.200    7.4671
   13.230    7.5513
   13.260    7.5724
   13.290    7.0669
   13.320    7.4250
   13.350    6.9826
   13.380    7.4144
   13.410    7.2880
   13.440    7.5935
   13.470    7.7304
   13.500    7.0985
   13.530    7.8673
   13.560    7.7725
   13.590    7.8884
   13.620    7.5935
   13.650    7.2670
   13.680    7.3723
   13.710    6.9932
   13.740    7.2880
   13.770    6.9089
   13.800    6.5508
   13.830    7.2986
   13.860    7.4460
   13.890    7.0353
   13.920    7.6040
   13.950    7.5724
   13.980    6.9932
   14.010    7.7830
   14.040    8.0885
   14.070    7.2249
   14.100    8.0885
   14.130    8.2254
   14.160    7.7936
   14.190    7.8041
   14.220    7.1511
   14.250    7.5092
   14.280    7.0353
   14.310    7.0458
   14.340    7.1195
   14.370    6.8246
   14.400    7.0248
   14.430    7.2249
   14.460    7.2249
   14.490    7.2038
   14.520    7.4250
   14.550    7.1617
   14.580    7.4039
   14.610    7.2354
   14.640    6.9089
   14.670    7.3934
   14.700    7.0879
   14.730    7.4776
   14.760    7.2354
   14.790    7.3407
   14.820    7.4882
   14.850    7.2143
   14.880    7.0774
   14.910    7.3723
   14.940    7.0142
   14.970    6.8984
   15.000    7.5408
   15.030    7.6988
   15.060    7.4144
   15.090    7.1933
   15.120    7.6461
   15.150    7.5513
   15.180    7.7199
   15.210    7.7620
   15.240    7.1617
   15.270    7.3618
   15.300    7.5829
   15.330    7.3618
   15.360    7.0353
   15.390    6.7193
   15.420    7.1301
   15.450    7.3723
   15.480    7.4460
   15.510    7.0458
   15.540    7.2459
   15.570    7.2670
   15.600    7.3512
   15.630    7.2986
   15.660    7.3828
   15.690    6.8141
   15.720    7.1511
   15.750    7.3934
   15.780    7.1090
   15.810    7.4355
   15.840    7.4144
   15.870    7.2354
   15.900    6.8984
   15.930    7.2354
   15.960    7.2775
   15.990    7.5092
   16.020    6.8562
   16.050    7.7620
   16.080    7.6461
   16.110    7.6883
   16.140    7.8357
   16.170    8.0042
   16.200    7.3934
   16.230    7.7409
   16.260    7.6251
   16.290    7.7830
   16.320    7.3723
   16.350    7.7620
   16.380    7.7725
   16.410    7.4460
   16.440    8.1833
   16.470    7.8778
   16.500    7.3828
   16.530    7.3512
   16.560    7.3934
   16.590    7.7409
   16.620    7.3723
   16.650    7.3196
   16.680    7.5619
   16.710    7.4882
   16.740    7.2775
   16.770    7.2143
   16.800    7.9516
   16.830    7.2880
   16.860    7.5092
   16.890    7.2986
   16.920    7.8884
   16.950    7.4460
   16.980    7.8357
   17.010    7.7725
   17.040    7.9937
   17.070    8.0042
   17.100    8.1622
   17.130    8.0779
   17.160    7.9937
   17.190    8.1306
   17.220    7.7409
   17.250    7.3512
   17.280    7.0879
   17.310    7.4987
   17.340    7.4460
   17.370    7.3934
   17.400    7.6461
   17.430    7.3091
   17.460    7.5092
   17.490    7.3407
   17.520    7.5197
   17.550    7.4460
   17.580    7.3196
   17.610    7.4144
   17.640    7.6461
   17.670    7.1301
   17.700    6.9826
   17.730    7.4987
   17.760    7.6040
   17.790    7.2143
   17.820    7.1406
   17.850    7.3091
   17.880    7.4671
   17.910    7.7093
   17.940    7.7093
   17.970    7.5513
   18.000    7.4144
   18.030    7.5829
   18.060    7.4039
   18.090    7.6356
   18.120    7.1722
   18.150    7.2354
   18.180    7.3091
   18.210    7.2880
   18.240    7.2880
   18.270    7.6988
   18.300    7.5619
   18.330    7.2143
   18.360    7.0458
   18.390    7.8989
   18.420    7.7093
   18.450    7.5935
   18.480    7.5724
   18.510    7.4776
   18.540    7.4882
   18.570    7.4882
   18.600    7.5408
   18.630    7.5619
   18.660    7.6356
   18.690    7.7093
   18.720    7.2670
   18.750    7.4039
   18.780    7.5724
   18.810    7.7514
   18.840    7.4566
   18.870    7.4460
   18.900    7.5513
   18.930    8.4676
   18.960    7.8462
   18.990    8.3518
   19.020    8.1411
   19.050    7.3618
   19.080    7.5935
   19.110    7.4566
   19.140    7.2143
   19.170    7.8884
   19.200    7.5197
   19.230    7.2459
   19.260    7.2775
   19.290    7.1195
   19.320    7.5303
   19.350    7.5829
   19.380    7.3934
   19.410    7.2986
   19.440    7.4039
   19.470    7.9516
   19.500    7.4039
   19.530    7.5408
   19.560    8.0358
   19.590    7.8884
   19.620    8.0885
   19.650    7.4355
   19.680    7.5092
   19.710    7.7093
   19.740    6.9616
   19.770    7.6988
   19.800    7.7725
   19.830    8.0990
   19.860    7.8568
   19.890    7.7830
   19.920    7.8673
   19.950    7.4566
   19.980    7.7199
   20.010    7.5513
   20.040    7.7514
   20.070    7.4144
   20.100    7.4882
   20.130    8.0779
   20.160    7.6461
   20.190    7.5408
   20.220    7.6883
   20.250    8.1095
   20.280    7.7830
   20.310    7.8989
   20.340    8.2043
   20.370    8.1201
   20.400    8.3096
   20.430    8.1517
   20.460    7.8989
   20.490    8.1411
   20.520    7.6672
   20.550    7.7830
   20.580    7.7304
   20.610    7.4250
   20.640    7.8462
   20.670    7.7304
   20.700    8.1727
   20.730    7.4987
   20.760    7.4355
   20.790    7.8989
   20.820    7.7304
   20.850    8.0779
   20.880    7.4566
   20.910    7.6461
   20.940    7.8884
   20.970    7.6672
   21.000    7.6251
   21.030    7.7620
   21.060    7.5408
   21.090    7.5197
   21.120    7.7093
   21.150    7.7725
   21.180    7.5724
   21.210    7.9726
   21.240    7.7093
   21.270    7.8462
   21.300    7.7304
   21.330    7.2565
   21.360    7.7620
   21.390    7.5513
   21.420    7.9305
   21.450    7.4882
   21.480    8.2464
   21.510    7.6356
   21.540    7.8146
   21.570    7.5935
   21.600    7.9200
   21.630    8.1095
   21.660    7.6251
   21.690    7.9094
   21.720    7.9305
   21.750    7.6777
   21.780    7.6356
   21.810    8.2464
   21.840    8.3412
   21.870    7.8778
   21.900    8.1622
   21.930    8.2780
   21.960    7.7199
   21.990    8.0463
   22.020    7.9831
   22.050    7.6988
   22.080    8.0463
   22.110    8.3202
   22.140    7.8884
   22.170    8.2149
   22.200    8.2149
   22.230    8.3518
   22.260    8.1517
   22.290    7.8357
   22.320    8.1938
   22.350    7.9831
   22.380    8.2780
   22.410    8.3412
   22.440    7.7830
   22.470    8.6256
   22.500    8.1201
   22.530    8.3096
   22.560    8.1833
   22.590    8.4571
   22.620    8.5729
   22.650    8.3518
   22.680    8.4150
   22.710    8.0042
   22.740    7.7620
   22.770    7.8568
   22.800    7.9937
   22.830    8.3518
   22.860    8.2780
   22.890    8.6677
   22.920    8.4781
   22.950    9.1838
   22.980    8.9415
   23.010    8.7204
   23.040    8.1095
   23.070    8.2359
   23.100    8.1727
   23.130    8.0147
   23.160    8.4887
   23.190    8.2675
   23.220    8.2464
   23.250    8.2780
   23.280    7.5619
   23.310    8.0674
   23.340    7.9831
   23.370    7.7620
   23.400    7.6251
   23.430    7.7514
   23.460    7.8778
   23.490    8.2149
   23.520    8.1411
   23.550    7.6988
   23.580    7.7409
   23.610    7.9410
   23.640    7.7514
   23.670    8.1306
   23.700    8.2149
   23.730    8.0358
   23.760    7.7725
   23.790    7.5513
   23.820    7.7199
   23.850    7.6461
   23.880    7.6040
   23.910    7.9410
   23.940    7.8778
   23.970    7.9305
   24.000    8.1306
   24.030    8.0253
   24.060    7.6145
   24.090    8.3412
   24.120    7.7514
   24.150    8.3728
   24.180    7.6461
   24.210    8.0990
   24.240    7.4250
   24.270    7.6672
   24.300    7.9516
   24.330    7.5619
   24.360    7.7830
   24.390    7.5829
   24.420    7.4776
   24.450    7.7514
   24.480    8.2359
   24.510    8.0463
   24.540    7.9200
   24.570    7.8884
   24.600    7.6356
   24.630    7.6145
   24.660    8.0147
   24.690    7.7304
   24.720    7.4671
   24.750    7.3302
   24.780    7.5619
   24.810    7.7725
   24.840    7.7514
   24.870    7.5829
   24.900    7.5303
   24.930    7.5092
   24.960    7.5619
   24.990    7.4460
   25.020    7.7830
   25.050    7.4250
   25.080    7.4987
   25.110    7.8673
   25.140    7.6567
   25.170    7.5935
   25.200    7.5724
   25.230    7.5619
   25.260    7.4882
   25.290    8.1201
   25.320    7.6567
   25.350    7.5829
   25.380    7.6251
   25.410    7.5408
   25.440    7.6777
   25.470    7.5935
   25.500    7.5408
   25.530    7.5724
   25.560    7.6356
   25.590    7.5619
   25.620    7.6356
   25.650    7.2565
   25.680    7.5408
   25.710    7.4882
   25.740    7.6461
   25.770    7.5829
   25.800    7.9937
   25.830    7.8357
   25.860    8.3939
   25.890    7.9516
   25.920    7.7620
   25.950    7.8041
   25.980    7.5935
   26.010    7.3091
   26.040    7.2038
   26.070    7.4776
   26.100    7.3302
   26.130    7.6040
   26.160    6.9721
   26.190    7.6567
   26.220    7.3618
   26.250    7.7514
   26.280    7.3618
   26.310    6.9089
   26.340    7.5092
   26.370    7.2670
   26.400    7.1195
   26.430    7.0142
   26.460    7.4355
   26.490    7.2565
   26.520    7.4776
   26.550    7.2143
   26.580    7.4039
   26.610    7.0879
   26.640    7.1406
   26.670    7.2986
   26.700    7.5935
   26.730    7.4355
   26.760    7.0353
   26.790    7.2459
   26.820    7.4460
   26.850    7.2354
   26.880    7.1511
   26.910    7.7725
   26.940    7.8041
   26.970    7.3828
   27.000    7.4039
   27.030    7.6988
   27.060    7.6461
   27.090    7.2986
   27.120    7.3828
   27.150    7.6672
   27.180    7.2986
   27.210    6.9510
   27.240    7.4250
   27.270    7.2880
   27.300    7.4250
   27.330    6.9089
   27.360    7.0458
   27.390    7.1301
   27.420    7.4250
   27.450    6.9510
   27.480    7.2249
   27.510    7.0879
   27.540    7.1406
   27.570    7.4987
   27.600    7.1511
   27.630    7.1090
   27.660    7.2249
   27.690    7.4355
   27.720    7.1090
   27.750    7.4144
   27.780    7.4039
   27.810    7.0458
   27.840    7.1301
   27.870    7.3407
   27.900    7.1722
   27.930    6.9089
   27.960    7.2880
   27.990    7.3512
   28.020    7.8146
   28.050    7.5513
   28.080    7.4144
   28.110    7.1090
   28.140    7.2775
   28.170    7.3407
   28.200    7.1722
   28.230    7.5303
   28.260    6.9089
   28.290    7.1511
   28.320    7.2143
   28.350    7.3723
   28.380    6.8036
   28.410    7.0774
   28.440    7.2670
   28.470    6.8457
   28.500    7.2986
   28.530    7.2143
   28.560    7.1090
   28.590    7.1511
   28.620    6.6877
   28.650    7.1827
   28.680    6.7088
   28.710    7.1406
   28.740    6.9932
   28.770    7.2038
   28.800    6.7720
   28.830    7.0879
   28.860    6.8352
   28.890    7.2143
   28.920    7.4250
   28.950    7.5197
   28.980    6.7509
   29.010    7.0563
   29.040    7.3723
   29.070    7.1301
   29.100    7.0669
   29.130    7.1090
   29.160    7.0248
   29.190    6.7615
   29.220    6.7299
   29.250    6.4666
   29.280    6.7720
   29.310    6.8457
   29.340    7.1827
   29.370    6.9089
   29.400    7.3723
   29.430    7.0774
   29.460    6.7404
   29.490    7.2354
   29.520    7.0879
   29.550    6.6351
   29.580    7.0037
   29.610    6.4139
   29.640    6.8352
   29.670    7.1722
   29.700    6.9721
   29.730    6.4244
   29.760    6.7615
   29.790    6.6561
   29.820    6.7509
   29.850    6.8773
   29.880    6.7193
   29.910    7.1617
   29.940    6.6456
   29.970    6.7299
   30.000    6.6035
   30.030    6.8984
   30.060    7.0985
   30.090    6.9089
   30.120    6.8562
   30.150    7.0142
   30.180    6.9932
   30.210    6.5298
   30.240    6.5508
   30.270    6.8036
   30.300    6.5824
   30.330    6.9721
   30.360    6.6456
   30.390    6.3191
   30.420    6.4560
   30.450    6.6877
   30.480    6.9089
   30.510    6.5508
   30.540    6.7509
   30.570    6.8141
   30.600    6.3823
   30.630    6.8246
   30.660    6.4034
   30.690    6.3296
   30.720    6.1506
   30.750    6.7193
   30.780    6.6667
   30.810    6.2665
   30.840    6.2243
   30.870    6.4034
   30.900    6.6772
   30.930    6.6140
   30.960    6.6140
   30.990    6.2243
   31.020    6.3402
   31.050    6.5087
   31.080    6.1717
   31.110    6.6561
   31.140    6.4455
   31.170    6.3928
   31.200    6.0453
   31.230    6.8668
   31.260    6.7404
   31.290    6.0769
   31.320    6.0664
   31.350    6.2559
   31.380    6.4244
   31.410    6.4244
   31.440    6.6877
   31.470    6.2349
   31.500    6.6983
   31.530    6.4876
   31.560    6.3296
   31.590    6.6561
   31.620    6.6456
   31.650    6.6456
   31.680    6.4876
   31.710    6.5403
   31.740    6.4876
   31.770    6.5087
   31.800    6.8141
   31.830    6.3191
   31.860    6.6983
   31.890    6.8984
   31.920    6.4771
   31.950    6.8984
   31.980    7.1827
   32.010    6.7193
   32.040    7.2670
   32.070    7.2143
   32.100    7.1301
   32.130    6.8878
   32.160    6.7930
   32.190    7.0248
   32.220    6.5087
   32.250    6.4455
   32.280    6.4244
   32.310    6.7404
   32.340    6.0769
   32.370    6.2665
   32.400    5.9610
   32.430    6.3086
   32.460    6.5403
   32.490    6.5824
   32.520    6.3823
   32.550    6.5719
   32.580    6.4455
   32.610    5.7504
   32.640    6.0664
   32.670    5.8557
   32.700    6.2349
   32.730    6.7088
   32.760    6.1401
   32.790    6.4455
   32.820    6.1822
   32.850    5.8873
   32.880    5.9926
   32.910    5.9505
   32.940    6.4982
   32.970    6.4982
   33.000    6.4350
   33.030    6.5613
   33.060    5.7715
   33.090    6.5613
   33.120    6.4244
   33.150    6.0874
   33.180    6.3086
   33.210    6.4455
   33.240    6.3718
   33.270    6.3191
   33.300    6.2033
   33.330    6.3086
   33.360    5.8452
   33.390    5.8031
   33.420    5.8662
   33.450    5.9505
   33.480    6.2981
   33.510    6.2454
   33.540    6.0453
   33.570    6.2243
   33.600    6.1190
   33.630    6.4666
   33.660    5.9084
   33.690    6.1822
   33.720    6.4560
   33.750    6.5613
   33.780    6.5192
   33.810    6.9089
   33.840    6.9194
   33.870    6.1190
   33.900    5.8873
   33.930    6.5508
   33.960    6.2559
   33.990    6.5508
   34.020    6.4244
   34.050    5.8241
   34.080    6.2033
   34.110    6.0242
   34.140    6.0137
   34.170    6.2138
   34.200    6.1295
   34.230    5.8452
   34.260    5.9505
   34.290    6.1717
   34.320    6.3191
   34.350    6.0874
   34.380    6.0348
   34.410    6.2033
   34.440    5.8452
   34.470    5.9821
   34.500    5.8241
   34.530    5.9189
   34.560    6.0348
   34.590    6.4034
   34.620    6.1611
   34.650    6.0558
   34.680    5.5398
   34.710    5.6767
   34.740    6.0979
   34.770    5.6556
   34.800    5.6872
   34.830    5.6451
   34.860    6.0032
   34.890    5.9610
   34.920    5.7820
   34.950    6.5087
   34.980    5.8136
   35.010    5.4871
   35.040    6.0874
   35.070    6.1190
   35.100    5.8241
   35.130    5.6977
   35.160    6.2665
   35.190    6.0453
   35.220    5.8873
   35.250    5.8768
   35.280    5.9294
   35.310    6.0979
   35.340    5.7820
   35.370    6.0453
   35.400    6.0979
   35.430    5.4239
   35.460    6.0348
   35.490    5.7715
   35.520    6.0558
   35.550    5.4871
   35.580    5.6767
   35.610    5.7609
   35.640    5.6135
   35.670    6.0453
   35.700    6.1295
   35.730    6.1295
   35.760    5.9716
   35.790    5.9084
   35.820    5.9189
   35.850    5.7925
   35.880    5.8768
   35.910    5.9294
   35.940    6.1927
   35.970    6.0242
   36.000    5.6767
   36.030    6.0137
   36.060    5.8031
   36.090    5.8452
   36.120    6.0664
   36.150    5.3291
   36.180    5.8978
   36.210    5.7609
   36.240    5.8768
   36.270    5.7083
   36.300    5.6135
   36.330    5.5503
   36.360    5.6451
   36.390    5.8136
   36.420    5.5292
   36.450    6.0032
   36.480    5.7083
   36.510    6.0874
   36.540    5.9821
   36.570    5.5608
   36.600    5.7399
   36.630    5.9610
   36.660    5.9084
   36.690    5.9084
   36.720    6.0242
   36.750    5.5503
   36.780    5.8978
   36.810    5.6451
   36.840    5.7715
   36.870    5.5503
   36.900    5.9400
   36.930    5.6977
   36.960    5.7504
   36.990    5.8031
   37.020    5.2133
   37.050    5.9610
   37.080    6.2770
   37.110    5.9505
   37.140    5.8768
   37.170    5.6661
   37.200    5.6240
   37.230    5.8136
   37.260    5.3818
   37.290    5.8978
   37.320    5.8031
   37.350    5.9610
   37.380    5.5503
   37.410    5.7715
   37.440    6.0769
   37.470    5.6767
   37.500    5.6661
   37.530    5.8347
   37.560    5.5608
   37.590    5.9084
   37.620    6.0979
   37.650    5.7399
   37.680    6.0137
   37.710    5.6661
   37.740    5.8241
   37.770    6.0874
   37.800    5.8873
   37.830    5.7820
   37.860    5.9189
   37.890    5.7925
   37.920    5.4450
   37.950    5.8873
   37.980    5.9610
   38.010    5.9505
   38.040    5.7609
   38.070    5.6661
   38.100    5.5187
   38.130    5.4134
   38.160    5.9400
   38.190    5.9400
   38.220    5.6556
   38.250    5.8347
   38.280    5.5398
   38.310    6.0664
   38.340    5.9084
   38.370    5.5924
   38.400    5.4555
   38.430    5.9189
   38.460    5.8768
   38.490    5.6029
   38.520    6.2454
   38.550    6.0664
   38.580    5.8347
   38.610    6.0137
   38.640    5.9926
   38.670    5.7609
   38.700    5.7609
   38.730    5.8662
   38.760    5.4871
   38.790    5.6977
   38.820    5.6661
   38.850    5.5503
   38.880    5.5819
   38.910    6.0137
   38.940    5.3607
   38.970    5.5924
   39.000    5.8241
   39.030    5.9294
   39.060    5.7925
   39.090    5.9400
   39.120    6.0032
   39.150    5.7399
   39.180    5.2765
   39.210    5.7293
   39.240    5.7504
   39.270    5.6977
   39.300    5.5819
   39.330    5.8768
   39.360    5.9189
   39.390    5.5503
   39.420    5.8136
   39.450    5.6767
   39.480    5.4976
   39.510    6.1717
   39.540    5.5819
   39.570    5.6135
   39.600    5.5292
   39.630    5.6661
   39.660    5.1501
   39.690    5.5608
   39.720    5.6977
   39.750    5.5398
   39.780    5.5292
   39.810    5.6872
   39.840    5.4134
   39.870    5.4134
   39.900    5.4134
   39.930    5.4976
   39.960    5.8031
   39.990    5.5398