File: data/PXRD/PXRD_KE-280_Cu-Ka1_film-3mm_3s-deg.xyd
    1.500   20.4494
    1.530   20.2738
    1.560   18.8696
    1.590   17.6760
    1.620   17.1494
    1.650   17.6058
    1.680   16.5350
    1.710   16.5175
    1.740   15.6223
    1.770   15.6925
    1.800   14.4286
    1.830   13.8494
    1.860   14.4462
    1.890   14.0249
    1.920   12.9191
    1.950   12.3398
    1.980   12.6207
    2.010   12.7611
    2.040   12.0590
    2.070   11.7781
    2.100   11.8483
    2.130   11.9537
    2.160   11.3920
    2.190   11.3920
    2.220   11.2340
    2.250   10.9531
    2.280   11.1462
    2.310   10.4441
    2.340   10.7776
    2.370   10.7074
    2.400   10.3739
    2.430   10.3212
    2.460   10.0755
    2.490   10.1632
    2.520    9.8648
    2.550    9.7420
    2.580    9.3734
    2.610    9.8824
    2.640   10.1457
    2.670    9.6893
    2.700    9.4436
    2.730    9.0925
    2.760    8.8468
    2.790    8.7941
    2.820    8.6712
    2.850    8.8994
    2.880    9.3558
    2.910    9.0574
    2.940    8.8292
    2.970    8.7063
    3.000    8.2149
    3.030    8.5659
    3.060    8.1973
    3.090    8.4957
    3.120    8.4606
    3.150    8.3904
    3.180    7.9691
    3.210    8.5659
    3.240    7.9516
    3.270    8.3026
    3.300    8.7765
    3.330    7.7409
    3.360    7.7409
    3.390    8.6537
    3.420    8.3202
    3.450    8.3377
    3.480    8.5659
    3.510    7.4601
    3.540    7.7936
    3.570    8.6361
    3.600    7.8638
    3.630    8.5659
    3.660    7.9340
    3.690    8.3904
    3.720    8.5835
    3.750    8.0218
    3.780    8.4255
    3.810    8.5835
    3.840    8.4079
    3.870    8.1973
    3.900    7.5303
    3.930    8.4606
    3.960    7.6883
    3.990    8.0744
    4.020    7.8989
    4.050    8.2675
    4.080    7.7058
    4.110    8.1973
    4.140    7.6883
    4.170    8.6537
    4.200    7.7234
    4.230    8.0393
    4.260    8.2324
    4.290    7.9516
    4.320    7.8462
    4.350    7.9164
    4.380    8.1622
    4.410    8.0042
    4.440    8.7239
    4.470    8.1797
    4.500    7.9340
    4.530    8.5835
    4.560    8.0218
    4.590    8.0744
    4.620    8.5484
    4.650    7.7058
    4.680    8.3904
    4.710    9.0750
    4.740    8.3202
    4.770    8.3904
    4.800    8.5133
    4.830    8.7941
    4.860    8.6361
    4.890    8.2149
    4.920    8.5659
    4.950    8.4957
    4.980    8.7941
    5.010    8.5835
    5.040    9.4085
    5.070    9.3558
    5.100    9.6718
    5.130    8.6712
    5.160    9.6367
    5.190    9.7420
    5.220    9.9877
    5.250   10.4090
    5.280   10.2335
    5.310   11.3393
    5.340   10.5670
    5.370   10.2861
    5.400   10.1106
    5.430   11.3042
    5.460   11.2515
    5.490   10.9356
    5.520   10.8478
    5.550   10.9356
    5.580   10.3388
    5.610   10.3388
    5.640   10.6723
    5.670   10.2510
    5.700   10.6021
    5.730   10.2686
    5.760    9.5664
    5.790   10.1983
    5.820    9.9175
    5.850    9.0925
    5.880    9.7069
    5.910    8.7414
    5.940    8.9872
    5.970    8.5133
    6.000    9.0223
    6.030    8.4255
    6.060    8.5659
    6.090    8.1271
    6.120    7.8813
    6.150    7.9164
    6.180    7.7234
    6.210    7.8989
    6.240    7.6883
    6.270    7.1792
    6.300    7.8462
    6.330    7.9867
    6.360    8.3202
    6.390    7.8287
    6.420    7.3372
    6.450    7.7058
    6.480    7.4250
    6.510    7.6356
    6.540    7.2494
    6.570    7.3899
    6.600    7.2143
    6.630    7.1090
    6.660    6.4771
    6.690    6.9686
    6.720    7.2845
    6.750    6.9861
    6.780    6.6351
    6.810    7.0212
    6.840    6.9510
    6.870    6.5298
    6.900    6.3893
    6.930    6.8106
    6.960    7.2494
    6.990    6.5122
    7.020    6.4771
    7.050    6.8457
    7.080    6.6175
    7.110    6.2840
    7.140    6.5122
    7.170    6.4595
    7.200    6.3893
    7.230    6.1611
    7.260    6.5473
    7.290    6.3893
    7.320    6.3191
    7.350    6.0383
    7.380    6.2665
    7.410    6.1085
    7.440    5.9154
    7.470    6.7755
    7.500    6.3367
    7.530    5.7223
    7.560    6.3893
    7.590    6.3542
    7.620    5.3361
    7.650    6.0383
    7.680    6.1085
    7.710    6.0032
    7.740    5.8627
    7.770    5.9154
    7.800    5.8978
    7.830    5.2835
    7.860    5.9329
    7.890    5.7925
    7.920    5.7925
    7.950    5.3361
    7.980    5.4239
    8.010    5.4766
    8.040    5.5994
    8.070    5.5117
    8.100    5.5468
    8.130    5.0904
    8.160    5.7925
    8.190    5.6345
    8.220    4.9149
    8.250    5.3010
    8.280    5.4766
    8.310    5.3712
    8.340    5.8101
    8.370    5.3888
    8.400    5.0728
    8.430    5.5117
    8.460    5.3712
    8.490    4.7393
    8.520    4.8095
    8.550    5.4766
    8.580    5.3186
    8.610    5.4941
    8.640    5.0728
    8.670    5.0553
    8.700    5.1255
    8.730    5.7574
    8.760    4.7393
    8.790    5.2133
    8.820    4.8622
    8.850    5.2835
    8.880    5.5643
    8.910    5.1957
    8.940    4.9851
    8.970    5.0728
    9.000    5.2133
    9.030    5.1606
    9.060    4.9324
    9.090    5.1782
    9.120    5.4064
    9.150    5.2659
    9.180    4.9851
    9.210    4.4234
    9.240    5.2133
    9.270    5.4941
    9.300    4.9500
    9.330    4.7218
    9.360    4.9149
    9.390    5.3010
    9.420    4.9675
    9.450    4.6867
    9.480    5.1255
    9.510    5.1957
    9.540    5.1957
    9.570    4.9324
    9.600    5.0553
    9.630    5.3712
    9.660    5.1606
    9.690    5.0553
    9.720    4.7920
    9.750    5.0202
    9.780    5.0202
    9.810    5.1957
    9.840    5.1957
    9.870    5.1606
    9.900    4.6867
    9.930    5.1431
    9.960    4.9675
    9.990    5.0026
   10.020    5.0026
   10.050    4.7569
   10.080    5.0728
   10.110    4.7218
   10.140    5.3361
   10.170    4.9675
   10.200    5.3361
   10.230    4.8447
   10.260    4.9149
   10.290    5.6872
   10.320    5.4941
   10.350    5.2133
   10.380    4.8271
   10.410    4.8271
   10.440    5.2659
   10.470    5.3712
   10.500    5.0553
   10.530    4.8973
   10.560    5.1606
   10.590    5.7925
   10.620    4.6165
   10.650    5.5117
   10.680    5.1255
   10.710    5.0026
   10.740    4.9851
   10.770    5.3537
   10.800    5.2659
   10.830    5.1080
   10.860    5.6872
   10.890    5.3010
   10.920    5.1782
   10.950    5.1606
   10.980    5.0377
   11.010    5.0728
   11.040    5.3186
   11.070    5.3010
   11.100    5.6521
   11.130    5.4239
   11.160    4.7042
   11.190    5.4239
   11.220    4.7569
   11.250    5.0553
   11.280    5.2308
   11.310    5.2659
   11.340    4.9149
   11.370    5.4941
   11.400    5.1957
   11.430    5.0728
   11.460    5.4239
   11.490    5.1255
   11.520    5.1957
   11.550    5.1606
   11.580    5.1255
   11.610    5.1782
   11.640    5.4415
   11.670    5.2659
   11.700    4.7218
   11.730    5.0904
   11.760    5.4415
   11.790    5.0553
   11.820    5.4590
   11.850    5.1957
   11.880    4.9500
   11.910    5.0904
   11.940    5.0377
   11.970    5.1782
   12.000    5.5117
   12.030    5.1431
   12.060    5.0904
   12.090    5.0026
   12.120    5.1431
   12.150    5.0728
   12.180    5.3888
   12.210    5.2659
   12.240    4.9500
   12.270    5.2484
   12.300    4.9324
   12.330    4.8798
   12.360    5.1431
   12.390    4.8622
   12.420    4.9675
   12.450    5.2133
   12.480    4.8095
   12.510    5.1957
   12.540    4.7569
   12.570    4.5814
   12.600    5.5994
   12.630    5.3010
   12.660    5.0728
   12.690    4.5287
   12.720    4.9675
   12.750    4.7393
   12.780    4.7744
   12.810    4.6516
   12.840    4.7042
   12.870    5.0728
   12.900    4.5638
   12.930    5.0553
   12.960    4.7393
   12.990    5.1080
   13.020    4.8973
   13.050    5.0553
   13.080    4.7920
   13.110    4.7393
   13.140    4.5638
   13.170    4.6867
   13.200    4.6867
   13.230    4.5287
   13.260    5.1255
   13.290    4.6165
   13.320    4.5989
   13.350    4.7218
   13.380    4.6340
   13.410    5.0728
   13.440    5.0026
   13.470    4.7393
   13.500    4.4058
   13.530    5.0026
   13.560    5.2484
   13.590    5.0377
   13.620    5.1957
   13.650    4.4409
   13.680    4.7744
   13.710    4.8798
   13.740    5.1606
   13.770    4.6340
   13.800    5.2835
   13.830    5.1782
   13.860    5.3537
   13.890    4.5111
   13.920    4.7569
   13.950    5.6170
   13.980    5.2659
   14.010    5.1080
   14.040    5.1431
   14.070    5.0377
   14.100    5.4064
   14.130    4.9675
   14.160    5.1255
   14.190    5.1606
   14.220    5.0202
   14.250    5.2484
   14.280    5.0904
   14.310    5.4064
   14.340    5.0553
   14.370    5.6697
   14.400    5.3361
   14.430    5.5819
   14.460    5.2133
   14.490    5.2835
   14.520    5.6345
   14.550    5.3712
   14.580    5.4239
   14.610    5.3888
   14.640    5.2308
   14.670    4.9149
   14.700    5.0202
   14.730    4.7569
   14.760    5.2484
   14.790    5.0377
   14.820    5.2484
   14.850    4.8447
   14.880    5.3888
   14.910    5.1606
   14.940    4.9500
   14.970    4.4585
   15.000    4.8973
   15.030    4.7393
   15.060    4.7920
   15.090    4.8622
   15.120    4.9324
   15.150    5.0904
   15.180    4.8447
   15.210    4.9500
   15.240    4.8447
   15.270    5.0553
   15.300    4.7744
   15.330    5.2835
   15.360    4.7920
   15.390    4.4936
   15.420    5.1255
   15.450    4.3356
   15.480    4.8271
   15.510    4.9500
   15.540    4.7042
   15.570    4.8973
   15.600    4.6340
   15.630    4.9851
   15.660    4.9149
   15.690    4.7744
   15.720    4.8447
   15.750    4.8447
   15.780    4.8095
   15.810    5.0377
   15.840    4.6691
   15.870    4.8622
   15.900    4.9324
   15.930    4.8271
   15.960    4.6516
   15.990    4.8095
   16.020    5.0202
   16.050    4.8447
   16.080    4.7042
   16.110    4.7218
   16.140    4.8622
   16.170    4.4936
   16.200    4.4936
   16.230    5.2133
   16.260    4.6691
   16.290    4.8447
   16.320    4.9324
   16.350    4.7393
   16.380    4.7920
   16.410    5.0026
   16.440    4.5989
   16.470    4.8798
   16.500    4.7218
   16.530    4.9324
   16.560    4.2830
   16.590    4.5287
   16.620    5.0202
   16.650    4.5638
   16.680    5.0553
   16.710    4.4585
   16.740    4.8622
   16.770    4.3707
   16.800    4.8095
   16.830    4.7569
   16.860    4.7218
   16.890    4.9500
   16.920    5.0377
   16.950    4.8095
   16.980    4.6165
   17.010    5.0553
   17.040    4.4585
   17.070    4.8447
   17.100    4.7744
   17.130    4.6516
   17.160    4.3532
   17.190    4.5287
   17.220    4.6867
   17.250    4.5989
   17.280    4.6165
   17.310    4.6867
   17.340    4.7042
   17.370    4.7042
   17.400    5.2308
   17.430    4.7393
   17.460    4.5638
   17.490    5.0202
   17.520    5.0904
   17.550    4.5287
   17.580    4.7393
   17.610    4.9675
   17.640    4.5463
   17.670    4.8095
   17.700    4.8271
   17.730    4.7920
   17.760    4.9324
   17.790    4.5111
   17.820    4.7393
   17.850    4.7920
   17.880    4.3356
   17.910    4.2478
   17.940    4.5287
   17.970    4.5111
   18.000    4.7218
   18.030    4.8973
   18.060    4.4234
   18.090    4.6867
   18.120    4.6516
   18.150    4.7042
   18.180    4.6340
   18.210    4.7042
   18.240    4.5814
   18.270    4.7744
   18.300    4.7393
   18.330    4.6691
   18.360    4.4234
   18.390    4.6691
   18.420    4.4760
   18.450    4.5463
   18.480    4.5814
   18.510    4.3883
   18.540    4.7042
   18.570    4.6165
   18.600    4.8622
   18.630    4.6165
   18.660    4.4585
   18.690    5.0904
   18.720    5.0728
   18.750    4.5638
   18.780    4.8095
   18.810    4.0899
   18.840    4.8798
   18.870    4.4936
   18.900    4.7218
   18.930    4.0372
   18.960    4.9324
   18.990    4.8798
   19.020    5.0728
   19.050    4.8447
   19.080    4.7569
   19.110    4.2303
   19.140    4.6340
   19.170    4.5638
   19.200    4.1601
   19.230    4.8622
   19.260    4.4409
   19.290    4.5287
   19.320    4.4585
   19.350    4.3532
   19.380    4.5638
   19.410    4.2654
   19.440    4.1074
   19.470    4.7920
   19.500    4.5989
   19.530    4.4936
   19.560    4.0372
   19.590    4.6165
   19.620    4.1250
   19.650    4.5287
   19.680    4.4585
   19.710    4.0548
   19.740    4.4409
   19.770    4.4234
   19.800    4.2830
   19.830    4.1250
   19.860    4.5989
   19.890    4.3356
   19.920    4.1601
   19.950    4.2654
   19.980    4.2127
   20.010    4.9500
   20.040    4.4409
   20.070    4.3181
   20.100    4.3005
   20.130    4.3181
   20.160    4.3883
   20.190    4.2478
   20.220    4.3707
   20.250    3.8266
   20.280    3.9670
   20.310    4.3532
   20.340    4.5814
   20.370    4.3883
   20.400    4.4234
   20.430    4.1074
   20.460    4.2478
   20.490    4.2830
   20.520    4.3707
   20.550    4.2127
   20.580    4.2478
   20.610    3.8792
   20.640    3.9846
   20.670    3.8792
   20.700    4.1074
   20.730    4.0021
   20.760    4.3707
   20.790    4.4936
   20.820    4.8095
   20.850    3.9670
   20.880    3.9143
   20.910    4.1074
   20.940    4.1601
   20.970    4.3356
   21.000    4.3532
   21.030    3.9494
   21.060    4.0372
   21.090    4.4585
   21.120    4.3356
   21.150    4.5111
   21.180    4.4585
   21.210    4.4058
   21.240    4.2127
   21.270    4.1601
   21.300    4.4058
   21.330    4.2303
   21.360    3.7915
   21.390    4.0899
   21.420    4.5463
   21.450    3.9846
   21.480    3.7915
   21.510    3.9846
   21.540    3.4931
   21.570    4.0021
   21.600    4.1425
   21.630    4.0197
   21.660    4.2127
   21.690    4.0021
   21.720    4.4058
   21.750    4.2830
   21.780    3.7739
   21.810    4.1952
   21.840    4.3356
   21.870    4.4234
   21.900    4.2303
   21.930    4.3707
   21.960    4.2478
   21.990    4.1776
   22.020    4.3181
   22.050    4.1601
   22.080    4.0197
   22.110    4.1074
   22.140    4.0372
   22.170    3.6510
   22.200    4.0899
   22.230    3.6686
   22.260    3.7037
   22.290    4.0372
   22.320    3.9143
   22.350    4.1601
   22.380    3.9143
   22.410    4.1074
   22.440    3.7037
   22.470    3.7915
   22.500    4.2127
   22.530    4.0197
   22.560    4.0372
   22.590    3.9670
   22.620    4.1425
   22.650    3.7564
   22.680    3.8441
   22.710    4.0548
   22.740    4.1250
   22.770    3.8441
   22.800    3.7564
   22.830    3.6862
   22.860    4.0372
   22.890    4.0372
   22.920    3.7739
   22.950    3.8617
   22.980    3.6510
   23.010    3.8090
   23.040    3.9670
   23.070    3.5984
   23.100    4.1601
   23.130    3.9670
   23.160    3.7915
   23.190    4.0548
   23.220    3.8792
   23.250    3.7388
   23.280    4.1425
   23.310    3.7564
   23.340    3.8441
   23.370    3.5808
   23.400    3.5808
   23.430    4.3532
   23.460    4.0372
   23.490    3.4229
   23.520    3.9143
   23.550    3.4755
   23.580    3.5984
   23.610    3.7739
   23.640    3.6510
   23.670    3.8968
   23.700    3.5808
   23.730    3.3526
   23.760    3.8441
   23.790    3.7739
   23.820    3.8266
   23.850    3.5984
   23.880    3.3000
   23.910    3.6335
   23.940    4.0548
   23.970    3.7037
   24.000    3.6335
   24.030    3.4404
   24.060    3.9319
   24.090    3.9143
   24.120    3.8441
   24.150    3.7037
   24.180    3.5633
   24.210    3.8968
   24.240    3.7739
   24.270    3.9494
   24.300    3.5457
   24.330    3.3000
   24.360    3.7915
   24.390    3.4580
   24.420    3.7739
   24.450    3.4931
   24.480    3.7388
   24.510    3.6686
   24.540    3.4755
   24.570    3.7739
   24.600    3.4931
   24.630    3.7915
   24.660    3.6510
   24.690    3.4404
   24.720    3.4229
   24.750    3.4755
   24.780    3.8266
   24.810    3.3000
   24.840    3.2473
   24.870    3.5282
   24.900    3.5457
   24.930    3.6510
   24.960    3.6159
   24.990    3.2649
   25.020    3.4229
   25.050    3.3000
   25.080    3.3175
   25.110    3.3175
   25.140    3.6862
   25.170    4.0372
   25.200    3.3526
   25.230    3.6335
   25.260    3.5984
   25.290    3.2649
   25.320    3.1947
   25.350    3.4580
   25.380    3.5282
   25.410    3.4229
   25.440    3.5808
   25.470    3.6335
   25.500    3.4229
   25.530    3.6686
   25.560    3.6159
   25.590    3.4404
   25.620    3.5808
   25.650    3.7213
   25.680    3.3351
   25.710    3.6686
   25.740    3.5633
   25.770    3.4931
   25.800    3.7739
   25.830    3.6862
   25.860    3.5282
   25.890    3.4404
   25.920    3.2298
   25.950    3.4229
   25.980    3.1771
   26.010    3.5106
   26.040    3.5457
   26.070    3.6862
   26.100    3.2824
   26.130    3.0367
   26.160    3.2824
   26.190    3.4404
   26.220    3.2298
   26.250    3.4053
   26.280    3.3175
   26.310    3.5984
   26.340    3.2122
   26.370    3.0718
   26.400    3.3000
   26.430    3.2824
   26.460    3.2298
   26.490    3.4053
   26.520    3.4755
   26.550    3.0893
   26.580    3.1596
   26.610    3.6862
   26.640    2.9840
   26.670    3.4580
   26.700    3.2122
   26.730    3.2824
   26.760    3.0893
   26.790    2.8260
   26.820    3.2649
   26.850    3.1596
   26.880    2.9138
   26.910    3.2649
   26.940    3.4580
   26.970    3.1420
   27.000    3.3351
   27.030    3.1069
   27.060    3.0718
   27.090    2.9665
   27.120    3.0893
   27.150    3.2122
   27.180    3.2298
   27.210    3.2122
   27.240    3.1771
   27.270    3.1420
   27.300    3.0542
   27.330    3.0718
   27.360    2.8787
   27.390    3.5808
   27.420    3.1420
   27.450    3.1596
   27.480    3.2649
   27.510    2.7383
   27.540    2.9489
   27.570    2.7207
   27.600    3.0542
   27.630    2.8085
   27.660    2.8787
   27.690    3.0367
   27.720    3.2473
   27.750    3.3877
   27.780    2.8787
   27.810    2.9665
   27.840    2.8260
   27.870    2.9314
   27.900    2.9489
   27.930    2.7207
   27.960    3.1420
   27.990    3.0191
   28.020    2.9489
   28.050    2.7032
   28.080    2.9138
   28.110    2.8963
   28.140    3.0016
   28.170    2.6681
   28.200    2.9314
   28.230    3.0016
   28.260    2.6681
   28.290    2.8436
   28.320    2.7032
   28.350    3.1420
   28.380    2.6681
   28.410    3.1596
   28.440    2.9665
   28.470    2.6856
   28.500    2.6681
   28.530    2.7383
   28.560    3.2473
   28.590    3.3000
   28.620    3.0893
   28.650    2.8436
   28.680    2.5628
   28.710    2.7032
   28.740    3.0542
   28.770    2.7383
   28.800    2.7207
   28.830    2.9489
   28.860    2.6856
   28.890    2.9665
   28.920    3.5984
   28.950    3.0893
   28.980    3.0016
   29.010    3.1771
   29.040    2.9489
   29.070    2.6154
   29.100    2.8436
   29.130    2.9489
   29.160    2.7734
   29.190    2.9138
   29.220    2.8963
   29.250    2.9840
   29.280    2.7909
   29.310    2.8436
   29.340    2.7558
   29.370    2.7032
   29.400    2.6505
   29.430    2.9314
   29.460    2.5628
   29.490    2.8260
   29.520    2.5452
   29.550    2.9665
   29.580    2.4574
   29.610    2.5803
   29.640    2.3521
   29.670    2.5101
   29.700    2.7734
   29.730    2.5452
   29.760    2.5101
   29.790    2.6154
   29.820    2.3697
   29.850    2.7032
   29.880    2.2643
   29.910    2.5452
   29.940    2.7909
   29.970    2.2643
   30.000    2.6154
   30.030    2.4223
   30.060    2.5276
   30.090    2.4750
   30.120    2.4574
   30.150    2.5276
   30.180    2.5276
   30.210    2.4574
   30.240    2.4048
   30.270    2.2643
   30.300    2.6154
   30.330    2.6330
   30.360    2.3521
   30.390    2.4574
   30.420    2.6330
   30.450    2.5101
   30.480    2.4925
   30.510    2.7032
   30.540    2.6856
   30.570    2.4574
   30.600    2.3346
   30.630    2.5803
   30.660    2.2643
   30.690    2.4925
   30.720    2.1941
   30.750    2.4750
   30.780    2.6856
   30.810    2.5452
   30.840    2.3346
   30.870    2.6154
   30.900    2.4048
   30.930    2.4223
   30.960    2.1064
   30.990    2.2468
   31.020    2.1941
   31.050    2.0362
   31.080    2.3521
   31.110    2.1766
   31.140    2.3346
   31.170    2.2468
   31.200    2.4223
   31.230    2.0888
   31.260    2.5101
   31.290    2.1415
   31.320    2.2995
   31.350    2.2643
   31.380    2.1415
   31.410    2.2819
   31.440    2.3697
   31.470    2.5101
   31.500    2.1766
   31.530    2.0537
   31.560    2.3170
   31.590    2.5101
   31.620    2.3872
   31.650    2.1941
   31.680    1.9659
   31.710    2.1239
   31.740    2.1590
   31.770    2.3170
   31.800    2.4574
   31.830    2.1415
   31.860    2.1766
   31.890    2.1415
   31.920    2.1415
   31.950    2.4048
   31.980    2.1766
   32.010    2.2117
   32.040    2.8612
   32.070    2.6681
   32.100    2.7207
   32.130    2.2995
   32.160    2.4574
   32.190    2.3346
   32.220    2.2468
   32.250    1.9484
   32.280    1.9133
   32.310    2.3346
   32.340    2.0537
   32.370    2.2995
   32.400    2.4048
   32.430    2.0888
   32.460    2.3170
   32.490    1.9835
   32.520    2.4925
   32.550    2.4399
   32.580    2.4048
   32.610    2.0888
   32.640    1.7904
   32.670    2.1941
   32.700    2.1415
   32.730    2.0186
   32.760    2.1941
   32.790    2.4574
   32.820    2.1239
   32.850    2.1590
   32.880    2.1415
   32.910    1.9308
   32.940    1.9484
   32.970    2.0362
   33.000    2.1766
   33.030    1.8957
   33.060    2.2819
   33.090    2.3170
   33.120    2.2292
   33.150    2.0186
   33.180    1.8782
   33.210    2.2117
   33.240    2.0713
   33.270    2.4048
   33.300    2.1590
   33.330    2.3872
   33.360    2.3346
   33.390    2.0537
   33.420    2.1064
   33.450    2.1239
   33.480    1.9308
   33.510    2.0537
   33.540    2.2995
   33.570    1.9484
   33.600    1.9308
   33.630    2.0713
   33.660    1.9484
   33.690    2.0011
   33.720    1.8957
   33.750    2.2643
   33.780    2.0537
   33.810    2.0888
   33.840    1.8782
   33.870    1.8080
   33.900    1.9835
   33.930    1.7729
   33.960    1.7553
   33.990    1.9133
   34.020    1.9659
   34.050    2.0888
   34.080    1.9659
   34.110    2.1415
   34.140    1.9835
   34.170    2.4925
   34.200    2.1941
   34.230    2.1590
   34.260    2.1064
   34.290    1.8957
   34.320    1.7553
   34.350    2.0011
   34.380    2.0713
   34.410    2.0362
   34.440    1.8606
   34.470    2.0362
   34.500    1.9308
   34.530    2.1415
   34.560    1.9484
   34.590    2.1590
   34.620    2.1239
   34.650    2.0713
   34.680    2.0537
   34.710    1.8957
   34.740    1.7378
   34.770    1.9133
   34.800    1.8431
   34.830    1.9133
   34.860    1.9133
   34.890    1.7378
   34.920    1.8255
   34.950    2.2117
   34.980    1.9484
   35.010    1.8606
   35.040    2.0888
   35.070    1.8255
   35.100    1.8255
   35.130    2.0537
   35.160    2.0537
   35.190    1.8957
   35.220    2.2643
   35.250    1.7202
   35.280    1.7553
   35.310    2.1941
   35.340    2.1239
   35.370    1.9835
   35.400    2.0362
   35.430    1.7553
   35.460    2.0713
   35.490    2.1590
   35.520    2.0186
   35.550    1.9308
   35.580    1.8957
   35.610    2.1941
   35.640    1.7027
   35.670    2.1415
   35.700    2.1064
   35.730    2.0011
   35.760    1.9835
   35.790    1.7202
   35.820    1.8957
   35.850    2.0888
   35.880    2.1064
   35.910    1.8606
   35.940    2.0888
   35.970    1.9308
   36.000    2.0362
   36.030    1.8080
   36.060    2.0186
   36.090    1.7729
   36.120    1.7904
   36.150    2.0713
   36.180    1.9484
   36.210    1.7729
   36.240    1.9659
   36.270    1.8606
   36.300    1.8606
   36.330    1.9484
   36.360    1.8782
   36.390    1.5622
   36.420    1.9133
   36.450    2.1590
   36.480    1.8606
   36.510    1.8431
   36.540    2.0888
   36.570    2.0011
   36.600    2.1064
   36.630    1.7729
   36.660    1.8255
   36.690    1.6851
   36.720    2.0186
   36.750    1.8606
   36.780    1.7729
   36.810    1.6500
   36.840    1.8606
   36.870    1.7904
   36.900    1.6675
   36.930    1.9835
   36.960    1.8606
   36.990    1.7904
   37.020    2.0186
   37.050    1.6675
   37.080    2.0186
   37.110    2.1415
   37.140    1.7027
   37.170    1.7729
   37.200    2.0362
   37.230    1.5973
   37.260    1.7904
   37.290    1.8957
   37.320    1.9835
   37.350    1.7553
   37.380    1.8431
   37.410    1.9659
   37.440    1.8957
   37.470    1.6851
   37.500    1.8606
   37.530    1.7904
   37.560    1.7553
   37.590    1.8606
   37.620    1.8957
   37.650    1.9659
   37.680    1.9835
   37.710    1.6149
   37.740    1.6675
   37.770    1.7729
   37.800    1.5798
   37.830    1.7729
   37.860    1.8080
   37.890    1.5973
   37.920    2.1064
   37.950    1.6851
   37.980    1.7553
   38.010    1.7027
   38.040    1.7027
   38.070    1.8431
   38.100    1.8255
   38.130    1.8255
   38.160    1.7729
   38.190    1.6851
   38.220    1.6500
   38.250    2.1590
   38.280    1.7378
   38.310    1.9835
   38.340    1.7027
   38.370    1.9133
   38.400    1.8606
   38.430    1.9133
   38.460    2.1064
   38.490    1.8431
   38.520    2.1064
   38.550    1.8957
   38.580    1.8782
   38.610    1.5973
   38.640    1.7729
   38.670    1.7553
   38.700    2.0186
   38.730    1.6675
   38.760    2.0713
   38.790    1.7027
   38.820    1.8080
   38.850    1.8606
   38.880    1.7378
   38.910    1.8606
   38.940    1.5973
   38.970    1.6324
   39.000    1.7553
   39.030    1.8255
   39.060    1.5271
   39.090    1.7553
   39.120    1.5798
   39.150    1.5973
   39.180    1.5622
   39.210    2.0713
   39.240    2.0011
   39.270    1.7553
   39.300    1.6324
   39.330    1.6500
   39.360    1.6851
   39.390    1.3165
   39.420    1.8431
   39.450    1.7202
   39.480    1.8782
   39.510    1.8255
   39.540    1.6324
   39.570    1.6851
   39.600    1.7378
   39.630    1.6324
   39.660    1.7027
   39.690    1.7904
   39.720    1.7553
   39.750    1.9308
   39.780    1.8957
   39.810    1.7904
   39.840    1.6324
   39.870    1.8431
   39.900    1.6500
   39.930    1.7027
   39.960    1.8080
   39.990    1.7378