File: data/PXRD/PXRD_KE-073_Cu-Ka1_capillary-1mm_5s-deg.xyd
    1.500   23.3702
    1.530   23.3175
    1.560   23.1069
    1.590   22.6330
    1.620   21.6114
    1.650   21.8220
    1.680   20.7688
    1.710   20.9689
    1.740   21.1374
    1.770   20.4318
    1.800   20.6951
    1.830   19.6946
    1.860   19.8210
    1.890   19.2312
    1.920   19.2628
    1.950   19.5998
    1.980   19.3786
    2.010   18.8626
    2.040   18.6940
    2.070   18.3360
    2.100   19.0943
    2.130   18.1569
    2.160   17.7567
    2.190   18.7678
    2.220   18.7256
    2.250   18.2938
    2.280   17.5777
    2.310   18.1148
    2.340   17.9884
    2.370   17.7357
    2.400   17.4092
    2.430   18.4202
    2.460   18.3465
    2.490   17.9779
    2.520   18.0937
    2.550   17.3354
    2.580   18.2201
    2.610   17.9989
    2.640   19.3997
    2.670   18.8310
    2.700   19.3892
    2.730   19.8736
    2.760   19.8631
    2.790   20.5477
    2.820   20.9268
    2.850   21.4639
    2.880   21.1480
    2.910   22.2854
    2.940   22.7488
    2.970   22.8857
    3.000   23.9073
    3.030   25.0658
    3.060   25.8347
    3.090   25.7083
    3.120   27.7409
    3.150   28.6151
    3.180   29.1522
    3.210   31.2691
    3.240   32.5856
    3.270   34.5024
    3.300   36.3770
    3.330   38.6414
    3.360   41.8852
    3.390   44.8236
    3.420   47.2775
    3.450   49.4892
    3.480   52.4487
    3.510   53.3123
    3.540   54.2496
    3.570   57.3354
    3.600   60.5793
    3.630   64.1074
    3.660   72.1116
    3.690   78.1675
    3.720   88.4466
    3.750  100.8531
    3.780  117.0406
    3.810  144.8973
    3.840  187.6251
    3.870  217.1248
    3.900  187.1827
    3.930   89.0258
    3.960   30.4055
    3.990   19.3681
    4.020   17.0721
    4.050   15.3344
    4.080   14.1127
    4.110   12.7751
    4.140   12.0379
    4.170   11.5219
    4.200   11.0690
    4.230   11.0374
    4.260   10.6056
    4.290   10.3423
    4.320   10.1948
    4.350    9.6682
    4.380   10.0895
    4.410    9.6998
    4.440    9.3102
    4.470    9.4576
    4.500    9.8052
    4.530    9.5629
    4.560    9.6682
    4.590    8.8573
    4.620    9.5208
    4.650    9.5208
    4.680    9.8473
    4.710    9.6788
    4.740    9.4997
    4.770   10.1843
    4.800   10.5951
    4.830   10.3633
    4.860   10.8373
    4.890   10.9847
    4.920   10.9426
    4.950   11.6693
    4.980   11.8799
    5.010   12.2696
    5.040   12.7857
    5.070   12.9647
    5.100   14.1127
    5.130   14.4392
    5.160   15.7135
    5.190   16.9458
    5.220   17.9252
    5.250   18.1569
    5.280   20.6530
    5.310   22.6856
    5.340   24.8973
    5.370   28.9626
    5.400   33.0911
    5.430   40.1790
    5.460   51.3849
    5.490   60.5477
    5.520   53.1016
    5.550   29.7314
    5.580   12.7330
    5.610    9.1206
    5.640    8.7941
    5.670    7.9937
    5.700    7.8252
    5.730    8.0358
    5.760    8.4255
    5.790    7.2143
    5.820    7.2775
    5.850    7.6567
    5.880    7.2565
    5.910    7.1617
    5.940    7.4987
    5.970    8.0569
    6.000    7.4039
    6.030    7.4250
    6.060    7.6040
    6.090    7.4776
    6.120    7.5829
    6.150    7.2038
    6.180    7.2354
    6.210    7.1406
    6.240    7.7725
    6.270    7.7304
    6.300    7.2986
    6.330    8.0463
    6.360    8.2675
    6.390    8.2675
    6.420    8.7836
    6.450    8.8678
    6.480    9.0258
    6.510    9.2259
    6.540    9.8157
    6.570    9.7525
    6.600   10.8373
    6.630   12.1011
    6.660   13.1227
    6.690   15.1027
    6.720   18.1569
    6.750   18.2306
    6.780   14.8815
    6.810   10.7004
    6.840    8.7098
    6.870    8.0042
    6.900    7.8041
    6.930    7.8146
    6.960    8.0569
    6.990    7.8778
    7.020    7.7514
    7.050    7.4460
    7.080    7.3828
    7.110    7.3302
    7.140    7.1301
    7.170    7.2459
    7.200    6.8562
    7.230    7.3723
    7.260    7.5829
    7.290    7.2880
    7.320    7.5197
    7.350    7.4882
    7.380    7.5619
    7.410    7.8673
    7.440    7.6040
    7.470    8.0674
    7.500    7.9305
    7.530    9.0995
    7.560    8.8889
    7.590    8.8784
    7.620   10.0158
    7.650   10.6688
    7.680   10.9215
    7.710   12.9647
    7.740   15.0500
    7.770   17.1775
    7.800   18.1675
    7.830   14.8183
    7.860   10.7214
    7.890    7.7093
    7.920    7.3723
    7.950    7.3302
    7.980    7.4355
    8.010    6.9405
    8.040    7.2038
    8.070    6.9300
    8.100    7.3512
    8.130    7.0037
    8.160    6.9721
    8.190    6.8036
    8.220    6.8457
    8.250    7.0774
    8.280    6.7720
    8.310    6.9194
    8.340    7.2459
    8.370    7.0985
    8.400    7.4039
    8.430    6.6667
    8.460    7.0248
    8.490    7.1406
    8.520    7.2459
    8.550    7.0353
    8.580    7.1827
    8.610    7.2038
    8.640    7.6040
    8.670    8.0463
    8.700    8.0042
    8.730    7.8989
    8.760    7.8673
    8.790    6.9510
    8.820    6.7299
    8.850    6.8141
    8.880    6.0874
    8.910    6.5824
    8.940    7.0142
    8.970    6.7615
    9.000    6.9932
    9.030    7.0037
    9.060    7.1617
    9.090    7.3723
    9.120    7.4566
    9.150    7.3618
    9.180    7.4355
    9.210    8.1938
    9.240    8.2570
    9.270    8.8362
    9.300    9.0785
    9.330    9.6156
    9.360   10.2896
    9.390   11.2902
    9.420   13.1332
    9.450   14.9974
    9.480   17.1564
    9.510   22.2117
    9.540   27.0563
    9.570   27.1617
    9.600   19.2206
    9.630   11.0269
    9.660    7.4566
    9.690    7.4776
    9.720    6.6877
    9.750    6.8668
    9.780    7.0353
    9.810    6.4455
    9.840    6.7404
    9.870    6.8352
    9.900    6.2875
    9.930    6.8773
    9.960    6.9721
    9.990    7.0879
   10.020    6.8984
   10.050    7.1617
   10.080    7.0037
   10.110    7.4671
   10.140    7.7936
   10.170    8.1727
   10.200    9.0574
   10.230    9.7841
   10.260   10.5529
   10.290   12.4592
   10.320   13.9337
   10.350   13.3228
   10.380   10.0369
   10.410    8.4466
   10.440    6.5613
   10.470    6.4350
   10.500    6.6245
   10.530    6.4876
   10.560    6.7404
   10.590    6.2243
   10.620    6.4876
   10.650    6.7299
   10.680    6.8141
   10.710    6.7720
   10.740    6.5298
   10.770    6.7193
   10.800    6.8562
   10.830    7.2880
   10.860    8.0358
   10.890    7.8462
   10.920    8.1306
   10.950    9.5313
   10.980   10.5635
   11.010   11.4165
   11.040   12.5224
   11.070   12.0379
   11.100    9.7841
   11.130    7.6040
   11.160    6.5824
   11.190    6.0979
   11.220    6.0874
   11.250    6.4244
   11.280    6.3296
   11.310    6.7720
   11.340    6.8984
   11.370    6.4876
   11.400    7.0563
   11.430    6.4771
   11.460    6.6140
   11.490    7.6988
   11.520    7.3196
   11.550    7.7514
   11.580    7.9937
   11.610    9.0995
   11.640    9.8789
   11.670   10.8794
   11.700   12.8173
   11.730   14.1443
   11.760   10.5951
   11.790    8.4360
   11.820    7.0353
   11.850    6.5824
   11.880    6.1717
   11.910    6.0242
   11.940    6.1822
   11.970    6.0558
   12.000    6.1295
   12.030    6.2349
   12.060    6.2243
   12.090    6.5192
   12.120    6.1401
   12.150    6.4244
   12.180    6.3718
   12.210    6.1401
   12.240    6.4560
   12.270    6.2033
   12.300    6.6667
   12.330    7.0248
   12.360    7.0458
   12.390    6.9089
   12.420    6.2138
   12.450    5.9294
   12.480    6.3402
   12.510    6.0769
   12.540    5.8557
   12.570    6.0979
   12.600    5.9505
   12.630    5.9926
   12.660    6.1295
   12.690    6.1717
   12.720    6.6035
   12.750    6.4034
   12.780    6.4982
   12.810    6.9510
   12.840    7.0037
   12.870    7.6883
   12.900    8.4150
   12.930   10.0263
   12.960   10.7952
   12.990   10.4055
   13.020    8.2149
   13.050    6.4666
   13.080    6.1401
   13.110    6.3507
   13.140    6.0348
   13.170    5.9189
   13.200    5.8347
   13.230    5.9400
   13.260    6.0558
   13.290    6.2033
   13.320    6.3296
   13.350    6.3402
   13.380    5.8031
   13.410    6.5298
   13.440    6.5403
   13.470    7.2459
   13.500    7.6251
   13.530    7.8146
   13.560    7.9200
   13.590    7.3196
   13.620    6.5192
   13.650    5.7609
   13.680    5.9821
   13.710    5.7293
   13.740    5.6872
   13.770    6.1401
   13.800    6.3928
   13.830    6.1190
   13.860    5.8347
   13.890    6.3928
   13.920    6.2454
   13.950    7.0669
   13.980    6.9721
   14.010    7.3407
   14.040    8.3728
   14.070    9.2680
   14.100    9.6472
   14.130    9.4260
   14.160    7.7199
   14.190    6.4560
   14.220    6.0348
   14.250    6.0453
   14.280    5.7925
   14.310    5.7925
   14.340    6.0242
   14.370    6.0558
   14.400    6.0348
   14.430    5.4134
   14.460    5.9294
   14.490    5.7188
   14.520    5.5082
   14.550    5.7293
   14.580    5.8452
   14.610    5.7715
   14.640    6.0348
   14.670    5.2659
   14.700    5.3186
   14.730    6.2349
   14.760    5.6556
   14.790    5.5292
   14.820    5.8347
   14.850    5.8873
   14.880    5.9505
   14.910    5.5608
   14.940    5.8873
   14.970    5.8557
   15.000    5.8241
   15.030    6.0453
   15.060    6.6245
   15.090    6.5087
   15.120    6.4876
   15.150    6.6351
   15.180    6.5298
   15.210    6.4560
   15.240    5.8347
   15.270    5.4871
   15.300    5.8136
   15.330    5.3712
   15.360    5.6661
   15.390    5.6661
   15.420    5.8768
   15.450    5.5503
   15.480    5.8347
   15.510    5.5187
   15.540    5.6345
   15.570    5.6977
   15.600    5.8662
   15.630    6.1611
   15.660    5.7715
   15.690    5.8136
   15.720    5.8452
   15.750    5.7925
   15.780    5.4134
   15.810    5.6556
   15.840    5.5924
   15.870    5.8978
   15.900    6.0558
   15.930    5.5714
   15.960    6.1190
   15.990    6.1401
   16.020    5.9716
   16.050    5.7820
   16.080    6.5824
   16.110    6.4982
   16.140    6.7088
   16.170    6.8141
   16.200    6.2770
   16.230    5.9926
   16.260    5.7083
   16.290    5.6872
   16.320    5.8662
   16.350    5.6345
   16.380    5.9716
   16.410    5.7715
   16.440    5.8241
   16.470    5.7925
   16.500    6.3402
   16.530    6.1927
   16.560    6.2454
   16.590    6.2349
   16.620    6.8773
   16.650    6.7404
   16.680    6.6035
   16.710    6.2033
   16.740    5.5924
   16.770    5.9189
   16.800    5.6977
   16.830    6.0348
   16.860    6.3191
   16.890    6.2349
   16.920    6.7509
   16.950    7.1195
   16.980    6.8668
   17.010    7.6356
   17.040    8.1938
   17.070    9.0679
   17.100    8.7098
   17.130    7.5197
   17.160    6.8246
   17.190    6.2875
   17.220    5.8347
   17.250    5.8452
   17.280    5.8347
   17.310    6.0137
   17.340    5.7293
   17.370    5.8978
   17.400    5.5714
   17.430    6.1927
   17.460    6.1822
   17.490    6.3718
   17.520    6.3402
   17.550    6.1927
   17.580    5.9716
   17.610    6.1190
   17.640    6.1295
   17.670    5.7609
   17.700    5.4134
   17.730    6.0032
   17.760    5.9294
   17.790    5.9821
   17.820    5.6872
   17.850    6.1401
   17.880    5.9716
   17.910    5.8031
   17.940    6.9721
   17.970    6.4982
   18.000    6.4982
   18.030    6.2770
   18.060    5.6556
   18.090    5.8031
   18.120    6.1822
   18.150    5.7504
   18.180    5.8768
   18.210    5.8136
   18.240    5.6345
   18.270    5.9084
   18.300    6.0664
   18.330    6.2454
   18.360    6.9089
   18.390    6.5824
   18.420    6.7825
   18.450    6.0137
   18.480    6.0979
   18.510    5.6556
   18.540    5.7609
   18.570    6.0558
   18.600    5.7188
   18.630    5.3607
   18.660    5.4976
   18.690    6.2138
   18.720    6.1506
   18.750    6.1717
   18.780    6.2243
   18.810    6.0453
   18.840    5.9189
   18.870    6.0032
   18.900    6.0558
   18.930    6.3823
   18.960    6.5087
   18.990    6.4560
   19.020    6.3191
   19.050    6.0558
   19.080    6.0453
   19.110    5.6451
   19.140    5.7083
   19.170    5.5608
   19.200    5.9716
   19.230    5.6240
   19.260    5.7399
   19.290    6.0874
   19.320    5.2659
   19.350    5.8768
   19.380    5.7504
   19.410    5.5082
   19.440    5.9084
   19.470    5.7293
   19.500    5.9400
   19.530    6.1085
   19.560    6.4982
   19.590    6.7930
   19.620    6.8141
   19.650    6.6456
   19.680    6.2770
   19.710    6.4455
   19.740    6.0664
   19.770    5.4871
   19.800    5.7188
   19.830    5.7925
   19.860    5.6345
   19.890    6.1927
   19.920    6.2454
   19.950    5.7188
   19.980    6.0242
   20.010    6.5192
   20.040    5.9716
   20.070    6.2770
   20.100    5.8241
   20.130    5.5292
   20.160    5.8241
   20.190    5.9926
   20.220    5.9821
   20.250    6.5508
   20.280    6.7930
   20.310    7.2670
   20.340    7.4882
   20.370    7.9200
   20.400    8.1622
   20.430    8.3728
   20.460    7.4144
   20.490    6.9089
   20.520    6.3507
   20.550    6.4560
   20.580    5.8136
   20.610    6.0664
   20.640    5.8347
   20.670    5.7504
   20.700    5.8347
   20.730    5.9610
   20.760    6.1927
   20.790    5.8347
   20.820    5.7820
   20.850    5.7820
   20.880    6.2665
   20.910    5.9926
   20.940    6.1295
   20.970    5.9189
   21.000    5.8031
   21.030    5.8452
   21.060    6.2981
   21.090    5.5187
   21.120    5.8662
   21.150    5.7083
   21.180    5.8031
   21.210    6.0348
   21.240    5.9716
   21.270    5.7925
   21.300    6.3296
   21.330    5.8031
   21.360    6.0137
   21.390    6.0558
   21.420    6.1401
   21.450    6.0137
   21.480    5.8347
   21.510    5.9294
   21.540    6.0032
   21.570    5.7504
   21.600    6.1717
   21.630    5.5714
   21.660    6.4560
   21.690    5.7083
   21.720    6.1717
   21.750    6.3718
   21.780    6.2349
   21.810    6.4034
   21.840    6.8352
   21.870    6.9300
   21.900    6.7930
   21.930    6.7299
   21.960    6.3612
   21.990    6.1927
   22.020    6.1401
   22.050    6.5613
   22.080    6.3086
   22.110    6.1295
   22.140    6.0242
   22.170    6.4982
   22.200    6.6035
   22.230    6.6140
   22.260    6.6983
   22.290    6.4666
   22.320    6.4139
   22.350    6.2875
   22.380    6.3718
   22.410    6.3507
   22.440    6.3191
   22.470    6.8562
   22.500    7.3407
   22.530    7.6145
   22.560    8.1833
   22.590    8.7204
   22.620    8.0990
   22.650    7.7725
   22.680    7.1722
   22.710    6.5613
   22.740    6.7720
   22.770    6.5824
   22.800    6.6877
   22.830    7.1406
   22.860    7.3091
   22.890    8.6151
   22.920    8.7098
   22.950    8.5519
   22.980    7.8778
   23.010    7.1301
   23.040    6.7825
   23.070    6.4982
   23.100    6.2875
   23.130    6.4139
   23.160    6.6351
   23.190    6.4560
   23.220    6.6351
   23.250    6.9616
   23.280    6.7404
   23.310    7.0985
   23.340    6.8141
   23.370    5.9716
   23.400    6.3296
   23.430    6.0769
   23.460    5.8136
   23.490    5.7188
   23.520    6.0979
   23.550    5.8978
   23.580    6.0664
   23.610    6.0032
   23.640    6.0242
   23.670    5.9610
   23.700    5.8347
   23.730    6.1506
   23.760    5.7609
   23.790    6.0979
   23.820    6.2349
   23.850    5.8873
   23.880    6.1822
   23.910    7.0142
   23.940    6.4455
   23.970    6.7615
   24.000    6.4771
   24.030    5.8452
   24.060    6.2875
   24.090    5.8452
   24.120    5.8241
   24.150    6.0137
   24.180    6.0032
   24.210    5.7820
   24.240    5.9084
   24.270    5.9610
   24.300    5.4871
   24.330    5.6767
   24.360    5.9716
   24.390    5.5819
   24.420    5.7820
   24.450    6.0348
   24.480    6.0348
   24.510    5.8662
   24.540    5.8978
   24.570    5.9610
   24.600    6.0242
   24.630    6.2770
   24.660    5.7820
   24.690    5.8768
   24.720    6.0769
   24.750    5.4555
   24.780    6.0032
   24.810    5.7293
   24.840    5.6556
   24.870    6.0348
   24.900    6.0769
   24.930    5.7820
   24.960    6.1190
   24.990    5.6767
   25.020    5.6451
   25.050    5.7293
   25.080    5.7925
   25.110    5.8978
   25.140    5.8768
   25.170    6.2138
   25.200    5.9716
   25.230    6.0979
   25.260    6.2981
   25.290    5.5398
   25.320    5.8347
   25.350    5.8768
   25.380    5.7820
   25.410    5.8031
   25.440    5.9189
   25.470    5.6240
   25.500    5.5503
   25.530    5.8873
   25.560    6.1295
   25.590    6.0137
   25.620    6.0664
   25.650    5.9716
   25.680    6.0979
   25.710    6.1506
   25.740    6.6351
   25.770    7.0774
   25.800    7.1511
   25.830    7.5092
   25.860    7.6040
   25.890    7.3512
   25.920    6.4666
   25.950    6.1927
   25.980    5.5924
   26.010    5.9926
   26.040    5.9400
   26.070    5.6977
   26.100    5.9189
   26.130    5.5292
   26.160    5.4134
   26.190    5.8452
   26.220    5.8768
   26.250    5.5292
   26.280    5.8136
   26.310    5.6661
   26.340    5.9400
   26.370    6.2875
   26.400    6.2033
   26.430    6.0242
   26.460    6.5192
   26.490    6.1611
   26.520    6.2349
   26.550    5.6240
   26.580    5.7715
   26.610    5.8662
   26.640    5.5819
   26.670    5.8978
   26.700    5.6029
   26.730    5.6345
   26.760    5.8136
   26.790    5.5398
   26.820    5.6767
   26.850    5.5503
   26.880    5.3607
   26.910    5.7188
   26.940    5.7820
   26.970    6.0558
   27.000    6.0453
   27.030    5.9610
   27.060    6.2981
   27.090    5.7399
   27.120    5.5082
   27.150    5.7820
   27.180    5.4766
   27.210    5.8557
   27.240    5.2659
   27.270    5.6977
   27.300    5.4028
   27.330    5.1606
   27.360    5.6029
   27.390    5.5819
   27.420    5.6767
   27.450    5.2765
   27.480    5.5082
   27.510    6.2349
   27.540    5.7399
   27.570    5.9610
   27.600    5.7715
   27.630    5.8452
   27.660    5.7925
   27.690    5.9610
   27.720    5.6661
   27.750    5.5819
   27.780    5.2238
   27.810    5.3186
   27.840    6.0453
   27.870    5.6872
   27.900    5.6977
   27.930    6.0032
   27.960    6.0453
   27.990    5.8873
   28.020    5.6661
   28.050    6.1927
   28.080    6.0242
   28.110    6.0769
   28.140    5.8136
   28.170    6.3928
   28.200    6.1085
   28.230    6.0453
   28.260    5.8347
   28.290    5.9716
   28.320    5.8557
   28.350    6.2770
   28.380    5.6767
   28.410    5.9716
   28.440    5.7399
   28.470    5.6345
   28.500    5.9400
   28.530    6.0874
   28.560    5.6556
   28.590    5.3397
   28.620    5.7083
   28.650    5.4239
   28.680    5.3081
   28.710    5.3923
   28.740    5.5608
   28.770    5.4028
   28.800    5.6977
   28.830    5.1185
   28.860    5.3923
   28.890    5.5292
   28.920    5.7504
   28.950    5.8662
   28.980    5.6240
   29.010    5.5714
   29.040    5.6661
   29.070    5.4344
   29.100    5.4871
   29.130    5.3502
   29.160    5.5608
   29.190    5.4239
   29.220    5.6661
   29.250    5.9084
   29.280    5.8031
   29.310    5.4871
   29.340    5.4871
   29.370    5.5398
   29.400    5.3502
   29.430    5.1711
   29.460    5.5714
   29.490    5.0974
   29.520    5.2133
   29.550    5.3186
   29.580    5.0869
   29.610    5.0132
   29.640    4.9289
   29.670    5.2133
   29.700    4.8236
   29.730    5.3712
   29.760    5.4134
   29.790    5.5819
   29.820    5.4660
   29.850    5.6661
   29.880    5.3081
   29.910    5.5398
   29.940    5.2238
   29.970    5.0658
   30.000    5.1922
   30.030    5.0869
   30.060    5.3186
   30.090    5.1711
   30.120    5.0132
   30.150    5.1290
   30.180    5.4028
   30.210    5.2870
   30.240    5.0974
   30.270    5.1501
   30.300    5.0237
   30.330    5.2238
   30.360    5.4766
   30.390    5.1395
   30.420    5.3712
   30.450    4.9816
   30.480    5.3923
   30.510    5.3397
   30.540    5.5714
   30.570    5.1606
   30.600    5.0869
   30.630    5.3186
   30.660    5.2975
   30.690    4.9500
   30.720    5.1501
   30.750    5.0764
   30.780    4.7709
   30.810    5.0658
   30.840    5.2765
   30.870    5.0132
   30.900    5.0342
   30.930    5.0026
   30.960    4.8236
   30.990    5.2554
   31.020    5.3923
   31.050    5.0448
   31.080    4.9184
   31.110    4.8552
   31.140    4.9500
   31.170    5.0869
   31.200    4.8025
   31.230    5.1395
   31.260    4.9289
   31.290    5.1290
   31.320    5.0026
   31.350    5.1080
   31.380    5.5187
   31.410    4.9078
   31.440    4.8236
   31.470    5.5819
   31.500    4.7393
   31.530    5.0342
   31.560    4.7815
   31.590    4.9289
   31.620    4.8236
   31.650    5.2343
   31.680    4.8131
   31.710    4.9816
   31.740    5.2133
   31.770    5.0448
   31.800    5.0764
   31.830    5.3712
   31.860    5.3397
   31.890    5.1185
   31.920    5.4134
   31.950    4.7077
   31.980    5.6872
   32.010    5.6345
   32.040    5.2975
   32.070    5.8557
   32.100    6.0769
   32.130    5.8241
   32.160    5.5819
   32.190    5.5398
   32.220    5.2343
   32.250    4.8868
   32.280    4.4128
   32.310    4.7288
   32.340    4.7709
   32.370    4.7604
   32.400    4.5708
   32.430    4.3391
   32.460    4.4023
   32.490    4.8763
   32.520    4.8763
   32.550    4.6130
   32.580    4.8341
   32.610    4.9816
   32.640    4.7077
   32.670    4.4866
   32.700    4.4760
   32.730    4.6445
   32.760    4.7604
   32.790    4.5392
   32.820    4.6340
   32.850    4.9394
   32.880    5.2554
   32.910    4.9500
   32.940    4.7183
   32.970    4.9816
   33.000    4.7604
   33.030    4.6024
   33.060    4.8973
   33.090    4.6130
   33.120    4.4550
   33.150    4.6445
   33.180    4.6130
   33.210    4.8131
   33.240    4.6761
   33.270    4.5814
   33.300    4.7920
   33.330    4.4971
   33.360    4.5708
   33.390    4.5498
   33.420    4.5392
   33.450    4.9078
   33.480    4.2759
   33.510    4.8236
   33.540    4.7920
   33.570    4.6551
   33.600    4.6235
   33.630    4.8447
   33.660    5.0237
   33.690    4.7815
   33.720    5.0974
   33.750    5.0974
   33.780    5.3923
   33.810    5.0448
   33.840    5.3923
   33.870    5.8557
   33.900    5.2975
   33.930    4.9394
   33.960    4.9500
   33.990    4.6551
   34.020    5.0764
   34.050    4.7499
   34.080    4.7288
   34.110    4.6867
   34.140    4.5919
   34.170    5.0553
   34.200    4.6551
   34.230    4.3497
   34.260    4.7077
   34.290    4.4444
   34.320    4.9500
   34.350    4.7920
   34.380    4.6761
   34.410    4.4760
   34.440    4.8341
   34.470    4.3813
   34.500    4.6551
   34.530    4.2127
   34.560    4.8657
   34.590    4.6130
   34.620    4.3602
   34.650    4.3918
   34.680    4.6130
   34.710    4.6867
   34.740    4.3181
   34.770    4.5603
   34.800    4.7920
   34.830    4.6445
   34.860    4.5182
   34.890    4.3918
   34.920    4.7815
   34.950    4.3918
   34.980    4.7709
   35.010    4.3497
   35.040    4.4655
   35.070    4.6235
   35.100    4.3181
   35.130    4.2970
   35.160    4.3813
   35.190    4.5392
   35.220    4.4444
   35.250    4.3918
   35.280    4.4023
   35.310    4.6551
   35.340    4.4866
   35.370    4.6972
   35.400    4.4550
   35.430    4.8447
   35.460    4.3497
   35.490    4.4234
   35.520    4.2022
   35.550    4.5182
   35.580    4.2233
   35.610    4.5919
   35.640    4.5182
   35.670    4.6130
   35.700    4.7709
   35.730    4.3918
   35.760    4.5498
   35.790    4.5182
   35.820    4.3602
   35.850    4.3391
   35.880    4.5919
   35.910    4.5603
   35.940    4.4234
   35.970    4.6445
   36.000    4.4760
   36.030    4.2654
   36.060    4.5708
   36.090    4.2970
   36.120    4.6340
   36.150    4.4550
   36.180    4.5498
   36.210    4.4444
   36.240    4.7183
   36.270    4.5498
   36.300    4.3918
   36.330    4.2233
   36.360    4.2127
   36.390    4.2022
   36.420    4.2759
   36.450    4.5814
   36.480    4.2338
   36.510    4.1390
   36.540    4.3813
   36.570    4.1180
   36.600    4.6024
   36.630    4.2970
   36.660    4.2022
   36.690    4.5708
   36.720    4.6445
   36.750    4.7499
   36.780    4.3075
   36.810    4.5498
   36.840    4.3813
   36.870    4.4550
   36.900    4.5392
   36.930    4.3391
   36.960    4.1917
   36.990    4.4550
   37.020    4.3707
   37.050    4.4023
   37.080    4.5814
   37.110    4.4971
   37.140    4.8868
   37.170    4.0337
   37.200    4.2759
   37.230    4.3918
   37.260    4.3497
   37.290    4.5708
   37.320    4.3707
   37.350    4.2865
   37.380    4.3707
   37.410    4.3286
   37.440    4.3918
   37.470    4.2970
   37.500    4.4760
   37.530    4.4655
   37.560    4.4023
   37.590    4.6445
   37.620    4.2233
   37.650    4.0864
   37.680    4.3707
   37.710    4.8552
   37.740    4.2233
   37.770    4.5498
   37.800    4.3813
   37.830    4.2549
   37.860    4.2970
   37.890    4.4023
   37.920    4.6340
   37.950    4.5498
   37.980    4.5603
   38.010    4.0758
   38.040    4.8025
   38.070    4.5498
   38.100    3.8863
   38.130    4.4128
   38.160    4.2338
   38.190    4.3602
   38.220    4.2549
   38.250    4.0653
   38.280    4.3813
   38.310    4.3497
   38.340    4.0548
   38.370    4.3813
   38.400    4.4444
   38.430    4.0653
   38.460    4.4339
   38.490    4.2127
   38.520    4.3813
   38.550    4.7183
   38.580    4.3497
   38.610    4.4339
   38.640    4.1285
   38.670    4.2127
   38.700    4.1811
   38.730    4.1601
   38.760    4.0337
   38.790    4.2865
   38.820    4.2443
   38.850    4.3181
   38.880    4.4444
   38.910    4.1285
   38.940    4.0969
   38.970    4.4866
   39.000    3.8020
   39.030    4.1285
   39.060    4.4760
   39.090    4.2970
   39.120    4.3813
   39.150    4.2338
   39.180    4.0969
   39.210    4.3707
   39.240    4.3075
   39.270    4.3497
   39.300    4.3075
   39.330    4.0864
   39.360    4.2443
   39.390    4.4550
   39.420    3.9073
   39.450    4.1601
   39.480    4.2759
   39.510    4.4023
   39.540    4.3602
   39.570    4.0232
   39.600    4.3813
   39.630    4.2654
   39.660    4.0442
   39.690    4.2022
   39.720    4.0021
   39.750    4.4655
   39.780    4.3181
   39.810    4.4866
   39.840    4.6340
   39.870    4.2338
   39.900    4.3602
   39.930    4.3497
   39.960    4.2759
   39.990    4.0653