File: data/PXRD/PXRD_KE-050-1-2_Cu-Ka1_capillary-1mm_5s-deg.xyd
    1.500  144.0758
    1.515  145.6346
    1.530  142.5276
    1.545  140.1896
    1.560  137.1459
    1.575  135.6609
    1.590  132.5856
    1.605  126.9721
    1.620  123.9705
    1.635  122.1906
    1.650  120.7056
    1.665  117.6514
    1.680  115.6609
    1.695  112.0274
    1.710  110.1106
    1.725  108.8889
    1.740  106.7088
    1.755  102.2644
    1.770   99.1575
    1.785   98.1359
    1.800   93.6704
    1.815   92.6382
    1.830   91.1743
    1.845   88.1411
    1.860   86.1506
    1.875   84.3918
    1.890   81.5061
    1.905   80.3054
    1.920   77.9674
    1.935   77.4829
    1.950   75.1764
    1.965   73.8073
    1.980   72.7541
    1.995   68.9100
    2.010   66.9089
    2.025   66.9826
    2.040   66.6983
    2.055   65.0974
    2.070   63.2649
    2.085   61.4323
    2.100   59.4629
    2.115   58.7256
    2.130   57.8410
    2.145   55.6819
    2.160   55.6398
    2.175   54.5866
    2.190   52.8805
    2.205   51.8799
    2.220   50.3528
    2.235   49.0574
    2.250   48.6783
    2.265   46.9510
    2.280   46.8668
    2.295   46.3507
    2.310   44.9078
    2.325   44.2338
    2.340   43.0332
    2.355   42.8015
    2.370   41.4007
    2.385   40.4634
    2.400   40.9163
    2.415   39.6103
    2.430   38.6098
    2.445   39.2628
    2.460   37.4724
    2.475   36.2296
    2.490   36.2296
    2.505   35.4081
    2.520   35.6503
    2.535   34.5550
    2.550   33.8178
    2.565   33.5861
    2.580   33.2701
    2.595   33.1227
    2.610   32.8173
    2.625   32.1432
    2.640   31.2164
    2.655   31.2059
    2.670   31.0585
    2.685   29.7736
    2.700   29.1627
    2.715   28.6783
    2.730   28.7625
    2.745   29.1838
    2.760   28.1095
    2.775   28.5835
    2.790   28.1517
    2.805   28.3412
    2.820   28.1201
    2.835   27.3302
    2.850   27.8673
    2.865   27.1301
    2.880   26.8036
    2.895   26.0979
    2.910   25.9716
    2.925   26.3612
    2.940   26.3507
    2.955   26.3718
    2.970   26.3191
    2.985   25.5503
    3.000   25.1817
    3.015   25.1185
    3.030   25.4976
    3.045   25.4239
    3.060   25.0448
    3.075   25.2659
    3.090   25.7399
    3.105   25.0237
    3.120   24.5182
    3.135   25.1922
    3.150   24.5814
    3.165   24.5287
    3.180   24.9289
    3.195   24.9289
    3.210   25.7504
    3.225   24.7393
    3.240   25.7399
    3.255   26.0032
    3.270   25.3607
    3.285   25.5398
    3.300   25.0553
    3.315   25.6030
    3.330   25.9505
    3.345   26.3612
    3.360   26.3823
    3.375   27.4987
    3.390   26.9932
    3.405   27.5619
    3.420   27.2459
    3.435   27.8041
    3.450   28.5413
    3.465   28.8046
    3.480   28.6361
    3.495   29.1522
    3.510   29.4997
    3.525   29.4050
    3.540   31.1322
    3.555   30.7320
    3.570   30.7109
    3.585   31.5113
    3.600   32.3117
    3.615   33.5018
    3.630   34.6498
    3.645   34.8289
    3.660   35.7557
    3.675   36.8299
    3.690   37.6409
    3.705   38.4413
    3.720   39.9473
    3.735   41.4745
    3.750   43.3807
    3.765   45.5714
    3.780   47.0879
    3.795   50.5213
    3.810   52.0906
    3.825   55.1132
    3.840   57.8410
    3.855   63.2017
    3.870   69.4471
    3.885   78.4518
    3.900   88.4360
    3.915   93.4703
    3.930   93.2280
    3.945   87.9832
    3.960   74.8078
    3.975   57.6830
    3.990   40.1790
    4.005   30.5845
    4.020   25.3081
    4.035   21.5798
    4.050   19.0837
    4.065   18.5361
    4.080   18.0621
    4.095   17.1775
    4.110   15.9031
    4.125   15.6503
    4.140   14.7235
    4.155   14.6393
    4.170   14.9552
    4.185   14.4708
    4.200   14.6814
    4.215   14.4602
    4.230   13.5440
    4.245   13.0911
    4.260   13.3439
    4.275   13.3544
    4.290   13.0911
    4.305   12.6277
    4.320   12.4697
    4.335   12.2275
    4.350   12.1854
    4.365   11.9853
    4.380   12.0906
    4.395   11.6482
    4.410   11.4271
    4.425   11.1638
    4.440   11.4376
    4.455   11.3533
    4.470   11.1954
    4.485   10.9637
    4.500   11.2586
    4.515   10.8899
    4.530   10.9637
    4.545   12.1222
    4.560   11.1743
    4.575   11.1532
    4.590   10.9742
    4.605   10.8583
    4.620   10.3739
    4.635   10.6688
    4.650   10.6266
    4.665   10.5845
    4.680   10.7109
    4.695   10.4371
    4.710   10.7952
    4.725   10.6793
    4.740   10.5319
    4.755   10.7636
    4.770   10.5740
    4.785   10.3423
    4.800   10.3844
    4.815   10.8162
    4.830   10.5424
    4.845   10.7004
    4.860   10.6266
    4.875   10.3107
    4.890   10.4792
    4.905    9.7525
    4.920   10.1422
    4.935   10.2896
    4.950   10.2896
    4.965   10.3949
    4.980   10.6688
    4.995   10.7846
    5.010   10.6688
    5.025   10.5635
    5.040   10.3739
    5.055   10.8794
    5.070   10.7320
    5.085   10.8583
    5.100   10.3844
    5.115   10.4897
    5.130   11.1532
    5.145   11.1532
    5.160   10.9215
    5.175   10.5424
    5.190   10.9847
    5.205   11.0374
    5.220   11.2902
    5.235   11.1532
    5.250   11.7641
    5.265   11.8273
    5.280   12.3223
    5.295   12.6277
    5.310   13.0595
    5.325   13.3544
    5.340   12.9858
    5.355   13.0384
    5.370   13.3123
    5.385   13.6914
    5.400   14.1127
    5.415   14.6603
    5.430   14.8815
    5.445   14.8815
    5.460   16.5877
    5.475   16.7983
    5.490   17.5671
    5.505   18.9047
    5.520   21.1269
    5.535   22.2749
    5.550   22.9173
    5.565   21.8009
    5.580   20.1685
    5.595   17.8515
    5.610   14.9236
    5.625   12.6382
    5.640   11.2375
    5.655   10.7741
    5.670   10.7004
    5.685    9.5629
    5.700    9.2048
    5.715    9.3418
    5.730    9.4681
    5.745    8.6888
    5.760    8.9205
    5.775    8.6888
    5.790    8.9521
    5.805    8.4781
    5.820    8.6361
    5.835    8.5097
    5.850    8.6256
    5.865    8.8784
    5.880    9.0679
    5.895    8.7309
    5.910    8.5097
    5.925    8.4676
    5.940    8.5308
    5.955    8.3834
    5.970    7.9937
    5.985    8.2991
    6.000    8.4466
    6.015    8.5519
    6.030    8.4466
    6.045    8.4044
    6.060    8.0990
    6.075    7.6672
    6.090    8.2149
    6.105    8.6677
    6.120    8.0674
    6.135    8.7625
    6.150    8.7309
    6.165    8.1517
    6.180    8.5624
    6.195    8.2149
    6.210    8.3623
    6.225    8.4255
    6.240    8.2886
    6.255    8.3202
    6.270    8.4360
    6.285    8.0885
    6.300    8.4466
    6.315    8.2149
    6.330    8.6256
    6.345    8.5203
    6.360    8.4255
    6.375    8.3307
    6.390    8.8046
    6.405    8.6256
    6.420    8.7309
    6.435    8.3834
    6.450    8.1411
    6.465    8.0674
    6.480    8.1938
    6.495    8.0147
    6.510    8.0253
    6.525    7.9621
    6.540    8.2464
    6.555    8.6677
    6.570    8.6151
    6.585    8.0569
    6.600    8.2149
    6.615    8.5097
    6.630    8.8046
    6.645    8.8468
    6.660    8.4044
    6.675    8.6888
    6.690    8.9521
    6.705    8.9205
    6.720    9.0785
    6.735    9.3734
    6.750    9.6261
    6.765    9.2891
    6.780    9.5103
    6.795    9.5524
    6.810    9.6261
    6.825    9.4997
    6.840    9.1732
    6.855    9.1732
    6.870    8.8573
    6.885    8.4887
    6.900    8.0253
    6.915    8.0463
    6.930    7.9200
    6.945    8.1517
    6.960    8.2149
    6.975    7.9516
    6.990    7.7830
    7.005    8.0253
    7.020    8.4781
    7.035    8.1306
    7.050    7.9305
    7.065    7.4882
    7.080    8.1411
    7.095    7.9305
    7.110    8.0569
    7.125    8.0253
    7.140    8.4466
    7.155    8.3834
    7.170    8.0885
    7.185    8.4360
    7.200    7.8884
    7.215    7.9516
    7.230    7.9726
    7.245    8.3096
    7.260    7.8989
    7.275    8.4466
    7.290    8.3412
    7.305    8.4571
    7.320    8.2886
    7.335    8.3412
    7.350    7.7199
    7.365    7.9410
    7.380    8.3412
    7.395    8.7309
    7.410    8.3623
    7.425    8.0253
    7.440    8.4255
    7.455    8.1622
    7.470    8.0885
    7.485    8.1727
    7.500    8.0463
    7.515    8.3307
    7.530    8.5835
    7.545    8.5624
    7.560    8.6045
    7.575    8.6361
    7.590    8.5624
    7.605    8.7520
    7.620    8.4781
    7.635    8.8362
    7.650    8.4255
    7.665    8.5519
    7.680    9.0785
    7.695    9.3944
    7.710    8.9415
    7.725    9.5103
    7.740    9.9105
    7.755   10.1316
    7.770   10.2580
    7.785   10.5108
    7.800   10.8689
    7.815   11.2691
    7.830   12.0379
    7.845   11.9431
    7.860   12.2275
    7.875   11.7641
    7.890   10.9426
    7.905   10.1001
    7.920    9.6156
    7.935    9.2259
    7.950    9.3102
    7.965    8.8152
    7.980    8.4255
    7.995    8.2570
    8.010    7.8778
    8.025    8.6045
    8.040    8.6151
    8.055    7.9621
    8.070    7.4039
    8.085    7.8673
    8.100    7.8252
    8.115    8.2043
    8.130    8.2254
    8.145    7.9200
    8.160    8.1622
    8.175    8.2570
    8.190    8.0569
    8.205    8.1833
    8.220    8.5203
    8.235    8.0569
    8.250    7.9410
    8.265    7.9831
    8.280    8.0990
    8.295    7.8989
    8.310    7.7830
    8.325    7.5724
    8.340    7.8462
    8.355    7.9200
    8.370    8.2570
    8.385    7.9831
    8.400    7.7620
    8.415    7.6461
    8.430    7.7830
    8.445    7.6777
    8.460    8.2886
    8.475    8.0463
    8.490    7.9410
    8.505    8.3834
    8.520    8.2570
    8.535    8.2570
    8.550    7.9937
    8.565    8.0885
    8.580    7.7304
    8.595    8.1411
    8.610    8.4255
    8.625    7.9937
    8.640    7.9621
    8.655    8.4781
    8.670    8.2886
    8.685    8.6045
    8.700    8.4150
    8.715    8.2780
    8.730    7.9937
    8.745    8.1727
    8.760    8.4992
    8.775    8.5940
    8.790    8.4676
    8.805    8.6361
    8.820    8.7625
    8.835    8.4360
    8.850    8.1622
    8.865    8.1095
    8.880    8.1622
    8.895    8.2359
    8.910    8.3518
    8.925    8.5729
    8.940    8.4676
    8.955    8.3202
    8.970    8.1622
    8.985    8.3939
    9.000    8.3096
    9.015    8.0674
    9.030    8.2464
    9.045    8.0569
    9.060    8.2359
    9.075    8.3412
    9.090    8.0253
    9.105    8.4255
    9.120    8.2149
    9.135    7.8778
    9.150    8.0253
    9.165    8.1938
    9.180    8.3623
    9.195    8.3307
    9.210    8.7836
    9.225    8.2570
    9.240    8.2780
    9.255    8.6888
    9.270    8.3939
    9.285    8.5308
    9.300    8.3939
    9.315    8.8573
    9.330    9.0785
    9.345    8.9205
    9.360    8.9626
    9.375    9.6261
    9.390    9.7420
    9.405    9.6156
    9.420    9.2154
    9.435    9.4576
    9.450    9.6261
    9.465    9.6893
    9.480   10.7846
    9.495   10.9847
    9.510   11.4797
    9.525   11.8905
    9.540   12.3433
    9.555   12.7436
    9.570   14.0390
    9.585   14.3865
    9.600   15.6293
    9.615   15.5556
    9.630   15.4608
    9.645   15.3870
    9.660   14.0811
    9.675   12.3117
    9.690   11.3112
    9.705   10.6582
    9.720    9.9210
    9.735    9.6998
    9.750    9.1206
    9.765    9.1732
    9.780    8.6677
    9.795    8.3834
    9.810    8.6677
    9.825    8.6045
    9.840    8.8994
    9.855    8.7941
    9.870    8.7098
    9.885    8.2780
    9.900    8.4571
    9.915    8.7941
    9.930    8.4781
    9.945    8.0358
    9.960    8.2675
    9.975    8.4887
    9.990    8.1306
   10.005    8.0990
   10.020    8.6361
   10.035    8.3412
   10.050    8.4255
   10.065    8.3728
   10.080    8.1727
   10.095    8.2675
   10.110    8.0990
   10.125    8.3623
   10.140    8.4044
   10.155    8.4044
   10.170    8.8046
   10.185    8.4992
   10.200    8.3939
   10.215    7.9305
   10.230    8.2780
   10.245    8.4571
   10.260    8.2254
   10.275    8.3728
   10.290    8.7625
   10.305    8.7520
   10.320    9.3839
   10.335    8.9415
   10.350    9.3418
   10.365    9.9315
   10.380    9.5735
   10.395    9.6472
   10.410    9.6367
   10.425    9.3418
   10.440    9.5524
   10.455    9.1732
   10.470    8.9310
   10.485    8.2570
   10.500    8.2149
   10.515    8.1938
   10.530    8.1095
   10.545    8.1938
   10.560    7.8146
   10.575    8.0358
   10.590    7.8252
   10.605    7.5724
   10.620    7.6883
   10.635    7.6988
   10.650    8.0569
   10.665    7.9726
   10.680    7.8357
   10.695    7.9726
   10.710    7.7936
   10.725    7.7093
   10.740    7.8778
   10.755    8.0569
   10.770    7.9831
   10.785    8.0147
   10.800    8.3518
   10.815    7.8357
   10.830    7.6988
   10.845    8.0674
   10.860    8.4255
   10.875    8.0358
   10.890    8.1411
   10.905    8.4150
   10.920    8.0990
   10.935    8.2886
   10.950    8.0042
   10.965    8.4150
   10.980    8.2991
   10.995    8.6361
   11.010    8.5729
   11.025    8.4466
   11.040    8.8362
   11.055    9.0047
   11.070    9.0153
   11.085    9.5313
   11.100   10.2370
   11.115    9.5735
   11.130    9.3628
   11.145    9.0363
   11.160    8.8573
   11.175    8.5519
   11.190    8.8994
   11.205    8.7204
   11.220    8.5203
   11.235    7.9621
   11.250    7.8884
   11.265    7.7093
   11.280    7.4250
   11.295    7.9094
   11.310    7.4671
   11.325    7.4776
   11.340    7.6145
   11.355    7.7830
   11.370    7.6356
   11.385    7.3302
   11.400    7.5408
   11.415    7.8357
   11.430    7.6356
   11.445    7.8989
   11.460    7.7936
   11.475    7.3723
   11.490    7.4250
   11.505    8.0358
   11.520    7.5303
   11.535    7.2249
   11.550    7.5303
   11.565    7.4566
   11.580    8.0463
   11.595    7.9305
   11.610    7.8041
   11.625    8.0253
   11.640    7.7725
   11.655    7.2143
   11.670    7.8252
   11.685    8.2359
   11.700    8.6361
   11.715    8.4360
   11.730    8.6361
   11.745    8.9205
   11.760    9.1311
   11.775    9.2364
   11.790    9.4892
   11.805    8.7836
   11.820    8.6467
   11.835    8.6572
   11.850    8.3518
   11.865    8.1833
   11.880    7.9516
   11.895    7.3407
   11.910    7.2459
   11.925    7.7093
   11.940    7.5513
   11.955    7.3091
   11.970    7.1195
   11.985    7.2565
   12.000    7.2670
   12.015    7.1617
   12.030    7.5092
   12.045    7.1722
   12.060    7.3618
   12.075    7.5408
   12.090    7.2459
   12.105    7.1301
   12.120    6.5192
   12.135    7.0248
   12.150    6.8984
   12.165    6.7299
   12.180    6.8246
   12.195    7.1722
   12.210    7.1722
   12.225    6.8668
   12.240    7.1511
   12.255    7.1301
   12.270    7.3302
   12.285    7.3302
   12.300    7.7093
   12.315    7.7409
   12.330    7.0458
   12.345    7.1301
   12.360    7.2880
   12.375    7.0985
   12.390    7.3302
   12.405    7.4250
   12.420    7.5197
   12.435    7.4250
   12.450    7.6461
   12.465    7.0563
   12.480    7.2565
   12.495    7.3618
   12.510    7.6777
   12.525    7.0458
   12.540    6.8141
   12.555    7.1406
   12.570    7.2038
   12.585    7.1511
   12.600    6.8562
   12.615    6.8878
   12.630    6.9932
   12.645    6.9510
   12.660    6.8668
   12.675    6.9826
   12.690    7.3934
   12.705    7.5092
   12.720    7.3618
   12.735    6.7720
   12.750    7.0248
   12.765    6.8984
   12.780    6.7404
   12.795    7.2986
   12.810    7.4250
   12.825    7.1406
   12.840    6.7930
   12.855    6.9721
   12.870    7.1301
   12.885    7.3302
   12.900    7.1933
   12.915    7.5829
   12.930    7.6567
   12.945    7.3407
   12.960    7.5724
   12.975    7.7620
   12.990    7.6461
   13.005    8.0463
   13.020    8.1622
   13.035    8.2675
   13.050    7.9094
   13.065    7.5935
   13.080    7.8462
   13.095    7.5513
   13.110    7.2354
   13.125    7.4566
   13.140    7.5724
   13.155    7.0774
   13.170    6.8562
   13.185    6.7825
   13.200    6.6877
   13.215    6.9616
   13.230    7.3302
   13.245    7.2670
   13.260    7.0985
   13.275    7.0774
   13.290    6.7720
   13.305    6.7299
   13.320    7.1511
   13.335    6.6667
   13.350    6.9089
   13.365    6.6983
   13.380    6.8141
   13.395    6.8352
   13.410    6.8352
   13.425    7.0353
   13.440    7.0142
   13.455    7.0985
   13.470    7.2354
   13.485    7.1617
   13.500    6.9721
   13.515    6.8141
   13.530    6.5824
   13.545    6.9510
   13.560    7.2775
   13.575    7.4671
   13.590    7.5197
   13.605    7.2670
   13.620    7.3828
   13.635    7.2986
   13.650    7.1511
   13.665    7.2143
   13.680    6.9405
   13.695    6.6772
   13.710    6.7615
   13.725    6.6667
   13.740    6.9721
   13.755    6.9300
   13.770    6.7299
   13.785    6.4982
   13.800    6.9194
   13.815    6.6456
   13.830    6.8246
   13.845    6.8562
   13.860    7.2354
   13.875    6.8352
   13.890    6.9932
   13.905    6.9300
   13.920    6.9826
   13.935    7.2143
   13.950    6.6245
   13.965    6.5719
   13.980    6.6456
   13.995    6.6772
   14.010    6.8141
   14.025    6.9405
   14.040    7.0985
   14.055    7.0774
   14.070    7.0774
   14.085    7.3512
   14.100    7.0985
   14.115    7.1301
   14.130    7.3828
   14.145    7.5619
   14.160    7.4460
   14.175    7.8568
   14.190    7.6461
   14.205    7.4250
   14.220    7.2880
   14.235    7.3618
   14.250    7.2565
   14.265    7.4566
   14.280    7.1617
   14.295    7.2249
   14.310    7.1827
   14.325    7.1301
   14.340    6.6667
   14.355    6.9826
   14.370    7.2143
   14.385    6.6983
   14.400    6.9194
   14.415    6.9300
   14.430    6.8036
   14.445    6.9089
   14.460    6.6561
   14.475    6.8036
   14.490    6.7088
   14.505    6.6983
   14.520    6.6140
   14.535    6.5192
   14.550    6.8668
   14.565    7.0037
   14.580    6.8562
   14.595    6.6456
   14.610    6.7088
   14.625    7.1722
   14.640    6.8352
   14.655    6.8246
   14.670    6.6561
   14.685    6.4771
   14.700    6.3086
   14.715    6.2875
   14.730    6.9089
   14.745    6.6772
   14.760    6.8036
   14.775    6.4982
   14.790    6.4876
   14.805    6.7720
   14.820    6.7404
   14.835    6.5929
   14.850    6.8246
   14.865    6.6351
   14.880    6.4244
   14.895    6.5929
   14.910    6.5192
   14.925    6.4876
   14.940    6.5298
   14.955    6.4876
   14.970    6.6140
   14.985    6.7088
   15.000    6.5403
   15.015    6.6667
   15.030    6.7299
   15.045    6.6035
   15.060    6.4244
   15.075    6.4771
   15.090    6.6561
   15.105    7.0248
   15.120    6.7825
   15.135    6.8036
   15.150    7.0248
   15.165    6.9194
   15.180    6.8668
   15.195    7.0037
   15.210    6.8246
   15.225    6.9510
   15.240    7.0248
   15.255    7.1195
   15.270    6.7088
   15.285    6.9194
   15.300    6.7930
   15.315    6.7825
   15.330    6.7404
   15.345    6.4455
   15.360    6.7088
   15.375    6.6351
   15.390    6.7615
   15.405    6.6035
   15.420    6.6561
   15.435    6.4666
   15.450    6.8668
   15.465    6.6667
   15.480    6.6772
   15.495    6.9510
   15.510    6.7615
   15.525    7.0142
   15.540    6.7720
   15.555    6.6772
   15.570    6.4455
   15.585    6.3612
   15.600    6.8668
   15.615    6.8984
   15.630    7.1301
   15.645    6.8878
   15.660    6.6983
   15.675    6.5192
   15.690    6.8773
   15.705    6.6035
   15.720    6.6245
   15.735    6.8036
   15.750    6.8984
   15.765    6.6140
   15.780    6.2875
   15.795    6.3086
   15.810    6.2138
   15.825    6.2770
   15.840    6.6245
   15.855    6.6667
   15.870    6.5613
   15.885    6.2349
   15.900    6.7088
   15.915    6.4771
   15.930    6.7088
   15.945    6.7193
   15.960    6.4982
   15.975    6.5719
   15.990    6.4034
   16.005    6.5929
   16.020    6.6877
   16.035    6.8036
   16.050    7.0142
   16.065    6.9089
   16.080    6.9510
   16.095    6.5824
   16.110    6.7299
   16.125    7.0879
   16.140    6.9405
   16.155    6.9300
   16.170    6.3402
   16.185    6.6772
   16.200    7.1617
   16.215    7.1933
   16.230    7.1090
   16.245    7.1722
   16.260    6.9932
   16.275    6.7088
   16.290    6.9089
   16.305    7.0774
   16.320    6.9089
   16.335    7.2459
   16.350    7.1406
   16.365    6.6772
   16.380    6.7615
   16.395    6.6035
   16.410    6.7720
   16.425    6.7404
   16.440    6.2454
   16.455    6.5087
   16.470    6.8984
   16.485    7.1617
   16.500    7.1301
   16.515    6.7509
   16.530    6.7193
   16.545    6.7615
   16.560    7.0774
   16.575    6.7193
   16.590    6.8457
   16.605    6.8246
   16.620    6.9405
   16.635    7.1301
   16.650    6.3296
   16.665    6.5192
   16.680    6.8878
   16.695    6.9510
   16.710    7.1617