File: data/PXRD/PXRD_KE-229_Co-Ka1_capillary-1mm_5s-deg.xyd
    1.500   10.0482
    1.530   10.3050
    1.560   10.3585
    1.590   10.1231
    1.620    9.7699
    1.650    9.1172
    1.680    9.4489
    1.710    9.1386
    1.740    9.5452
    1.770    8.6998
    1.800    8.8818
    1.830    8.8497
    1.860    8.1541
    1.890    7.6833
    1.920    8.3253
    1.950    7.6833
    1.980    7.7261
    2.010    7.4157
    2.040    7.5013
    2.070    7.3408
    2.100    7.2445
    2.130    6.6346
    2.160    7.0091
    2.190    6.5062
    2.220    6.5169
    2.250    6.6346
    2.280    6.4526
    2.310    6.1316
    2.340    5.9818
    2.370    6.2279
    2.400    5.9497
    2.430    5.6822
    2.460    5.9390
    2.490    5.9818
    2.520    5.9283
    2.550    5.6287
    2.580    5.4789
    2.610    5.0722
    2.640    5.5431
    2.670    5.4682
    2.700    5.2755
    2.730    5.2755
    2.760    5.0294
    2.790    5.1043
    2.820    5.2648
    2.850    5.4254
    2.880    5.1150
    2.910    5.1043
    2.940    5.2434
    2.970    5.1578
    3.000    5.2006
    3.030    5.0829
    3.060    4.9866
    3.090    5.3719
    3.120    5.0936
    3.150    5.1578
    3.180    5.1685
    3.210    5.2327
    3.240    5.2755
    3.270    5.4575
    3.300    5.6180
    3.330    5.5003
    3.360    5.7678
    3.390    5.7785
    3.420    5.9390
    3.450    6.4848
    3.480    6.6453
    3.510    6.7951
    3.540    6.9342
    3.570    7.4157
    3.600    7.3622
    3.630    8.4858
    3.660    8.3253
    3.690    9.1065
    3.720    8.9460
    3.750    9.7913
    3.780    9.7057
    3.810    9.8662
    3.840   11.5784
    3.870   12.1348
    3.900   12.5736
    3.930   13.2156
    3.960   14.6816
    3.990   16.6506
    4.020   17.9240
    4.050   18.4698
    4.080   20.5564
    4.110   22.6645
    4.140   24.6014
    4.170   26.8914
    4.200   30.8400
    4.230   33.8577
    4.260   37.9882
    4.290   43.1889
    4.320   48.4323
    4.350   56.0407
    4.380   65.8534
    4.410   77.7849
    4.440   96.6399
    4.470  122.7501
    4.500  187.2552
    4.530  252.6806
    4.560   59.7111
    4.590    7.8224
    4.620    4.3018
    4.650    3.4350
    4.680    2.6538
    4.710    2.8999
    4.740    2.4398
    4.770    2.3970
    4.800    2.4291
    4.830    2.2365
    4.860    1.9904
    4.890    2.3221
    4.920    2.4612
    4.950    1.9583
    4.980    2.1937
    5.010    2.0974
    5.040    1.8620
    5.070    2.1616
    5.100    2.3328
    5.130    2.2151
    5.160    2.0225
    5.190    2.0974
    5.220    2.2044
    5.250    2.0867
    5.280    1.9476
    5.310    2.0332
    5.340    2.0332
    5.370    1.8406
    5.400    2.0439
    5.430    2.0011
    5.460    2.0867
    5.490    2.3221
    5.520    2.1188
    5.550    1.9583
    5.580    2.3114
    5.610    2.2900
    5.640    2.8464
    5.670    2.5040
    5.700    2.7929
    5.730    2.7929
    5.760    2.8892
    5.790    2.8036
    5.820    3.2745
    5.850    3.4671
    5.880    3.7132
    5.910    3.8202
    5.940    4.1627
    5.970    4.5693
    6.000    5.0829
    6.030    5.5752
    6.060    6.8486
    6.090    7.2659
    6.120    7.9829
    6.150    9.9304
    6.180   10.5190
    6.210   12.4987
    6.240   14.4248
    6.270   17.4960
    6.300   22.0332
    6.330   27.1482
    6.360   36.6078
    6.390   59.9893
    6.420   59.1118
    6.450   12.1455
    6.480    2.4933
    6.510    2.0332
    6.540    1.6479
    6.570    1.7335
    6.600    1.6051
    6.630    1.4446
    6.660    1.5516
    6.690    1.3911
    6.720    1.3697
    6.750    1.5623
    6.780    1.5195
    6.810    1.3162
    6.840    1.4446
    6.870    1.3590
    6.900    1.6372
    6.930    1.4232
    6.960    1.4018
    6.990    1.7121
    7.020    1.4339
    7.050    1.2413
    7.080    1.3162
    7.110    1.5944
    7.140    1.4339
    7.170    1.4660
    7.200    1.4125
    7.230    1.6372
    7.260    1.6372
    7.290    1.6586
    7.320    1.5730
    7.350    1.7978
    7.380    1.6800
    7.410    2.0011
    7.440    1.9690
    7.470    2.0225
    7.500    2.1081
    7.530    2.1830
    7.560    2.4291
    7.590    2.6859
    7.620    3.1354
    7.650    3.4564
    7.680    4.0128
    7.710    4.3660
    7.740    4.9331
    7.770    6.3777
    7.800    8.3788
    7.830   12.6592
    7.860   14.4248
    7.890    5.2648
    7.920    1.5302
    7.950    1.3055
    7.980    1.4767
    8.010    1.2413
    8.040    1.3055
    8.070    1.2413
    8.100    1.1129
    8.130    1.2092
    8.160    1.2627
    8.190    1.2306
    8.220    1.0915
    8.250    1.1236
    8.280    1.1450
    8.310    1.2199
    8.340    1.3269
    8.370    1.2734
    8.400    1.2734
    8.430    1.1343
    8.460    1.3055
    8.490    1.5195
    8.520    1.3697
    8.550    1.4874
    8.580    1.4874
    8.610    1.4125
    8.640    1.6265
    8.670    1.5088
    8.700    1.8299
    8.730    1.7335
    8.760    2.2044
    8.790    2.0546
    8.820    2.0439
    8.850    2.8464
    8.880    3.0391
    8.910    3.4243
    8.940    4.3767
    8.970    5.2006
    9.000    7.2766
    9.030   10.2836
    9.060   15.0883
    9.090   12.7769
    9.120    3.8202
    9.150    1.3590
    9.180    1.3055
    9.210    1.0594
    9.240    1.1343
    9.270    1.0487
    9.300    0.9310
    9.330    1.0701
    9.360    1.0594
    9.390    1.0915
    9.420    1.1129
    9.450    1.3269
    9.480    0.9845
    9.510    1.1557
    9.540    0.8347
    9.570    1.0380
    9.600    1.0273
    9.630    1.0594
    9.660    1.1129
    9.690    1.0915
    9.720    1.1129
    9.750    1.1343
    9.780    0.9845
    9.810    1.1236
    9.840    1.0915
    9.870    1.0487
    9.900    1.0594
    9.930    1.3269
    9.960    1.3590
    9.990    1.3483
   10.020    1.5623
   10.050    1.5837
   10.080    1.7764
   10.110    2.1081
   10.140    3.1354
   10.170    2.5468
   10.200    1.3590
   10.230    1.0808
   10.260    0.9845
   10.290    1.0059
   10.320    0.8989
   10.350    1.1450
   10.380    1.1343
   10.410    1.0487
   10.440    0.9310
   10.470    0.9417
   10.500    0.7598
   10.530    1.0166
   10.560    1.0701
   10.590    1.0701
   10.620    1.2841
   10.650    1.2306
   10.680    1.1557
   10.710    1.4874
   10.740    1.5409
   10.770    1.6800
   10.800    1.7978
   10.830    2.3114
   10.860    2.4826
   10.890    2.8678
   10.920    3.3494
   10.950    4.0449
   10.980    5.1899
   11.010    6.6132
   11.040    9.3098
   11.070   14.3499
   11.100   21.9904
   11.130   22.3221
   11.160    9.8555
   11.190    2.0546
   11.220    1.3804
   11.250    0.9631
   11.280    0.9845
   11.310    0.9738
   11.340    0.9524
   11.370    1.0166
   11.400    0.8561
   11.430    0.8668
   11.460    0.8561
   11.490    0.9096
   11.520    1.1022
   11.550    1.0059
   11.580    1.0808
   11.610    1.0166
   11.640    1.0915
   11.670    1.1343
   11.700    1.0915
   11.730    1.3483
   11.760    1.2520
   11.790    1.4232
   11.820    1.7978
   11.850    1.9155
   11.880    2.1937
   11.910    2.6645
   11.940    3.4885
   11.970    5.5324
   12.000    8.2718
   12.030    7.0733
   12.060    3.1889
   12.090    1.4125
   12.120    0.9417
   12.150    0.8775
   12.180    0.9524
   12.210    0.8454
   12.240    0.8882
   12.270    0.9310
   12.300    0.8668
   12.330    0.9738
   12.360    0.9631
   12.390    0.7277
   12.420    0.9310
   12.450    0.9952
   12.480    0.9952
   12.510    0.9738
   12.540    1.1129
   12.570    1.1236
   12.600    1.3697
   12.630    1.3376
   12.660    1.6051
   12.690    1.8620
   12.720    2.4933
   12.750    3.1354
   12.780    4.5800
   12.810    6.6667
   12.840    9.6522
   12.870    7.3515
   12.900    2.9106
   12.930    1.1557
   12.960    0.8240
   12.990    0.8026
   13.020    0.9310
   13.050    0.7384
   13.080    0.7705
   13.110    0.7705
   13.140    0.7384
   13.170    1.0915
   13.200    0.9524
   13.230    0.9631
   13.260    0.9417
   13.290    0.9524
   13.320    1.0594
   13.350    1.1236
   13.380    1.2841
   13.410    1.5944
   13.440    1.7871
   13.470    1.8085
   13.500    2.6859
   13.530    3.1140
   13.560    4.0770
   13.590    6.1530
   13.620   10.1980
   13.650    8.3253
   13.680    3.9914
   13.710    1.3269
   13.740    0.9310
   13.770    0.7491
   13.800    0.8668
   13.830    0.7384
   13.860    0.7598
   13.890    0.7063
   13.920    0.7063
   13.950    0.6849
   13.980    0.6956
   14.010    0.8240
   14.040    0.6956
   14.070    0.8026
   14.100    0.6956
   14.130    0.9417
   14.160    0.7919
   14.190    0.8133
   14.220    0.8026
   14.250    0.9952
   14.280    1.1129
   14.310    1.4232
   14.340    1.7657
   14.370    1.9690
   14.400    1.8406
   14.430    1.0166
   14.460    0.7812
   14.490    0.7598
   14.520    0.7812
   14.550    0.7384
   14.580    0.6742
   14.610    0.6635
   14.640    0.8240
   14.670    0.6421
   14.700    0.7812
   14.730    0.8561
   14.760    0.8240
   14.790    0.8989
   14.820    0.9203
   14.850    1.0594
   14.880    1.0487
   14.910    1.2306
   14.940    1.5409
   14.970    2.1616
   15.000    2.4719
   15.030    3.6597
   15.060    4.9973
   15.090    5.4361
   15.120    3.6490
   15.150    1.3162
   15.180    0.8454
   15.210    0.8561
   15.240    0.7812
   15.270    0.6314
   15.300    0.7384
   15.330    0.7705
   15.360    0.7384
   15.390    0.8561
   15.420    0.8133
   15.450    0.8882
   15.480    0.7705
   15.510    0.7063
   15.540    0.8133
   15.570    0.8347
   15.600    0.8989
   15.630    1.0059
   15.660    1.3376
   15.690    1.6907
   15.720    2.4505
   15.750    2.7715
   15.780    2.4184
   15.810    1.5837
   15.840    0.8668
   15.870    0.7705
   15.900    0.7384
   15.930    0.6956
   15.960    0.6635
   15.990    0.7384
   16.020    0.6100
   16.050    0.7598
   16.080    0.6635
   16.110    0.7063
   16.140    0.8668
   16.170    0.9952
   16.200    0.9952
   16.230    1.0808
   16.260    1.3055
   16.290    1.5516
   16.320    2.1616
   16.350    2.9963
   16.380    4.6977
   16.410    5.3826
   16.440    3.6276
   16.470    1.5944
   16.500    0.7598
   16.530    0.8561
   16.560    0.7063
   16.590    0.7384
   16.620    0.6421
   16.650    0.7277
   16.680    0.8133
   16.710    0.8133
   16.740    0.7170
   16.770    0.7063
   16.800    0.6956
   16.830    0.6849
   16.860    0.7170
   16.890    0.7491
   16.920    0.7277
   16.950    0.5778
   16.980    0.7384
   17.010    0.6207
   17.040    0.7705
   17.070    0.7384
   17.100    0.5993
   17.130    0.8454
   17.160    0.7170
   17.190    0.7919
   17.220    0.6314
   17.250    0.8347
   17.280    0.7277
   17.310    0.6528
   17.340    0.7491
   17.370    0.7170
   17.400    0.8026
   17.430    0.7063
   17.460    0.7170
   17.490    0.9310
   17.520    0.9738
   17.550    1.1129
   17.580    1.4767
   17.610    1.9904
   17.640    2.0760
   17.670    1.5944
   17.700    0.8561
   17.730    0.6421
   17.760    0.6528
   17.790    0.6742
   17.820    0.7705
   17.850    0.6849
   17.880    0.7170
   17.910    0.7063
   17.940    0.7598
   17.970    0.5993
   18.000    0.6528
   18.030    0.8240
   18.060    0.7170
   18.090    0.6207
   18.120    0.5671
   18.150    0.6849
   18.180    0.7705
   18.210    0.6849
   18.240    0.5993
   18.270    0.7170
   18.300    0.5564
   18.330    0.6849
   18.360    0.7063
   18.390    0.5564
   18.420    0.6314
   18.450    0.7170
   18.480    0.7384
   18.510    0.7491
   18.540    0.7063
   18.570    0.5993
   18.600    0.7598
   18.630    0.8454
   18.660    0.9417
   18.690    0.9738
   18.720    1.3804
   18.750    1.6051
   18.780    1.6693
   18.810    1.5302
   18.840    1.0380
   18.870    0.8026
   18.900    0.5886
   18.930    0.8347
   18.960    0.5243
   18.990    0.7491
   19.020    0.7491
   19.050    0.6528
   19.080    0.9203
   19.110    0.7598
   19.140    0.8133
   19.170    0.8775
   19.200    0.8454
   19.230    0.9310
   19.260    1.2734
   19.290    1.5730
   19.320    1.7978
   19.350    1.6693
   19.380    1.4125
   19.410    0.8240
   19.440    0.6635
   19.470    0.6635
   19.500    0.6849
   19.530    0.7491
   19.560    0.7705
   19.590    0.7598
   19.620    0.7384
   19.650    0.8668
   19.680    0.7812
   19.710    0.9310
   19.740    1.4018
   19.770    1.5302
   19.800    2.4184
   19.830    3.1675
   19.860    4.1948
   19.890    3.6062
   19.920    2.2365
   19.950    1.0487
   19.980    0.7919
   20.010    0.7063
   20.040    0.7277
   20.070    0.6314
   20.100    0.6635
   20.130    0.6100
   20.160    0.7170
   20.190    0.7277
   20.220    0.7919
   20.250    0.8454
   20.280    0.8026
   20.310    0.8240
   20.340    1.1557
   20.370    1.5944
   20.400    1.5623
   20.430    1.2841
   20.460    0.9524
   20.490    0.8026
   20.520    0.7277
   20.550    0.7705
   20.580    0.7812
   20.610    0.7277
   20.640    0.7491
   20.670    0.6207
   20.700    0.6635
   20.730    0.6207
   20.760    0.6849
   20.790    0.7598
   20.820    0.9203
   20.850    1.2199
   20.880    1.2948
   20.910    1.3376
   20.940    1.3697
   20.970    0.9631
   21.000    0.7277
   21.030    0.5029
   21.060    0.7598
   21.090    0.7277
   21.120    0.6849
   21.150    0.7491
   21.180    0.8989
   21.210    0.7705
   21.240    0.7277
   21.270    0.7919
   21.300    0.9845
   21.330    1.1771
   21.360    1.3697
   21.390    1.4767
   21.420    1.4018
   21.450    1.2841
   21.480    0.7491
   21.510    0.6207
   21.540    0.7063
   21.570    0.5886
   21.600    0.6849
   21.630    0.6635
   21.660    0.6849
   21.690    0.6528
   21.720    0.7063
   21.750    0.8026
   21.780    0.7812
   21.810    0.7919
   21.840    1.1022
   21.870    0.9845
   21.900    0.9738
   21.930    0.8882
   21.960    0.7170
   21.990    0.7384
   22.020    0.8026
   22.050    1.0166
   22.080    1.0166
   22.110    1.1343
   22.140    1.0594
   22.170    0.8454
   22.200    0.7277
   22.230    0.6421
   22.260    0.6528
   22.290    0.8240
   22.320    0.6849
   22.350    0.7277
   22.380    0.6956
   22.410    0.7812
   22.440    0.6956
   22.470    0.7598
   22.500    0.7277
   22.530    0.7277
   22.560    0.7277
   22.590    0.7277
   22.620    0.7170
   22.650    0.7277
   22.680    0.7705
   22.710    0.7919
   22.740    1.0059
   22.770    1.3911
   22.800    1.7121
   22.830    1.5837
   22.860    1.7442
   22.890    1.3162
   22.920    0.8775
   22.950    0.6849
   22.980    0.6956
   23.010    0.7170
   23.040    0.7063
   23.070    0.8026
   23.100    0.7277
   23.130    0.6635
   23.160    0.6528
   23.190    0.8882
   23.220    0.7491
   23.250    0.6849
   23.280    0.7491
   23.310    0.7491
   23.340    0.8026
   23.370    0.6742
   23.400    0.6100
   23.430    0.6849
   23.460    0.7063
   23.490    0.6956
   23.520    0.6635
   23.550    0.8668
   23.580    0.7919
   23.610    0.8561
   23.640    1.2734
   23.670    1.7764
   23.700    2.7929
   23.730    3.1782
   23.760    2.7822
   23.790    2.3970
   23.820    1.4553
   23.850    0.7170
   23.880    0.7705
   23.910    0.7705
   23.940    0.5993
   23.970    0.7063
   24.000    0.7919
   24.030    0.6421
   24.060    0.6956
   24.090    0.5993
   24.120    0.7598
   24.150    0.6849
   24.180    0.7384
   24.210    0.8561
   24.240    0.6956
   24.270    0.7170
   24.300    0.7598
   24.330    0.8454
   24.360    0.6528
   24.390    0.5886
   24.420    0.7705
   24.450    0.7812
   24.480    0.6742
   24.510    0.6956
   24.540    0.7812
   24.570    0.7705
   24.600    0.8454
   24.630    0.7170
   24.660    0.7491
   24.690    0.6849
   24.720    0.6956
   24.750    0.5671
   24.780    0.6314
   24.810    0.6635
   24.840    0.7384
   24.870    0.7705
   24.900    0.6742
   24.930    0.7277
   24.960    0.7170
   24.990    0.7170
   25.020    0.7170
   25.050    0.6742
   25.080    0.6742
   25.110    0.6849
   25.140    0.6956
   25.170    0.7598
   25.200    0.7384
   25.230    0.6849
   25.260    0.6742
   25.290    0.8026
   25.320    0.6635
   25.350    0.8668
   25.380    1.0701
   25.410    1.2627
   25.440    1.5837
   25.470    1.6265
   25.500    1.4446
   25.530    1.1771
   25.560    0.8347
   25.590    0.7491
   25.620    0.8026
   25.650    0.6207
   25.680    0.6956
   25.710    0.8775
   25.740    0.7812
   25.770    0.8668
   25.800    1.1022
   25.830    1.2841
   25.860    1.5195
   25.890    1.3483
   25.920    1.2841
   25.950    1.0808
   25.980    0.8026
   26.010    0.6421
   26.040    0.8561
   26.070    0.8026
   26.100    0.7705
   26.130    0.8454
   26.160    1.1236
   26.190    1.2627
   26.220    2.1509
   26.250    2.8678
   26.280    3.4350
   26.310    2.8785
   26.340    2.7715
   26.370    1.7549
   26.400    1.0059
   26.430    0.7705
   26.460    0.7170
   26.490    0.7705
   26.520    0.9524
   26.550    0.9845
   26.580    1.3269
   26.610    1.7871
   26.640    2.6217
   26.670    3.3066
   26.700    3.4350
   26.730    2.8036
   26.760    2.4291
   26.790    1.2627
   26.820    0.8561
   26.850    0.9417
   26.880    0.9524
   26.910    0.9738
   26.940    0.9096
   26.970    0.9952
   27.000    0.8989
   27.030    1.3269
   27.060    1.5302
   27.090    1.4767
   27.120    1.4981
   27.150    1.2199
   27.180    1.0594
   27.210    0.7491
   27.240    0.7705
   27.270    0.6742
   27.300    0.6849
   27.330    0.8454
   27.360    0.7919
   27.390    0.7384
   27.420    0.8347
   27.450    0.8775
   27.480    0.8775
   27.510    0.8775
   27.540    0.7063
   27.570    0.5886
   27.600    0.6314
   27.630    0.6421
   27.660    0.7277
   27.690    0.7170
   27.720    0.7812
   27.750    0.9738
   27.780    0.9310
   27.810    1.3055
   27.840    1.4018
   27.870    1.5730
   27.900    1.2413
   27.930    1.3055
   27.960    0.8561
   27.990    0.6528
   28.020    0.6207
   28.050    0.5778
   28.080    0.8347
   28.110    0.6956
   28.140    0.6421
   28.170    0.7598
   28.200    0.7919
   28.230    0.8133
   28.260    0.6421
   28.290    0.7063
   28.320    0.7063
   28.350    0.5778
   28.380    0.6100
   28.410    0.6421
   28.440    0.6742
   28.470    0.7598
   28.500    0.6956
   28.530    0.7598
   28.560    0.7491
   28.590    0.9096
   28.620    0.9310
   28.650    0.9524
   28.680    0.8454
   28.710    0.7277
   28.740    0.6635
   28.770    0.7277
   28.800    0.4387
   28.830    0.5671
   28.860    0.7063
   28.890    0.7277
   28.920    0.7277
   28.950    0.6849
   28.980    0.8240
   29.010    0.9738
   29.040    0.8133
   29.070    0.7063
   29.100    0.6421
   29.130    0.6635
   29.160    0.7919
   29.190    0.7063
   29.220    0.6742
   29.250    0.6635
   29.280    0.6100
   29.310    0.8668
   29.340    1.1985
   29.370    0.9203
   29.400    0.7812
   29.430    0.9524
   29.460    0.7812
   29.490    0.6742
   29.520    0.5136
   29.550    0.7384
   29.580    0.7812
   29.610    0.7384
   29.640    0.8775
   29.670    0.8026
   29.700    0.9203
   29.730    1.0380
   29.760    0.8882
   29.790    0.9952
   29.820    0.7384
   29.850    0.6742
   29.880    0.6742
   29.910    0.6635
   29.940    0.8347
   29.970    0.9952
   30.000    1.1450
   30.030    1.9476
   30.060    2.2793
   30.090    2.4077
   30.120    2.2472
   30.150    1.9690
   30.180    1.5409
   30.210    0.8775
   30.240    0.5993
   30.270    0.5671
   30.300    0.6849
   30.330    0.5886
   30.360    0.6635
   30.390    0.6314
   30.420    0.8989
   30.450    0.6742
   30.480    0.8133
   30.510    0.7919
   30.540    0.6635
   30.570    0.6528
   30.600    0.7063
   30.630    0.7063
   30.660    0.6314
   30.690    0.6421
   30.720    0.8026
   30.750    1.0594
   30.780    1.1236
   30.810    1.3055
   30.840    1.0915
   30.870    1.0273
   30.900    0.8561
   30.930    0.6742
   30.960    0.5993
   30.990    0.5778
   31.020    0.6100
   31.050    0.6207
   31.080    0.5671
   31.110    0.7384
   31.140    0.5993
   31.170    0.5029
   31.200    0.6314
   31.230    0.5886
   31.260    0.5350
   31.290    0.6956
   31.320    0.6100
   31.350    0.5136
   31.380    0.6207
   31.410    0.6956
   31.440    1.1129
   31.470    1.3055
   31.500    1.2520
   31.530    1.1664
   31.560    1.2841
   31.590    0.8989
   31.620    0.7170
   31.650    0.6100
   31.680    0.7277
   31.710    0.5778
   31.740    0.5993
   31.770    0.5993
   31.800    0.5778
   31.830    0.6421
   31.860    0.5778
   31.890    0.6100
   31.920    0.6421
   31.950    0.6528
   31.980    0.7598
   32.010    0.5993
   32.040    0.6635
   32.070    0.6528
   32.100    0.7812
   32.130    0.7063
   32.160    0.9631
   32.190    0.9417
   32.220    0.9952
   32.250    0.8240
   32.280    0.7491
   32.310    0.5886
   32.340    0.5993
   32.370    0.6207
   32.400    0.5457
   32.430    0.6635
   32.460    0.7705
   32.490    0.7705
   32.520    0.7491
   32.550    0.8133
   32.580    1.1557
   32.610    0.9631
   32.640    0.8668
   32.670    0.9738
   32.700    0.7598
   32.730    0.8133
   32.760    0.9631
   32.790    1.1236
   32.820    1.3697
   32.850    1.2092
   32.880    1.1450
   32.910    0.9631
   32.940    1.1022
   32.970    0.6742
   33.000    0.6849
   33.030    0.5886
   33.060    0.7491
   33.090    0.9310
   33.120    1.0487
   33.150    1.1557
   33.180    1.1450
   33.210    1.1985
   33.240    1.1985
   33.270    0.8454
   33.300    0.8347
   33.330    0.5671
   33.360    0.6956
   33.390    0.6207
   33.420    0.7598
   33.450    0.6742
   33.480    0.6421
   33.510    0.6421
   33.540    0.4601
   33.570    0.6956
   33.600    0.6207
   33.630    0.5029
   33.660    0.8026
   33.690    0.6314
   33.720    0.8775
   33.750    0.9845
   33.780    0.9952
   33.810    0.8133
   33.840    0.9952
   33.870    0.7384
   33.900    0.6314
   33.930    0.6421
   33.960    0.5457
   33.990    0.5778
   34.020    0.6207
   34.050    0.5136
   34.080    0.8775
   34.110    1.0059
   34.140    1.0701
   34.170    0.9631
   34.200    1.0487
   34.230    1.0380
   34.260    0.8347
   34.290    0.5457
   34.320    0.5564
   34.350    0.5671
   34.380    0.5886
   34.410    0.4066
   34.440    0.5457
   34.470    0.4708
   34.500    0.5886
   34.530    0.6421
   34.560    0.5243
   34.590    0.5457
   34.620    0.4922
   34.650    0.4708
   34.680    0.5778
   34.710    0.6742
   34.740    0.6849
   34.770    0.9203
   34.800    0.6956
   34.830    0.8989
   34.860    0.8133
   34.890    0.7598
   34.920    0.4494
   34.950    0.5136
   34.980    0.5243
   35.010    0.4922
   35.040    0.6956
   35.070    0.7384
   35.100    0.7384
   35.130    0.5029
   35.160    0.7277
   35.190    0.5564
   35.220    0.5029
   35.250    0.4387
   35.280    0.4387
   35.310    0.4922
   35.340    0.6421
   35.370    0.6635
   35.400    0.6100
   35.430    0.5993
   35.460    0.7384
   35.490    0.4815
   35.520    0.6314
   35.550    0.5136
   35.580    0.5778
   35.610    0.3852
   35.640    0.6207
   35.670    0.7812
   35.700    0.8454
   35.730    0.7598
   35.760    0.7063
   35.790    0.8026
   35.820    0.7063
   35.850    0.5243
   35.880    0.5457
   35.910    0.5671
   35.940    0.5671
   35.970    0.5350
   36.000    0.5457
   36.030    0.6207
   36.060    0.5564
   36.090    0.6100
   36.120    0.5136
   36.150    0.5457
   36.180    0.4601
   36.210    0.4066
   36.240    0.5243
   36.270    0.4815
   36.300    0.5243
   36.330    0.5029
   36.360    0.5350
   36.390    0.3638
   36.420    0.4815
   36.450    0.6314
   36.480    0.4387
   36.510    0.5993
   36.540    0.5778
   36.570    0.5457
   36.600    0.7919
   36.630    0.6849
   36.660    0.8561
   36.690    0.8133
   36.720    0.6528
   36.750    0.7705
   36.780    0.4922
   36.810    0.5564
   36.840    0.4708
   36.870    0.5350
   36.900    0.5457
   36.930    0.6207
   36.960    0.5778
   36.990    0.6635
   37.020    0.6100
   37.050    0.6956
   37.080    0.6421
   37.110    0.7170
   37.140    0.6849
   37.170    0.7170
   37.200    0.6635
   37.230    0.7170
   37.260    0.7170
   37.290    0.5671
   37.320    0.8561
   37.350    0.8882
   37.380    0.9203
   37.410    1.1771
   37.440    1.1664
   37.470    1.2627
   37.500    1.1664
   37.530    0.8454
   37.560    0.7812
   37.590    0.5671
   37.620    0.5457
   37.650    0.5350
   37.680    0.5136
   37.710    0.4387
   37.740    0.5778
   37.770    0.5993
   37.800    0.4708
   37.830    0.3959
   37.860    0.5671
   37.890    0.4922
   37.920    0.4601
   37.950    0.3638
   37.980    0.4601
   38.010    0.4280
   38.040    0.4173
   38.070    0.5136
   38.100    0.3103
   38.130    0.5564
   38.160    0.4280
   38.190    0.6635
   38.220    0.5029
   38.250    0.4708
   38.280    0.6207
   38.310    0.5564
   38.340    0.5671
   38.370    0.7170
   38.400    0.6207
   38.430    0.6956
   38.460    0.6956
   38.490    0.7170
   38.520    0.5564
   38.550    0.3959
   38.580    0.4494
   38.610    0.3852
   38.640    0.4494
   38.670    0.5029
   38.700    0.4280
   38.730    0.4066
   38.760    0.3852
   38.790    0.3638
   38.820    0.4173
   38.850    0.3424
   38.880    0.3424
   38.910    0.3745
   38.940    0.4280
   38.970    0.5136
   39.000    0.4922
   39.030    0.5564
   39.060    0.4173
   39.090    0.5029
   39.120    0.5457
   39.150    0.4494
   39.180    0.5029
   39.210    0.5136
   39.240    0.5243
   39.270    0.5564
   39.300    0.5243
   39.330    0.4494
   39.360    0.5886
   39.390    0.5029
   39.420    0.7277
   39.450    0.6849
   39.480    0.7063
   39.510    1.0273
   39.540    0.8240
   39.570    1.0380
   39.600    0.8454
   39.630    0.7277
   39.660    0.6528
   39.690    0.5886
   39.720    0.5136
   39.750    0.5564
   39.780    0.4922
   39.810    0.5671
   39.840    0.6314
   39.870    0.5778
   39.900    0.5564
   39.930    0.5029
   39.960    0.3745
   39.990    0.5029