File: data/PXRD/PXRD_KE-305-4E_Cu-Ka1_capillary-1mm_3s-deg.xyd
    1.500   16.5350
    1.545   15.7100
    1.590   14.7270
    1.635   14.6568
    1.680   13.9196
    1.725   14.9728
    1.770   13.6914
    1.815   12.8489
    1.860   13.2175
    1.905   12.3749
    1.950   12.4451
    1.995   11.6202
    2.040   11.8308
    2.085   11.6026
    2.130   11.4095
    2.175   10.4441
    2.220   10.6021
    2.265   10.7776
    2.310   10.6372
    2.355   10.3739
    2.400   10.3739
    2.445   10.7776
    2.490   10.9707
    2.535   11.2340
    2.580   11.2515
    2.625   11.1111
    2.670   11.4446
    2.715   12.1994
    2.760   11.9888
    2.805   12.5154
    2.850   12.9015
    2.895   13.2877
    2.940   14.2180
    2.985   13.7090
    3.030   14.9728
    3.075   15.2887
    3.120   16.6403
    3.165   17.7813
    3.210   19.8701
    3.255   20.4318
    3.300   22.5733
    3.345   23.2930
    3.390   25.4695
    3.435   28.7169
    3.480   31.8413
    3.525   34.7025
    3.570   41.3551
    3.615   46.4104
    3.660   54.5726
    3.705   64.9640
    3.750   83.5879
    3.795  116.3419
    3.840  163.2789
    3.885   95.4889
    3.930   21.3972
    3.975    8.7239
    4.020    6.6877
    4.065    6.5824
    4.110    6.0558
    4.155    5.9505
    4.200    6.0207
    4.245    5.6697
    4.290    5.9329
    4.335    5.6697
    4.380    5.8627
    4.425    5.0553
    4.470    6.0909
    4.515    5.8627
    4.560    6.5122
    4.605    6.2665
    4.650    6.5473
    4.695    6.4420
    4.740    6.5649
    4.785    7.1441
    4.830    7.5127
    4.875    8.1973
    4.920    8.3553
    4.965    8.9521
    5.010    9.9877
    5.055   10.4968
    5.100   11.6904
    5.145   12.7084
    5.190   14.4813
    5.235   17.9568
    5.280   19.5015
    5.325   23.5738
    5.370   31.6833
    5.415   43.0929
    5.460   60.2598
    5.505   38.2833
    5.550   11.6904
    5.595    6.0207
    5.640    5.0728
    5.685    5.1080
    5.730    5.1957
    5.775    5.1255
    5.820    4.8095
    5.865    4.7042
    5.910    4.8271
    5.955    4.7042
    6.000    4.8271
    6.045    4.9324
    6.090    4.8447
    6.135    4.8798
    6.180    5.3186
    6.225    5.4064
    6.270    5.3361
    6.315    5.5994
    6.360    6.2138
    6.405    6.3542
    6.450    6.6526
    6.495    7.6356
    6.540    8.4079
    6.585    9.5138
    6.630   12.4978
    6.675   16.9212
    6.720   19.8526
    6.765   11.9888
    6.810    5.6697
    6.855    4.3883
    6.900    4.5287
    6.945    4.6340
    6.990    4.4760
    7.035    4.1601
    7.080    4.1601
    7.125    4.6516
    7.170    4.4760
    7.215    4.7920
    7.260    4.6691
    7.305    4.7042
    7.350    4.9675
    7.395    5.4590
    7.440    5.2308
    7.485    4.9851
    7.530    5.8627
    7.575    5.8978
    7.620    7.0037
    7.665    7.9867
    7.710    9.9702
    7.755   14.4989
    7.800   11.0936
    7.845    5.8276
    7.890    4.6340
    7.935    4.1074
    7.980    4.3883
    8.025    4.2830
    8.070    3.7915
    8.115    4.2303
    8.160    4.2478
    8.205    4.0021
    8.250    4.4760
    8.295    4.2830
    8.340    4.3883
    8.385    4.1776
    8.430    4.3707
    8.475    4.4936
    8.520    4.5989
    8.565    4.5989
    8.610    4.7218
    8.655    5.6345
    8.700    5.8627
    8.745    4.9149
    8.790    4.3181
    8.835    4.2830
    8.880    4.3532
    8.925    3.6862
    8.970    4.2478
    9.015    4.0899
    9.060    3.9494
    9.105    4.8973
    9.150    4.9851
    9.195    5.7223
    9.240    6.2138
    9.285    7.1968
    9.330    7.9516
    9.375    8.8994
    9.420   11.4095
    9.465   16.5175
    9.510   24.5392
    9.555   19.9403
    9.600    7.8462
    9.645    5.2659
    9.690    4.0197
    9.735    4.6165
    9.780    4.4936
    9.825    4.3532
    9.870    4.5638
    9.915    4.3883
    9.960    4.0548
   10.005    4.1952
   10.050    4.8973
   10.095    5.2835
   10.140    5.4064
   10.185    6.5473
   10.230    7.6532
   10.275   11.0585
   10.320   10.4616
   10.365    6.4595
   10.410    4.3181
   10.455    4.1601
   10.500    3.9846
   10.545    4.1074
   10.590    4.0021
   10.635    3.7915
   10.680    4.0548
   10.725    4.3883
   10.770    4.3707
   10.815    4.9149
   10.860    4.8095
   10.905    5.4941
   10.950    6.6175
   10.995    9.7244
   11.040    8.5484
   11.085    5.4064
   11.130    4.1952
   11.175    3.9670
   11.220    3.9846
   11.265    3.9670
   11.310    3.9143
   11.355    4.2478
   11.400    4.1425
   11.445    4.2654
   11.490    4.5814
   11.535    5.1080
   11.580    5.8627
   11.625    7.4952
   11.670   10.1632
   11.715    9.7420
   11.760    5.8978
   11.805    3.6862
   11.850    3.6862
   11.895    4.0723
   11.940    3.7388
   11.985    3.9494
   12.030    3.7739
   12.075    3.4755
   12.120    3.6862
   12.165    4.0372
   12.210    4.5111
   12.255    4.1952
   12.300    4.4234
   12.345    5.0377
   12.390    4.1074
   12.435    3.8266
   12.480    3.6335
   12.525    4.0899
   12.570    3.7388
   12.615    4.1601
   12.660    3.6686
   12.705    3.9670
   12.750    4.2830
   12.795    4.8271
   12.840    5.2308
   12.885    6.3893
   12.930    7.9340
   12.975    6.8106
   13.020    4.6516
   13.065    3.6862
   13.110    3.5984
   13.155    4.0021
   13.200    3.5984
   13.245    3.9143
   13.290    3.7739
   13.335    4.0021
   13.380    4.2830
   13.425    4.6691
   13.470    4.5111
   13.515    5.1782
   13.560    4.7393
   13.605    4.2654
   13.650    3.7739
   13.695    3.4931
   13.740    3.7915
   13.785    3.8266
   13.830    4.2303
   13.875    3.9846
   13.920    4.3532
   13.965    5.0202
   14.010    5.5292
   14.055    7.1968
   14.100    7.1617
   14.145    5.3361
   14.190    4.0021
   14.235    3.6159
   14.280    4.1425
   14.325    3.7915
   14.370    3.7388
   14.415    3.6159
   14.460    3.8617
   14.505    3.5984
   14.550    3.5282
   14.595    3.3702
   14.640    3.3877
   14.685    3.4580
   14.730    3.7564
   14.775    3.6510
   14.820    3.4580
   14.865    3.6159
   14.910    3.3351
   14.955    3.9846
   15.000    4.0899
   15.045    4.0021
   15.090    4.5989
   15.135    4.3707
   15.180    4.1952
   15.225    3.2824
   15.270    3.7915
   15.315    3.5633
   15.360    3.5808
   15.405    3.6159
   15.450    3.6862
   15.495    3.5457
   15.540    3.5808
   15.585    3.6159
   15.630    4.2127
   15.675    3.8617
   15.720    3.5808
   15.765    3.7915
   15.810    3.7213
   15.855    3.7564
   15.900    3.7037
   15.945    3.6686
   15.990    3.8090
   16.035    4.3181
   16.080    4.4058
   16.125    4.1776
   16.170    3.8792
   16.215    3.9494
   16.260    3.5984
   16.305    3.8266
   16.350    3.7037
   16.395    3.6862
   16.440    3.8968
   16.485    3.5106
   16.530    4.0372
   16.575    4.1425
   16.620    4.8622
   16.665    3.7739
   16.710    3.9846
   16.755    3.5633
   16.800    3.9846
   16.845    3.8617
   16.890    4.4936
   16.935    4.5989
   16.980    5.3361
   17.025    6.5649
   17.070    6.6877
   17.115    5.0553
   17.160    4.1074
   17.205    3.6862
   17.250    3.5106
   17.295    3.7037
   17.340    3.6159
   17.385    3.8266
   17.430    3.8441
   17.475    4.5638
   17.520    4.2127
   17.565    4.0548
   17.610    4.1952
   17.655    3.7564
   17.700    3.7388
   17.745    3.7739
   17.790    3.6335
   17.835    3.8617
   17.880    3.9846
   17.925    4.1601
   17.970    4.1601
   18.015    4.0723
   18.060    4.0548
   18.105    3.9143
   18.150    3.4404
   18.195    3.5282
   18.240    3.8968
   18.285    3.8441
   18.330    4.1250
   18.375    4.2127
   18.420    4.3181
   18.465    3.5633
   18.510    3.7037
   18.555    3.8617
   18.600    3.5106
   18.645    3.7213
   18.690    3.6686
   18.735    3.6862
   18.780    3.7915
   18.825    3.7388
   18.870    3.7388
   18.915    3.6510
   18.960    3.9319
   19.005    3.5984
   19.050    3.7388
   19.095    3.8266
   19.140    3.4580
   19.185    3.7564
   19.230    3.6159
   19.275    3.5633
   19.320    3.8266
   19.365    3.5282
   19.410    3.7213
   19.455    3.7213
   19.500    3.7915
   19.545    4.2830
   19.590    4.3181
   19.635    4.2303
   19.680    3.8266
   19.725    3.5633
   19.770    3.9143
   19.815    3.6335
   19.860    4.0372
   19.905    3.6862
   19.950    4.2303
   19.995    3.7213
   20.040    3.6159
   20.085    3.4053
   20.130    3.7915
   20.175    3.3526
   20.220    3.9494
   20.265    4.5287
   20.310    5.0202
   20.355    5.7574
   20.400    5.9154
   20.445    4.5287
   20.490    3.7037
   20.535    3.4404
   20.580    4.3356
   20.625    3.7213
   20.670    3.4229
   20.715    3.6510
   20.760    3.7564
   20.805    3.5282
   20.850    3.6159
   20.895    3.8617
   20.940    3.9494
   20.985    3.3000
   21.030    3.6335
   21.075    3.4229
   21.120    3.9846
   21.165    3.5808
   21.210    3.5282
   21.255    3.8090
   21.300    3.9670
   21.345    3.5633
   21.390    3.8266
   21.435    3.4931
   21.480    3.5282
   21.525    3.6159
   21.570    3.3702
   21.615    3.4053
   21.660    3.9846
   21.705    3.7037
   21.750    3.9494
   21.795    4.1425
   21.840    4.5463
   21.885    4.5463
   21.930    4.0372
   21.975    3.6335
   22.020    3.7037
   22.065    3.8266
   22.110    4.2478
   22.155    4.3883
   22.200    4.3181
   22.245    3.7213
   22.290    3.8617
   22.335    4.0899
   22.380    4.0899
   22.425    4.0899
   22.470    5.0377
   22.515    5.9505
   22.560    6.1787
   22.605    5.3010
   22.650    4.3356
   22.695    4.2654
   22.740    4.0723
   22.785    4.1952
   22.830    5.3010
   22.875    5.2484
   22.920    6.3016
   22.965    4.8973
   23.010    4.3181
   23.055    3.7388
   23.100    3.9319
   23.145    3.8968
   23.190    4.1952
   23.235    4.5638
   23.280    4.1952
   23.325    3.9670
   23.370    3.8792
   23.415    3.5984
   23.460    3.3877
   23.505    3.9670
   23.550    4.0372
   23.595    3.7739
   23.640    3.5984
   23.685    3.5106
   23.730    3.7037
   23.775    3.7564
   23.820    3.9319
   23.865    4.0899
   23.910    4.6516
   23.955    3.9494
   24.000    3.9846
   24.045    3.7037
   24.090    3.5808
   24.135    3.5282
   24.180    3.6686
   24.225    4.2127
   24.270    3.8266
   24.315    3.9670
   24.360    3.5808
   24.405    3.5984
   24.450    3.5282
   24.495    3.8968
   24.540    4.0021
   24.585    4.0021
   24.630    3.6159
   24.675    3.4053
   24.720    3.3351
   24.765    3.8090
   24.810    3.4755
   24.855    3.4755
   24.900    3.8266
   24.945    3.7915
   24.990    3.7388
   25.035    3.3702
   25.080    4.0548
   25.125    3.7564
   25.170    3.8968
   25.215    3.8090
   25.260    4.0021
   25.305    3.7915
   25.350    3.7213
   25.395    3.5106
   25.440    3.7213
   25.485    4.1776
   25.530    4.2127
   25.575    3.5633
   25.620    3.3175
   25.665    3.5106
   25.710    4.0723
   25.755    5.0026
   25.800    5.0026
   25.845    4.7218
   25.890    4.5287
   25.935    4.0021
   25.980    3.4053
   26.025    3.6510
   26.070    3.5984
   26.115    3.6862
   26.160    3.7388
   26.205    3.3526
   26.250    3.3175
   26.295    3.9846
   26.340    3.6686
   26.385    4.1250
   26.430    3.9494
   26.475    4.0899
   26.520    3.7037
   26.565    3.4580
   26.610    3.7213
   26.655    3.8441
   26.700    3.4229
   26.745    3.3526
   26.790    3.6510
   26.835    3.3877
   26.880    3.7388
   26.925    3.5633
   26.970    4.1074
   27.015    4.0548
   27.060    4.3181
   27.105    3.5633
   27.150    3.4580
   27.195    3.5633
   27.240    3.5457
   27.285    3.2824
   27.330    3.6510
   27.375    3.4580
   27.420    3.0718
   27.465    3.4053
   27.510    3.9143
   27.555    3.7213
   27.600    3.9846
   27.645    3.7037
   27.690    3.9846
   27.735    3.4053
   27.780    3.5808
   27.825    3.5457
   27.870    3.6510
   27.915    3.7388
   27.960    3.8090
   28.005    3.6686
   28.050    3.4580
   28.095    3.9319
   28.140    4.3005
   28.185    4.1776
   28.230    4.2830
   28.275    3.3351
   28.320    3.2122
   28.365    3.6159
   28.410    3.8617
   28.455    3.7915
   28.500    3.9846
   28.545    3.4580
   28.590    3.6862
   28.635    3.4229
   28.680    3.4755
   28.725    3.3702
   28.770    3.3351
   28.815    3.3175
   28.860    3.6510
   28.905    3.0893
   28.950    3.3877
   28.995    3.6686
   29.040    3.7915
   29.085    3.1771
   29.130    3.5106
   29.175    3.4053
   29.220    3.4053
   29.265    3.5984
   29.310    3.9670
   29.355    3.9494
   29.400    3.5457
   29.445    3.4053
   29.490    3.4053
   29.535    3.5106
   29.580    3.2824
   29.625    3.4931
   29.670    3.6335
   29.715    3.5633
   29.760    3.5106
   29.805    3.4404
   29.850    3.6686
   29.895    3.2473
   29.940    3.1245
   29.985    3.4755
   30.030    3.2122
   30.075    3.1947
   30.120    3.1596
   30.165    3.8617
   30.210    3.6510
   30.255    2.9665
   30.300    3.3702
   30.345    3.1420
   30.390    3.1069
   30.435    3.4053
   30.480    3.4580
   30.525    3.2824
   30.570    3.4931
   30.615    3.5282
   30.660    3.2824
   30.705    3.3351
   30.750    3.4229
   30.795    2.9314
   30.840    3.1771
   30.885    2.9665
   30.930    2.9665
   30.975    3.2122
   31.020    2.7032
   31.065    2.8436
   31.110    3.0542
   31.155    3.0367
   31.200    2.9489
   31.245    3.2649
   31.290    3.6510
   31.335    3.3175
   31.380    3.2298
   31.425    3.3351
   31.470    3.2649
   31.515    2.9665
   31.560    3.2298
   31.605    3.3175
   31.650    3.4580
   31.695    3.5106
   31.740    3.6159
   31.785    3.4580
   31.830    3.6159
   31.875    3.2473
   31.920    3.2473
   31.965    3.2298
   32.010    3.1947
   32.055    3.3351
   32.100    3.0191
   32.145    3.1420
   32.190    3.2824
   32.235    3.2122
   32.280    2.7032
   32.325    3.2122
   32.370    3.0191
   32.415    3.1596
   32.460    2.9665
   32.505    3.3526
   32.550    3.2298
   32.595    3.0893
   32.640    3.5106
   32.685    3.1420
   32.730    2.8612
   32.775    3.0893
   32.820    3.1245
   32.865    3.0718
   32.910    3.2122
   32.955    3.1420
   33.000    2.8787
   33.045    3.4229
   33.090    2.9840
   33.135    3.1245
   33.180    2.9489
   33.225    3.1245
   33.270    2.9138
   33.315    2.8260
   33.360    3.0542
   33.405    3.1947
   33.450    2.8787
   33.495    3.3351
   33.540    2.8260
   33.585    3.6159
   33.630    3.2824
   33.675    3.2824
   33.720    2.9489
   33.765    3.1420
   33.810    3.2473
   33.855    3.3702
   33.900    3.4404
   33.945    3.3877
   33.990    3.3877
   34.035    2.9489
   34.080    3.2298
   34.125    2.8085
   34.170    3.3000
   34.215    2.6681
   34.260    2.7909
   34.305    2.9840
   34.350    3.0893
   34.395    3.0016
   34.440    3.0016
   34.485    2.9314
   34.530    2.7207
   34.575    2.6330
   34.620    2.7032
   34.665    3.0191
   34.710    2.5979
   34.755    2.6505
   34.800    3.1771
   34.845    3.0542
   34.890    3.0367
   34.935    2.6681
   34.980    2.9665
   35.025    3.1947
   35.070    2.6856
   35.115    2.7558
   35.160    2.8787
   35.205    2.8260
   35.250    2.7207
   35.295    2.6681
   35.340    2.8963
   35.385    2.6681
   35.430    2.7207
   35.475    2.8963
   35.520    2.9314
   35.565    3.0016
   35.610    3.0191
   35.655    2.4399
   35.700    2.9138
   35.745    2.8085
   35.790    2.6330
   35.835    2.5276
   35.880    2.7734
   35.925    2.9840
   35.970    2.8612
   36.015    2.8260
   36.060    2.9314
   36.105    2.7734
   36.150    2.8085
   36.195    2.4925
   36.240    2.9138
   36.285    2.8787
   36.330    2.6681
   36.375    2.6856
   36.420    2.7383
   36.465    2.9665
   36.510    2.5452
   36.555    2.6154
   36.600    2.4048
   36.645    2.8787
   36.690    2.8260
   36.735    2.7383
   36.780    2.8436
   36.825    2.5979
   36.870    2.4048
   36.915    2.8085
   36.960    2.4750
   37.005    2.6330
   37.050    2.8260
   37.095    3.1245
   37.140    2.7207
   37.185    2.7383
   37.230    2.7383
   37.275    2.5979
   37.320    2.3872
   37.365    2.8085
   37.410    2.4925
   37.455    2.5803
   37.500    2.7383
   37.545    2.9489
   37.590    2.9840
   37.635    2.5101
   37.680    2.7558
   37.725    2.9489
   37.770    2.6505
   37.815    2.4750
   37.860    2.6681
   37.905    2.8612
   37.950    2.8963
   37.995    2.6681
   38.040    3.1069
   38.085    2.8085
   38.130    2.7207
   38.175    2.2995
   38.220    2.8260
   38.265    2.5803
   38.310    2.2643
   38.355    2.6681
   38.400    2.6681
   38.445    2.9138
   38.490    2.7734
   38.535    2.5979
   38.580    2.8787
   38.625    2.3697
   38.670    2.4048
   38.715    2.6681
   38.760    2.5628
   38.805    2.7032
   38.850    2.6154
   38.895    2.7558
   38.940    2.4048
   38.985    2.5452
   39.030    2.4574
   39.075    2.7909
   39.120    2.3872
   39.165    2.6856
   39.210    2.8963
   39.255    2.7734
   39.300    2.4925
   39.345    2.8612
   39.390    2.5276
   39.435    2.4223
   39.480    2.4925
   39.525    2.4223
   39.570    3.2298
   39.615    2.9314
   39.660    2.3697
   39.705    2.8787
   39.750    2.7032
   39.795    2.8787
   39.840    3.0367
   39.885    2.5803
   39.930    2.7032
   39.975    2.6154
   40.020    2.6505
   40.065    2.7207
   40.110    2.7734
   40.155    2.6330
   40.200    2.7909
   40.245    2.4574
   40.290    2.5979
   40.335    2.8787
   40.380    3.1596
   40.425    2.8612
   40.470    2.7909
   40.515    3.0718
   40.560    2.7207
   40.605    2.6505
   40.650    2.4223
   40.695    2.2117
   40.740    2.5452
   40.785    2.4750
   40.830    2.6681
   40.875    2.8612
   40.920    2.5276
   40.965    2.6330
   41.010    2.6154
   41.055    2.3872
   41.100    2.4399
   41.145    2.5452
   41.190    2.6154
   41.235    2.3346
   41.280    2.5803
   41.325    2.3697
   41.370    3.0367
   41.415    2.5452
   41.460    2.6856
   41.505    2.6681
   41.550    2.3872
   41.595    2.5101
   41.640    2.8612
   41.685    2.5452
   41.730    2.6154
   41.775    2.6681
   41.820    2.2819
   41.865    2.5803
   41.910    2.3697
   41.955    2.6681
   42.000    2.4223
   42.045    2.5101
   42.090    2.6154
   42.135    2.6856
   42.180    2.2117
   42.225    2.9138
   42.270    2.6154
   42.315    2.4223
   42.360    2.9138
   42.405    2.7734
   42.450    2.7734
   42.495    2.8085
   42.540    2.7734
   42.585    2.4048
   42.630    2.7734
   42.675    2.9138
   42.720    2.4925
   42.765    2.7207
   42.810    2.5101
   42.855    2.4750
   42.900    2.5101
   42.945    2.7734
   42.990    2.6681
   43.035    2.4399
   43.080    2.6856
   43.125    2.6154
   43.170    2.3346
   43.215    2.8260
   43.260    2.7558
   43.305    2.9489
   43.350    3.0893
   43.395    2.5803
   43.440    2.4223
   43.485    2.4925
   43.530    2.4925
   43.575    2.7558
   43.620    2.7734
   43.665    2.2643
   43.710    2.4925
   43.755    2.7207
   43.800    2.7207
   43.845    2.4048
   43.890    2.6856
   43.935    2.4223
   43.980    2.3697
   44.025    2.7734
   44.070    2.5628
   44.115    2.4750
   44.160    2.6856
   44.205    2.5628
   44.250    2.4223
   44.295    2.5452
   44.340    2.5979
   44.385    2.5628
   44.430    2.8260
   44.475    2.6856
   44.520    2.8260
   44.565    2.5803
   44.610    2.4925
   44.655    2.7383
   44.700    2.3521
   44.745    2.5628
   44.790    2.9314
   44.835    2.5452
   44.880    2.8787
   44.925    2.5979
   44.970    2.5979
   45.015    2.5979
   45.060    2.5276
   45.105    2.4925
   45.150    2.7032
   45.195    2.7383
   45.240    2.5452
   45.285    2.7383
   45.330    2.6330
   45.375    2.5803
   45.420    2.6154
   45.465    2.5276
   45.510    2.1766
   45.555    2.6505
   45.600    2.5803
   45.645    2.5803
   45.690    2.2468
   45.735    2.5979
   45.780    2.7207
   45.825    2.4399
   45.870    2.5803
   45.915    2.2995
   45.960    2.0888
   46.005    2.2995
   46.050    2.3346
   46.095    2.4925
   46.140    2.4574
   46.185    2.6330
   46.230    2.6505
   46.275    2.5803
   46.320    2.5452
   46.365    2.5452
   46.410    2.3872
   46.455    2.4048
   46.500    2.6681
   46.545    2.4048
   46.590    2.2468
   46.635    2.7383
   46.680    2.7734
   46.725    2.6330
   46.770    2.3521
   46.815    2.7383
   46.860    2.4223
   46.905    2.5276
   46.950    2.5101
   46.995    2.4925
   47.040    2.2819
   47.085    2.2292
   47.130    2.5452
   47.175    2.6681
   47.220    2.6856
   47.265    2.4223
   47.310    2.4048
   47.355    2.6154
   47.400    2.4399
   47.445    2.6681
   47.490    2.1415
   47.535    2.5276
   47.580    2.6856
   47.625    2.5452
   47.670    2.4574
   47.715    2.3170
   47.760    2.3872
   47.805    2.6856
   47.850    2.2643
   47.895    2.4223
   47.940    2.4574
   47.985    2.3697
   48.030    2.4925
   48.075    2.4399
   48.120    2.5276
   48.165    2.5452
   48.210    2.5628
   48.255    2.6681
   48.300    2.6154
   48.345    2.0888
   48.390    2.4048
   48.435    2.5979
   48.480    2.5101
   48.525    2.9138
   48.570    2.7207
   48.615    2.4223
   48.660    2.4399
   48.705    2.5979
   48.750    2.3697
   48.795    2.4223
   48.840    2.2292
   48.885    2.3346
   48.930    2.3346
   48.975    2.5803
   49.020    2.4223
   49.065    2.4223
   49.110    2.5452
   49.155    2.2819
   49.200    2.3346
   49.245    2.4399
   49.290    2.6154
   49.335    2.2117
   49.380    2.3521
   49.425    2.3346
   49.470    2.5979
   49.515    2.5452
   49.560    2.5452
   49.605    2.4223
   49.650    2.1766
   49.695    2.1590
   49.740    2.2995
   49.785    2.6154
   49.830    2.2643
   49.875    1.9659
   49.920    2.3872
   49.965    2.1415
   49.980    2.0011