File: data/PXRD/PXRD_Blank_Cu-Ka1_film-3mm_3s-deg.xyd
    1.500    3.3526
    1.545    3.0718
    1.590    3.0016
    1.635    2.9138
    1.680    2.4223
    1.725    3.0367
    1.770    2.6681
    1.815    2.4925
    1.860    2.7734
    1.905    2.9840
    1.950    2.4399
    1.995    2.3170
    2.040    2.5979
    2.085    2.5803
    2.130    2.5628
    2.175    2.5452
    2.220    2.5101
    2.265    2.4399
    2.310    2.5101
    2.355    2.4048
    2.400    2.2995
    2.445    2.2643
    2.490    2.1239
    2.535    2.3697
    2.580    2.2292
    2.625    2.2117
    2.670    2.1941
    2.715    2.1415
    2.760    2.4048
    2.805    1.9835
    2.850    2.3170
    2.895    2.0888
    2.940    2.1415
    2.985    2.3872
    3.030    2.0362
    3.075    2.1239
    3.120    2.1941
    3.165    1.9308
    3.210    2.1415
    3.255    2.0713
    3.300    2.0011
    3.345    2.3521
    3.390    2.4048
    3.435    1.8957
    3.480    1.8255
    3.525    2.0537
    3.570    2.0713
    3.615    2.0362
    3.660    1.8957
    3.705    2.0713
    3.750    2.3170
    3.795    1.9484
    3.840    2.0537
    3.885    2.2117
    3.930    2.1239
    3.975    1.9484
    4.020    1.7378
    4.065    2.2819
    4.110    2.3170
    4.155    1.8606
    4.200    1.9133
    4.245    1.8957
    4.290    2.0888
    4.335    2.0888
    4.380    2.0713
    4.425    2.1941
    4.470    2.4750
    4.515    2.1239
    4.560    2.2995
    4.605    2.1415
    4.650    2.2292
    4.695    2.5276
    4.740    2.3697
    4.785    2.3697
    4.830    2.2819
    4.875    2.1064
    4.920    2.3346
    4.965    2.3872
    5.010    2.5276
    5.055    2.3872
    5.100    2.2117
    5.145    2.5101
    5.190    2.4750
    5.235    2.5101
    5.280    2.6154
    5.325    2.9489
    5.370    2.7734
    5.415    3.1596
    5.460    2.5101
    5.505    2.9665
    5.550    3.0191
    5.595    2.7558
    5.640    2.9840
    5.685    2.8612
    5.730    2.8436
    5.775    2.7207
    5.820    2.5803
    5.865    2.4399
    5.910    2.2819
    5.955    2.3872
    6.000    2.2643
    6.045    2.3521
    6.090    2.2117
    6.135    2.0888
    6.180    1.9308
    6.225    2.0186
    6.270    1.8431
    6.315    2.1415
    6.360    2.0888
    6.405    1.9835
    6.450    1.9835
    6.495    2.0713
    6.540    1.9835
    6.585    2.0537
    6.630    1.8957
    6.675    1.8957
    6.720    1.8957
    6.765    1.9484
    6.810    1.8606
    6.855    1.6149
    6.900    1.9484
    6.945    1.5271
    6.990    1.9133
    7.035    1.6500
    7.080    1.7904
    7.125    1.7904
    7.170    1.6149
    7.215    1.9484
    7.260    1.7729
    7.305    1.4042
    7.350    1.7553
    7.395    1.4042
    7.440    1.7202
    7.485    1.5798
    7.530    1.3691
    7.575    1.5447
    7.620    1.2287
    7.665    1.6500
    7.710    1.6149
    7.755    1.3340
    7.800    1.3340
    7.845    1.1936
    7.890    1.5798
    7.935    1.3340
    7.980    1.3691
    8.025    1.2463
    8.070    1.2989
    8.115    1.1234
    8.160    1.2638
    8.205    1.4920
    8.250    1.3516
    8.295    1.3867
    8.340    1.4920
    8.385    1.4745
    8.430    1.3691
    8.475    1.3516
    8.520    1.6500
    8.565    1.3691
    8.610    1.2814
    8.655    1.1761
    8.700    1.3165
    8.745    1.2463
    8.790    1.4569
    8.835    1.1410
    8.880    1.2287
    8.925    1.1058
    8.970    1.2814
    9.015    1.4394
    9.060    1.1936
    9.105    1.2989
    9.150    1.0181
    9.195    1.3691
    9.240    1.0707
    9.285    1.2287
    9.330    1.1936
    9.375    1.1761
    9.420    1.0707
    9.465    1.1410
    9.510    1.2463
    9.555    1.1410
    9.600    1.2463
    9.645    1.2989
    9.690    1.2463
    9.735    1.2989
    9.780    1.1410
    9.825    1.0532
    9.870    1.3516
    9.915    1.3516
    9.960    1.0707
   10.005    1.1761
   10.050    1.2814
   10.095    1.1234
   10.140    1.2112
   10.185    1.1410
   10.230    1.2112
   10.275    1.3165
   10.320    1.1585
   10.365    1.1234
   10.410    1.4745
   10.455    1.2463
   10.500    1.1936
   10.545    1.3691
   10.590    1.3516
   10.635    1.2112
   10.680    1.3691
   10.725    1.2463
   10.770    1.3691
   10.815    1.3516
   10.860    1.0532
   10.905    1.1761
   10.950    1.2287
   10.995    1.3340
   11.040    1.4745
   11.085    1.2989
   11.130    1.2814
   11.175    1.2638
   11.220    1.1410
   11.265    1.1234
   11.310    1.5271
   11.355    1.2638
   11.400    1.1761
   11.445    1.3516
   11.490    1.2638
   11.535    1.4218
   11.580    1.2814
   11.625    1.3165
   11.670    0.9303
   11.715    1.1058
   11.760    1.1410
   11.805    1.1410
   11.850    1.3340
   11.895    1.2112
   11.940    1.1585
   11.985    1.4745
   12.030    1.2814
   12.075    1.4394
   12.120    1.2463
   12.165    1.1234
   12.210    1.3516
   12.255    1.1585
   12.300    1.0707
   12.345    0.9654
   12.390    1.1761
   12.435    1.4394
   12.480    1.1058
   12.525    1.1234
   12.570    1.1410
   12.615    1.2463
   12.660    1.0707
   12.705    1.2287
   12.750    1.1058
   12.795    1.3516
   12.840    1.0883
   12.885    1.1761
   12.930    1.2112
   12.975    1.2463
   13.020    1.2287
   13.065    1.1410
   13.110    1.1058
   13.155    1.2463
   13.200    1.0883
   13.245    1.0356
   13.290    1.1761
   13.335    1.1936
   13.380    1.4042
   13.425    1.0707
   13.470    1.1585
   13.515    1.1585
   13.560    0.9830
   13.605    1.3691
   13.650    1.5973
   13.695    1.1761
   13.740    1.2463
   13.785    1.0883
   13.830    1.1585
   13.875    1.2989
   13.920    1.3867
   13.965    1.1234
   14.010    1.1410
   14.055    1.2638
   14.100    1.0532
   14.145    1.1058
   14.190    1.3691
   14.235    1.3516
   14.280    1.3867
   14.325    1.5271
   14.370    1.4394
   14.415    1.3165
   14.460    1.3516
   14.505    1.3867
   14.550    1.4394
   14.595    1.3867
   14.640    1.1761
   14.685    1.1585
   14.730    1.2287
   14.775    1.3691
   14.820    1.2989
   14.865    1.3867
   14.910    1.1058
   14.955    1.0532
   15.000    1.2463
   15.045    1.2814
   15.090    1.3691
   15.135    1.1410
   15.180    1.1058
   15.225    1.0707
   15.270    1.0181
   15.315    1.1234
   15.360    1.2814
   15.405    1.1234
   15.450    1.0532
   15.495    1.0707
   15.540    1.2814
   15.585    1.2638
   15.630    1.2814
   15.675    1.2287
   15.720    1.2989
   15.765    1.0356
   15.810    1.3516
   15.855    1.0707
   15.900    0.9479
   15.945    1.2287
   15.990    1.2463
   16.035    0.8777
   16.080    1.1936
   16.125    1.2989
   16.170    1.0883
   16.215    1.2814
   16.260    1.1410
   16.305    1.1410
   16.350    1.2112
   16.395    1.2638
   16.440    1.3867
   16.485    1.3691
   16.530    1.1410
   16.575    1.1761
   16.620    1.0356
   16.665    1.0005
   16.710    1.2112
   16.755    1.1585
   16.800    1.1936
   16.845    1.2463
   16.890    1.3516
   16.935    1.1410
   16.980    1.1936
   17.025    1.1410
   17.070    1.1585
   17.115    1.0883
   17.160    1.3165
   17.205    1.1410
   17.250    1.2112
   17.295    1.0883
   17.340    1.1410
   17.385    1.2287
   17.430    1.1761
   17.475    1.1936
   17.520    0.8952
   17.565    1.0883
   17.610    1.5096
   17.655    1.1585
   17.700    1.2989
   17.745    1.0005
   17.790    1.2112
   17.835    1.1936
   17.880    1.1936
   17.925    1.1936
   17.970    1.0532
   18.015    1.0532
   18.060    1.2287
   18.105    0.9830
   18.150    1.1058
   18.195    1.0883
   18.240    0.9479
   18.285    1.0883
   18.330    1.1761
   18.375    1.1410
   18.420    1.2638
   18.465    1.1761
   18.510    1.1936
   18.555    1.2463
   18.600    1.1761
   18.645    1.1058
   18.690    1.0883
   18.735    1.1058
   18.780    1.1585
   18.825    1.0181
   18.870    1.1234
   18.915    1.1761
   18.960    1.0707
   19.005    1.1936
   19.050    1.1058
   19.095    1.2112
   19.140    1.2463
   19.185    1.1585
   19.230    1.0883
   19.275    0.9128
   19.320    1.1936
   19.365    1.1058
   19.410    1.1234
   19.455    1.0356
   19.500    1.2463
   19.545    0.8250
   19.590    1.0005
   19.635    1.1058
   19.680    0.9303
   19.725    1.2989
   19.770    0.9303
   19.815    1.0707
   19.860    0.9654
   19.905    1.0181
   19.950    1.1410
   19.995    1.0181
   20.040    0.8074
   20.085    1.1585
   20.130    1.1585
   20.175    1.1585
   20.220    1.1234
   20.265    1.0707
   20.310    1.0707
   20.355    1.0883
   20.400    0.9128
   20.445    1.0356
   20.490    0.9128
   20.535    1.0356
   20.580    0.7899
   20.625    0.8777
   20.670    1.0181
   20.715    1.0883
   20.760    0.8250
   20.805    0.9303
   20.850    0.9303
   20.895    0.9654
   20.940    0.8952
   20.985    0.8952
   21.030    0.8952
   21.075    1.0532
   21.120    0.8777
   21.165    0.8601
   21.210    0.8777
   21.255    1.0005
   21.300    1.1761
   21.345    1.0005
   21.390    0.9830
   21.435    1.0181
   21.480    0.8425
   21.525    0.9654
   21.570    1.0883
   21.615    1.2112
   21.660    1.0532
   21.705    1.0883
   21.750    0.9303
   21.795    0.8952
   21.840    0.8425
   21.885    1.0005
   21.930    0.9303
   21.975    0.7899
   22.020    1.0181
   22.065    0.9128
   22.110    0.9303
   22.155    1.1410
   22.200    1.0005
   22.245    0.8777
   22.290    0.9830
   22.335    0.7548
   22.380    0.8777
   22.425    0.9479
   22.470    0.8777
   22.515    0.8250
   22.560    0.8601
   22.605    0.9128
   22.650    0.8250
   22.695    0.8425
   22.740    0.9830
   22.785    0.8777
   22.830    0.8250
   22.875    0.9303
   22.920    0.8777
   22.965    0.8250
   23.010    0.9303
   23.055    0.8074
   23.100    0.9479
   23.145    0.6846
   23.190    0.8250
   23.235    0.8952
   23.280    0.8074
   23.325    0.8074
   23.370    0.8777
   23.415    0.8250
   23.460    0.7723
   23.505    0.7899
   23.550    0.8601
   23.595    0.8074
   23.640    0.8250
   23.685    0.8777
   23.730    0.7899
   23.775    0.9303
   23.820    0.8777
   23.865    0.9830
   23.910    0.8777
   23.955    0.7021
   24.000    0.7197
   24.045    0.7197
   24.090    0.7372
   24.135    0.7548
   24.180    0.8425
   24.225    0.7899
   24.270    0.9830
   24.315    0.6846
   24.360    0.7548
   24.405    1.0707
   24.450    0.7548
   24.495    0.7548
   24.540    1.0707
   24.585    0.8425
   24.630    0.7899
   24.675    0.6319
   24.720    0.8250
   24.765    0.7899
   24.810    0.7021
   24.855    0.7899
   24.900    0.8601
   24.945    0.6319
   24.990    0.7548
   25.035    0.8425
   25.080    0.7021
   25.125    0.7021
   25.170    0.7723
   25.215    0.7197
   25.260    0.7021
   25.305    0.7372
   25.350    0.7197
   25.395    0.8425
   25.440    0.7372
   25.485    0.7021
   25.530    0.8250
   25.575    0.6670
   25.620    0.6670
   25.665    0.8074
   25.710    0.9654
   25.755    0.9830
   25.800    0.6319
   25.845    0.6846
   25.890    0.6846
   25.935    0.6670
   25.980    0.8425
   26.025    0.6670
   26.070    0.6846
   26.115    0.7372
   26.160    0.6495
   26.205    0.6495
   26.250    0.6495
   26.295    0.9479
   26.340    0.8777
   26.385    0.7197
   26.430    0.6670
   26.475    0.7197
   26.520    0.7723
   26.565    0.7197
   26.610    0.7372
   26.655    0.8601
   26.700    0.6846
   26.745    0.6144
   26.790    0.7899
   26.835    0.6846
   26.880    0.6319
   26.925    0.6319
   26.970    0.6846
   27.015    0.7197
   27.060    0.5968
   27.105    0.7548
   27.150    0.6319
   27.195    0.7021
   27.240    0.5793
   27.285    0.7197
   27.330    0.7723
   27.375    0.6670
   27.420    0.6495
   27.465    0.7197
   27.510    0.6144
   27.555    0.6846
   27.600    0.6144
   27.645    0.6144
   27.690    0.7372
   27.735    0.6670
   27.780    0.5793
   27.825    0.6495
   27.870    0.6495
   27.915    0.7548
   27.960    0.6319
   28.005    0.6670
   28.050    0.8777
   28.095    0.6319
   28.140    0.6495
   28.185    0.7372
   28.230    0.7548
   28.275    0.5968
   28.320    0.6670
   28.365    0.5617
   28.410    0.6670
   28.455    0.6495
   28.500    0.5793
   28.545    0.6670
   28.590    0.5968
   28.635    0.6670
   28.680    0.6670
   28.725    0.5968
   28.770    0.7723
   28.815    0.6670
   28.860    0.4564
   28.905    0.6319
   28.950    0.7372
   28.995    0.5266
   29.040    0.5441
   29.085    0.5090
   29.130    0.7372
   29.175    0.6495
   29.220    0.5441
   29.265    0.5793
   29.310    0.5968
   29.355    0.7197
   29.400    0.5441
   29.445    0.6144
   29.490    0.6319
   29.535    0.6144
   29.580    0.6495
   29.625    0.5090
   29.670    0.5090
   29.715    0.7548
   29.760    0.5968
   29.805    0.4739
   29.850    0.6495
   29.895    0.4564
   29.940    0.5968
   29.985    0.4388
   30.030    0.7197
   30.075    0.4739
   30.120    0.6144
   30.165    0.4739
   30.210    0.6846
   30.255    0.5793
   30.300    0.5266
   30.345    0.4564
   30.390    0.5968
   30.435    0.4915
   30.480    0.5266
   30.525    0.6319
   30.570    0.6495
   30.615    0.6319
   30.660    0.4564
   30.705    0.3862
   30.750    0.5266
   30.795    0.5441
   30.840    0.4388
   30.885    0.4213
   30.930    0.4564
   30.975    0.4739
   31.020    0.6144
   31.065    0.4037
   31.110    0.4213
   31.155    0.4915
   31.200    0.4388
   31.245    0.4213
   31.290    0.4564
   31.335    0.7197
   31.380    0.4564
   31.425    0.3335
   31.470    0.3686
   31.515    0.3686
   31.560    0.4388
   31.605    0.4915
   31.650    0.5090
   31.695    0.5441
   31.740    0.4915
   31.785    0.5266
   31.830    0.4213
   31.875    0.5266
   31.920    0.5968
   31.965    0.4739
   32.010    0.4213
   32.055    0.5090
   32.100    0.4915
   32.145    0.4213
   32.190    0.4388
   32.235    0.3862
   32.280    0.3862
   32.325    0.4388
   32.370    0.5441
   32.415    0.3686
   32.460    0.5441
   32.505    0.4388
   32.550    0.4213
   32.595    0.3511
   32.640    0.4564
   32.685    0.3862
   32.730    0.3686
   32.775    0.3862
   32.820    0.3686
   32.865    0.4739
   32.910    0.4037
   32.955    0.3511
   33.000    0.3686
   33.045    0.4564
   33.090    0.2984
   33.135    0.4915
   33.180    0.4388
   33.225    0.3862
   33.270    0.4915
   33.315    0.3511
   33.360    0.4739
   33.405    0.3862
   33.450    0.4388
   33.495    0.3686
   33.540    0.3686
   33.585    0.4388
   33.630    0.4037
   33.675    0.3160
   33.720    0.6144
   33.765    0.3686
   33.810    0.4915
   33.855    0.3335
   33.900    0.3160
   33.945    0.4739
   33.990    0.4915
   34.035    0.4915
   34.080    0.4564
   34.125    0.3686
   34.170    0.4037
   34.215    0.3335
   34.260    0.3686
   34.305    0.2808
   34.350    0.3160
   34.395    0.4564
   34.440    0.4037
   34.485    0.3160
   34.530    0.4213
   34.575    0.4739
   34.620    0.5441
   34.665    0.5090
   34.710    0.4213
   34.755    0.3160
   34.800    0.2984
   34.845    0.5090
   34.890    0.4037
   34.935    0.5266
   34.980    0.3862
   35.025    0.3511
   35.070    0.4213
   35.115    0.3160
   35.160    0.3686
   35.205    0.4037
   35.250    0.3862
   35.295    0.2633
   35.340    0.3335
   35.385    0.4037
   35.430    0.4037
   35.475    0.3862
   35.520    0.2808
   35.565    0.4739
   35.610    0.3511
   35.655    0.3511
   35.700    0.3511
   35.745    0.2984
   35.790    0.4739
   35.835    0.4388
   35.880    0.2633
   35.925    0.3862
   35.970    0.3686
   36.015    0.3160
   36.060    0.2984
   36.105    0.4564
   36.150    0.3686
   36.195    0.4213
   36.240    0.4213
   36.285    0.5090
   36.330    0.4213
   36.375    0.3686
   36.420    0.3862
   36.465    0.4037
   36.510    0.3160
   36.555    0.3862
   36.600    0.3335
   36.645    0.4388
   36.690    0.4564
   36.735    0.4564
   36.780    0.3686
   36.825    0.4388
   36.870    0.4915
   36.915    0.3335
   36.960    0.2808
   37.005    0.5090
   37.050    0.3335
   37.095    0.2808
   37.140    0.3511
   37.185    0.2633
   37.230    0.2984
   37.275    0.2457
   37.320    0.3160
   37.365    0.3335
   37.410    0.3686
   37.455    0.4037
   37.500    0.3862
   37.545    0.2106
   37.590    0.3160
   37.635    0.2808
   37.680    0.3862
   37.725    0.3160
   37.770    0.4213
   37.815    0.4388
   37.860    0.2808
   37.905    0.3335
   37.950    0.1931
   37.995    0.4388
   38.040    0.3511
   38.085    0.3335
   38.130    0.3511
   38.175    0.2984
   38.220    0.3335
   38.265    0.4213
   38.310    0.2633
   38.355    0.4388
   38.400    0.3511
   38.445    0.4388
   38.490    0.2633
   38.535    0.3160
   38.580    0.3335
   38.625    0.3335
   38.670    0.2808
   38.715    0.3862
   38.760    0.3862
   38.805    0.3511
   38.850    0.3686
   38.895    0.3862
   38.940    0.3862
   38.985    0.3335
   39.030    0.4213
   39.075    0.3686
   39.120    0.3160
   39.165    0.2984
   39.210    0.4213
   39.255    0.2984
   39.300    0.3160
   39.345    0.4388
   39.390    0.2633
   39.435    0.2984
   39.480    0.3862
   39.525    0.2808
   39.570    0.3686
   39.615    0.2633
   39.660    0.3511
   39.705    0.2457
   39.750    0.3160
   39.795    0.2633
   39.840    0.4037
   39.885    0.3160
   39.930    0.2808
   39.975    0.4564
   40.020    0.3160
   40.065    0.2808
   40.110    0.3862
   40.155    0.2808
   40.200    0.2808
   40.245    0.2808
   40.290    0.2633
   40.335    0.2457
   40.380    0.3686
   40.425    0.2106
   40.470    0.2808
   40.515    0.3686
   40.560    0.4213
   40.605    0.2282
   40.650    0.2633
   40.695    0.3335
   40.740    0.2808
   40.785    0.2984
   40.830    0.2984
   40.875    0.2633
   40.920    0.3335
   40.965    0.3862
   41.010    0.3686
   41.055    0.3862
   41.100    0.4213
   41.145    0.3511
   41.190    0.3335
   41.235    0.2984
   41.280    0.1755
   41.325    0.2282
   41.370    0.3160
   41.415    0.3335
   41.460    0.4213
   41.505    0.2282
   41.550    0.3160
   41.595    0.3335
   41.640    0.2808
   41.685    0.2808
   41.730    0.3160
   41.775    0.3335
   41.820    0.3160
   41.865    0.4037
   41.910    0.3160
   41.955    0.2633
   42.000    0.3686
   42.045    0.3686
   42.090    0.3160
   42.135    0.4037
   42.180    0.2984
   42.225    0.4388
   42.270    0.3862
   42.315    0.2457
   42.360    0.2808
   42.405    0.3862
   42.450    0.3335
   42.495    0.3335
   42.540    0.2808
   42.585    0.3862
   42.630    0.3335
   42.675    0.3511
   42.720    0.2633
   42.765    0.3160
   42.810    0.3862
   42.855    0.4037
   42.900    0.2808
   42.945    0.4037
   42.990    0.2808
   43.035    0.2984
   43.080    0.3160
   43.125    0.3160
   43.170    0.3686
   43.215    0.1755
   43.260    0.4564
   43.305    0.3335
   43.350    0.2984
   43.395    0.2633
   43.440    0.3511
   43.485    0.3335
   43.530    0.2984
   43.575    0.4388
   43.620    0.4213
   43.665    0.2984
   43.710    0.1755
   43.755    0.2808
   43.800    0.3862
   43.845    0.3862
   43.890    0.2808
   43.935    0.3335
   43.980    0.2808
   44.025    0.2282
   44.070    0.2457
   44.115    0.3335
   44.160    0.3335
   44.205    0.2984
   44.250    0.3160
   44.295    0.3335
   44.340    0.2457
   44.385    0.2633
   44.430    0.2984
   44.475    0.2633
   44.520    0.2633
   44.565    0.3335
   44.610    0.4213
   44.655    0.2633
   44.700    0.3686
   44.745    0.2984
   44.790    0.2106
   44.835    0.2808
   44.880    0.3335
   44.925    0.2808
   44.970    0.3511
   45.015    0.3862
   45.060    0.3686
   45.105    0.2457
   45.150    0.2984
   45.195    0.3862
   45.240    0.2457
   45.285    0.3335
   45.330    0.2984
   45.375    0.2984
   45.420    0.2984
   45.465    0.3160
   45.510    0.3160
   45.555    0.4037
   45.600    0.3160
   45.645    0.2633
   45.690    0.3160
   45.735    0.3511
   45.780    0.2633
   45.825    0.2457
   45.870    0.2808
   45.915    0.3160
   45.960    0.3160
   46.005    0.2808
   46.050    0.2282
   46.095    0.3335
   46.140    0.3160
   46.185    0.3335
   46.230    0.2984
   46.275    0.3511
   46.320    0.2106
   46.365    0.3862
   46.410    0.2633
   46.455    0.2457
   46.500    0.2633
   46.545    0.2808
   46.590    0.2282
   46.635    0.2984
   46.680    0.2282
   46.725    0.3862
   46.770    0.2808
   46.815    0.2106
   46.860    0.3160
   46.905    0.2282
   46.950    0.3160
   46.995    0.3511
   47.040    0.2633
   47.085    0.2808
   47.130    0.2457
   47.175    0.2633
   47.220    0.3511
   47.265    0.3335
   47.310    0.2457
   47.355    0.2633
   47.400    0.2633
   47.445    0.2984
   47.490    0.2633
   47.535    0.3160
   47.580    0.3686
   47.625    0.2633
   47.670    0.2282
   47.715    0.2808
   47.760    0.2984
   47.805    0.2984
   47.850    0.3335
   47.895    0.2457
   47.940    0.3160
   47.985    0.2984
   48.030    0.2457
   48.075    0.2106
   48.120    0.3686
   48.165    0.2633
   48.210    0.2984
   48.255    0.2984
   48.300    0.2457
   48.345    0.3160
   48.390    0.1755
   48.435    0.2282
   48.480    0.2633
   48.525    0.2106
   48.570    0.2282
   48.615    0.1755
   48.660    0.2984
   48.705    0.4037
   48.750    0.2457
   48.795    0.2633
   48.840    0.2282
   48.885    0.2457
   48.930    0.2457
   48.975    0.2457
   49.020    0.2984
   49.065    0.4037
   49.110    0.1755
   49.155    0.2984
   49.200    0.2633
   49.245    0.3862
   49.290    0.2457
   49.335    0.2633
   49.380    0.3335
   49.425    0.2106
   49.470    0.2633
   49.515    0.2808
   49.560    0.3335
   49.605    0.3160
   49.650    0.2282
   49.695    0.1755
   49.740    0.2282
   49.785    0.2984
   49.830    0.1404
   49.875    0.2633
   49.920    0.2106
   49.965    0.2106
   49.980    0.1931