File: data/PXRD/PXRD_KE-264_Co-Ka1_film-3mm_3s-deg.xyd
    1.500    8.8104
    1.530    8.4894
    1.560    7.9722
    1.590    7.9187
    1.620    7.0626
    1.650    6.8664
    1.680    6.6702
    1.710    5.8142
    1.740    6.1530
    1.770    5.6893
    1.800    5.3683
    1.830    5.1008
    1.860    4.7976
    1.890    4.9403
    1.920    4.6014
    1.950    4.7084
    1.980    4.3517
    2.010    4.0307
    2.040    4.3517
    2.070    3.7988
    2.100    4.0842
    2.130    3.6740
    2.160    3.1746
    2.190    3.3530
    2.220    3.7096
    2.250    3.0676
    2.280    3.4600
    2.310    3.3530
    2.340    2.9963
    2.370    3.2638
    2.400    2.8714
    2.430    3.1568
    2.460    2.6931
    2.490    2.7644
    2.520    2.6039
    2.550    2.7466
    2.580    2.4077
    2.610    2.6217
    2.640    2.9428
    2.670    2.6574
    2.700    2.5861
    2.730    2.4434
    2.760    2.5325
    2.790    2.1759
    2.820    2.1223
    2.850    2.3007
    2.880    2.3899
    2.910    2.1759
    2.940    2.0510
    2.970    2.0688
    3.000    2.1402
    3.030    1.9797
    3.060    2.1402
    3.090    1.8548
    3.120    1.8905
    3.150    1.9440
    3.180    2.1759
    3.210    1.8727
    3.240    1.6408
    3.270    1.5516
    3.300    1.7478
    3.330    1.8013
    3.360    1.8013
    3.390    2.2115
    3.420    1.6051
    3.450    1.9975
    3.480    1.6230
    3.510    1.4803
    3.540    1.4981
    3.570    1.8192
    3.600    1.8013
    3.630    1.6408
    3.660    1.9440
    3.690    1.7657
    3.720    1.6765
    3.750    1.8548
    3.780    1.5873
    3.810    1.7300
    3.840    1.6408
    3.870    1.5338
    3.900    1.6051
    3.930    1.6230
    3.960    1.8370
    3.990    1.6051
    4.020    1.7300
    4.050    1.5160
    4.080    1.4446
    4.110    1.4625
    4.140    1.6051
    4.170    1.5516
    4.200    1.7300
    4.230    1.5516
    4.260    1.6230
    4.290    1.3911
    4.320    1.3733
    4.350    1.3198
    4.380    1.5695
    4.410    1.5516
    4.440    1.4981
    4.470    1.6408
    4.500    1.4803
    4.530    1.4981
    4.560    1.4446
    4.590    1.4446
    4.620    1.3911
    4.650    1.6586
    4.680    1.5160
    4.710    1.6943
    4.740    1.6765
    4.770    1.4268
    4.800    1.4090
    4.830    1.5160
    4.860    1.4268
    4.890    1.3376
    4.920    1.4625
    4.950    1.4268
    4.980    1.4803
    5.010    1.4625
    5.040    1.4446
    5.070    1.4446
    5.100    1.6051
    5.130    1.4268
    5.160    1.6765
    5.190    1.5873
    5.220    1.5873
    5.250    1.4803
    5.280    1.3733
    5.310    1.5873
    5.340    1.6230
    5.370    1.5338
    5.400    1.2306
    5.430    1.4268
    5.460    1.4446
    5.490    1.4268
    5.520    1.4268
    5.550    1.7657
    5.580    1.3733
    5.610    1.5338
    5.640    1.4803
    5.670    1.4625
    5.700    1.5873
    5.730    1.5873
    5.760    1.5873
    5.790    1.6586
    5.820    1.5516
    5.850    1.8013
    5.880    1.5695
    5.910    1.7300
    5.940    1.7121
    5.970    1.6051
    6.000    1.8370
    6.030    1.7300
    6.060    1.4625
    6.090    1.4268
    6.120    1.7657
    6.150    1.7121
    6.180    1.7835
    6.210    1.8192
    6.240    1.8905
    6.270    1.8192
    6.300    1.8013
    6.330    1.9440
    6.360    1.9440
    6.390    1.9262
    6.420    1.8727
    6.450    2.0332
    6.480    2.1223
    6.510    1.8370
    6.540    2.0332
    6.570    1.9440
    6.600    1.9975
    6.630    1.8548
    6.660    1.9083
    6.690    1.8013
    6.720    2.0153
    6.750    1.4625
    6.780    1.8370
    6.810    1.7300
    6.840    1.6051
    6.870    1.7835
    6.900    1.7657
    6.930    1.5160
    6.960    1.4090
    6.990    1.4446
    7.020    1.4625
    7.050    1.6051
    7.080    1.6765
    7.110    1.4268
    7.140    1.4981
    7.170    1.3554
    7.200    1.5338
    7.230    1.3733
    7.260    1.6765
    7.290    1.5516
    7.320    1.3198
    7.350    1.6765
    7.380    1.6765
    7.410    1.3019
    7.440    1.5338
    7.470    1.5160
    7.500    1.3911
    7.530    1.4625
    7.560    1.4090
    7.590    1.4625
    7.620    1.1949
    7.650    1.4625
    7.680    1.1414
    7.710    1.3198
    7.740    1.1058
    7.770    1.3911
    7.800    1.2484
    7.830    1.4268
    7.860    1.2841
    7.890    1.3911
    7.920    1.1236
    7.950    1.2484
    7.980    1.3554
    8.010    1.3376
    8.040    1.3376
    8.070    1.2484
    8.100    1.1771
    8.130    1.2306
    8.160    1.4090
    8.190    1.1771
    8.220    1.3019
    8.250    1.2484
    8.280    1.4268
    8.310    1.2841
    8.340    1.2128
    8.370    1.3376
    8.400    1.1058
    8.430    1.0701
    8.460    0.9096
    8.490    1.2484
    8.520    1.1949
    8.550    1.0344
    8.580    1.4803
    8.610    1.1058
    8.640    1.1949
    8.670    1.3733
    8.700    1.0523
    8.730    1.1414
    8.760    0.9274
    8.790    1.2128
    8.820    0.9631
    8.850    1.3376
    8.880    1.1771
    8.910    0.9809
    8.940    1.1593
    8.970    1.0344
    9.000    0.8204
    9.030    1.1058
    9.060    0.9988
    9.090    0.9631
    9.120    1.2663
    9.150    0.9809
    9.180    1.1593
    9.210    1.1593
    9.240    1.0344
    9.270    1.1414
    9.300    0.9274
    9.330    1.1771
    9.360    1.2306
    9.390    0.9274
    9.420    1.0166
    9.450    0.9452
    9.480    1.2128
    9.510    1.0701
    9.540    1.2128
    9.570    0.9631
    9.600    1.1593
    9.630    0.8917
    9.660    0.8917
    9.690    0.8917
    9.720    0.9988
    9.750    0.9809
    9.780    0.9452
    9.810    1.0344
    9.840    1.2484
    9.870    1.1771
    9.900    0.9988
    9.930    1.0523
    9.960    1.0701
    9.990    0.9452
   10.020    1.0166
   10.050    0.9452
   10.080    0.7847
   10.110    1.1593
   10.140    0.8561
   10.170    1.0523
   10.200    0.8382
   10.230    0.9988
   10.260    0.6956
   10.290    1.1236
   10.320    0.9631
   10.350    0.9274
   10.380    0.8561
   10.410    1.1414
   10.440    0.9096
   10.470    0.9452
   10.500    0.8917
   10.530    0.9809
   10.560    1.2306
   10.590    0.7491
   10.620    1.0166
   10.650    0.7847
   10.680    0.8204
   10.710    0.9452
   10.740    0.7491
   10.770    0.9096
   10.800    0.9452
   10.830    0.9988
   10.860    0.8917
   10.890    0.8739
   10.920    1.1058
   10.950    0.9631
   10.980    0.9452
   11.010    0.7669
   11.040    0.8204
   11.070    1.0879
   11.100    0.6777
   11.130    0.7847
   11.160    1.0523
   11.190    0.7669
   11.220    0.9096
   11.250    1.0701
   11.280    0.9274
   11.310    0.9096
   11.340    1.0166
   11.370    0.8382
   11.400    0.9096
   11.430    0.8561
   11.460    0.6242
   11.490    0.9452
   11.520    1.1236
   11.550    0.7847
   11.580    0.7847
   11.610    0.8917
   11.640    0.8382
   11.670    0.8382
   11.700    0.9452
   11.730    0.9274
   11.760    0.6956
   11.790    0.8739
   11.820    0.7847
   11.850    0.8204
   11.880    1.0523
   11.910    0.7669
   11.940    0.9096
   11.970    1.1058
   12.000    0.8739
   12.030    0.7669
   12.060    0.8917
   12.090    0.9988
   12.120    0.9988
   12.150    0.9631
   12.180    0.8382
   12.210    0.8917
   12.240    0.9452
   12.270    0.9988
   12.300    0.9274
   12.330    0.8739
   12.360    1.0701
   12.390    0.9452
   12.420    0.9096
   12.450    0.8026
   12.480    0.9096
   12.510    1.0879
   12.540    1.1949
   12.570    0.9631
   12.600    0.9452
   12.630    0.9452
   12.660    0.8917
   12.690    1.0166
   12.720    0.9631
   12.750    0.8917
   12.780    0.8026
   12.810    0.7312
   12.840    1.0523
   12.870    0.7847
   12.900    1.0166
   12.930    0.8382
   12.960    0.9274
   12.990    1.0523
   13.020    0.8561
   13.050    0.8204
   13.080    1.0879
   13.110    0.8917
   13.140    1.1236
   13.170    0.9452
   13.200    0.9274
   13.230    0.8739
   13.260    1.0344
   13.290    0.9452
   13.320    0.8739
   13.350    0.9274
   13.380    0.8204
   13.410    0.8561
   13.440    0.7312
   13.470    0.8739
   13.500    0.9096
   13.530    0.8026
   13.560    0.9096
   13.590    0.8382
   13.620    0.7491
   13.650    0.9274
   13.680    0.9096
   13.710    0.8026
   13.740    0.8204
   13.770    0.8204
   13.800    0.9452
   13.830    0.9631
   13.860    0.9274
   13.890    0.8739
   13.920    0.8917
   13.950    0.8561
   13.980    0.8382
   14.010    0.8382
   14.040    0.7491
   14.070    0.9452
   14.100    0.8204
   14.130    0.8204
   14.160    0.7312
   14.190    0.9274
   14.220    0.6777
   14.250    0.8026
   14.280    0.9631
   14.310    0.7669
   14.340    0.8026
   14.370    0.8561
   14.400    0.8561
   14.430    0.8204
   14.460    0.9452
   14.490    0.8561
   14.520    0.7491
   14.550    0.7669
   14.580    0.7491
   14.610    0.8917
   14.640    0.7847
   14.670    0.7847
   14.700    0.9274
   14.730    0.9988
   14.760    0.8204
   14.790    0.9096
   14.820    0.8382
   14.850    0.6421
   14.880    0.7669
   14.910    0.7134
   14.940    1.0344
   14.970    0.8917
   15.000    0.8561
   15.030    0.8561
   15.060    0.8561
   15.090    0.7312
   15.120    0.8026
   15.150    0.9274
   15.180    0.8561
   15.210    0.7312
   15.240    0.8382
   15.270    0.7312
   15.300    0.8739
   15.330    0.8382
   15.360    0.9096
   15.390    0.8739
   15.420    0.9809
   15.450    0.8739
   15.480    0.9096
   15.510    0.8561
   15.540    0.8739
   15.570    0.8382
   15.600    0.7312
   15.630    0.9274
   15.660    0.9452
   15.690    0.9096
   15.720    0.7669
   15.750    0.8739
   15.780    0.8204
   15.810    0.6956
   15.840    0.7491
   15.870    0.8561
   15.900    0.7847
   15.930    0.9274
   15.960    0.7491
   15.990    0.8382
   16.020    0.7491
   16.050    0.9809
   16.080    0.8561
   16.110    0.8026
   16.140    0.7312
   16.170    0.9988
   16.200    0.8561
   16.230    0.7669
   16.260    0.8739
   16.290    0.8561
   16.320    0.9096
   16.350    0.7134
   16.380    0.9809
   16.410    0.8917
   16.440    0.8739
   16.470    0.8204
   16.500    0.9988
   16.530    0.8917
   16.560    1.1058
   16.590    0.8917
   16.620    1.0166
   16.650    0.9631
   16.680    0.9096
   16.710    0.9809
   16.740    0.8561
   16.770    0.9096
   16.800    0.7312
   16.830    0.8026
   16.860    0.9274
   16.890    1.0879
   16.920    0.9452
   16.950    0.9096
   16.980    1.0166
   17.010    0.8026
   17.040    0.9809
   17.070    0.9452
   17.100    0.8204
   17.130    0.9096
   17.160    0.9809
   17.190    0.8917
   17.220    0.9452
   17.250    0.7491
   17.280    0.8917
   17.310    1.0344
   17.340    0.9631
   17.370    0.8561
   17.400    0.7312
   17.430    0.9096
   17.460    0.7134
   17.490    0.9631
   17.520    0.8026
   17.550    0.9452
   17.580    0.8026
   17.610    0.8204
   17.640    0.6421
   17.670    0.7847
   17.700    1.0166
   17.730    0.9096
   17.760    1.0166
   17.790    0.7669
   17.820    0.7134
   17.850    0.8561
   17.880    0.9274
   17.910    0.9631
   17.940    0.6956
   17.970    0.6956
   18.000    0.8204
   18.030    0.7669
   18.060    0.7134
   18.090    0.9096
   18.120    0.9274
   18.150    0.8739
   18.180    0.7669
   18.210    0.6421
   18.240    0.7847
   18.270    0.7847
   18.300    0.8561
   18.330    0.9274
   18.360    0.7491
   18.390    0.6956
   18.420    0.9274
   18.450    0.8382
   18.480    0.7134
   18.510    0.7669
   18.540    0.6956
   18.570    0.8561
   18.600    0.8026
   18.630    0.6956
   18.660    0.7134
   18.690    0.8561
   18.720    0.6599
   18.750    0.8739
   18.780    0.8561
   18.810    0.9452
   18.840    0.7669
   18.870    0.8204
   18.900    0.9809
   18.930    0.8917
   18.960    0.7847
   18.990    0.8739
   19.020    0.8026
   19.050    0.9274
   19.080    0.8204
   19.110    0.7134
   19.140    0.7491
   19.170    0.8382
   19.200    0.7847
   19.230    0.9274
   19.260    0.6242
   19.290    1.1414
   19.320    0.8026
   19.350    0.6956
   19.380    0.7847
   19.410    0.8739
   19.440    0.7312
   19.470    0.6242
   19.500    0.9631
   19.530    0.7134
   19.560    0.8739
   19.590    0.8917
   19.620    0.7847
   19.650    0.7669
   19.680    0.8382
   19.710    0.8917
   19.740    0.7669
   19.770    1.0344
   19.800    0.7669
   19.830    0.8204
   19.860    0.9274
   19.890    0.9631
   19.920    0.9452
   19.950    0.7669
   19.980    0.8382
   20.010    0.6599
   20.040    0.8561
   20.070    0.6956
   20.100    0.8026
   20.130    0.9096
   20.160    0.8739
   20.190    0.9096
   20.220    0.7491
   20.250    0.8917
   20.280    0.8026
   20.310    0.9452
   20.340    0.7134
   20.370    0.9274
   20.400    0.8739
   20.430    0.8204
   20.460    0.9274
   20.490    0.8026
   20.520    0.8204
   20.550    0.6777
   20.580    0.8739
   20.610    0.8561
   20.640    0.7669
   20.670    0.6956
   20.700    0.8204
   20.730    0.7669
   20.760    0.8917
   20.790    0.6956
   20.820    0.7847
   20.850    0.8382
   20.880    0.6956
   20.910    0.7847
   20.940    0.9274
   20.970    0.8204
   21.000    0.6956
   21.030    0.6064
   21.060    0.8026
   21.090    0.8026
   21.120    0.7491
   21.150    0.7669
   21.180    0.9988
   21.210    0.6777
   21.240    0.8204
   21.270    0.6421
   21.300    0.7847
   21.330    0.7491
   21.360    0.8382
   21.390    0.6777
   21.420    0.6599
   21.450    0.7847
   21.480    0.6956
   21.510    0.6777
   21.540    0.8739
   21.570    0.8026
   21.600    0.7847
   21.630    0.8204
   21.660    0.8026
   21.690    0.7669
   21.720    0.7847
   21.750    0.9274
   21.780    0.6956
   21.810    0.9096
   21.840    0.8382
   21.870    0.5886
   21.900    0.7669
   21.930    0.6064
   21.960    0.7134
   21.990    0.9988
   22.020    0.8026
   22.050    0.9809
   22.080    0.6421
   22.110    0.6956
   22.140    0.7847
   22.170    0.9274
   22.200    0.8382
   22.230    0.7312
   22.260    0.8026
   22.290    0.7491
   22.320    0.6421
   22.350    0.6777
   22.380    0.6956
   22.410    0.5529
   22.440    0.8739
   22.470    0.7847
   22.500    0.8026
   22.530    0.8917
   22.560    0.9631
   22.590    0.8917
   22.620    0.5707
   22.650    0.7669
   22.680    0.7134
   22.710    0.8382
   22.740    0.6421
   22.770    0.7847
   22.800    0.7312
   22.830    0.7312
   22.860    0.8382
   22.890    1.0523
   22.920    0.8561
   22.950    0.8561
   22.980    0.6777
   23.010    0.7669
   23.040    0.8382
   23.070    0.7134
   23.100    0.8917
   23.130    0.8204
   23.160    0.7312
   23.190    0.7669
   23.220    0.7312
   23.250    0.6242
   23.280    0.6421
   23.310    0.7134
   23.340    0.6599
   23.370    0.6064
   23.400    0.6777
   23.430    0.6421
   23.460    0.7312
   23.490    0.5350
   23.520    0.7491
   23.550    0.5886
   23.580    0.7491
   23.610    0.7669
   23.640    0.8204
   23.670    0.6242
   23.700    0.6064
   23.730    0.6956
   23.760    0.6956
   23.790    0.6242
   23.820    0.6421
   23.850    0.6777
   23.880    0.6956
   23.910    0.7134
   23.940    0.7134
   23.970    0.7312
   24.000    0.9452
   24.030    0.7312
   24.060    0.6599
   24.090    0.7491
   24.120    0.5886
   24.150    0.7669
   24.180    0.8026
   24.210    0.7847
   24.240    0.8739
   24.270    0.7847
   24.300    0.5886
   24.330    0.8382
   24.360    0.7134
   24.390    0.7847
   24.420    0.6777
   24.450    0.8026
   24.480    0.7491
   24.510    0.6956
   24.540    0.9096
   24.570    0.5350
   24.600    0.6064
   24.630    0.6242
   24.660    0.6777
   24.690    0.8204
   24.720    0.9631
   24.750    0.7312
   24.780    0.8026
   24.810    0.7134
   24.840    0.8561
   24.870    0.7491
   24.900    0.6777
   24.930    0.6956
   24.960    0.7491
   24.990    0.8739
   25.020    0.7134
   25.050    0.6064
   25.080    0.6242
   25.110    0.6777
   25.140    0.6777
   25.170    0.7847
   25.200    0.4994
   25.230    0.7847
   25.260    0.6242
   25.290    0.6064
   25.320    0.7847
   25.350    0.6242
   25.380    0.7134
   25.410    0.7312
   25.440    0.5707
   25.470    0.6421
   25.500    0.7847
   25.530    0.7134
   25.560    0.6242
   25.590    0.6956
   25.620    0.6064
   25.650    0.7134
   25.680    0.7491
   25.710    0.7669
   25.740    0.7312
   25.770    0.8026
   25.800    0.6064
   25.830    0.6242
   25.860    0.7491
   25.890    0.6777
   25.920    0.5707
   25.950    0.8561
   25.980    0.6242
   26.010    0.8382
   26.040    0.6599
   26.070    0.5529
   26.100    0.6064
   26.130    0.6599
   26.160    0.5529
   26.190    0.8382
   26.220    0.7312
   26.250    0.6599
   26.280    0.5707
   26.310    0.6777
   26.340    0.6421
   26.370    0.5707
   26.400    0.4280
   26.430    0.6421
   26.460    0.6421
   26.490    0.6599
   26.520    0.8204
   26.550    0.6599
   26.580    0.8204
   26.610    0.5886
   26.640    0.6242
   26.670    0.8026
   26.700    0.6599
   26.730    0.5529
   26.760    0.4459
   26.790    0.6777
   26.820    0.5886
   26.850    0.5172
   26.880    0.6064
   26.910    0.5350
   26.940    0.6421
   26.970    0.5529
   27.000    0.7669
   27.030    0.5529
   27.060    0.5707
   27.090    0.8561
   27.120    0.6777
   27.150    0.5529
   27.180    0.5707
   27.210    0.5886
   27.240    0.6956
   27.270    0.8739
   27.300    0.8382
   27.330    0.5172
   27.360    0.6599
   27.390    0.7312
   27.420    0.5350
   27.450    0.5886
   27.480    0.8026
   27.510    0.7491
   27.540    0.4994
   27.570    0.6064
   27.600    0.6956
   27.630    0.6599
   27.660    0.7134
   27.690    0.6064
   27.720    0.5350
   27.750    0.5886
   27.780    0.6064
   27.810    0.6242
   27.840    0.3745
   27.870    0.5529
   27.900    0.7847
   27.930    0.5886
   27.960    0.5707
   27.990    0.7134
   28.020    0.6956
   28.050    0.6064
   28.080    0.4102
   28.110    0.7312
   28.140    0.5529
   28.170    0.5886
   28.200    0.6956
   28.230    0.6064
   28.260    0.6421
   28.290    0.6064
   28.320    0.4280
   28.350    0.4637
   28.380    0.4637
   28.410    0.6064
   28.440    0.6421
   28.470    0.6064
   28.500    0.6956
   28.530    0.6956
   28.560    0.6777
   28.590    0.6064
   28.620    0.6242
   28.650    0.6956
   28.680    0.6242
   28.710    0.5350
   28.740    0.4637
   28.770    0.6777
   28.800    0.6599
   28.830    0.3745
   28.860    0.7134
   28.890    0.4994
   28.920    0.6599
   28.950    0.5172
   28.980    0.5529
   29.010    0.6777
   29.040    0.6599
   29.070    0.6599
   29.100    0.6599
   29.130    0.6599
   29.160    0.5707
   29.190    0.4637
   29.220    0.5172
   29.250    0.6064
   29.280    0.4637
   29.310    0.4459
   29.340    0.7312
   29.370    0.4459
   29.400    0.6242
   29.430    0.5172
   29.460    0.5886
   29.490    0.4815
   29.520    0.6956
   29.550    0.6777
   29.580    0.6242
   29.610    0.4815
   29.640    0.4459
   29.670    0.5172
   29.700    0.5350
   29.730    0.6421
   29.760    0.6421
   29.790    0.6242
   29.820    0.3924
   29.850    0.5886
   29.880    0.4994
   29.910    0.5886
   29.940    0.5350
   29.970    0.5707
   30.000    0.5350
   30.030    0.5529
   30.060    0.5529
   30.090    0.7134
   30.120    0.5529
   30.150    0.5172
   30.180    0.5707
   30.210    0.5350
   30.240    0.5529
   30.270    0.4459
   30.300    0.5707
   30.330    0.4815
   30.360    0.4815
   30.390    0.5172
   30.420    0.5172
   30.450    0.5529
   30.480    0.4815
   30.510    0.4815
   30.540    0.4994
   30.570    0.4815
   30.600    0.4637
   30.630    0.4459
   30.660    0.5172
   30.690    0.5350
   30.720    0.5350
   30.750    0.4637
   30.780    0.5707
   30.810    0.6777
   30.840    0.5707
   30.870    0.6421
   30.900    0.4994
   30.930    0.6242
   30.960    0.4459
   30.990    0.5886
   31.020    0.6064
   31.050    0.4280
   31.080    0.7491
   31.110    0.4815
   31.140    0.5886
   31.170    0.4459
   31.200    0.3745
   31.230    0.6421
   31.260    0.5350
   31.290    0.4994
   31.320    0.4459
   31.350    0.5886
   31.380    0.5172
   31.410    0.5886
   31.440    0.5886
   31.470    0.4459
   31.500    0.5350
   31.530    0.5886
   31.560    0.5529
   31.590    0.5172
   31.620    0.4102
   31.650    0.4280
   31.680    0.5707
   31.710    0.5707
   31.740    0.4102
   31.770    0.5172
   31.800    0.5350
   31.830    0.4637
   31.860    0.4994
   31.890    0.4815
   31.920    0.3924
   31.950    0.4459
   31.980    0.4815
   32.010    0.5172
   32.040    0.4994
   32.070    0.4815
   32.100    0.5886
   32.130    0.6421
   32.160    0.5172
   32.190    0.3745
   32.220    0.4459
   32.250    0.5529
   32.280    0.5529
   32.310    0.3745
   32.340    0.4994
   32.370    0.3389
   32.400    0.4280
   32.430    0.5172
   32.460    0.4994
   32.490    0.3924
   32.520    0.4637
   32.550    0.5707
   32.580    0.3032
   32.610    0.4637
   32.640    0.4637
   32.670    0.4637
   32.700    0.4280
   32.730    0.5886
   32.760    0.3389
   32.790    0.4280
   32.820    0.5172
   32.850    0.4280
   32.880    0.4637
   32.910    0.5172
   32.940    0.4815
   32.970    0.6242
   33.000    0.3924
   33.030    0.3924
   33.060    0.5529
   33.090    0.4637
   33.120    0.4815
   33.150    0.4459
   33.180    0.4459
   33.210    0.6242
   33.240    0.4459
   33.270    0.2854
   33.300    0.3924
   33.330    0.3567
   33.360    0.7134
   33.390    0.4280
   33.420    0.2675
   33.450    0.4280
   33.480    0.3924
   33.510    0.5529
   33.540    0.4280
   33.570    0.4102
   33.600    0.4459
   33.630    0.4102
   33.660    0.2675
   33.690    0.3924
   33.720    0.3210
   33.750    0.4994
   33.780    0.4815
   33.810    0.5707
   33.840    0.5886
   33.870    0.4994
   33.900    0.3389
   33.930    0.5707
   33.960    0.5886
   33.990    0.5707
   34.020    0.4280
   34.050    0.4459
   34.080    0.3567
   34.110    0.3389
   34.140    0.4459
   34.170    0.3745
   34.200    0.3924
   34.230    0.4459
   34.260    0.3745
   34.290    0.4815
   34.320    0.3924
   34.350    0.4815
   34.380    0.3745
   34.410    0.3389
   34.440    0.3924
   34.470    0.3210
   34.500    0.2497
   34.530    0.4280
   34.560    0.3389
   34.590    0.4459
   34.620    0.4102
   34.650    0.3389
   34.680    0.3567
   34.710    0.3924
   34.740    0.3924
   34.770    0.3745
   34.800    0.3924
   34.830    0.3745
   34.860    0.3924
   34.890    0.3389
   34.920    0.3389
   34.950    0.4280
   34.980    0.3924
   35.010    0.3924
   35.040    0.3389
   35.070    0.3745
   35.100    0.4102
   35.130    0.3567
   35.160    0.3389
   35.190    0.3924
   35.220    0.4280
   35.250    0.4459
   35.280    0.4280
   35.310    0.3389
   35.340    0.3567
   35.370    0.3924
   35.400    0.3389
   35.430    0.3745
   35.460    0.4994
   35.490    0.3389
   35.520    0.4102
   35.550    0.3567
   35.580    0.3567
   35.610    0.3567
   35.640    0.4280
   35.670    0.3389
   35.700    0.3210
   35.730    0.4459
   35.760    0.3567
   35.790    0.2319
   35.820    0.2497
   35.850    0.3567
   35.880    0.3567
   35.910    0.3745
   35.940    0.3032
   35.970    0.2675
   36.000    0.3032
   36.030    0.2675
   36.060    0.3032
   36.090    0.3745
   36.120    0.2854
   36.150    0.3032
   36.180    0.4280
   36.210    0.2854
   36.240    0.2854
   36.270    0.2854
   36.300    0.2140
   36.330    0.4459
   36.360    0.2854
   36.390    0.2497
   36.420    0.3745
   36.450    0.3032
   36.480    0.3567
   36.510    0.4280
   36.540    0.3567
   36.570    0.3924
   36.600    0.2319
   36.630    0.3567
   36.660    0.2497
   36.690    0.2497
   36.720    0.3032
   36.750    0.2854
   36.780    0.2319
   36.810    0.1962
   36.840    0.4815
   36.870    0.3567
   36.900    0.3567
   36.930    0.3745
   36.960    0.3745
   36.990    0.3389
   37.020    0.4637
   37.050    0.3210
   37.080    0.3567
   37.110    0.2140
   37.140    0.3210
   37.170    0.3567
   37.200    0.2675
   37.230    0.2140
   37.260    0.2854
   37.290    0.2497
   37.320    0.3389
   37.350    0.4102
   37.380    0.2140
   37.410    0.2675
   37.440    0.3032
   37.470    0.3924
   37.500    0.3924
   37.530    0.3032
   37.560    0.3389
   37.590    0.3924
   37.620    0.3567
   37.650    0.3032
   37.680    0.2497
   37.710    0.3032
   37.740    0.2854
   37.770    0.3032
   37.800    0.3210
   37.830    0.1783
   37.860    0.2319
   37.890    0.3745
   37.920    0.2497
   37.950    0.3389
   37.980    0.2675
   38.010    0.3032
   38.040    0.2319
   38.070    0.3924
   38.100    0.4459
   38.130    0.2140
   38.160    0.2854
   38.190    0.2497
   38.220    0.3389
   38.250    0.3389
   38.280    0.1962
   38.310    0.2854
   38.340    0.1962
   38.370    0.2854
   38.400    0.2675
   38.430    0.2497
   38.460    0.1962
   38.490    0.3210
   38.520    0.3032
   38.550    0.2854
   38.580    0.2319
   38.610    0.3032
   38.640    0.2497
   38.670    0.2319
   38.700    0.3210
   38.730    0.2497
   38.760    0.3210
   38.790    0.1962
   38.820    0.2675
   38.850    0.2140
   38.880    0.3032
   38.910    0.1962
   38.940    0.2319
   38.970    0.3210
   39.000    0.2497
   39.030    0.2675
   39.060    0.2854
   39.090    0.3389
   39.120    0.3567
   39.150    0.2854
   39.180    0.1962
   39.210    0.2319
   39.240    0.2497
   39.270    0.1962
   39.300    0.3210
   39.330    0.3032
   39.360    0.2497
   39.390    0.1962
   39.420    0.3032
   39.450    0.2140
   39.480    0.3567
   39.510    0.1605
   39.540    0.3032
   39.570    0.2675
   39.600    0.2854
   39.630    0.2319
   39.660    0.2497
   39.690    0.1070
   39.720    0.1783
   39.750    0.2854
   39.780    0.3032
   39.810    0.2140
   39.840    0.2675
   39.870    0.2319
   39.900    0.2497
   39.930    0.3924
   39.960    0.2854
   39.990    0.3032