File: data/PXRD/PXRD_KE-230_Co-Ka1_capillary-1mm_5s-deg.xyd
    1.500   16.9823
    1.530   16.7148
    1.560   16.4045
    1.590   15.5805
    1.620   15.1739
    1.650   14.5746
    1.680   13.7186
    1.710   13.6009
    1.740   13.2798
    1.770   12.8304
    1.800   11.9422
    1.830   11.5249
    1.860   12.4024
    1.890   11.3965
    1.920   10.8507
    1.950   10.7865
    1.980   10.0482
    2.010    9.3312
    2.040    9.4596
    2.070    9.3312
    2.100    9.1386
    2.130    8.7533
    2.160    8.2290
    2.190    8.4323
    2.220    8.4216
    2.250    8.0364
    2.280    7.7903
    2.310    7.8117
    2.340    7.2659
    2.370    7.6833
    2.400    7.0626
    2.430    6.9556
    2.460    6.8486
    2.490    6.4312
    2.520    6.2065
    2.550    6.0139
    2.580    5.8855
    2.610    6.3349
    2.640    5.8748
    2.670    5.7785
    2.700    6.3028
    2.730    5.7250
    2.760    5.4575
    2.790    5.7250
    2.820    5.3077
    2.850    5.4789
    2.880    5.4040
    2.910    5.2220
    2.940    5.3719
    2.970    5.0936
    3.000    5.0936
    3.030    5.0080
    3.060    4.7512
    3.090    5.3612
    3.120    5.2220
    3.150    4.8475
    3.180    5.2327
    3.210    4.9331
    3.240    5.0294
    3.270    5.1150
    3.300    5.3612
    3.330    5.3826
    3.360    5.3612
    3.390    5.8213
    3.420    5.8641
    3.450    5.9711
    3.480    5.8962
    3.510    6.4741
    3.540    6.2386
    3.570    6.5383
    3.600    6.6025
    3.630    7.0840
    3.660    7.3194
    3.690    7.9829
    3.720    8.2932
    3.750    8.5500
    3.780    9.3205
    3.810    9.8234
    3.840   10.4013
    3.870   11.1825
    3.900   11.6319
    3.930   13.0230
    3.960   14.1145
    3.990   14.8315
    4.020   16.4580
    4.050   16.7148
    4.080   17.6458
    4.110   17.7314
    4.140   18.1915
    4.170   19.3793
    4.200   20.9952
    4.230   23.6062
    4.260   25.5110
    4.290   29.0423
    4.320   31.8994
    4.350   36.9288
    4.380   42.7180
    4.410   51.3109
    4.440   62.4933
    4.470   82.3328
    4.500  127.0840
    4.530  150.0696
    4.560   25.5110
    4.590    6.4633
    4.620    4.6121
    4.650    4.3232
    4.680    4.0342
    4.710    3.7988
    4.740    3.8523
    4.770    3.6276
    4.800    3.3922
    4.830    3.4778
    4.860    3.1247
    4.890    2.9856
    4.920    2.9642
    4.950    2.8571
    4.980    2.6645
    5.010    2.4077
    5.040    2.4184
    5.070    2.1830
    5.100    2.3328
    5.130    2.2686
    5.160    2.3649
    5.190    2.0332
    5.220    2.1830
    5.250    2.0439
    5.280    1.7978
    5.310    1.9583
    5.340    1.9690
    5.370    2.0225
    5.400    1.8406
    5.430    2.2151
    5.460    1.9583
    5.490    1.8513
    5.520    2.0546
    5.550    2.0011
    5.580    2.1188
    5.610    2.2686
    5.640    2.1509
    5.670    2.2365
    5.700    2.5789
    5.730    2.7073
    5.760    2.8357
    5.790    3.0605
    5.820    3.0498
    5.850    2.9856
    5.880    3.0605
    5.910    3.3922
    5.940    3.5527
    5.970    3.8630
    6.000    4.2911
    6.030    4.7298
    6.060    5.1578
    6.090    5.9711
    6.120    6.5918
    6.150    7.3836
    6.180    8.7105
    6.210    9.9411
    6.240   12.0599
    6.270   13.7079
    6.300   16.3831
    6.330   22.3542
    6.360   31.4500
    6.390   50.1124
    6.420   37.2392
    6.450    5.5645
    6.480    2.0867
    6.510    1.7121
    6.540    1.4339
    6.570    1.5195
    6.600    1.5088
    6.630    1.2306
    6.660    1.2841
    6.690    1.3697
    6.720    1.3055
    6.750    1.3590
    6.780    1.2413
    6.810    1.1557
    6.840    1.2306
    6.870    1.2092
    6.900    1.2199
    6.930    1.2306
    6.960    1.4446
    6.990    1.2520
    7.020    1.2841
    7.050    1.3376
    7.080    1.1771
    7.110    1.3269
    7.140    1.2734
    7.170    1.2841
    7.200    1.3055
    7.230    1.2306
    7.260    1.3269
    7.290    1.5623
    7.320    1.3483
    7.350    1.4125
    7.380    1.4018
    7.410    1.4981
    7.440    1.4660
    7.470    1.7228
    7.500    1.8620
    7.530    2.0225
    7.560    2.2258
    7.590    2.2365
    7.620    2.5361
    7.650    3.1247
    7.680    3.5099
    7.710    4.0021
    7.740    4.2590
    7.770    6.2279
    7.800    8.5500
    7.830   12.9374
    7.860   12.0920
    7.890    3.3387
    7.920    1.3483
    7.950    1.3590
    7.980    1.6907
    8.010    1.4660
    8.040    1.3376
    8.070    1.1771
    8.100    1.4125
    8.130    1.2627
    8.160    1.2520
    8.190    1.2520
    8.220    1.1343
    8.250    1.1878
    8.280    1.0594
    8.310    1.1771
    8.340    1.0166
    8.370    1.1664
    8.400    1.2306
    8.430    1.2092
    8.460    1.0915
    8.490    1.3376
    8.520    1.1236
    8.550    1.0487
    8.580    1.3376
    8.610    1.1878
    8.640    1.1557
    8.670    1.4660
    8.700    1.4874
    8.730    1.5730
    8.760    1.7549
    8.790    1.6907
    8.820    1.8941
    8.850    2.1295
    8.880    2.3970
    8.910    2.6859
    8.940    3.2210
    8.970    4.0984
    9.000    5.0829
    9.030    7.3515
    9.060   10.4334
    9.090    6.8914
    9.120    1.6693
    9.150    1.4125
    9.180    1.0701
    9.210    1.0380
    9.240    1.0915
    9.270    0.9524
    9.300    0.9096
    9.330    1.0059
    9.360    0.9952
    9.390    0.9952
    9.420    0.9845
    9.450    1.0915
    9.480    1.0487
    9.510    1.0166
    9.540    0.9845
    9.570    1.0594
    9.600    1.1878
    9.630    0.9203
    9.660    0.9952
    9.690    1.1129
    9.720    1.0594
    9.750    0.9952
    9.780    1.1450
    9.810    1.1878
    9.840    1.0273
    9.870    1.0701
    9.900    1.2520
    9.930    1.0380
    9.960    1.0594
    9.990    1.1450
   10.020    1.1664
   10.050    1.4553
   10.080    1.5944
   10.110    1.8513
   10.140    2.0974
   10.170    1.7014
   10.200    0.9738
   10.230    0.6956
   10.260    0.7705
   10.290    0.9096
   10.320    0.9417
   10.350    0.8775
   10.380    0.9203
   10.410    0.9203
   10.440    0.9631
   10.470    0.8561
   10.500    0.8561
   10.530    0.9310
   10.560    1.1129
   10.590    0.9524
   10.620    0.9952
   10.650    1.1557
   10.680    1.0701
   10.710    1.2413
   10.740    1.1985
   10.770    1.4981
   10.800    1.4767
   10.830    1.8513
   10.860    2.0653
   10.890    2.2579
   10.920    2.6752
   10.950    3.6811
   10.980    4.4088
   11.010    5.6608
   11.040    8.0150
   11.070   12.2525
   11.100   17.7742
   11.130   13.9219
   11.160    4.8689
   11.190    1.3697
   11.220    0.9310
   11.250    0.8561
   11.280    0.9096
   11.310    0.9845
   11.340    0.7598
   11.370    0.7170
   11.400    0.8775
   11.430    0.9096
   11.460    0.8133
   11.490    0.9310
   11.520    0.6849
   11.550    0.7919
   11.580    1.0059
   11.610    0.9952
   11.640    0.9952
   11.670    1.0273
   11.700    0.9631
   11.730    1.0808
   11.760    1.1878
   11.790    1.2306
   11.820    1.2520
   11.850    1.5195
   11.880    2.0439
   11.910    2.4826
   11.940    3.1140
   11.970    4.5158
   12.000    6.3456
   12.030    4.5265
   12.060    1.6907
   12.090    0.8026
   12.120    0.8989
   12.150    0.8882
   12.180    0.8454
   12.210    0.8026
   12.240    0.7919
   12.270    0.7491
   12.300    0.7705
   12.330    0.7384
   12.360    0.9845
   12.390    0.7063
   12.420    0.6635
   12.450    1.0059
   12.480    0.8454
   12.510    0.7598
   12.540    0.9203
   12.570    1.1236
   12.600    1.2306
   12.630    1.3162
   12.660    1.4553
   12.690    1.7442
   12.720    2.2900
   12.750    2.7929
   12.780    3.8095
   12.810    5.7250
   12.840    6.7095
   12.870    4.4516
   12.900    1.6800
   12.930    0.9952
   12.960    0.8882
   12.990    0.8240
   13.020    0.7705
   13.050    0.7170
   13.080    0.7277
   13.110    0.6849
   13.140    0.7598
   13.170    0.7491
   13.200    0.8882
   13.230    0.7812
   13.260    0.7598
   13.290    0.9096
   13.320    0.9631
   13.350    1.0915
   13.380    0.9952
   13.410    1.3269
   13.440    1.5302
   13.470    1.6907
   13.500    2.1937
   13.530    2.5682
   13.560    3.5206
   13.590    5.8320
   13.620    7.4050
   13.650    5.1257
   13.680    1.8620
   13.710    0.7705
   13.740    0.8882
   13.770    0.7598
   13.800    0.6207
   13.830    0.6635
   13.860    0.7919
   13.890    0.7705
   13.920    0.6742
   13.950    0.7170
   13.980    0.6314
   14.010    0.4815
   14.040    0.7384
   14.070    0.7063
   14.100    0.7705
   14.130    0.6100
   14.160    0.7919
   14.190    0.7384
   14.220    0.7384
   14.250    0.9524
   14.280    0.8133
   14.310    1.1664
   14.340    1.4660
   14.370    1.3804
   14.400    1.2092
   14.430    0.9096
   14.460    0.7812
   14.490    0.7598
   14.520    0.6849
   14.550    0.5778
   14.580    0.7705
   14.610    0.7812
   14.640    0.5243
   14.670    0.6849
   14.700    0.6207
   14.730    0.8026
   14.760    0.8775
   14.790    0.8240
   14.820    0.7384
   14.850    1.0273
   14.880    1.1236
   14.910    1.4446
   14.940    1.3376
   14.970    1.7335
   15.000    2.5040
   15.030    3.5634
   15.060    4.0663
   15.090    3.4992
   15.120    2.0974
   15.150    0.8133
   15.180    0.7491
   15.210    0.5350
   15.240    0.7170
   15.270    0.5886
   15.300    0.5564
   15.330    0.7919
   15.360    0.6314
   15.390    0.6314
   15.420    0.5993
   15.450    0.6849
   15.480    0.7170
   15.510    0.7170
   15.540    0.8026
   15.570    0.8668
   15.600    0.8561
   15.630    0.9952
   15.660    1.0701
   15.690    1.2948
   15.720    2.0974
   15.750    2.3007
   15.780    1.6051
   15.810    0.9952
   15.840    0.7063
   15.870    0.5778
   15.900    0.7063
   15.930    0.5778
   15.960    0.6421
   15.990    0.6207
   16.020    0.7705
   16.050    0.8454
   16.080    0.6207
   16.110    0.7170
   16.140    0.8240
   16.170    0.7277
   16.200    0.9203
   16.230    1.1022
   16.260    1.2520
   16.290    1.3804
   16.320    1.8620
   16.350    3.2852
   16.380    3.6811
   16.410    3.4564
   16.440    1.9797
   16.470    0.9524
   16.500    0.6207
   16.530    0.5671
   16.560    0.6742
   16.590    0.7919
   16.620    0.7705
   16.650    0.6528
   16.680    0.6314
   16.710    0.6849
   16.740    0.6314
   16.770    0.7491
   16.800    0.6207
   16.830    0.5993
   16.860    0.7919
   16.890    0.5886
   16.920    0.7277
   16.950    0.6314
   16.980    0.7598
   17.010    0.5886
   17.040    0.6314
   17.070    0.5350
   17.100    0.7170
   17.130    0.5243
   17.160    0.6742
   17.190    0.5886
   17.220    0.6421
   17.250    0.5457
   17.280    0.6635
   17.310    0.5778
   17.340    0.7598
   17.370    0.5993
   17.400    0.6100
   17.430    0.6421
   17.460    0.7277
   17.490    0.6635
   17.520    0.8454
   17.550    0.9524
   17.580    1.3483
   17.610    1.4553
   17.640    1.3162
   17.670    0.9203
   17.700    0.6849
   17.730    0.5886
   17.760    0.7170
   17.790    0.6421
   17.820    0.5993
   17.850    0.6314
   17.880    0.6207
   17.910    0.6742
   17.940    0.4922
   17.970    0.4922
   18.000    0.6207
   18.030    0.5136
   18.060    0.6421
   18.090    0.7277
   18.120    0.5671
   18.150    0.5457
   18.180    0.6207
   18.210    0.6528
   18.240    0.7063
   18.270    0.6742
   18.300    0.6635
   18.330    0.6956
   18.360    0.6100
   18.390    0.5778
   18.420    0.6528
   18.450    0.7277
   18.480    0.6849
   18.510    0.6528
   18.540    0.5350
   18.570    0.6635
   18.600    0.7170
   18.630    0.7491
   18.660    0.7812
   18.690    0.7277
   18.720    1.0166
   18.750    1.2627
   18.780    1.1343
   18.810    1.0915
   18.840    0.7598
   18.870    0.6528
   18.900    0.5671
   18.930    0.6635
   18.960    0.6207
   18.990    0.5886
   19.020    0.6207
   19.050    0.7277
   19.080    0.6100
   19.110    0.5993
   19.140    0.5886
   19.170    0.8133
   19.200    0.8454
   19.230    0.8561
   19.260    0.9417
   19.290    1.6372
   19.320    1.2520
   19.350    1.3162
   19.380    0.8347
   19.410    0.6421
   19.440    0.6742
   19.470    0.6635
   19.500    0.6207
   19.530    0.6207
   19.560    0.6207
   19.590    0.8133
   19.620    0.7812
   19.650    0.6421
   19.680    0.8026
   19.710    0.8989
   19.740    1.1878
   19.770    1.5302
   19.800    2.3007
   19.830    3.0819
   19.860    2.9642
   19.890    2.3970
   19.920    1.3376
   19.950    0.7812
   19.980    0.6849
   20.010    0.5886
   20.040    0.7812
   20.070    0.7063
   20.100    0.6100
   20.130    0.6207
   20.160    0.5993
   20.190    0.7812
   20.220    0.6528
   20.250    0.6421
   20.280    0.8775
   20.310    0.8882
   20.340    1.0166
   20.370    1.0701
   20.400    1.0166
   20.430    0.9524
   20.460    0.7384
   20.490    0.6314
   20.520    0.6635
   20.550    0.6421
   20.580    0.5886
   20.610    0.6207
   20.640    0.6528
   20.670    0.6528
   20.700    0.5564
   20.730    0.6528
   20.760    0.6100
   20.790    0.8561
   20.820    0.9952
   20.850    1.0594
   20.880    1.0059
   20.910    1.0059
   20.940    0.8989
   20.970    0.6528
   21.000    0.7491
   21.030    0.6742
   21.060    0.6635
   21.090    0.7277
   21.120    0.6635
   21.150    0.6956
   21.180    0.6956
   21.210    0.7598
   21.240    0.6849
   21.270    0.7812
   21.300    0.8775
   21.330    1.1878
   21.360    1.4339
   21.390    1.0915
   21.420    0.9310
   21.450    0.7705
   21.480    0.5886
   21.510    0.5457
   21.540    0.6314
   21.570    0.7170
   21.600    0.5993
   21.630    0.6956
   21.660    0.6314
   21.690    0.6528
   21.720    0.7919
   21.750    0.6742
   21.780    0.5350
   21.810    0.7491
   21.840    0.7491
   21.870    0.8882
   21.900    0.7812
   21.930    0.8240
   21.960    0.6956
   21.990    0.8240
   22.020    0.7705
   22.050    0.7919
   22.080    0.8882
   22.110    0.8454
   22.140    0.8347
   22.170    0.7170
   22.200    0.6849
   22.230    0.6207
   22.260    0.6314
   22.290    0.7919
   22.320    0.6849
   22.350    0.6849
   22.380    0.7812
   22.410    0.5993
   22.440    0.6421
   22.470    0.5350
   22.500    0.6421
   22.530    0.5993
   22.560    0.7598
   22.590    0.6207
   22.620    0.6742
   22.650    0.7491
   22.680    0.5671
   22.710    0.8347
   22.740    0.8240
   22.770    1.1878
   22.800    1.3483
   22.830    1.2627
   22.860    1.1557
   22.890    0.9203
   22.920    0.6849
   22.950    0.6742
   22.980    0.5671
   23.010    0.6421
   23.040    0.6528
   23.070    0.5564
   23.100    0.5778
   23.130    0.5886
   23.160    0.6956
   23.190    0.5886
   23.220    0.6421
   23.250    0.7812
   23.280    0.6849
   23.310    0.6421
   23.340    0.5564
   23.370    0.5993
   23.400    0.7598
   23.430    0.6207
   23.460    0.5350
   23.490    0.5671
   23.520    0.6421
   23.550    0.8454
   23.580    0.6742
   23.610    1.0380
   23.640    1.3483
   23.670    2.0439
   23.700    2.2151
   23.730    2.4612
   23.760    2.0546
   23.790    1.4874
   23.820    0.8775
   23.850    0.6956
   23.880    0.7277
   23.910    0.5993
   23.940    0.7170
   23.970    0.7063
   24.000    0.7170
   24.030    0.5993
   24.060    0.6207
   24.090    0.5457
   24.120    0.7384
   24.150    0.5993
   24.180    0.6100
   24.210    0.6849
   24.240    0.6849
   24.270    0.8668
   24.300    0.7063
   24.330    0.6742
   24.360    0.7812
   24.390    0.6207
   24.420    0.6849
   24.450    0.7277
   24.480    0.8026
   24.510    0.6207
   24.540    0.7812
   24.570    0.6314
   24.600    0.6528
   24.630    0.6742
   24.660    0.6421
   24.690    0.5671
   24.720    0.5778
   24.750    0.7491
   24.780    0.7384
   24.810    0.6314
   24.840    0.5993
   24.870    0.7277
   24.900    0.4708
   24.930    0.6100
   24.960    0.6421
   24.990    0.6421
   25.020    0.7598
   25.050    0.5457
   25.080    0.7277
   25.110    0.6207
   25.140    0.5993
   25.170    0.7384
   25.200    0.6849
   25.230    0.7598
   25.260    0.8347
   25.290    0.6742
   25.320    0.5564
   25.350    0.6956
   25.380    0.8561
   25.410    1.2413
   25.440    1.2841
   25.470    1.2199
   25.500    1.0487
   25.530    0.8882
   25.560    0.7170
   25.590    0.8668
   25.620    0.5778
   25.650    0.7812
   25.680    0.7598
   25.710    0.7491
   25.740    0.6635
   25.770    0.8347
   25.800    0.8882
   25.830    0.9845
   25.860    1.2199
   25.890    1.0701
   25.920    0.9096
   25.950    0.8026
   25.980    0.5993
   26.010    0.6742
   26.040    0.7170
   26.070    0.6207
   26.100    0.8989
   26.130    0.7919
   26.160    1.0487
   26.190    1.3911
   26.220    1.8941
   26.250    2.6003
   26.280    2.2686
   26.310    2.2151
   26.340    1.6158
   26.370    1.0059
   26.400    0.7384
   26.430    0.6100
   26.460    0.7598
   26.490    0.7705
   26.520    0.8454
   26.550    1.0059
   26.580    1.2306
   26.610    1.8620
   26.640    2.4826
   26.670    2.3328
   26.700    2.3221
   26.730    2.0546
   26.760    1.1343
   26.790    0.9096
   26.820    0.7491
   26.850    0.7277
   26.880    0.7277
   26.910    0.7598
   26.940    0.8561
   26.970    0.8133
   27.000    0.9524
   27.030    1.2734
   27.060    1.4660
   27.090    1.3483
   27.120    0.9738
   27.150    0.9203
   27.180    0.7277
   27.210    0.7170
   27.240    0.6742
   27.270    0.5993
   27.300    0.7063
   27.330    0.5564
   27.360    0.6849
   27.390    0.7063
   27.420    0.6956
   27.450    0.6635
   27.480    0.9417
   27.510    0.7812
   27.540    0.7170
   27.570    0.7170
   27.600    0.7063
   27.630    0.6635
   27.660    0.6314
   27.690    0.5671
   27.720    0.6528
   27.750    0.6314
   27.780    1.2092
   27.810    0.9417
   27.840    1.1236
   27.870    0.9845
   27.900    0.9738
   27.930    0.9096
   27.960    0.5243
   27.990    0.5671
   28.020    0.7063
   28.050    0.6207
   28.080    0.5993
   28.110    0.6849
   28.140    0.7598
   28.170    0.5886
   28.200    0.6207
   28.230    0.7598
   28.260    0.6849
   28.290    0.7384
   28.320    0.6742
   28.350    0.6421
   28.380    0.7063
   28.410    0.6742
   28.440    0.5778
   28.470    0.4387
   28.500    0.7491
   28.530    0.7277
   28.560    0.7491
   28.590    0.6956
   28.620    0.7919
   28.650    0.6421
   28.680    0.7384
   28.710    0.6849
   28.740    0.5457
   28.770    0.6849
   28.800    0.5564
   28.830    0.7384
   28.860    0.7170
   28.890    0.5993
   28.920    0.5778
   28.950    0.7919
   28.980    0.7705
   29.010    0.7384
   29.040    0.6956
   29.070    0.6314
   29.100    0.6742
   29.130    0.6849
   29.160    0.6314
   29.190    0.6528
   29.220    0.5350
   29.250    0.6742
   29.280    0.7705
   29.310    0.8133
   29.340    0.7919
   29.370    0.9845
   29.400    0.7063
   29.430    0.7170
   29.460    0.7063
   29.490    0.5993
   29.520    0.7170
   29.550    0.5993
   29.580    0.5886
   29.610    0.6956
   29.640    0.6635
   29.670    0.6742
   29.700    0.8347
   29.730    0.6849
   29.760    0.7812
   29.790    0.6207
   29.820    0.7063
   29.850    0.6528
   29.880    0.7384
   29.910    0.8240
   29.940    0.7170
   29.970    0.8347
   30.000    1.2520
   30.030    1.5944
   30.060    1.7549
   30.090    1.8299
   30.120    1.4660
   30.150    1.1236
   30.180    0.7170
   30.210    0.6314
   30.240    0.5993
   30.270    0.4708
   30.300    0.5778
   30.330    0.6314
   30.360    0.6421
   30.390    0.7277
   30.420    0.5564
   30.450    0.6956
   30.480    0.5243
   30.510    0.5671
   30.540    0.5886
   30.570    0.5350
   30.600    0.6314
   30.630    0.5671
   30.660    0.5993
   30.690    0.5243
   30.720    0.7384
   30.750    0.8775
   30.780    0.9310
   30.810    1.0487
   30.840    0.9417
   30.870    0.6849
   30.900    0.5778
   30.930    0.5778
   30.960    0.5671
   30.990    0.5778
   31.020    0.5457
   31.050    0.5886
   31.080    0.6100
   31.110    0.4815
   31.140    0.5029
   31.170    0.4494
   31.200    0.5671
   31.230    0.5886
   31.260    0.5136
   31.290    0.6314
   31.320    0.5029
   31.350    0.6742
   31.380    0.6528
   31.410    0.8240
   31.440    0.9631
   31.470    1.0273
   31.500    0.9310
   31.530    0.9952
   31.560    0.7063
   31.590    0.8240
   31.620    0.6100
   31.650    0.6528
   31.680    0.4922
   31.710    0.5886
   31.740    0.6100
   31.770    0.5671
   31.800    0.5886
   31.830    0.4494
   31.860    0.5350
   31.890    0.5564
   31.920    0.5243
   31.950    0.5457
   31.980    0.5564
   32.010    0.5350
   32.040    0.5564
   32.070    0.6849
   32.100    0.8668
   32.130    0.8133
   32.160    0.9096
   32.190    0.8882
   32.220    0.7812
   32.250    0.7705
   32.280    0.5671
   32.310    0.4387
   32.340    0.4815
   32.370    0.6956
   32.400    0.5457
   32.430    0.5778
   32.460    0.6742
   32.490    0.7063
   32.520    0.6528
   32.550    0.8347
   32.580    0.7812
   32.610    0.8775
   32.640    0.6421
   32.670    0.8882
   32.700    0.8240
   32.730    0.8240
   32.760    0.8347
   32.790    0.9096
   32.820    1.0594
   32.850    1.1129
   32.880    1.0594
   32.910    0.8240
   32.940    0.8133
   32.970    0.5993
   33.000    0.5564
   33.030    0.6528
   33.060    0.6956
   33.090    0.7170
   33.120    1.0701
   33.150    0.8882
   33.180    0.8775
   33.210    0.8882
   33.240    0.6849
   33.270    0.7491
   33.300    0.6849
   33.330    0.5457
   33.360    0.6207
   33.390    0.5886
   33.420    0.4922
   33.450    0.5136
   33.480    0.5457
   33.510    0.6207
   33.540    0.5564
   33.570    0.5029
   33.600    0.5243
   33.630    0.5671
   33.660    0.5886
   33.690    0.5671
   33.720    0.7170
   33.750    0.9631
   33.780    0.8668
   33.810    0.7491
   33.840    0.7705
   33.870    0.5778
   33.900    0.6421
   33.930    0.5778
   33.960    0.5136
   33.990    0.6100
   34.020    0.4815
   34.050    0.8347
   34.080    0.8133
   34.110    0.8561
   34.140    0.8561
   34.170    0.7919
   34.200    0.8882
   34.230    0.5886
   34.260    0.5778
   34.290    0.5778
   34.320    0.5671
   34.350    0.5243
   34.380    0.4815
   34.410    0.4922
   34.440    0.5136
   34.470    0.4601
   34.500    0.4601
   34.530    0.4601
   34.560    0.5671
   34.590    0.4708
   34.620    0.5136
   34.650    0.5778
   34.680    0.5350
   34.710    0.7812
   34.740    0.6100
   34.770    0.5778
   34.800    0.6100
   34.830    0.7598
   34.860    0.5993
   34.890    0.4494
   34.920    0.4387
   34.950    0.5136
   34.980    0.5778
   35.010    0.5457
   35.040    0.5778
   35.070    0.7063
   35.100    0.5671
   35.130    0.5564
   35.160    0.6528
   35.190    0.5243
   35.220    0.5243
   35.250    0.6314
   35.280    0.4922
   35.310    0.5136
   35.340    0.5136
   35.370    0.6314
   35.400    0.6956
   35.430    0.5564
   35.460    0.5457
   35.490    0.5243
   35.520    0.5564
   35.550    0.4173
   35.580    0.6421
   35.610    0.4922
   35.640    0.7812
   35.670    0.7705
   35.700    0.6421
   35.730    0.7170
   35.760    0.5564
   35.790    0.6207
   35.820    0.5671
   35.850    0.5350
   35.880    0.3959
   35.910    0.5350
   35.940    0.5886
   35.970    0.4601
   36.000    0.5243
   36.030    0.4922
   36.060    0.4922
   36.090    0.5350
   36.120    0.5136
   36.150    0.5243
   36.180    0.4601
   36.210    0.4922
   36.240    0.5778
   36.270    0.5778
   36.300    0.3959
   36.330    0.4601
   36.360    0.4815
   36.390    0.4815
   36.420    0.5350
   36.450    0.5136
   36.480    0.6207
   36.510    0.4922
   36.540    0.6421
   36.570    0.6635
   36.600    0.7812
   36.630    0.8026
   36.660    0.7384
   36.690    0.7705
   36.720    0.7170
   36.750    0.6100
   36.780    0.8240
   36.810    0.7598
   36.840    0.8989
   36.870    1.0059
   36.900    0.8882
   36.930    1.0273
   36.960    0.9738
   36.990    1.0380
   37.020    0.9845
   37.050    1.1985
   37.080    1.0273
   37.110    1.0594
   37.140    1.1343
   37.170    1.1129
   37.200    1.0594
   37.230    0.9952
   37.260    0.6100
   37.290    0.7598
   37.320    0.8026
   37.350    0.7277
   37.380    0.9738
   37.410    1.1236
   37.440    1.0059
   37.470    1.0701
   37.500    0.9631
   37.530    0.7384
   37.560    0.7812
   37.590    0.5136
   37.620    0.5886
   37.650    0.5136
   37.680    0.4173
   37.710    0.5029
   37.740    0.5457
   37.770    0.4922
   37.800    0.3959
   37.830    0.3745
   37.860    0.4387
   37.890    0.4387
   37.920    0.3531
   37.950    0.3424
   37.980    0.3638
   38.010    0.3852
   38.040    0.3959
   38.070    0.3745
   38.100    0.4601
   38.130    0.4601
   38.160    0.4815
   38.190    0.5457
   38.220    0.5350
   38.250    0.4708
   38.280    0.6742
   38.310    0.6528
   38.340    0.5457
   38.370    0.5886
   38.400    0.6528
   38.430    0.6849
   38.460    0.5993
   38.490    0.4922
   38.520    0.5029
   38.550    0.5243
   38.580    0.3531
   38.610    0.4708
   38.640    0.4173
   38.670    0.4387
   38.700    0.3959
   38.730    0.3959
   38.760    0.4708
   38.790    0.4066
   38.820    0.4601
   38.850    0.3959
   38.880    0.5029
   38.910    0.3531
   38.940    0.3852
   38.970    0.4387
   39.000    0.3317
   39.030    0.4387
   39.060    0.4601
   39.090    0.4601
   39.120    0.5029
   39.150    0.4280
   39.180    0.5029
   39.210    0.4815
   39.240    0.5778
   39.270    0.5136
   39.300    0.5029
   39.330    0.5136
   39.360    0.6421
   39.390    0.5564
   39.420    0.7170
   39.450    0.8240
   39.480    1.0059
   39.510    0.9631
   39.540    0.9203
   39.570    0.7919
   39.600    0.6956
   39.630    0.5350
   39.660    0.5671
   39.690    0.6528
   39.720    0.6421
   39.750    0.5671
   39.780    0.6207
   39.810    0.6207
   39.840    0.5886
   39.870    0.5457
   39.900    0.7277
   39.930    0.4708
   39.960    0.6314
   39.990    0.6528