File: data/PXRD/PXRD_KE-227-2_Co-Ka1_film-3mm_5s-deg.xyd
    1.500    4.1627
    1.530    4.1520
    1.560    4.3339
    1.590    3.5206
    1.620    3.7560
    1.650    3.4243
    1.680    3.3815
    1.710    3.4136
    1.740    3.1675
    1.770    2.8892
    1.800    3.2745
    1.830    3.1675
    1.860    2.9213
    1.890    3.0391
    1.920    2.4612
    1.950    2.7608
    1.980    2.8250
    2.010    2.3756
    2.040    2.5361
    2.070    2.3221
    2.100    2.5147
    2.130    2.5040
    2.160    2.2579
    2.190    2.3435
    2.220    2.2365
    2.250    2.1937
    2.280    2.2900
    2.310    2.1937
    2.340    1.9690
    2.370    2.2044
    2.400    2.0974
    2.430    1.9369
    2.460    2.0118
    2.490    2.0439
    2.520    2.0439
    2.550    2.2258
    2.580    1.9048
    2.610    1.7871
    2.640    2.1188
    2.670    1.8941
    2.700    1.9690
    2.730    2.0760
    2.760    1.8406
    2.790    1.7014
    2.820    1.7871
    2.850    1.8513
    2.880    1.7871
    2.910    1.7764
    2.940    1.6693
    2.970    1.6586
    3.000    1.8192
    3.030    1.7121
    3.060    1.6479
    3.090    1.6479
    3.120    1.6693
    3.150    1.6907
    3.180    1.8406
    3.210    1.8192
    3.240    1.5623
    3.270    1.6265
    3.300    1.8085
    3.330    1.3804
    3.360    1.7335
    3.390    1.6586
    3.420    1.3590
    3.450    1.6479
    3.480    1.6265
    3.510    1.5409
    3.540    1.3697
    3.570    1.7228
    3.600    1.4339
    3.630    1.3590
    3.660    1.5302
    3.690    1.3911
    3.720    1.6586
    3.750    1.7442
    3.780    1.6693
    3.810    1.5409
    3.840    1.6907
    3.870    1.7549
    3.900    1.7228
    3.930    1.6372
    3.960    2.0546
    3.990    1.8834
    4.020    2.1723
    4.050    2.1723
    4.080    1.9155
    4.110    1.8085
    4.140    1.9690
    4.170    1.8941
    4.200    2.1295
    4.230    2.0546
    4.260    2.1937
    4.290    2.4077
    4.320    2.6003
    4.350    2.7822
    4.380    3.1354
    4.410    3.6383
    4.440    3.9165
    4.470    5.0401
    4.500    6.6560
    4.530    8.1862
    4.560    4.4730
    4.590    2.2579
    4.620    1.7978
    4.650    1.7764
    4.680    1.7442
    4.710    1.7014
    4.740    1.4232
    4.770    1.5409
    4.800    1.6479
    4.830    1.8727
    4.860    1.7657
    4.890    1.6158
    4.920    1.3911
    4.950    1.6479
    4.980    1.6479
    5.010    1.6158
    5.040    1.6051
    5.070    1.5302
    5.100    1.4981
    5.130    1.4660
    5.160    1.3590
    5.190    1.6051
    5.220    1.5302
    5.250    1.4446
    5.280    1.3804
    5.310    1.5088
    5.340    1.3376
    5.370    1.6479
    5.400    1.6372
    5.430    1.5088
    5.460    1.4125
    5.490    1.6586
    5.520    1.5195
    5.550    1.4660
    5.580    1.6051
    5.610    1.6051
    5.640    1.5730
    5.670    1.4660
    5.700    1.4553
    5.730    1.5837
    5.760    1.5409
    5.790    1.3804
    5.820    1.7657
    5.850    1.7549
    5.880    1.5623
    5.910    1.5195
    5.940    1.6479
    5.970    1.7871
    6.000    1.7121
    6.030    1.7549
    6.060    1.6693
    6.090    1.8406
    6.120    1.8085
    6.150    1.9048
    6.180    1.7764
    6.210    1.8299
    6.240    1.9262
    6.270    1.9476
    6.300    2.1295
    6.330    2.0653
    6.360    2.7715
    6.390    2.2365
    6.420    2.7501
    6.450    2.1616
    6.480    1.9904
    6.510    2.0653
    6.540    2.0546
    6.570    2.0653
    6.600    2.0118
    6.630    1.9155
    6.660    1.9155
    6.690    1.7549
    6.720    1.5837
    6.750    1.7764
    6.780    1.8192
    6.810    1.7657
    6.840    1.9048
    6.870    1.4767
    6.900    1.8085
    6.930    1.5623
    6.960    1.7442
    6.990    1.4981
    7.020    1.5944
    7.050    1.4660
    7.080    1.8085
    7.110    1.5302
    7.140    1.6265
    7.170    1.4660
    7.200    1.6265
    7.230    1.5837
    7.260    1.3590
    7.290    1.2948
    7.320    1.4339
    7.350    1.2734
    7.380    1.4981
    7.410    1.5623
    7.440    1.3162
    7.470    1.2627
    7.500    1.6051
    7.530    1.3697
    7.560    1.6693
    7.590    1.1985
    7.620    1.5409
    7.650    1.4981
    7.680    1.2306
    7.710    1.3483
    7.740    1.4339
    7.770    1.3269
    7.800    1.3590
    7.830    1.4981
    7.860    1.5088
    7.890    1.3055
    7.920    1.2413
    7.950    1.3055
    7.980    1.3162
    8.010    1.3483
    8.040    1.3376
    8.070    1.4018
    8.100    1.1878
    8.130    1.2734
    8.160    1.1022
    8.190    1.1771
    8.220    1.1878
    8.250    1.0594
    8.280    1.2520
    8.310    1.0701
    8.340    1.2092
    8.370    1.2841
    8.400    1.2520
    8.430    1.1664
    8.460    1.0059
    8.490    1.0701
    8.520    1.0808
    8.550    1.0059
    8.580    1.1022
    8.610    1.1129
    8.640    0.9952
    8.670    1.0166
    8.700    1.0059
    8.730    1.0594
    8.760    1.1022
    8.790    1.1771
    8.820    1.1878
    8.850    1.0487
    8.880    1.1557
    8.910    1.1129
    8.940    1.1450
    8.970    0.9738
    9.000    1.0915
    9.030    1.3804
    9.060    1.2520
    9.090    1.2413
    9.120    1.2413
    9.150    0.8775
    9.180    1.1664
    9.210    0.8989
    9.240    0.9310
    9.270    0.9310
    9.300    1.0166
    9.330    0.9845
    9.360    0.9952
    9.390    0.8882
    9.420    1.0808
    9.450    0.9417
    9.480    0.7812
    9.510    0.9203
    9.540    0.8454
    9.570    0.9417
    9.600    1.0701
    9.630    1.0166
    9.660    0.9310
    9.690    0.8026
    9.720    1.0059
    9.750    0.8775
    9.780    0.7170
    9.810    0.9631
    9.840    0.9310
    9.870    0.9738
    9.900    0.8775
    9.930    0.9310
    9.960    0.9952
    9.990    0.8347
   10.020    0.9310
   10.050    0.8026
   10.080    0.9096
   10.110    0.9310
   10.140    0.9738
   10.170    0.7705
   10.200    1.0059
   10.230    0.7384
   10.260    0.6742
   10.290    0.8026
   10.320    1.0915
   10.350    0.9738
   10.380    0.8882
   10.410    0.7491
   10.440    0.7063
   10.470    1.0059
   10.500    0.9845
   10.530    0.8133
   10.560    0.8347
   10.590    0.9203
   10.620    0.8882
   10.650    0.7919
   10.680    1.0380
   10.710    0.7919
   10.740    0.9310
   10.770    0.6956
   10.800    0.8882
   10.830    0.9203
   10.860    0.9417
   10.890    0.8133
   10.920    0.9845
   10.950    0.7598
   10.980    0.8882
   11.010    0.9417
   11.040    0.9417
   11.070    1.0701
   11.100    1.1236
   11.130    1.2413
   11.160    1.0701
   11.190    1.0059
   11.220    0.8133
   11.250    0.9203
   11.280    0.9203
   11.310    0.9203
   11.340    0.8561
   11.370    0.8989
   11.400    0.8775
   11.430    0.7277
   11.460    0.8882
   11.490    0.8240
   11.520    0.9310
   11.550    0.8240
   11.580    0.8026
   11.610    0.7491
   11.640    0.7919
   11.670    0.7491
   11.700    0.9417
   11.730    0.7063
   11.760    0.6956
   11.790    0.8026
   11.820    0.9952
   11.850    0.9738
   11.880    0.9738
   11.910    0.9845
   11.940    1.0059
   11.970    0.9524
   12.000    0.9952
   12.030    1.1343
   12.060    0.9952
   12.090    0.8561
   12.120    0.8347
   12.150    0.9310
   12.180    0.8775
   12.210    0.8668
   12.240    0.9310
   12.270    0.8454
   12.300    0.9096
   12.330    0.9738
   12.360    0.9203
   12.390    0.9417
   12.420    1.0059
   12.450    0.8668
   12.480    0.7919
   12.510    0.7812
   12.540    0.9845
   12.570    0.8561
   12.600    0.7919
   12.630    0.9310
   12.660    0.9524
   12.690    0.9310
   12.720    0.9631
   12.750    1.0166
   12.780    1.0166
   12.810    1.0059
   12.840    1.0487
   12.870    1.0808
   12.900    1.0808
   12.930    0.9845
   12.960    0.9845
   12.990    1.0059
   13.020    0.9631
   13.050    0.9845
   13.080    0.9952
   13.110    0.8668
   13.140    0.9524
   13.170    0.9952
   13.200    0.9524
   13.230    0.8133
   13.260    0.7491
   13.290    0.8026
   13.320    1.0808
   13.350    0.8347
   13.380    0.8775
   13.410    0.9203
   13.440    0.9203
   13.470    0.8561
   13.500    0.8347
   13.530    0.9952
   13.560    0.9096
   13.590    0.9096
   13.620    0.8668
   13.650    1.0594
   13.680    1.0487
   13.710    0.9096
   13.740    0.8775
   13.770    0.8668
   13.800    0.8775
   13.830    0.7384
   13.860    0.7919
   13.890    0.9631
   13.920    0.9096
   13.950    0.7919
   13.980    1.0059
   14.010    0.8775
   14.040    0.8561
   14.070    0.8133
   14.100    0.8989
   14.130    0.8133
   14.160    0.9203
   14.190    0.8775
   14.220    0.7277
   14.250    0.7705
   14.280    0.9417
   14.310    0.8989
   14.340    0.8989
   14.370    0.8561
   14.400    0.7170
   14.430    0.8775
   14.460    0.9310
   14.490    0.7705
   14.520    0.8561
   14.550    0.8026
   14.580    0.8561
   14.610    0.7491
   14.640    0.7812
   14.670    0.8668
   14.700    0.8347
   14.730    0.9952
   14.760    0.7812
   14.790    0.7705
   14.820    0.7705
   14.850    0.8775
   14.880    0.7598
   14.910    0.8026
   14.940    0.8454
   14.970    0.7919
   15.000    0.9417
   15.030    0.9631
   15.060    0.8775
   15.090    1.0487
   15.120    0.9417
   15.150    0.8347
   15.180    0.8775
   15.210    0.7491
   15.240    0.8668
   15.270    0.8454
   15.300    0.7812
   15.330    0.7277
   15.360    0.7170
   15.390    0.8989
   15.420    0.7812
   15.450    0.8989
   15.480    0.7919
   15.510    0.7277
   15.540    0.7812
   15.570    0.7705
   15.600    0.6742
   15.630    0.8240
   15.660    0.8882
   15.690    0.6742
   15.720    0.8989
   15.750    0.8668
   15.780    0.8561
   15.810    0.8882
   15.840    0.8775
   15.870    0.7491
   15.900    0.8026
   15.930    0.8240
   15.960    0.8668
   15.990    0.8347
   16.020    0.5993
   16.050    0.8026
   16.080    0.8668
   16.110    0.8668
   16.140    0.7491
   16.170    0.9203
   16.200    0.8561
   16.230    0.9738
   16.260    0.7919
   16.290    0.9738
   16.320    0.8454
   16.350    0.6849
   16.380    0.9738
   16.410    1.0915
   16.440    0.9952
   16.470    0.7491
   16.500    0.8989
   16.530    0.9203
   16.560    0.8668
   16.590    0.8240
   16.620    1.0166
   16.650    0.8668
   16.680    0.9952
   16.710    0.8775
   16.740    0.8989
   16.770    0.9096
   16.800    0.7170
   16.830    0.8240
   16.860    0.8668
   16.890    1.1343
   16.920    0.8989
   16.950    1.1557
   16.980    0.8454
   17.010    0.8240
   17.040    0.8347
   17.070    0.7170
   17.100    0.8454
   17.130    0.9417
   17.160    0.8133
   17.190    0.8561
   17.220    0.7812
   17.250    0.8775
   17.280    0.8026
   17.310    0.7491
   17.340    0.8989
   17.370    0.7598
   17.400    0.7812
   17.430    0.6528
   17.460    0.8775
   17.490    0.9631
   17.520    0.8133
   17.550    0.7812
   17.580    0.8454
   17.610    0.9096
   17.640    0.8561
   17.670    0.8133
   17.700    0.8133
   17.730    0.8347
   17.760    0.8561
   17.790    0.6742
   17.820    0.7277
   17.850    0.8561
   17.880    0.7277
   17.910    0.5886
   17.940    0.8026
   17.970    0.6742
   18.000    0.7170
   18.030    0.7063
   18.060    0.8989
   18.090    0.7598
   18.120    1.0487
   18.150    0.7170
   18.180    0.7384
   18.210    0.7598
   18.240    0.7919
   18.270    0.7812
   18.300    0.6849
   18.330    0.7491
   18.360    0.8240
   18.390    0.7812
   18.420    0.6742
   18.450    0.5886
   18.480    0.8668
   18.510    0.8775
   18.540    0.7063
   18.570    0.8240
   18.600    0.7705
   18.630    0.9096
   18.660    0.9096
   18.690    0.9417
   18.720    0.8668
   18.750    0.7384
   18.780    0.8133
   18.810    0.6742
   18.840    0.9203
   18.870    0.9417
   18.900    0.7491
   18.930    0.8454
   18.960    0.7277
   18.990    0.8882
   19.020    0.7919
   19.050    0.8133
   19.080    0.8454
   19.110    0.7812
   19.140    0.9524
   19.170    0.9203
   19.200    0.8133
   19.230    0.8454
   19.260    0.9310
   19.290    0.7598
   19.320    0.8347
   19.350    0.9203
   19.380    0.8668
   19.410    0.7170
   19.440    0.7491
   19.470    0.9096
   19.500    0.7384
   19.530    0.6956
   19.560    0.7919
   19.590    0.8989
   19.620    0.6635
   19.650    0.7812
   19.680    0.9310
   19.710    0.8347
   19.740    0.6421
   19.770    0.6742
   19.800    0.7812
   19.830    0.8347
   19.860    0.9738
   19.890    0.8775
   19.920    0.8989
   19.950    0.8240
   19.980    0.8561
   20.010    0.7919
   20.040    0.8882
   20.070    0.8454
   20.100    0.7919
   20.130    0.8561
   20.160    0.7491
   20.190    0.8882
   20.220    0.7170
   20.250    0.7063
   20.280    0.7277
   20.310    0.8347
   20.340    0.6742
   20.370    0.7812
   20.400    0.6635
   20.430    0.7598
   20.460    0.8133
   20.490    0.7598
   20.520    0.8240
   20.550    0.8026
   20.580    0.6421
   20.610    0.6528
   20.640    0.8454
   20.670    0.9096
   20.700    0.6528
   20.730    0.6956
   20.760    0.6207
   20.790    0.6528
   20.820    0.7277
   20.850    0.7812
   20.880    0.8133
   20.910    0.8454
   20.940    0.6956
   20.970    0.9096
   21.000    0.7919
   21.030    0.7170
   21.060    0.7384
   21.090    0.8561
   21.120    0.7812
   21.150    0.7812
   21.180    0.7812
   21.210    0.8668
   21.240    0.8240
   21.270    0.7919
   21.300    0.7170
   21.330    0.8026
   21.360    0.7384
   21.390    0.7705
   21.420    0.6956
   21.450    0.6956
   21.480    0.6635
   21.510    0.6742
   21.540    0.6742
   21.570    0.8347
   21.600    0.7705
   21.630    0.6314
   21.660    0.7170
   21.690    0.7919
   21.720    0.8026
   21.750    0.8775
   21.780    0.7919
   21.810    0.8240
   21.840    0.8240
   21.870    0.7277
   21.900    0.8882
   21.930    0.7277
   21.960    0.8668
   21.990    0.7170
   22.020    0.7919
   22.050    0.6314
   22.080    0.7491
   22.110    0.8026
   22.140    0.6849
   22.170    0.6849
   22.200    0.8133
   22.230    0.6100
   22.260    0.6100
   22.290    0.8133
   22.320    0.6421
   22.350    0.6956
   22.380    0.7170
   22.410    0.7491
   22.440    0.7705
   22.470    0.6742
   22.500    0.6849
   22.530    0.7705
   22.560    0.8133
   22.590    0.8133
   22.620    0.7598
   22.650    0.5778
   22.680    0.7170
   22.710    0.6528
   22.740    0.7919
   22.770    0.7170
   22.800    0.7277
   22.830    0.6849
   22.860    0.8882
   22.890    0.6742
   22.920    0.8133
   22.950    0.7598
   22.980    0.7170
   23.010    0.7170
   23.040    0.7384
   23.070    0.6635
   23.100    0.7491
   23.130    0.7170
   23.160    0.7063
   23.190    0.7384
   23.220    0.6742
   23.250    0.8454
   23.280    0.8133
   23.310    0.7812
   23.340    0.7812
   23.370    0.7491
   23.400    0.7170
   23.430    0.6742
   23.460    0.7812
   23.490    0.7384
   23.520    0.7812
   23.550    0.6100
   23.580    0.8454
   23.610    0.5778
   23.640    0.6528
   23.670    0.7705
   23.700    0.7919
   23.730    0.8561
   23.760    0.8240
   23.790    0.8026
   23.820    0.5564
   23.850    0.8454
   23.880    0.7598
   23.910    0.6528
   23.940    0.5993
   23.970    0.6528
   24.000    0.7598
   24.030    0.7705
   24.060    0.7705
   24.090    0.6314
   24.120    0.6635
   24.150    0.6742
   24.180    0.7063
   24.210    0.7598
   24.240    0.6421
   24.270    0.6742
   24.300    0.6207
   24.330    0.7170
   24.360    0.6956
   24.390    0.5778
   24.420    0.5029
   24.450    0.6421
   24.480    0.5993
   24.510    0.7384
   24.540    0.7598
   24.570    0.7598
   24.600    0.6421
   24.630    0.5564
   24.660    0.7063
   24.690    0.7170
   24.720    0.7705
   24.750    0.5029
   24.780    0.6421
   24.810    0.7063
   24.840    0.5993
   24.870    0.8133
   24.900    0.6849
   24.930    0.6956
   24.960    0.7491
   24.990    0.6528
   25.020    0.5457
   25.050    0.7598
   25.080    0.7812
   25.110    0.7063
   25.140    0.6421
   25.170    0.8026
   25.200    0.5778
   25.230    0.6849
   25.260    0.6635
   25.290    0.6635
   25.320    0.6635
   25.350    0.7170
   25.380    0.7812
   25.410    0.6635
   25.440    0.7170
   25.470    0.6207
   25.500    0.7812
   25.530    0.6100
   25.560    0.6742
   25.590    0.6742
   25.620    0.5564
   25.650    0.6635
   25.680    0.6100
   25.710    0.6528
   25.740    0.7063
   25.770    0.6100
   25.800    0.7170
   25.830    0.5671
   25.860    0.6528
   25.890    0.6956
   25.920    0.7063
   25.950    0.4815
   25.980    0.6849
   26.010    0.7705
   26.040    0.6421
   26.070    0.6635
   26.100    0.6421
   26.130    0.7277
   26.160    0.7384
   26.190    0.6314
   26.220    0.5457
   26.250    0.8133
   26.280    0.6207
   26.310    0.7384
   26.340    0.6742
   26.370    0.6207
   26.400    0.7384
   26.430    0.6956
   26.460    0.6421
   26.490    0.6314
   26.520    0.6528
   26.550    0.5886
   26.580    0.6635
   26.610    0.5564
   26.640    0.5886
   26.670    0.6849
   26.700    0.5671
   26.730    0.5243
   26.760    0.8133
   26.790    0.5564
   26.820    0.5993
   26.850    0.6314
   26.880    0.5778
   26.910    0.5136
   26.940    0.6314
   26.970    0.6100
   27.000    0.5671
   27.030    0.7170
   27.060    0.6207
   27.090    0.7063
   27.120    0.6742
   27.150    0.5243
   27.180    0.6956
   27.210    0.6314
   27.240    0.5671
   27.270    0.6849
   27.300    0.6742
   27.330    0.6849
   27.360    0.6314
   27.390    0.5029
   27.420    0.5886
   27.450    0.5993
   27.480    0.5778
   27.510    0.6207
   27.540    0.5886
   27.570    0.4922
   27.600    0.5993
   27.630    0.5993
   27.660    0.6849
   27.690    0.5671
   27.720    0.5243
   27.750    0.4387
   27.780    0.5993
   27.810    0.5671
   27.840    0.7063
   27.870    0.5886
   27.900    0.5778
   27.930    0.6956
   27.960    0.6421
   27.990    0.4922
   28.020    0.4387
   28.050    0.6528
   28.080    0.5243
   28.110    0.6100
   28.140    0.5457
   28.170    0.4922
   28.200    0.6421
   28.230    0.6742
   28.260    0.6742
   28.290    0.5886
   28.320    0.5136
   28.350    0.5671
   28.380    0.5136
   28.410    0.5564
   28.440    0.5350
   28.470    0.5457
   28.500    0.4815
   28.530    0.5564
   28.560    0.5993
   28.590    0.6314
   28.620    0.5564
   28.650    0.6421
   28.680    0.5564
   28.710    0.5243
   28.740    0.5778
   28.770    0.5778
   28.800    0.5243
   28.830    0.5136
   28.860    0.5671
   28.890    0.6100
   28.920    0.5778
   28.950    0.5886
   28.980    0.5886
   29.010    0.5886
   29.040    0.5993
   29.070    0.5457
   29.100    0.3424
   29.130    0.5029
   29.160    0.4173
   29.190    0.4815
   29.220    0.4387
   29.250    0.5029
   29.280    0.5457
   29.310    0.6635
   29.340    0.5993
   29.370    0.5457
   29.400    0.4922
   29.430    0.4922
   29.460    0.5993
   29.490    0.5029
   29.520    0.6314
   29.550    0.5243
   29.580    0.5029
   29.610    0.6207
   29.640    0.5671
   29.670    0.4922
   29.700    0.6207
   29.730    0.5778
   29.760    0.4601
   29.790    0.4708
   29.820    0.5243
   29.850    0.5457
   29.880    0.4815
   29.910    0.5564
   29.940    0.5886
   29.970    0.5886
   30.000    0.5136
   30.030    0.5457
   30.060    0.6849
   30.090    0.5350
   30.120    0.6742
   30.150    0.5243
   30.180    0.5778
   30.210    0.5993
   30.240    0.5457
   30.270    0.5564
   30.300    0.5457
   30.330    0.5350
   30.360    0.5564
   30.390    0.5350
   30.420    0.4066
   30.450    0.3852
   30.480    0.5243
   30.510    0.5243
   30.540    0.5564
   30.570    0.4280
   30.600    0.5029
   30.630    0.4922
   30.660    0.5778
   30.690    0.4815
   30.720    0.4922
   30.750    0.4173
   30.780    0.5350
   30.810    0.5457
   30.840    0.5136
   30.870    0.5136
   30.900    0.4173
   30.930    0.5778
   30.960    0.5564
   30.990    0.5350
   31.020    0.5886
   31.050    0.6100
   31.080    0.5029
   31.110    0.4066
   31.140    0.3638
   31.170    0.3852
   31.200    0.5029
   31.230    0.5029
   31.260    0.5564
   31.290    0.5029
   31.320    0.3959
   31.350    0.4387
   31.380    0.5243
   31.410    0.5136
   31.440    0.4601
   31.470    0.3745
   31.500    0.4815
   31.530    0.5136
   31.560    0.4066
   31.590    0.5671
   31.620    0.4173
   31.650    0.5564
   31.680    0.4708
   31.710    0.4708
   31.740    0.4815
   31.770    0.5029
   31.800    0.4708
   31.830    0.4066
   31.860    0.4494
   31.890    0.4173
   31.920    0.4387
   31.950    0.4601
   31.980    0.4922
   32.010    0.5136
   32.040    0.5136
   32.070    0.4601
   32.100    0.3852
   32.130    0.3531
   32.160    0.4708
   32.190    0.5136
   32.220    0.5136
   32.250    0.4173
   32.280    0.3959
   32.310    0.4708
   32.340    0.3852
   32.370    0.5350
   32.400    0.5136
   32.430    0.3959
   32.460    0.5136
   32.490    0.4601
   32.520    0.4494
   32.550    0.4815
   32.580    0.3852
   32.610    0.4387
   32.640    0.3317
   32.670    0.5243
   32.700    0.4066
   32.730    0.4173
   32.760    0.5243
   32.790    0.5029
   32.820    0.4815
   32.850    0.5136
   32.880    0.4601
   32.910    0.3959
   32.940    0.4494
   32.970    0.4280
   33.000    0.4173
   33.030    0.4173
   33.060    0.4708
   33.090    0.5350
   33.120    0.4280
   33.150    0.4387
   33.180    0.4601
   33.210    0.4494
   33.240    0.3959
   33.270    0.5778
   33.300    0.3959
   33.330    0.3959
   33.360    0.5457
   33.390    0.3959
   33.420    0.3852
   33.450    0.3852
   33.480    0.4494
   33.510    0.3852
   33.540    0.3317
   33.570    0.4280
   33.600    0.3959
   33.630    0.4173
   33.660    0.3638
   33.690    0.4173
   33.720    0.4066
   33.750    0.3959
   33.780    0.4922
   33.810    0.4708
   33.840    0.4708
   33.870    0.4708
   33.900    0.3531
   33.930    0.4601
   33.960    0.5029
   33.990    0.3638
   34.020    0.4494
   34.050    0.3638
   34.080    0.3638
   34.110    0.3424
   34.140    0.4494
   34.170    0.3638
   34.200    0.4601
   34.230    0.3638
   34.260    0.3959
   34.290    0.4494
   34.320    0.3531
   34.350    0.2568
   34.380    0.4066
   34.410    0.4387
   34.440    0.3531
   34.470    0.2675
   34.500    0.4066
   34.530    0.3424
   34.560    0.3317
   34.590    0.2568
   34.620    0.4173
   34.650    0.3638
   34.680    0.3638
   34.710    0.3531
   34.740    0.3852
   34.770    0.3852
   34.800    0.4601
   34.830    0.3959
   34.860    0.4708
   34.890    0.4066
   34.920    0.4601
   34.950    0.3531
   34.980    0.2996
   35.010    0.3103
   35.040    0.2889
   35.070    0.3852
   35.100    0.3638
   35.130    0.3210
   35.160    0.4280
   35.190    0.3210
   35.220    0.4066
   35.250    0.3531
   35.280    0.2996
   35.310    0.2140
   35.340    0.2782
   35.370    0.3745
   35.400    0.3103
   35.430    0.3638
   35.460    0.2675
   35.490    0.3531
   35.520    0.4280
   35.550    0.3745
   35.580    0.3424
   35.610    0.3210
   35.640    0.3103
   35.670    0.4494
   35.700    0.3531
   35.730    0.3852
   35.760    0.3852
   35.790    0.3424
   35.820    0.2354
   35.850    0.3638
   35.880    0.3210
   35.910    0.3959
   35.940    0.3745
   35.970    0.2782
   36.000    0.3959
   36.030    0.4280
   36.060    0.3103
   36.090    0.3852
   36.120    0.2889
   36.150    0.3852
   36.180    0.3745
   36.210    0.3531
   36.240    0.3745
   36.270    0.2996
   36.300    0.3103
   36.330    0.2782
   36.360    0.3210
   36.390    0.3852
   36.420    0.3638
   36.450    0.3638
   36.480    0.4387
   36.510    0.3103
   36.540    0.3531
   36.570    0.3852
   36.600    0.2996
   36.630    0.2782
   36.660    0.3424
   36.690    0.3424
   36.720    0.3317
   36.750    0.3531
   36.780    0.2996
   36.810    0.2996
   36.840    0.3210
   36.870    0.2568
   36.900    0.2782
   36.930    0.2461
   36.960    0.2675
   36.990    0.2889
   37.020    0.4066
   37.050    0.2996
   37.080    0.2996
   37.110    0.3638
   37.140    0.1926
   37.170    0.3210
   37.200    0.2568
   37.230    0.3745
   37.260    0.2996
   37.290    0.3210
   37.320    0.2782
   37.350    0.3317
   37.380    0.3638
   37.410    0.2996
   37.440    0.2568
   37.470    0.3210
   37.500    0.4173
   37.530    0.2889
   37.560    0.3210
   37.590    0.2782
   37.620    0.3852
   37.650    0.2782
   37.680    0.2782
   37.710    0.2996
   37.740    0.3424
   37.770    0.2996
   37.800    0.2461
   37.830    0.3210
   37.860    0.2889
   37.890    0.2782
   37.920    0.3317
   37.950    0.3103
   37.980    0.2889
   38.010    0.2675
   38.040    0.2140
   38.070    0.2889
   38.100    0.3959
   38.130    0.2996
   38.160    0.2568
   38.190    0.2033
   38.220    0.3317
   38.250    0.2675
   38.280    0.2782
   38.310    0.2675
   38.340    0.2996
   38.370    0.3103
   38.400    0.2354
   38.430    0.2461
   38.460    0.2675
   38.490    0.3638
   38.520    0.2675
   38.550    0.3424
   38.580    0.3424
   38.610    0.2889
   38.640    0.2568
   38.670    0.2675
   38.700    0.1926
   38.730    0.3103
   38.760    0.2675
   38.790    0.2782
   38.820    0.2568
   38.850    0.2568
   38.880    0.3745
   38.910    0.2996
   38.940    0.2033
   38.970    0.3103
   39.000    0.3424
   39.030    0.2675
   39.060    0.2568
   39.090    0.2568
   39.120    0.3103
   39.150    0.3317
   39.180    0.2889
   39.210    0.2140
   39.240    0.3424
   39.270    0.2675
   39.300    0.3424
   39.330    0.2461
   39.360    0.2996
   39.390    0.3103
   39.420    0.2996
   39.450    0.2033
   39.480    0.2140
   39.510    0.2889
   39.540    0.2461
   39.570    0.2568
   39.600    0.2461
   39.630    0.3103
   39.660    0.2354
   39.690    0.1819
   39.720    0.2140
   39.750    0.1391
   39.780    0.2996
   39.810    0.3638
   39.840    0.2354
   39.870    0.2889
   39.900    0.2140
   39.930    0.3103
   39.960    0.2568
   39.990    0.2996