File: data/PXRD/PXRD_KE-003_Cu-Ka1_capillary-1mm_5s-deg.xyd
    1.500   11.6377
    1.530   11.3217
    1.560   11.1848
    1.590   11.0058
    1.620   10.2370
    1.650   10.2054
    1.680    9.6367
    1.710    9.2786
    1.740    9.0995
    1.770    9.0153
    1.800    8.2570
    1.830    8.2464
    1.860    7.6356
    1.890    7.8462
    1.920    7.2775
    1.950    7.8146
    1.980    7.6356
    2.010    7.4039
    2.040    7.0142
    2.070    6.8878
    2.100    6.8773
    2.130    6.8352
    2.160    6.2454
    2.190    6.7615
    2.220    6.7509
    2.250    6.2665
    2.280    6.1927
    2.310    6.3296
    2.340    6.3507
    2.370    6.1506
    2.400    6.4034
    2.430    5.9294
    2.460    6.1611
    2.490    6.0664
    2.520    5.5082
    2.550    5.6556
    2.580    5.6977
    2.610    6.1085
    2.640    5.7399
    2.670    5.9400
    2.700    6.2559
    2.730    6.3402
    2.760    6.0769
    2.790    5.7925
    2.820    6.2349
    2.850    6.2770
    2.880    5.6872
    2.910    5.9189
    2.940    6.2559
    2.970    6.2243
    3.000    6.1822
    3.030    6.3191
    3.060    6.3296
    3.090    6.5719
    3.120    6.4876
    3.150    6.7615
    3.180    6.6456
    3.210    6.8878
    3.240    7.0353
    3.270    6.9089
    3.300    7.3302
    3.330    8.0463
    3.360    8.2780
    3.390    8.0885
    3.420    8.6467
    3.450    9.2996
    3.480    9.4471
    3.510    9.4787
    3.540    9.9105
    3.570    9.9842
    3.600    9.7314
    3.630    9.5629
    3.660    9.5524
    3.690    8.6361
    3.720    8.3307
    3.750    8.3834
    3.780    7.4987
    3.810    7.5197
    3.840    7.0669
    3.870    6.8036
    3.900    7.0774
    3.930    6.8352
    3.960    5.8768
    3.990    6.4560
    4.020    6.1085
    4.050    6.1822
    4.080    5.8347
    4.110    5.8452
    4.140    5.6661
    4.170    5.9716
    4.200    5.6135
    4.230    5.6556
    4.260    5.8136
    4.290    5.2554
    4.320    5.2975
    4.350    5.4976
    4.380    5.6240
    4.410    5.5398
    4.440    5.5187
    4.470    5.3607
    4.500    5.4450
    4.530    5.0869
    4.560    5.2659
    4.590    5.1817
    4.620    5.1501
    4.650    5.3818
    4.680    5.2133
    4.710    5.2449
    4.740    5.5924
    4.770    5.1185
    4.800    5.5292
    4.830    5.4450
    4.860    5.4976
    4.890    5.4555
    4.920    5.2027
    4.950    5.1185
    4.980    5.3818
    5.010    5.2027
    5.040    5.0658
    5.070    5.2027
    5.100    5.2975
    5.130    5.1395
    5.160    5.3818
    5.190    5.0869
    5.220    5.2133
    5.250    5.1185
    5.280    5.2659
    5.310    5.2554
    5.340    5.1711
    5.370    5.5398
    5.400    5.2659
    5.430    5.5503
    5.460    5.2975
    5.490    5.1080
    5.520    5.2343
    5.550    5.4871
    5.580    5.3397
    5.610    5.4134
    5.640    5.3186
    5.670    5.3081
    5.700    5.0132
    5.730    4.9078
    5.760    4.9921
    5.790    5.0132
    5.820    4.9078
    5.850    5.1395
    5.880    4.8657
    5.910    4.9078
    5.940    5.1395
    5.970    4.7288
    6.000    4.8025
    6.030    4.7499
    6.060    4.3286
    6.090    4.8868
    6.120    4.1390
    6.150    4.6235
    6.180    4.8131
    6.210    4.6656
    6.240    4.4971
    6.270    4.4550
    6.300    4.5392
    6.330    4.6445
    6.360    4.3497
    6.390    4.4866
    6.420    4.7920
    6.450    4.8025
    6.480    4.4550
    6.510    4.4444
    6.540    4.5603
    6.570    4.4339
    6.600    4.5498
    6.630    4.5814
    6.660    4.8552
    6.690    4.4444
    6.720    4.4339
    6.750    4.7709
    6.780    4.7393
    6.810    4.3918
    6.840    4.6656
    6.870    4.8973
    6.900    5.0658
    6.930    5.0448
    6.960    5.0237
    6.990    4.7077
    7.020    5.5292
    7.050    5.4239
    7.080    5.2870
    7.110    5.7188
    7.140    5.6767
    7.170    5.5292
    7.200    5.2659
    7.230    5.1922
    7.260    5.2027
    7.290    5.2975
    7.320    5.7188
    7.350    5.4766
    7.380    5.1817
    7.410    5.7293
    7.440    5.6029
    7.470    5.8452
    7.500    5.7715
    7.530    5.9400
    7.560    6.0979
    7.590    6.3086
    7.620    6.1085
    7.650    5.8662
    7.680    6.4455
    7.710    6.3928
    7.740    6.4876
    7.770    6.0137
    7.800    6.2349
    7.830    6.1717
    7.860    5.8768
    7.890    6.1506
    7.920    6.4350
    7.950    6.3823
    7.980    6.2875
    8.010    5.9294
    8.040    5.6135
    8.070    5.8452
    8.100    5.2027
    8.130    5.3818
    8.160    5.2343
    8.190    4.9921
    8.220    4.6340
    8.250    4.6445
    8.280    4.3602
    8.310    4.9078
    8.340    4.4339
    8.370    3.9916
    8.400    4.0126
    8.430    4.1706
    8.460    3.8652
    8.490    4.1074
    8.520    3.9705
    8.550    4.0653
    8.580    4.3075
    8.610    4.3707
    8.640    3.7072
    8.670    3.7704
    8.700    3.8757
    8.730    3.9600
    8.760    3.5176
    8.790    3.8863
    8.820    4.0126
    8.850    3.7072
    8.880    3.9810
    8.910    3.8231
    8.940    3.9705
    8.970    3.5703
    9.000    3.6546
    9.030    3.4650
    9.060    3.5492
    9.090    3.7915
    9.120    3.6019
    9.150    3.3386
    9.180    3.5598
    9.210    3.7809
    9.240    3.7177
    9.270    3.6440
    9.300    3.5176
    9.330    3.6440
    9.360    3.7072
    9.390    3.4755
    9.420    3.6546
    9.450    3.5176
    9.480    3.4966
    9.510    3.6756
    9.540    3.4650
    9.570    3.6967
    9.600    3.4439
    9.630    3.6967
    9.660    3.4650
    9.690    3.8547
    9.720    3.6546
    9.750    3.6651
    9.780    3.7177
    9.810    3.6756
    9.840    3.8020
    9.870    3.5071
    9.900    3.6335
    9.930    3.3913
    9.960    3.4966
    9.990    3.5071
   10.020    3.7493
   10.050    3.4123
   10.080    3.5282
   10.110    3.4018
   10.140    3.7177
   10.170    3.6230
   10.200    3.2965
   10.230    3.8336
   10.260    3.6546
   10.290    3.5282
   10.320    3.5176
   10.350    3.6440
   10.380    3.6862
   10.410    3.6230
   10.440    3.6440
   10.470    3.8547
   10.500    3.5387
   10.530    3.5914
   10.560    3.7704
   10.590    3.7283
   10.620    3.6756
   10.650    3.6967
   10.680    3.6440
   10.710    3.6546
   10.740    3.4334
   10.770    3.7704
   10.800    3.5176
   10.830    3.5176
   10.860    3.4966
   10.890    3.7283
   10.920    3.6756
   10.950    3.4860
   10.980    3.6019
   11.010    3.5598
   11.040    3.6546
   11.070    3.2859
   11.100    3.8863
   11.130    3.7599
   11.160    3.8441
   11.190    3.7704
   11.220    3.6546
   11.250    3.6546
   11.280    3.8336
   11.310    3.5387
   11.340    3.8547
   11.370    3.5598
   11.400    3.6651
   11.430    3.5914
   11.460    3.9389
   11.490    3.8231
   11.520    3.7493
   11.550    3.4544
   11.580    3.6230
   11.610    3.8020
   11.640    3.6440
   11.670    3.7177
   11.700    4.0021
   11.730    3.7809
   11.760    3.6651
   11.790    3.9494
   11.820    3.8020
   11.850    3.7072
   11.880    3.8441
   11.910    3.8231
   11.940    3.9494
   11.970    3.7493
   12.000    3.6230
   12.030    3.7599
   12.060    3.8441
   12.090    4.0969
   12.120    3.8863
   12.150    3.4018
   12.180    3.5808
   12.210    3.7388
   12.240    3.9073
   12.270    3.7177
   12.300    3.7809
   12.330    3.9494
   12.360    3.7177
   12.390    3.9705
   12.420    3.9073
   12.450    3.7388
   12.480    3.8336
   12.510    4.0758
   12.540    4.0864
   12.570    3.7493
   12.600    3.9916
   12.630    3.7388
   12.660    3.8652
   12.690    3.8231
   12.720    3.5387
   12.750    3.5176
   12.780    3.4544
   12.810    3.4755
   12.840    3.5282
   12.870    3.6651
   12.900    3.6124
   12.930    3.6862
   12.960    3.6230
   12.990    3.5492
   13.020    3.7177
   13.050    3.7388
   13.080    3.4650
   13.110    3.3491
   13.140    3.7493
   13.170    3.9179
   13.200    3.6230
   13.230    3.5176
   13.260    3.7283
   13.290    3.3702
   13.320    3.7388
   13.350    3.9179
   13.380    3.5808
   13.410    3.5703
   13.440    3.7809
   13.470    3.6019
   13.500    3.5492
   13.530    3.6756
   13.560    3.5071
   13.590    3.6335
   13.620    3.5071
   13.650    3.7388
   13.680    3.3175
   13.710    3.5914
   13.740    3.8757
   13.770    3.7704
   13.800    3.6440
   13.830    3.6546
   13.860    3.6335
   13.890    3.6967
   13.920    3.6756
   13.950    3.5176
   13.980    3.6230
   14.010    3.5598
   14.040    3.7283
   14.070    3.6124
   14.100    3.9073
   14.130    3.3175
   14.160    3.8336
   14.190    3.7493
   14.220    3.7072
   14.250    4.2865
   14.280    3.9494
   14.310    3.4439
   14.340    3.8547
   14.370    3.7915
   14.400    3.6230
   14.430    3.9179
   14.460    3.7283
   14.490    3.5387
   14.520    3.7177
   14.550    3.8547
   14.580    3.9494
   14.610    4.0126
   14.640    4.0021
   14.670    4.0758
   14.700    4.0126
   14.730    3.8863
   14.760    4.2233
   14.790    3.9494
   14.820    3.7809
   14.850    3.8547
   14.880    3.9179
   14.910    3.9705
   14.940    3.9810
   14.970    4.0969
   15.000    3.9179
   15.030    3.8863
   15.060    4.0864
   15.090    3.9810
   15.120    3.7493
   15.150    4.1706
   15.180    3.7493
   15.210    3.8231
   15.240    3.5914
   15.270    3.6756
   15.300    3.8652
   15.330    3.7704
   15.360    3.8652
   15.390    4.0653
   15.420    3.7388
   15.450    3.8125
   15.480    3.6124
   15.510    3.7283
   15.540    3.8968
   15.570    3.6756
   15.600    3.7493
   15.630    3.8020
   15.660    3.9600
   15.690    3.4229
   15.720    3.7493
   15.750    3.8757
   15.780    3.8652
   15.810    3.7599
   15.840    3.5598
   15.870    3.6019
   15.900    3.7704
   15.930    4.1285
   15.960    3.8547
   15.990    3.7283
   16.020    3.5598
   16.050    3.9073
   16.080    3.6230
   16.110    3.5703
   16.140    3.8020
   16.170    3.7915
   16.200    3.7072
   16.230    3.9810
   16.260    3.6546
   16.290    3.6230
   16.320    3.6546
   16.350    3.4544
   16.380    3.7599
   16.410    3.6230
   16.440    3.6335
   16.470    3.3070
   16.500    3.6230
   16.530    3.8652
   16.560    3.9389
   16.590    3.5282
   16.620    3.4650
   16.650    3.2859
   16.680    3.9389
   16.710    3.8231
   16.740    3.5492
   16.770    3.6546
   16.800    3.7809
   16.830    3.8231
   16.860    3.6440
   16.890    3.8968
   16.920    3.4966
   16.950    3.8652
   16.980    3.9494
   17.010    3.5387
   17.040    4.0232
   17.070    3.6862
   17.100    3.7283
   17.130    3.7493
   17.160    3.7493
   17.190    3.6440
   17.220    4.0548
   17.250    3.6440
   17.280    3.6967
   17.310    3.9916
   17.340    3.6440
   17.370    3.9284
   17.400    3.6124
   17.430    4.0021
   17.460    3.9494
   17.490    3.8231
   17.520    3.9284
   17.550    3.7388
   17.580    3.9284
   17.610    3.4544
   17.640    4.0758
   17.670    3.8547
   17.700    3.8757
   17.730    4.0758
   17.760    4.0864
   17.790    4.1496
   17.820    3.9600
   17.850    4.0126
   17.880    3.7493
   17.910    3.8652
   17.940    4.0126
   17.970    4.1285
   18.000    4.7499
   18.030    4.1706
   18.060    4.3075
   18.090    4.4023
   18.120    4.3497
   18.150    4.2022
   18.180    4.6235
   18.210    4.4339
   18.240    4.3707
   18.270    4.2970
   18.300    4.0337
   18.330    4.0758
   18.360    4.5498
   18.390    4.2443
   18.420    4.2022
   18.450    4.2759
   18.480    4.1390
   18.510    4.4971
   18.540    4.2654
   18.570    4.0021
   18.600    4.2127
   18.630    4.2338
   18.660    4.3602
   18.690    3.9810
   18.720    4.2654
   18.750    4.4444
   18.780    4.1285
   18.810    4.0337
   18.840    4.2338
   18.870    4.2549
   18.900    4.1285
   18.930    4.2654
   18.960    4.4866
   18.990    4.4339
   19.020    4.1180
   19.050    4.6024
   19.080    4.2022
   19.110    4.4550
   19.140    3.8757
   19.170    4.3181
   19.200    4.5392
   19.230    4.3813
   19.260    4.0232
   19.290    4.0232
   19.320    4.1496
   19.350    4.1390
   19.380    4.2865
   19.410    4.4760
   19.440    4.5392
   19.470    4.5076
   19.500    4.2759
   19.530    4.3075
   19.560    4.2759
   19.590    4.0969
   19.620    4.2865
   19.650    4.3286
   19.680    4.2549
   19.710    4.2549
   19.740    4.6656
   19.770    4.7077
   19.800    4.2970
   19.830    4.4339
   19.860    4.3918
   19.890    4.7077
   19.920    4.0337
   19.950    4.5182
   19.980    4.0021
   20.010    4.4655
   20.040    4.1811
   20.070    4.4866
   20.100    4.4128
   20.130    4.5603
   20.160    4.2233
   20.190    4.4128
   20.220    4.2759
   20.250    4.2865
   20.280    4.2127
   20.310    4.0653
   20.340    4.1074
   20.370    4.3813
   20.400    4.2127
   20.430    4.6867
   20.460    4.3497
   20.490    4.3813
   20.520    4.2022
   20.550    4.2970
   20.580    4.4655
   20.610    4.5287
   20.640    4.6445
   20.670    4.4655
   20.700    4.4866
   20.730    4.4234
   20.760    4.2338
   20.790    4.7183
   20.820    4.5498
   20.850    4.7709
   20.880    4.5392
   20.910    4.6656
   20.940    4.5814
   20.970    4.4760
   21.000    4.2338
   21.030    4.7288
   21.060    4.7815
   21.090    4.4760
   21.120    4.3707
   21.150    4.4444
   21.180    4.5919
   21.210    4.5814
   21.240    4.8341
   21.270    4.5076
   21.300    4.6656
   21.330    4.7709
   21.360    4.7393
   21.390    4.7077
   21.420    4.7288
   21.450    4.3918
   21.480    4.3391
   21.510    4.3497
   21.540    4.8763
   21.570    4.3918
   21.600    4.2654
   21.630    4.5076
   21.660    4.4760
   21.690    4.7815
   21.720    4.5708
   21.750    4.5814
   21.780    4.6551
   21.810    4.4128
   21.840    4.3075
   21.870    4.5392
   21.900    4.5603
   21.930    4.6340
   21.960    4.7077
   21.990    4.4550
   22.020    4.5708
   22.050    4.7077
   22.080    4.3707
   22.110    4.7393
   22.140    4.4444
   22.170    4.6235
   22.200    4.4128
   22.230    4.1285
   22.260    4.2549
   22.290    4.4339
   22.320    4.4550
   22.350    4.5814
   22.380    4.1285
   22.410    4.1074
   22.440    4.2443
   22.470    4.6972
   22.500    3.9810
   22.530    4.4234
   22.560    4.2022
   22.590    4.4550
   22.620    4.3497
   22.650    4.4760
   22.680    4.2443
   22.710    4.4234
   22.740    4.2654
   22.770    4.2022
   22.800    4.0864
   22.830    4.2865
   22.860    4.2654
   22.890    4.3181
   22.920    4.3391
   22.950    4.0758
   22.980    4.2338
   23.010    4.0864
   23.040    4.4128
   23.070    4.2970
   23.100    4.4971
   23.130    4.0021
   23.160    4.4023
   23.190    4.1496
   23.220    4.0021
   23.250    4.1706
   23.280    4.1706
   23.310    4.4339
   23.340    4.2865
   23.370    4.1706
   23.400    4.4128
   23.430    4.0442
   23.460    4.3181
   23.490    4.0653
   23.520    4.4655
   23.550    4.4866
   23.580    4.1180
   23.610    4.3602
   23.640    4.1074
   23.670    4.2443
   23.700    3.9284
   23.730    4.0548
   23.760    4.0653
   23.790    4.1390
   23.820    4.0232
   23.850    4.0864
   23.880    3.8652
   23.910    4.1390
   23.940    3.9284
   23.970    4.0126
   24.000    4.4339
   24.030    4.3497
   24.060    3.9494
   24.090    4.0969
   24.120    3.7599
   24.150    4.0442
   24.180    3.7704
   24.210    4.1285
   24.240    3.9705
   24.270    4.0337
   24.300    4.1811
   24.330    3.9073
   24.360    4.1390
   24.390    4.2549
   24.420    4.3181
   24.450    4.3286
   24.480    4.0864
   24.510    3.8863
   24.540    4.1180
   24.570    3.7493
   24.600    3.8652
   24.630    4.1180
   24.660    3.8547
   24.690    4.0864
   24.720    4.1390
   24.750    4.0337
   24.780    3.7809
   24.810    3.8652
   24.840    4.2233
   24.870    3.9389
   24.900    3.9810
   24.930    4.1074
   24.960    3.9810
   24.990    3.8757
   25.020    3.9073
   25.050    3.9705
   25.080    3.9073
   25.110    3.8231
   25.140    4.0126
   25.170    3.9389
   25.200    4.0548
   25.230    3.7072
   25.260    3.9284
   25.290    3.8863
   25.320    3.9810
   25.350    3.6440
   25.380    3.8757
   25.410    3.8231
   25.440    3.9179
   25.470    3.8231
   25.500    3.8652
   25.530    3.6019
   25.560    3.8125
   25.590    3.5914
   25.620    3.9073
   25.650    4.1180
   25.680    4.1601
   25.710    3.8231
   25.740    3.6862
   25.770    3.8336
   25.800    3.6230
   25.830    3.7072
   25.860    3.6440
   25.890    4.0126
   25.920    3.6651
   25.950    3.6230
   25.980    3.8652
   26.010    4.0232
   26.040    3.5703
   26.070    3.6756
   26.100    3.2859
   26.130    3.4018
   26.160    3.4650
   26.190    3.8863
   26.220    3.5282
   26.250    3.9705
   26.280    3.8863
   26.310    3.6862
   26.340    3.4966
   26.370    3.5598
   26.400    3.6335
   26.430    3.5808
   26.460    3.3175
   26.490    3.5914
   26.520    3.7599
   26.550    3.5914
   26.580    3.8547
   26.610    3.3491
   26.640    3.4229
   26.670    3.5808
   26.700    3.5492
   26.730    3.5176
   26.760    3.3281
   26.790    3.6335
   26.820    3.4123
   26.850    3.5071
   26.880    3.6756
   26.910    3.6756
   26.940    3.4018
   26.970    3.3702
   27.000    3.4966
   27.030    3.5071
   27.060    3.7599
   27.090    3.4229
   27.120    3.3913
   27.150    3.4966
   27.180    3.9916
   27.210    3.4650
   27.240    3.4439
   27.270    3.4439
   27.300    3.2438
   27.330    3.5914
   27.360    3.5176
   27.390    3.4229
   27.420    3.7388
   27.450    3.5808
   27.480    3.3597
   27.510    3.2227
   27.540    3.4229
   27.570    3.3597
   27.600    3.6546
   27.630    3.3281
   27.660    3.0542
   27.690    3.2543
   27.720    2.9910
   27.750    3.6124
   27.780    3.5387
   27.810    3.4966
   27.840    3.2438
   27.870    3.2859
   27.900    3.2333
   27.930    3.2859
   27.960    3.2438
   27.990    3.1701
   28.020    3.0437
   28.050    3.3491
   28.080    3.3070
   28.110    3.1490
   28.140    3.1490
   28.170    3.2122
   28.200    3.5808
   28.230    3.2859
   28.260    3.3070
   28.290    3.0753
   28.320    3.2649
   28.350    3.0437
   28.380    3.0753
   28.410    3.1490
   28.440    3.4650
   28.470    3.5914
   28.500    3.4334
   28.530    3.3491
   28.560    2.9068
   28.590    3.0437
   28.620    3.3913
   28.650    3.2754
   28.680    3.6124
   28.710    3.4334
   28.740    3.3491
   28.770    3.2543
   28.800    3.0858
   28.830    3.2649
   28.860    3.3597
   28.890    3.4860
   28.920    3.3070
   28.950    3.1806
   28.980    3.0858
   29.010    3.1490
   29.040    3.1912
   29.070    3.2227
   29.100    3.0753
   29.130    3.1912
   29.160    3.1385
   29.190    3.1596
   29.220    3.1385
   29.250    3.3491
   29.280    3.0964
   29.310    3.0964
   29.340    3.1069
   29.370    2.9805
   29.400    3.0753
   29.430    3.1385
   29.460    3.2543
   29.490    3.1385
   29.520    3.2754
   29.550    3.3386
   29.580    3.0542
   29.610    3.2017
   29.640    2.9805
   29.670    3.2227
   29.700    3.1596
   29.730    3.2227
   29.760    2.9489
   29.790    3.0858
   29.820    3.1806
   29.850    3.1385
   29.880    3.4123
   29.910    3.0016
   29.940    2.8752
   29.970    2.9910
   30.000    2.9700
   30.030    3.0437
   30.060    3.0437
   30.090    3.1280
   30.120    2.7593
   30.150    2.9805
   30.180    2.9489
   30.210    3.0542
   30.240    3.0964
   30.270    2.8647
   30.300    3.2543
   30.330    3.0121
   30.360    3.1069
   30.390    3.0648
   30.420    3.0858
   30.450    2.8541
   30.480    2.8857
   30.510    2.9068
   30.540    2.8015
   30.570    2.8331
   30.600    2.9489
   30.630    2.6962
   30.660    3.0121
   30.690    2.9173
   30.720    2.9384
   30.750    2.9595
   30.780    2.9068
   30.810    3.0226
   30.840    2.9489
   30.870    2.8331
   30.900    2.9700
   30.930    3.1806
   30.960    2.9700
   30.990    2.6435
   31.020    2.8225
   31.050    3.0016
   31.080    2.8647
   31.110    2.8647
   31.140    2.6224
   31.170    2.9700
   31.200    3.0648
   31.230    2.6962
   31.260    2.7593
   31.290    2.6540
   31.320    2.7172
   31.350    2.7488
   31.380    2.8541
   31.410    2.7804
   31.440    2.9068
   31.470    2.9279
   31.500    2.7804
   31.530    2.7488
   31.560    2.6435
   31.590    2.6330
   31.620    2.5908
   31.650    2.7172
   31.680    2.9068
   31.710    2.7383
   31.740    2.5592
   31.770    2.6962
   31.800    2.7909
   31.830    2.5171
   31.860    2.5066
   31.890    2.7067
   31.920    2.6751
   31.950    2.5803
   31.980    2.7172
   32.010    2.8331
   32.040    2.7067
   32.070    2.4539
   32.100    2.3486
   32.130    2.6119
   32.160    2.6646
   32.190    2.5592
   32.220    2.5592
   32.250    2.4645
   32.280    2.7488
   32.310    2.5382
   32.340    2.4645
   32.370    2.5171
   32.400    2.4329
   32.430    2.6962
   32.460    2.5382
   32.490    2.5698
   32.520    2.6330
   32.550    2.4961
   32.580    2.4855
   32.610    2.5066
   32.640    2.6224
   32.670    2.4961
   32.700    2.3697
   32.730    2.2538
   32.760    2.4855
   32.790    2.5487
   32.820    2.2538
   32.850    2.4329
   32.880    2.2433
   32.910    2.2538
   32.940    2.4855
   32.970    2.6014
   33.000    2.4539
   33.030    2.6435
   33.060    2.3170
   33.090    2.3802
   33.120    2.2749
   33.150    2.3907
   33.180    2.2328
   33.210    2.5171
   33.240    2.3381
   33.270    2.4645
   33.300    2.1801
   33.330    2.3486
   33.360    2.3170
   33.390    2.4645
   33.420    2.1801
   33.450    2.4750
   33.480    2.4855
   33.510    2.3591
   33.540    2.1590
   33.570    2.2643
   33.600    2.3065
   33.630    2.2959
   33.660    2.2854
   33.690    2.0221
   33.720    2.1906
   33.750    2.2433
   33.780    2.1169
   33.810    2.4013
   33.840    2.2538
   33.870    2.4118
   33.900    2.2749
   33.930    2.3381
   33.960    2.2959
   33.990    2.0537
   34.020    2.1906
   34.050    2.0642
   34.080    2.1801
   34.110    2.2328
   34.140    2.4645
   34.170    2.2749
   34.200    2.1696
   34.230    2.2643
   34.260    2.2959
   34.290    2.3170
   34.320    2.2749
   34.350    2.2959
   34.380    1.9379
   34.410    2.2854
   34.440    2.2012
   34.470    2.2749
   34.500    2.0853
   34.530    1.9273
   34.560    2.1801
   34.590    1.9695
   34.620    2.0537
   34.650    2.1801
   34.680    2.1380
   34.710    2.2222
   34.740    2.2328
   34.770    2.3381
   34.800    2.0537
   34.830    2.0432
   34.860    1.9484
   34.890    2.0221
   34.920    2.0116
   34.950    2.1169
   34.980    2.1801
   35.010    1.8747
   35.040    2.2012
   35.070    1.9168
   35.100    2.2012
   35.130    1.8957
   35.160    2.0432
   35.190    1.9168
   35.220    2.2959
   35.250    2.0221
   35.280    2.0116
   35.310    1.9695
   35.340    2.1169
   35.370    2.0011
   35.400    2.0326
   35.430    1.9484
   35.460    1.9379
   35.490    1.9484
   35.520    2.1590
   35.550    1.8220
   35.580    1.9273
   35.610    1.7799
   35.640    2.0326
   35.670    1.9379
   35.700    1.8115
   35.730    1.8325
   35.760    1.9379
   35.790    1.9063
   35.820    1.9273
   35.850    2.0748
   35.880    1.7062
   35.910    1.6851
   35.940    2.0537
   35.970    1.7272
   36.000    1.7588
   36.030    2.0432
   36.060    1.9695
   36.090    1.5903
   36.120    1.6430
   36.150    1.7378
   36.180    1.9063
   36.210    1.6430
   36.240    1.7062
   36.270    1.8747
   36.300    1.6430
   36.330    1.9168
   36.360    1.7588
   36.390    2.0011
   36.420    1.6746
   36.450    1.6535
   36.480    1.8325
   36.510    1.5798
   36.540    1.8009
   36.570    1.7272
   36.600    1.8325
   36.630    1.8115
   36.660    1.6956
   36.690    1.8852
   36.720    1.6956
   36.750    1.7483
   36.780    1.7272
   36.810    1.8325
   36.840    1.7167
   36.870    1.7483
   36.900    1.4323
   36.930    1.8009
   36.960    1.7483
   36.990    1.6324
   37.020    1.6114
   37.050    1.5798
   37.080    1.7378
   37.110    1.7588
   37.140    1.6324
   37.170    1.6746
   37.200    1.6956
   37.230    1.6956
   37.260    1.5587
   37.290    1.7483
   37.320    1.5587
   37.350    1.7167
   37.380    1.7799
   37.410    1.4955
   37.440    1.6640
   37.470    1.6851
   37.500    1.6851
   37.530    1.7062
   37.560    1.6430
   37.590    1.6746
   37.620    1.6008
   37.650    1.6430
   37.680    1.5482
   37.710    1.5798
   37.740    1.5482
   37.770    1.8536
   37.800    1.6008
   37.830    1.6746
   37.860    1.8641
   37.890    1.5061
   37.920    1.5903
   37.950    1.4850
   37.980    1.5903
   38.010    1.5061
   38.040    1.5061
   38.070    1.4534
   38.100    1.4955
   38.130    1.5587
   38.160    1.4955
   38.190    1.4218
   38.220    1.6640
   38.250    1.5061
   38.280    1.4534
   38.310    1.3586
   38.340    1.5587
   38.370    1.6956
   38.400    1.5903
   38.430    1.5377
   38.460    1.7799
   38.490    1.7799
   38.520    1.6008
   38.550    1.4639
   38.580    1.6956
   38.610    1.5482
   38.640    1.5166
   38.670    1.6114
   38.700    1.5482
   38.730    1.5061
   38.760    1.5482
   38.790    1.6640
   38.820    1.5692
   38.850    1.5377
   38.880    1.6114
   38.910    1.5692
   38.940    1.4850
   38.970    1.7062
   39.000    1.4850
   39.030    1.7799
   39.060    1.5271
   39.090    1.6114
   39.120    1.5166
   39.150    1.6219
   39.180    1.4218
   39.210    1.3902
   39.240    1.5377
   39.270    1.6114
   39.300    1.6430
   39.330    1.4218
   39.360    1.6430
   39.390    1.7062
   39.420    1.4850
   39.450    1.5692
   39.480    1.4850
   39.510    1.6114
   39.540    1.4955
   39.570    1.6956
   39.600    1.4955
   39.630    1.5271
   39.660    1.4745
   39.690    1.4218
   39.720    1.4850
   39.750    1.6324
   39.780    1.3797
   39.810    1.6008
   39.840    1.6430
   39.870    1.4113
   39.900    1.5166
   39.930    1.6114
   39.960    1.3586
   39.990    1.4745