File: data/PXRD/PXRD_KE-321C_Cu-Ka1_capillary-1mm_3s-deg_collimator-back.xyd
    1.500   27.1371
    1.515   27.5759
    1.530   26.6807
    1.545   26.8738
    1.560   25.6977
    1.575   24.2408
    1.590   24.6972
    1.605   24.8201
    1.620   24.2233
    1.635   23.9073
    1.650   23.5738
    1.665   22.4680
    1.680   22.2222
    1.695   22.2924
    1.710   21.8536
    1.725   21.2919
    1.740   21.7483
    1.755   20.7478
    1.770   20.1334
    1.785   20.1685
    1.800   19.3786
    1.815   18.7467
    1.830   18.1324
    1.845   17.6760
    1.860   17.9744
    1.875   17.8515
    1.890   16.7632
    1.905   16.6403
    1.920   16.5877
    1.935   16.7632
    1.950   16.8861
    1.965   15.7451
    1.980   16.2542
    1.995   16.3068
    2.010   15.6925
    2.025   15.7100
    2.040   15.9207
    2.055   15.4116
    2.070   14.7973
    2.085   14.7973
    2.100   13.8845
    2.115   14.1654
    2.130   14.4111
    2.145   13.8845
    2.160   13.7090
    2.175   13.2877
    2.190   12.9366
    2.205   13.4632
    2.220   13.1473
    2.235   13.0771
    2.250   13.1473
    2.265   12.7435
    2.280   12.7435
    2.295   12.4276
    2.310   12.2696
    2.325   11.8483
    2.340   11.5324
    2.355   11.9537
    2.370   11.9010
    2.385   11.3393
    2.400   11.4797
    2.415   11.6553
    2.430   11.0760
    2.445   11.3920
    2.460   11.2164
    2.475   10.5319
    2.490   10.0930
    2.505   11.5148
    2.520   11.3393
    2.535   11.0058
    2.550   11.7430
    2.565   10.8303
    2.580   10.7074
    2.595   10.6196
    2.610   11.0936
    2.625   10.9180
    2.640   11.0409
    2.655   10.7074
    2.670   10.6898
    2.685   11.6202
    2.700   10.9356
    2.715   10.7249
    2.730   10.2159
    2.745   10.6021
    2.760   10.6723
    2.775   10.7600
    2.790   10.0930
    2.805   10.6898
    2.820   11.1111
    2.835   10.9707
    2.850   11.1111
    2.865   10.5494
    2.880   10.4792
    2.895   10.9180
    2.910   10.8829
    2.925   11.0233
    2.940   11.7430
    2.955   11.4095
    2.970   11.1287
    2.985   11.5499
    3.000   11.1813
    3.015   11.0760
    3.030   11.5148
    3.045   11.5675
    3.060   11.5850
    3.075   11.8483
    3.090   12.3925
    3.105   12.0239
    3.120   11.8659
    3.135   11.9361
    3.150   11.7079
    3.165   12.4627
    3.180   12.5680
    3.195   12.3749
    3.210   12.8313
    3.225   12.9366
    3.240   13.5861
    3.255   13.3579
    3.270   13.5685
    3.285   13.2526
    3.300   13.9723
    3.315   13.1999
    3.330   14.2180
    3.345   15.0606
    3.360   15.6398
    3.375   15.9031
    3.390   16.4121
    3.405   16.4473
    3.420   17.3600
    3.435   17.5531
    3.450   17.7462
    3.465   17.7111
    3.480   18.9047
    3.495   18.7643
    3.510   19.5542
    3.525   20.4669
    3.540   21.8887
    3.555   21.8009
    3.570   22.7839
    3.585   23.3456
    3.600   24.8201
    3.615   25.7504
    3.630   26.6280
    3.645   28.1903
    3.660   29.1381
    3.675   30.9988
    3.690   32.6488
    3.705   34.1408
    3.720   37.6514
    3.735   40.2493
    3.750   43.1631
    3.765   46.6035
    3.780   49.9210
    3.795   56.6965
    3.810   63.2087
    3.825   72.9331
    3.840   76.9528
    3.855   74.0390
    3.870   63.7177
    3.885   51.4832
    3.900   36.4753
    3.915   25.5398
    3.930   18.3956
    3.945   13.2701
    3.960   11.0760
    3.975   10.2861
    3.990    9.1101
    4.005    8.6361
    4.020    8.1622
    4.035    7.3196
    4.050    7.1266
    4.065    7.2319
    4.080    7.3196
    4.095    6.8106
    4.110    6.8808
    4.125    6.8282
    4.140    6.5824
    4.155    6.1085
    4.170    6.1436
    4.185    6.5298
    4.200    6.3718
    4.215    6.3191
    4.230    5.8978
    4.245    6.1436
    4.260    5.9681
    4.275    6.1962
    4.290    6.3718
    4.305    6.6526
    4.320    6.2138
    4.335    6.6877
    4.350    6.1085
    4.365    6.0032
    4.380    6.0032
    4.395    5.7048
    4.410    5.8101
    4.425    5.9154
    4.440    5.6697
    4.455    5.8101
    4.470    6.0909
    4.485    5.7223
    4.500    6.0032
    4.515    5.9154
    4.530    5.7399
    4.545    5.8452
    4.560    5.7574
    4.575    6.0383
    4.590    5.8978
    4.605    6.0207
    4.620    5.8276
    4.635    5.6345
    4.650    6.0383
    4.665    5.7223
    4.680    5.6521
    4.695    5.7574
    4.710    6.0032
    4.725    5.7399
    4.740    6.0558
    4.755    6.3893
    4.770    6.5298
    4.785    6.3191
    4.800    6.5473
    4.815    6.9159
    4.830    6.7579
    4.845    6.7228
    4.860    6.7755
    4.875    6.8457
    4.890    6.6877
    4.905    6.3016
    4.920    6.4946
    4.935    6.4244
    4.950    6.9335
    4.965    7.4601
    4.980    6.7755
    4.995    7.0563
    5.010    7.3021
    5.025    7.1617
    5.040    7.0563
    5.055    7.4250
    5.070    7.3899
    5.085    7.6532
    5.100    8.2149
    5.115    8.3728
    5.130    8.0569
    5.145    7.7760
    5.160    7.8989
    5.175    8.5308
    5.190    8.6712
    5.205    8.6010
    5.220    9.4611
    5.235   10.2686
    5.250   10.4792
    5.265   10.5670
    5.280   11.3569
    5.295   11.8659
    5.310   13.0771
    5.325   12.8313
    5.340   13.1648
    5.355   14.7095
    5.370   15.2887
    5.385   16.5175
    5.400   17.7813
    5.415   20.2036
    5.430   22.6786
    5.445   23.6440
    5.460   25.6275
    5.475   25.3467
    5.490   22.3451
    5.505   18.0270
    5.520   14.9026
    5.535   11.4622
    5.550    9.1803
    5.565    7.7585
    5.580    6.3542
    5.595    5.9154
    5.610    5.2835
    5.625    5.4590
    5.640    5.5819
    5.655    5.2133
    5.670    5.4766
    5.685    5.1080
    5.700    5.4239
    5.715    5.4239
    5.730    5.2133
    5.745    5.2659
    5.760    5.0026
    5.775    5.1431
    5.790    5.2308
    5.805    5.1957
    5.820    5.1431
    5.835    4.8622
    5.850    5.4064
    5.865    5.5994
    5.880    4.7393
    5.895    5.1080
    5.910    4.9851
    5.925    5.0728
    5.940    5.2659
    5.955    4.7920
    5.970    5.0202
    5.985    5.1606
    6.000    5.3010
    6.015    5.2308
    6.030    4.7744
    6.045    5.2133
    6.060    5.3888
    6.075    5.2659
    6.090    5.1606
    6.105    4.7569
    6.120    5.1431
    6.135    5.4415
    6.150    4.6165
    6.165    4.9324
    6.180    5.6521
    6.195    5.5292
    6.210    5.2835
    6.225    5.4064
    6.240    5.7574
    6.255    5.1080
    6.270    5.4590
    6.285    5.6345
    6.300    5.3186
    6.315    5.1080
    6.330    5.7048
    6.345    5.1957
    6.360    5.4941
    6.375    5.9329
    6.390    5.9505
    6.405    5.7750
    6.420    6.0909
    6.435    6.4069
    6.450    6.3718
    6.465    6.1611
    6.480    6.3191
    6.495    6.1085
    6.510    5.9681
    6.525    6.4595
    6.540    7.4250
    6.555    7.4776
    6.570    7.5478
    6.585    7.8638
    6.600    7.9691
    6.615    8.8994
    6.630    9.4962
    6.645    9.8473
    6.660   10.7776
    6.675   11.7781
    6.690   12.6207
    6.705   12.6558
    6.720   12.1116
    6.735   11.0585
    6.750   10.4441
    6.765    9.0925
    6.780    7.3723
    6.795    6.3542
    6.810    5.6521
    6.825    5.3010
    6.840    5.1606
    6.855    4.9851
    6.870    4.7393
    6.885    4.8447
    6.900    4.8973
    6.915    4.6165
    6.930    5.0904
    6.945    4.5638
    6.960    4.7393
    6.975    4.6691
    6.990    4.7569
    7.005    4.4760
    7.020    5.2308
    7.035    5.1080
    7.050    4.8622
    7.065    4.4234
    7.080    5.0202
    7.095    4.9149
    7.110    4.6516
    7.125    4.7569
    7.140    4.4234
    7.155    4.8095
    7.170    4.5814
    7.185    5.0904
    7.200    5.0377
    7.215    4.8271
    7.230    4.7744
    7.245    4.7569
    7.260    4.7744
    7.275    4.7393
    7.290    4.6867
    7.305    4.7744
    7.320    4.9851
    7.335    4.7920
    7.350    5.2835
    7.365    5.0202
    7.380    5.0202
    7.395    5.0377
    7.410    4.8447
    7.425    4.5287
    7.440    5.0026
    7.455    4.8271
    7.470    4.6516
    7.485    5.2133
    7.500    5.5117
    7.515    5.1080
    7.530    5.4239
    7.545    5.4590
    7.560    5.3361
    7.575    5.3186
    7.590    5.3888
    7.605    6.0734
    7.620    5.8452
    7.635    5.8803
    7.650    6.3542
    7.665    5.9505
    7.680    6.1787
    7.695    6.3191
    7.710    6.7404
    7.725    7.7585
    7.740    7.4952
    7.755    7.4952
    7.770    7.7234
    7.785    7.2143
    7.800    6.9159
    7.815    6.7755
    7.830    6.2489
    7.845    5.7399
    7.860    5.1080
    7.875    5.1957
    7.890    4.9324
    7.905    5.1255
    7.920    5.0904
    7.935    4.7218
    7.950    4.5463
    7.965    4.6867
    7.980    4.9500
    7.995    4.3883
    8.010    4.4585
    8.025    4.8095
    8.040    5.0377
    8.055    4.5638
    8.070    4.4760
    8.085    4.7218
    8.100    4.5814
    8.115    4.6691
    8.130    4.3707
    8.145    4.8271
    8.160    4.9851
    8.175    4.2303
    8.190    4.2478
    8.205    4.8973
    8.220    4.7218
    8.235    4.5814
    8.250    4.6867
    8.265    4.8447
    8.280    4.5989
    8.295    4.5814
    8.310    4.2830
    8.325    4.4760
    8.340    4.9851
    8.355    4.7042
    8.370    4.4936
    8.385    4.5463
    8.400    5.0202
    8.415    4.5287
    8.430    4.4234
    8.445    4.8095
    8.460    4.9324
    8.475    5.1606
    8.490    4.9675
    8.505    4.6691
    8.520    5.3186
    8.535    4.7920
    8.550    4.4585
    8.565    4.3532
    8.580    5.1606
    8.595    5.0026
    8.610    5.2484
    8.625    5.1431
    8.640    5.4064
    8.655    4.8271
    8.670    4.7042
    8.685    5.2133
    8.700    5.2659
    8.715    5.0904
    8.730    4.7218
    8.745    5.3537
    8.760    4.9675
    8.775    4.6340
    8.790    4.1776
    8.805    4.9851
    8.820    5.1957
    8.835    5.1957
    8.850    4.7218
    8.865    4.6340
    8.880    4.5463
    8.895    4.7744
    8.910    4.5111
    8.925    4.6165
    8.940    4.3181
    8.955    4.8271
    8.970    4.9324
    8.985    4.6691
    9.000    5.0553
    9.015    5.0728
    9.030    4.8622
    9.045    5.3010
    9.060    5.2308
    9.075    4.9851
    9.090    4.7920
    9.105    4.9149
    9.120    4.7569
    9.135    5.1957
    9.150    5.1606
    9.165    4.9500
    9.180    4.5463
    9.195    4.8095
    9.210    5.1255
    9.225    5.0728
    9.240    5.2659
    9.255    5.2835
    9.270    5.0728
    9.285    5.7048
    9.300    5.5468
    9.315    5.5468
    9.330    6.1611
    9.345    6.2313
    9.360    6.3718
    9.375    6.2665
    9.390    6.9335
    9.405    7.3723
    9.420    7.0037
    9.435    7.3547
    9.450    8.3728
    9.465    8.9345
    9.480    9.8473
    9.495    9.9351
    9.510   10.3212
    9.525   10.9180
    9.540   10.8829
    9.555   10.0930
    9.570    9.2154
    9.585    7.6180
    9.600    6.8282
    9.615    6.0032
    9.630    5.7399
    9.645    5.7048
    9.660    5.7399
    9.675    5.2308
    9.690    5.0728
    9.705    5.0026
    9.720    4.9324
    9.735    5.0553
    9.750    5.3361
    9.765    5.1606
    9.780    4.5638
    9.795    4.8095
    9.810    4.9500
    9.825    4.1250
    9.840    4.5989
    9.855    5.1782
    9.870    5.1606
    9.885    5.1782
    9.900    5.1957
    9.915    4.8095
    9.930    4.7042
    9.945    4.9851
    9.960    4.9500
    9.975    5.3712
    9.990    5.3010
   10.005    5.0728
   10.020    5.0904
   10.035    4.8271
   10.050    5.0026
   10.065    5.0202
   10.080    4.7920
   10.095    4.9675
   10.110    5.2133
   10.125    5.3888
   10.140    5.7399
   10.155    5.3361
   10.170    5.4590
   10.185    5.2835
   10.200    5.7048
   10.215    6.0207
   10.230    6.3016
   10.245    6.4771
   10.260    6.7228
   10.275    7.3372
   10.290    7.0212
   10.305    6.9686
   10.320    6.8457
   10.335    5.9505
   10.350    5.8101
   10.365    6.1436
   10.380    5.4590
   10.395    5.3888
   10.410    4.9324
   10.425    4.8095
   10.440    4.8447
   10.455    4.4058
   10.470    4.9851
   10.485    4.9149
   10.500    4.7744
   10.515    4.9675
   10.530    4.7744
   10.545    4.6165
   10.560    4.8271
   10.575    4.8798
   10.590    4.7744
   10.605    4.7218
   10.620    4.7569
   10.635    5.2484
   10.650    4.7393
   10.665    4.8447
   10.680    5.0202
   10.695    4.7042
   10.710    5.3010
   10.725    4.5111
   10.740    4.9675
   10.755    4.7042
   10.770    5.0202
   10.785    4.9851
   10.800    4.9675
   10.815    5.0728
   10.830    5.1080
   10.845    4.9675
   10.860    4.9675
   10.875    5.0026
   10.890    5.4941
   10.905    5.7399
   10.920    6.0734
   10.935    6.0032
   10.950    5.9154
   10.965    6.0032
   10.980    6.1962
   10.995    6.3016
   11.010    6.4771
   11.025    6.3542
   11.040    6.4946
   11.055    6.0383
   11.070    5.4239
   11.085    4.9675
   11.100    5.1431
   11.115    4.8447
   11.130    4.7744
   11.145    4.6691
   11.160    4.7218
   11.175    4.3883
   11.190    4.7744
   11.205    4.8622
   11.220    4.7569
   11.235    5.0553
   11.250    4.5287
   11.265    4.6516
   11.280    4.8095
   11.295    4.5989
   11.310    4.4585
   11.325    4.3532
   11.340    4.5989
   11.355    4.7920
   11.370    4.4409
   11.385    4.8095
   11.400    4.8095
   11.415    5.0202
   11.430    4.7218
   11.445    4.8973
   11.460    4.7569
   11.475    5.0553
   11.490    5.3361
   11.505    5.1255
   11.520    4.7393
   11.535    5.4766
   11.550    5.3361
   11.565    5.2308
   11.580    5.4064
   11.595    6.0909
   11.610    6.3016
   11.625    6.6000
   11.640    7.2670
   11.655    7.1090
   11.670    6.6702
   11.685    7.0212
   11.700    6.5649
   11.715    6.8808
   11.730    6.7755
   11.745    6.3367
   11.760    5.6345
   11.775    5.1431
   11.790    5.1255
   11.805    4.8973
   11.820    4.7218
   11.835    4.6691
   11.850    4.5111
   11.865    4.3356
   11.880    4.3005
   11.895    4.6165
   11.910    4.3707
   11.925    4.3005
   11.940    4.2127
   11.955    4.2303
   11.970    4.4760
   11.985    4.3181
   12.000    4.5989
   12.015    4.4936
   12.030    4.3005
   12.045    4.3181
   12.060    5.0026
   12.075    4.5814
   12.090    4.1601
   12.105    4.4234
   12.120    4.4058
   12.135    4.3181
   12.150    4.0899
   12.165    4.2127
   12.180    4.1074
   12.195    4.3005
   12.210    4.3532
   12.225    4.4234
   12.240    4.5463
   12.255    4.5463
   12.270    4.4409
   12.285    4.8095
   12.300    4.4936
   12.315    4.6165
   12.330    4.2830
   12.345    4.2654
   12.360    4.0723
   12.375    3.8266
   12.390    3.7564
   12.405    4.4936
   12.420    4.1952
   12.435    4.1952
   12.450    4.6165
   12.465    3.9846
   12.480    3.8792
   12.495    4.0021
   12.510    4.1776
   12.525    4.4058
   12.540    4.1601
   12.555    4.4936
   12.570    4.3532
   12.585    4.3532
   12.600    4.0372
   12.615    4.4760
   12.630    4.3356
   12.645    4.8095
   12.660    4.4234
   12.675    4.4058
   12.690    4.4760
   12.705    4.3005
   12.720    4.7569
   12.735    4.8271
   12.750    4.8973
   12.765    4.3883
   12.780    4.8798
   12.795    4.8447
   12.810    4.5287
   12.825    4.9149
   12.840    4.9851
   12.855    5.0728
   12.870    5.3186
   12.885    5.1782
   12.900    5.8452
   12.915    5.6697
   12.930    6.2665
   12.945    6.3191
   12.960    6.0383
   12.975    5.6521
   12.990    4.9675
   13.005    4.8973
   13.020    4.7393
   13.035    4.8095
   13.050    4.6516
   13.065    4.3707
   13.080    4.6165
   13.095    4.6165
   13.110    4.4058
   13.125    4.3532
   13.140    4.5463
   13.155    4.0723
   13.170    4.2127
   13.185    4.0723
   13.200    4.5814
   13.215    4.2478
   13.230    4.0021
   13.245    4.3181
   13.260    4.0899
   13.275    3.8968
   13.290    3.7564
   13.305    4.3005
   13.320    4.0021
   13.335    4.1250
   13.350    4.2127
   13.365    3.9494
   13.380    4.1425
   13.395    4.0899
   13.410    4.6340
   13.425    4.4760
   13.440    4.2654
   13.455    4.3181
   13.470    4.7393
   13.485    4.5111
   13.500    4.3707
   13.515    4.2830
   13.530    4.6691
   13.545    4.5814
   13.560    4.2127
   13.575    4.5111
   13.590    4.3707
   13.605    4.1776
   13.620    3.9143
   13.635    4.0548
   13.650    4.1425
   13.665    4.1074
   13.680    4.2303
   13.695    4.3356
   13.710    4.1250
   13.725    4.1601
   13.740    4.0723
   13.755    4.3532
   13.770    4.0548
   13.785    4.3005
   13.800    4.1074
   13.815    4.1250
   13.830    4.7744
   13.845    4.3181
   13.860    4.0372
   13.875    4.1776
   13.890    4.4058
   13.905    4.3883
   13.920    4.6165
   13.935    4.4409
   13.950    4.4409
   13.965    4.3532
   13.980    4.8622
   13.995    5.0377
   14.010    4.5463
   14.025    4.6867
   14.040    4.8447
   14.055    5.1606
   14.070    5.4064
   14.085    5.1606
   14.100    4.8798
   14.115    4.6340
   14.130    4.7569
   14.145    4.5463
   14.160    4.8622
   14.175    4.4585
   14.190    4.5287
   14.205    4.0899
   14.220    4.1250
   14.235    4.1776
   14.250    4.2654
   14.265    4.4409
   14.280    4.1601
   14.295    3.7915
   14.310    3.7564
   14.325    3.8968
   14.340    3.8968
   14.355    4.2303
   14.370    4.2654
   14.385    4.0372
   14.400    4.1074
   14.415    3.8266
   14.430    3.7213
   14.445    4.2478
   14.460    3.8792
   14.475    3.7564
   14.490    4.2478
   14.505    4.1776
   14.520    4.0899
   14.535    4.2654
   14.550    4.1250
   14.565    4.2478
   14.580    4.2127
   14.595    4.2478
   14.610    4.3707
   14.625    3.7915
   14.640    4.2478
   14.655    4.1601
   14.670    4.1074
   14.685    4.1425
   14.700    3.9494
   14.715    4.0899
   14.730    3.9846
   14.745    3.9319
   14.760    4.3356
   14.775    4.3356
   14.790    3.9670
   14.805    4.6340
   14.820    4.0899
   14.835    4.2654
   14.850    4.1952
   14.865    4.3356
   14.880    4.2478
   14.895    3.7564
   14.910    4.2127
   14.925    4.0723
   14.940    4.3883
   14.955    4.7920
   14.970    4.4409
   14.985    3.6862
   15.000    3.9494
   15.015    4.1425
   15.030    4.0723
   15.045    4.4234
   15.060    4.2654
   15.075    4.0548
   15.090    4.5463
   15.105    4.4936
   15.120    4.4760
   15.135    4.2127
   15.150    4.8271
   15.165    4.5814
   15.180    4.2478
   15.195    4.1425
   15.210    4.1776
   15.225    3.8090
   15.240    3.8617
   15.255    4.2127
   15.270    4.2830
   15.285    4.1074
   15.300    4.1074
   15.315    3.9670
   15.330    4.2303
   15.345    4.2478
   15.360    3.9670
   15.375    3.8090
   15.390    3.9494
   15.405    4.2127
   15.420    3.9670
   15.435    4.2127
   15.450    3.8617
   15.465    4.0021
   15.480    4.2303
   15.495    4.1074
   15.510    4.2478
   15.525    4.3356
   15.540    4.0021
   15.555    3.9670
   15.570    4.3532
   15.585    4.5814
   15.600    3.8266
   15.615    4.0548
   15.630    4.0548
   15.645    3.9319
   15.660    4.0548
   15.675    4.0723
   15.690    4.1074
   15.705    3.8441
   15.720    3.9143
   15.735    3.8968
   15.750    3.9494
   15.765    4.2303
   15.780    4.1074
   15.795    4.1776
   15.810    4.2127
   15.825    3.8792
   15.840    3.8968
   15.855    3.8090
   15.870    4.0548
   15.885    4.4585
   15.900    4.2654
   15.915    4.0899
   15.930    4.1425
   15.945    4.2127
   15.960    4.1074
   15.975    4.3707
   15.990    4.4936
   16.005    4.1425
   16.020    4.3707
   16.035    4.3181
   16.050    3.7213
   16.065    3.9143
   16.080    4.2127
   16.095    4.1601
   16.110    4.2127
   16.125    4.2127
   16.140    3.8617
   16.155    3.8792
   16.170    4.1250
   16.185    4.1776
   16.200    4.3883
   16.215    4.0899
   16.230    4.3532
   16.245    4.1601
   16.260    4.0372
   16.275    4.3356
   16.290    4.2303
   16.305    3.9143
   16.320    4.0021
   16.335    4.1074
   16.350    4.2654
   16.365    4.5111
   16.380    4.0723
   16.395    4.1425
   16.410    4.0372
   16.425    4.1074
   16.440    4.0548
   16.455    4.1250
   16.470    4.0899
   16.485    4.1074
   16.500    4.2303
   16.515    4.0197
   16.530    4.3356
   16.545    4.4760
   16.560    4.4234
   16.575    4.0372
   16.590    4.3532
   16.605    4.4234
   16.620    4.3356
   16.635    3.7213
   16.650    4.0899
   16.665    4.1601
   16.680    4.0899
   16.695    4.3532
   16.710    4.0548
   16.725    3.9670
   16.740    4.1776
   16.755    4.4058
   16.770    4.0899
   16.785    4.0899
   16.800    4.1952
   16.815    4.2127
   16.830    3.8792
   16.845    4.2830
   16.860    4.4760
   16.875    4.1601
   16.890    3.9670
   16.905    4.6165
   16.920    4.1776
   16.935    4.5989
   16.950    4.7042
   16.965    4.4760
   16.980    4.6691
   16.995    5.5117
   17.010    5.0202
   17.025    5.1080
   17.040    5.2133
   17.055    4.9851
   17.070    5.2835
   17.085    4.8447
   17.100    4.7920
   17.115    4.6867
   17.130    4.0899
   17.145    3.7915
   17.160    3.8090
   17.175    4.0548
   17.190    4.2830
   17.205    4.0723
   17.220    4.2303
   17.235    4.0021
   17.250    4.1074
   17.265    4.1250
   17.280    3.8090
   17.295    3.9846
   17.310    3.9846
   17.325    4.3356
   17.340    4.4058
   17.355    4.1776
   17.370    4.3005
   17.385    4.0372
   17.400    4.2478
   17.415    4.7218
   17.430    4.8447
   17.445    4.4409
   17.460    4.2654
   17.475    4.4409
   17.490    4.4936
   17.505    4.3356
   17.520    4.2303
   17.535    4.3005
   17.550    4.2127
   17.565    4.5638
   17.580    3.9494
   17.595    4.3707
   17.610    4.4058
   17.625    4.2654
   17.640    4.3356
   17.655    4.3005
   17.670    4.3356
   17.685    4.0899
   17.700    4.0723
   17.715    3.7564
   17.730    3.7739
   17.745    4.2478
   17.760    4.0372
   17.775    4.3181
   17.790    4.2303
   17.805    4.0197
   17.820    4.2303
   17.835    3.7388
   17.850    4.0021
   17.865    3.6510
   17.880    4.0723
   17.895    4.1425
   17.910    4.6165
   17.925    4.4585
   17.940    4.4936
   17.955    4.1601
   17.970    4.2127
   17.985    4.3707
   18.000    4.2830
   18.015    4.3532
   18.030    4.1776
   18.045    3.9143
   18.060    3.8968
   18.075    3.9670
   18.090    3.9143
   18.105    4.0899
   18.120    4.0548
   18.135    3.7564
   18.150    4.3356
   18.165    4.3883
   18.180    4.0723
   18.195    4.4760
   18.210    4.0723
   18.225    3.6686
   18.240    4.1425
   18.255    4.1250
   18.270    4.2830
   18.285    4.3356
   18.300    4.0899
   18.315    3.8441
   18.330    4.1425
   18.345    4.3005
   18.360    4.3532
   18.375    4.1601
   18.390    4.1776
   18.405    3.7739
   18.420    4.2654
   18.435    4.1250
   18.450    4.3181
   18.465    4.3181
   18.480    4.2303
   18.495    4.2830
   18.510    4.3005
   18.525    4.0372
   18.540    4.1601
   18.555    4.2303
   18.570    3.8792
   18.585    3.8090
   18.600    3.9846
   18.615    3.6862
   18.630    4.0197
   18.645    3.7915
   18.660    4.3005
   18.675    4.0372
   18.690    4.0548
   18.705    3.7388
   18.720    3.9494
   18.735    4.4409
   18.750    3.9319
   18.765    4.3181
   18.780    4.1952
   18.795    3.7037
   18.810    3.9494
   18.825    4.1250
   18.840    3.8090
   18.855    3.9670
   18.870    4.7042
   18.885    4.3356
   18.900    4.4585
   18.915    4.1601
   18.930    4.1776
   18.945    4.5111
   18.960    3.7915
   18.975    4.1074
   18.990    4.1952
   19.005    4.1250
   19.020    4.1250
   19.035    4.0372
   19.050    3.8968
   19.065    4.2654
   19.080    3.9494
   19.095    4.0723
   19.110    3.7564
   19.125    4.3181
   19.140    4.0372
   19.155    3.8266
   19.170    3.9846
   19.185    4.2830
   19.200    4.2830
   19.215    3.9319
   19.230    4.4409
   19.245    4.1952
   19.260    3.8441
   19.275    3.8968
   19.290    3.9670
   19.305    4.1952
   19.320    4.0723
   19.335    3.9143
   19.350    3.8968
   19.365    4.3883
   19.380    4.2478
   19.395    4.0548
   19.410    4.1250
   19.425    4.0899
   19.440    4.0021
   19.455    4.1074
   19.470    4.4234
   19.485    3.7388
   19.500    3.9319
   19.515    4.3005
   19.530    3.9319
   19.545    4.2654
   19.560    4.1074
   19.575    4.3181
   19.590    4.1952
   19.605    4.6165
   19.620    4.2830
   19.635    4.3356
   19.650    4.0197
   19.665    4.2830
   19.680    4.3532
   19.695    4.6691
   19.710    4.0197
   19.725    3.9846
   19.740    4.3707
   19.755    4.4585
   19.770    4.1952
   19.785    4.4234
   19.800    4.1425
   19.815    3.8968
   19.830    4.4058
   19.845    4.1074
   19.860    4.2654
   19.875    4.0197
   19.890    4.1250
   19.905    4.5814
   19.920    4.0899
   19.935    4.2830
   19.950    4.3356
   19.965    4.4585
   19.980    4.1425
   19.995    4.1952
   20.010    4.0021
   20.025    4.1952
   20.040    4.4058
   20.055    4.1952
   20.070    4.1601
   20.085    4.0548
   20.100    4.3356
   20.115    4.1250
   20.130    4.0899
   20.145    4.1250
   20.160    4.2127
   20.175    3.7564
   20.190    3.3526
   20.205    4.3356
   20.220    4.6340
   20.235    4.3356
   20.250    4.5638
   20.265    4.4760
   20.280    4.3532
   20.295    4.5989
   20.310    4.7744
   20.325    4.8973
   20.340    4.9500
   20.355    4.9675
   20.370    4.7920
   20.385    5.0377
   20.400    4.7218
   20.415    4.3356
   20.430    4.5814
   20.445    4.9851
   20.460    4.2478
   20.475    4.3005
   20.490    4.5638
   20.505    4.1074
   20.520    4.2478
   20.535    4.2654
   20.550    3.8441
   20.565    4.0372
   20.580    3.8792
   20.595    4.2654
   20.610    4.5287
   20.625    4.0197
   20.640    4.1250
   20.655    4.2478
   20.670    4.0548
   20.685    4.4760
   20.700    4.0548
   20.715    3.5457
   20.730    4.0372
   20.745    4.0197
   20.760    4.1776
   20.775    4.0548
   20.790    3.9846
   20.805    4.0723
   20.820    3.9846
   20.835    4.4585