File: data/PXRD/PXRD_KE-048-2_Cu-Ka1_capillary-1mm_5s-deg.xyd
    1.500   37.1353
    1.515   37.6514
    1.530   36.6193
    1.545   35.3870
    1.560   35.2396
    1.575   35.1343
    1.590   35.1132
    1.605   34.7446
    1.620   34.3760
    1.635   33.2385
    1.650   33.3755
    1.665   33.3333
    1.680   33.3860
    1.695   32.9647
    1.710   33.0174
    1.725   32.5013
    1.740   32.7225
    1.755   31.1638
    1.770   31.7009
    1.785   32.0379
    1.800   31.1954
    1.815   30.5424
    1.830   30.6898
    1.845   30.2264
    1.860   30.4476
    1.875   29.7841
    1.890   30.0369
    1.905   29.0995
    1.920   29.4997
    1.935   29.5419
    1.950   29.2364
    1.965   28.0990
    1.980   28.8468
    1.995   28.5097
    2.010   29.2786
    2.025   28.9837
    2.040   28.6888
    2.055   29.1943
    2.070   28.4360
    2.085   28.5203
    2.100   28.4992
    2.115   28.9837
    2.130   28.1201
    2.145   27.8568
    2.160   27.9832
    2.175   27.6672
    2.190   28.8468
    2.205   28.2886
    2.220   28.6888
    2.235   28.9837
    2.250   27.8462
    2.265   28.0885
    2.280   29.0785
    2.295   28.9837
    2.310   29.4997
    2.325   29.3207
    2.340   28.9310
    2.355   28.9942
    2.370   29.2786
    2.385   29.8684
    2.400   29.4260
    2.415   29.7420
    2.430   30.6582
    2.445   29.7104
    2.460   30.4792
    2.475   30.5951
    2.490   32.3749
    2.505   31.6377
    2.520   31.1954
    2.535   32.2696
    2.550   32.9963
    2.565   33.3649
    2.580   33.3123
    2.595   32.9226
    2.610   33.2807
    2.625   34.9868
    2.640   35.2923
    2.655   35.6609
    2.670   36.7035
    2.685   36.5561
    2.700   37.5250
    2.715   38.3886
    2.730   38.3992
    2.745   39.7788
    2.760   39.8210
    2.775   41.9589
    2.790   42.7488
    2.805   42.3802
    2.820   44.4971
    2.835   43.7283
    2.850   45.5187
    2.865   46.2559
    2.880   48.5413
    2.895   48.7625
    2.910   49.9842
    2.925   50.9215
    2.940   52.1854
    2.955   52.6909
    2.970   54.5866
    2.985   56.7878
    3.000   57.6198
    3.015   59.5998
    3.030   60.6003
    3.045   63.2228
    3.060   65.5503
    3.075   66.9932
    3.090   68.0147
    3.105   71.3744
    3.120   73.2807
    3.135   77.0195
    3.150   80.7372
    3.165   81.8009
    3.180   84.5919
    3.195   88.6783
    3.210   91.3849
    3.225   95.1238
    3.240   99.6314
    3.255  103.0437
    3.270  108.1201
    3.285  113.1964
    3.300  118.5571
    3.315  123.1596
    3.330  132.1011
    3.345  138.4308
    3.360  149.5419
    3.375  158.9363
    3.390  169.2470
    3.405  183.4334
    3.420  197.3249
    3.435  211.6167
    3.450  230.2159
    3.465  240.8636
    3.480  243.4123
    3.495  235.7346
    3.510  219.0100
    3.525  194.2812
    3.540  160.7794
    3.555  133.5756
    3.570  111.9642
    3.585   96.2085
    3.600   86.1085
    3.615   81.1690
    3.630   80.5582
    3.645   80.6740
    3.660   80.4002
    3.675   82.0432
    3.690   84.5076
    3.705   86.2454
    3.720   89.0574
    3.735   92.8173
    3.750   98.3254
    3.765  102.1906
    3.780  107.6040
    3.795  113.8915
    3.810  122.3907
    3.825  129.4260
    3.840  135.8926
    3.855  145.5082
    3.870  154.8289
    3.885  159.4945
    3.900  164.4550
    3.915  165.6346
    3.930  162.8120
    3.945  154.2391
    3.960  139.9368
    3.975  124.0021
    3.990  109.6788
    4.005   93.4492
    4.020   78.9152
    4.035   64.3497
    4.050   54.9131
    4.065   46.2559
    4.080   40.0843
    4.095   33.7020
    4.110   30.3739
    4.125   26.4034
    4.140   23.9284
    4.155   21.6324
    4.170   20.6635
    4.185   19.0100
    4.200   18.1043
    4.215   16.7141
    4.230   15.5661
    4.245   14.2180
    4.260   14.2812
    4.275   13.7441
    4.290   13.1332
    4.305   12.6909
    4.320   12.8067
    4.335   12.3539
    4.350   11.7957
    4.365   11.5219
    4.380   10.9005
    4.395   10.7214
    4.410   10.6898
    4.425   10.5951
    4.440   10.4897
    4.455   10.1422
    4.470   10.2264
    4.485   10.2264
    4.500   10.0053
    4.515    9.6051
    4.530    9.6893
    4.545    9.3312
    4.560    9.2575
    4.575    9.3839
    4.590    9.0363
    4.605    9.0574
    4.620    9.3207
    4.635    8.7520
    4.650    9.0258
    4.665    9.0785
    4.680    9.0679
    4.695    8.8889
    4.710    8.8046
    4.725    9.0153
    4.740    8.7414
    4.755    8.7414
    4.770    8.7520
    4.785    9.2470
    4.800    8.6888
    4.815    8.9310
    4.830    8.3096
    4.845    8.6151
    4.860    8.8678
    4.875    9.6156
    4.890    9.1838
    4.905    8.4781
    4.920    8.5940
    4.935    8.5624
    4.950    9.1417
    4.965    8.7520
    4.980    8.8784
    4.995    9.0574
    5.010    8.8994
    5.025    8.7098
    5.040    9.1627
    5.055    8.9521
    5.070    9.0047
    5.085    8.6256
    5.100    8.9205
    5.115    9.3312
    5.130    8.7520
    5.145    8.9837
    5.160    9.1311
    5.175    9.6261
    5.190    9.5419
    5.205    9.1522
    5.220    9.3523
    5.235    8.9415
    5.250    9.0469
    5.265    9.1943
    5.280    9.4681
    5.295    8.9415
    5.310    9.6998
    5.325    9.6051
    5.340    9.7209
    5.355    9.2364
    5.370    9.4892
    5.385    9.3102
    5.400    8.7730
    5.415    9.1627
    5.430    9.2680
    5.445    9.2575
    5.460    9.1838
    5.475    9.0785
    5.490    9.2259
    5.505    9.4050
    5.520    9.6893
    5.535    9.9526
    5.550   10.7846
    5.565   10.6372
    5.580   10.5951
    5.595   10.5424
    5.610   10.0158
    5.625    9.6367
    5.640    9.2259
    5.655    8.7098
    5.670    7.8673
    5.685    8.4466
    5.700    7.9621
    5.715    7.4355
    5.730    7.6567
    5.745    7.4776
    5.760    7.5935
    5.775    7.9621
    5.790    7.4566
    5.805    7.6040
    5.820    7.7199
    5.835    7.8041
    5.850    7.5724
    5.865    7.5724
    5.880    8.1095
    5.895    8.2043
    5.910    7.7725
    5.925    7.7936
    5.940    7.3512
    5.955    7.7725
    5.970    7.6883
    5.985    8.0674
    6.000    7.6251
    6.015    7.6461
    6.030    7.9410
    6.045    8.0147
    6.060    7.9831
    6.075    7.6145
    6.090    7.8884
    6.105    7.8989
    6.120    7.6672
    6.135    7.4566
    6.150    7.7830
    6.165    8.0147
    6.180    7.8252
    6.195    7.9305
    6.210    7.9094
    6.225    7.9200
    6.240    8.1411
    6.255    8.4150
    6.270    8.0463
    6.285    8.2149
    6.300    8.4571
    6.315    8.8468
    6.330    9.0890
    6.345    9.0574
    6.360    8.8994
    6.375    9.2154
    6.390    9.5840
    6.405    9.5208
    6.420    9.5313
    6.435    9.9737
    6.450    9.4681
    6.465    9.5313
    6.480    9.6998
    6.495   10.1948
    6.510   10.1738
    6.525   10.5213
    6.540   10.9637
    6.555   11.1216
    6.570   11.5534
    6.585   12.0590
    6.600   11.8905
    6.615   12.2275
    6.630   12.5013
    6.645   13.0490
    6.660   13.8389
    6.675   14.5129
    6.690   14.4708
    6.705   15.3555
    6.720   15.9874
    6.735   17.0827
    6.750   17.7778
    6.765   18.4623
    6.780   19.0521
    6.795   20.7267
    6.810   22.2538
    6.825   23.7493
    6.840   25.9505
    6.855   26.4350
    6.870   28.7941
    6.885   30.6161
    6.900   34.1127
    6.915   36.5561
    6.930   39.6840
    6.945   42.9068
    6.960   44.7077
    6.975   43.2228
    6.990   41.9695
    7.005   39.4207
    7.020   35.1448
    7.035   29.6261
    7.050   24.2549
    7.065   20.3054
    7.080   17.2722
    7.095   14.3971
    7.110   13.1438
    7.125   12.0695
    7.140   10.9110
    7.155   10.9742
    7.170   10.3107
    7.185   10.0685
    7.200   10.0685
    7.215   10.1738
    7.230   10.3002
    7.245   10.1527
    7.260    9.4787
    7.275    9.9315
    7.290    9.8789
    7.305    9.8789
    7.320   10.2054
    7.335    9.9737
    7.350   10.3002
    7.365   10.3318
    7.380   10.3212
    7.395   10.8373
    7.410   10.6793
    7.425   10.9426
    7.440   11.4271
    7.455   11.3007
    7.470   11.8378
    7.485   12.3117
    7.500   12.6593
    7.515   12.5856
    7.530   12.9858
    7.545   13.6598
    7.560   13.9652
    7.575   15.0606
    7.590   14.9236
    7.605   16.1348
    7.620   17.4934
    7.635   18.2622
    7.650   19.3786
    7.665   20.2212
    7.680   20.0948
    7.695   22.3591
    7.710   22.8541
    7.725   24.7604
    7.740   26.0137
    7.755   27.9410
    7.770   30.3844
    7.785   31.4376
    7.800   32.4065
    7.815   33.2070
    7.830   34.1759
    7.845   34.9763
    7.860   34.7551
    7.875   33.2596
    7.890   32.2696
    7.905   30.6688
    7.920   28.7625
    7.935   28.1201
    7.950   25.2238
    7.965   23.4545
    7.980   21.2849
    7.995   20.0948
    8.010   17.8620
    8.025   17.0090
    8.040   15.8189
    8.055   14.6077
    8.070   13.7546
    8.085   12.5013
    8.100   12.0590
    8.115   11.2375
    8.130   10.5003
    8.145   10.1843
    8.160    9.6156
    8.175    9.4365
    8.190    9.1732
    8.205    9.2259
    8.220    8.6993
    8.235    8.3307
    8.250    8.3834
    8.265    7.8778
    8.280    8.0885
    8.295    8.1411
    8.310    8.0463
    8.325    8.3939
    8.340    8.0885
    8.355    7.8778
    8.370    7.9200
    8.385    7.7409
    8.400    8.1201
    8.415    7.9726
    8.430    7.7409
    8.445    8.0358
    8.460    7.7830
    8.475    7.4882
    8.490    7.8462
    8.505    7.6251
    8.520    7.4776
    8.535    7.3512
    8.550    7.3302
    8.565    7.2459
    8.580    7.1617
    8.595    7.1933
    8.610    7.2143
    8.625    7.4566
    8.640    7.7093
    8.655    7.4355
    8.670    7.4039
    8.685    7.3302
    8.700    7.5197
    8.715    7.0458
    8.730    6.9721
    8.745    7.3196
    8.760    6.8773
    8.775    6.9300
    8.790    7.0037
    8.805    7.2459
    8.820    7.0774
    8.835    7.4671
    8.850    7.6356
    8.865    7.2986
    8.880    7.3828
    8.895    7.1511
    8.910    7.3196
    8.925    7.1195
    8.940    7.3302
    8.955    7.2249
    8.970    7.1827
    8.985    7.0142
    9.000    7.0248
    9.015    7.1090
    9.030    7.0774
    9.045    7.1617
    9.060    7.3196
    9.075    6.7615
    9.090    7.2354
    9.105    7.3196
    9.120    7.1933
    9.135    7.4671
    9.150    7.3302
    9.165    7.1617
    9.180    7.2038
    9.195    7.2249
    9.210    7.3407
    9.225    7.5724
    9.240    7.0458
    9.255    7.0142
    9.270    6.9300
    9.285    6.4350
    9.300    7.2880
    9.315    7.3196
    9.330    7.0037
    9.345    7.1617
    9.360    7.3828
    9.375    7.2986
    9.390    7.0774
    9.405    7.4671
    9.420    7.2986
    9.435    7.2038
    9.450    7.1827
    9.465    7.3618
    9.480    7.0985
    9.495    7.6145
    9.510    7.4250
    9.525    7.0774
    9.540    7.4987
    9.555    7.3618
    9.570    7.4039
    9.585    7.2249
    9.600    7.6777
    9.615    7.8146
    9.630    7.9831
    9.645    7.8568
    9.660    7.7093
    9.675    7.9621
    9.690    8.0885
    9.705    7.8041
    9.720    7.8041
    9.735    7.5408
    9.750    7.7830
    9.765    7.5197
    9.780    7.6356
    9.795    7.2670
    9.810    7.3618
    9.825    7.4460
    9.840    7.7620
    9.855    7.2354
    9.870    7.1933
    9.885    7.3723
    9.900    7.2354
    9.915    7.2670
    9.930    7.1617
    9.945    7.2249
    9.960    7.1406
    9.975    7.2143
    9.990    7.3723