File: data/PXRD/PXRD_KE-340_Cu-Ka1_capillary-1mm_3s-deg_MOCOF-1.xyd
    1.500    1.6675
    1.545    2.1064
    1.590    1.9835
    1.635    2.0186
    1.680    1.7729
    1.725    1.8080
    1.770    1.8255
    1.815    1.5271
    1.860    1.5096
    1.905    1.7378
    1.950    1.3516
    1.995    1.8080
    2.040    1.6500
    2.085    1.5096
    2.130    1.6675
    2.175    1.4394
    2.220    1.4569
    2.265    1.3867
    2.310    1.4218
    2.355    1.2638
    2.400    1.6675
    2.445    1.6324
    2.490    1.3691
    2.535    1.2814
    2.580    1.4920
    2.625    1.5447
    2.670    1.2989
    2.715    1.3691
    2.760    1.1936
    2.805    1.4745
    2.850    1.2638
    2.895    1.5447
    2.940    1.4920
    2.985    1.7027
    3.030    1.4569
    3.075    1.5798
    3.120    2.0713
    3.165    1.7378
    3.210    2.0713
    3.255    2.0713
    3.300    2.4048
    3.345    3.2473
    3.390    3.0542
    3.435    4.0197
    3.480    4.6691
    3.525    5.0904
    3.570    6.1436
    3.615    7.3372
    3.660    9.4787
    3.705   11.5324
    3.750   15.6749
    3.795   23.3456
    3.840   34.3339
    3.885   18.5185
    3.930    4.0723
    3.975    1.9133
    4.020    1.6324
    4.065    1.2989
    4.110    1.4042
    4.155    1.0005
    4.200    1.2463
    4.245    1.1234
    4.290    1.0532
    4.335    1.1058
    4.380    1.3340
    4.425    1.3516
    4.470    1.0707
    4.515    1.1234
    4.560    1.3516
    4.605    1.4042
    4.650    1.2112
    4.695    1.1058
    4.740    1.2463
    4.785    1.2814
    4.830    1.1936
    4.875    1.1410
    4.920    1.1058
    4.965    1.1234
    5.010    1.3340
    5.055    1.0707
    5.100    1.4218
    5.145    1.5622
    5.190    1.9835
    5.235    1.9133
    5.280    2.3697
    5.325    3.1596
    5.370    3.3877
    5.415    5.4766
    5.460    7.5654
    5.505    5.3186
    5.550    1.8255
    5.595    1.4042
    5.640    1.1585
    5.685    1.2112
    5.730    1.0181
    5.775    1.0707
    5.820    1.0356
    5.865    1.2287
    5.910    1.0005
    5.955    1.1058
    6.000    1.0707
    6.045    1.1936
    6.090    1.1058
    6.135    1.1585
    6.180    1.1058
    6.225    0.9479
    6.270    1.0356
    6.315    1.0181
    6.360    1.0005
    6.405    1.0356
    6.450    1.1058
    6.495    1.0005
    6.540    1.3165
    6.585    1.2814
    6.630    1.2638
    6.675    1.8255
    6.720    1.8080
    6.765    1.3691
    6.810    1.0883
    6.855    1.1585
    6.900    0.8425
    6.945    0.9303
    6.990    1.1585
    7.035    1.0356
    7.080    1.0356
    7.125    1.1234
    7.170    0.9128
    7.215    0.9654
    7.260    1.1410
    7.305    1.0181
    7.350    1.1936
    7.395    1.1234
    7.440    1.0883
    7.485    1.1761
    7.530    1.3165
    7.575    1.0883
    7.620    1.3867
    7.665    2.1064
    7.710    2.1766
    7.755    3.5808
    7.800    2.4925
    7.845    1.1761
    7.890    1.0005
    7.935    1.1585
    7.980    1.1936
    8.025    1.1585
    8.070    0.9479
    8.115    1.0532
    8.160    0.9128
    8.205    0.8425
    8.250    1.1936
    8.295    1.1936
    8.340    1.1410
    8.385    1.2112
    8.430    1.0005
    8.475    0.8777
    8.520    0.9479
    8.565    1.1761
    8.610    1.1234
    8.655    1.3516
    8.700    1.5622
    8.745    1.1234
    8.790    1.0883
    8.835    0.9654
    8.880    0.9830
    8.925    0.8777
    8.970    0.9128
    9.015    1.0005
    9.060    0.8425
    9.105    0.9479
    9.150    0.8601
    9.195    1.0005
    9.240    1.2112
    9.285    1.1936
    9.330    1.2287
    9.375    1.4569
    9.420    1.4569
    9.465    2.1064
    9.510    3.5633
    9.555    2.9489
    9.600    1.7027
    9.645    0.9479
    9.690    0.8250
    9.735    1.0005
    9.780    0.8425
    9.825    1.2112
    9.870    1.1234
    9.915    1.1058
    9.960    1.1234
   10.005    0.9654
   10.050    0.9654
   10.095    0.8601
   10.140    1.0005
   10.185    1.0532
   10.230    1.3867
   10.275    1.7027
   10.320    1.5447
   10.365    1.2638
   10.410    1.1936
   10.455    1.0005
   10.500    1.0532
   10.545    0.8952
   10.590    0.9830
   10.635    1.0181
   10.680    0.9654
   10.725    1.0005
   10.770    1.0532
   10.815    1.0883
   10.860    1.0883
   10.905    1.0883
   10.950    1.4218
   10.995    1.8957
   11.040    1.9484
   11.085    1.2638
   11.130    1.0356
   11.175    1.1234
   11.220    1.0532
   11.265    0.8425
   11.310    0.9654
   11.355    0.8074
   11.400    0.8074
   11.445    1.1234
   11.490    1.0532
   11.535    1.0532
   11.580    0.9830
   11.625    1.3691
   11.670    1.8255
   11.715    2.1064
   11.760    1.2112
   11.805    0.9479
   11.850    0.9830
   11.895    0.8250
   11.940    1.0356
   11.985    0.8952
   12.030    0.8601
   12.075    0.8601
   12.120    0.9654
   12.165    0.9654
   12.210    1.0181
   12.255    1.1058
   12.300    1.0883
   12.345    1.0181
   12.390    1.4394
   12.435    0.8250
   12.480    0.9128
   12.525    1.1761
   12.570    0.9128
   12.615    0.9479
   12.660    0.8074
   12.705    1.1410
   12.750    0.8250
   12.795    0.9654
   12.840    0.9479
   12.885    1.2814
   12.930    1.4920
   12.975    1.3691
   13.020    1.0883
   13.065    0.9303
   13.110    1.0005
   13.155    1.2287
   13.200    0.8250
   13.245    0.8601
   13.290    1.0356
   13.335    0.7548
   13.380    1.1410
   13.425    0.9654
   13.470    1.0707
   13.515    1.1234
   13.560    1.1761
   13.605    1.0532
   13.650    1.0181
   13.695    1.1410
   13.740    0.8952
   13.785    0.8250
   13.830    0.9654
   13.875    0.8952
   13.920    1.0005
   13.965    0.9479
   14.010    1.1585
   14.055    1.2463
   14.100    1.3516
   14.145    1.0005
   14.190    0.8425
   14.235    0.9303
   14.280    0.9654
   14.325    0.8777
   14.370    0.9654
   14.415    0.6846
   14.460    0.9830
   14.505    0.8601
   14.550    0.9830
   14.595    0.7548
   14.640    0.8952
   14.685    1.0181
   14.730    0.9654
   14.775    0.9303
   14.820    0.9479
   14.865    1.0005
   14.910    0.9128
   14.955    1.0356
   15.000    1.0181
   15.045    1.1058
   15.090    0.8952
   15.135    1.2112
   15.180    1.0532
   15.225    0.9654
   15.270    0.9479
   15.315    0.9830
   15.360    0.7548
   15.405    0.9479
   15.450    0.8601
   15.495    1.0181
   15.540    0.8074
   15.585    0.9479
   15.630    1.0356
   15.675    0.8777
   15.720    1.0532
   15.765    0.8601
   15.810    0.8425
   15.855    1.0005
   15.900    1.0707
   15.945    0.8777
   15.990    1.0181
   16.035    0.9830
   16.080    1.1585
   16.125    1.0356
   16.170    0.8250
   16.215    0.9303
   16.260    0.9830
   16.305    0.9303
   16.350    0.9479
   16.395    0.7548
   16.440    0.9303
   16.485    0.9479
   16.530    1.0532
   16.575    1.1585
   16.620    0.9654
   16.665    0.8601
   16.710    0.8074
   16.755    1.1234
   16.800    0.9303
   16.845    0.8777
   16.890    0.9479
   16.935    1.1410
   16.980    1.1936
   17.025    1.2814
   17.070    1.4218
   17.115    1.0883
   17.160    1.0707
   17.205    0.9654
   17.250    1.0356
   17.295    1.0356
   17.340    1.0005
   17.385    0.9303
   17.430    0.8601
   17.475    1.0707
   17.520    1.0883
   17.565    0.8601
   17.610    1.0356
   17.655    0.8601
   17.700    0.8952
   17.745    0.8777
   17.790    1.1761
   17.835    0.8777
   17.880    0.9654
   17.925    0.9303
   17.970    1.0181
   18.015    1.0356
   18.060    0.8777
   18.105    1.0883
   18.150    0.9128
   18.195    1.0005
   18.240    1.1410
   18.285    0.8777
   18.330    0.9654
   18.375    0.9830
   18.420    1.0532
   18.465    0.8777
   18.510    0.9830
   18.555    0.8777
   18.600    0.9654
   18.645    0.8425
   18.690    0.7548
   18.735    1.1936
   18.780    1.0181
   18.825    0.9479
   18.870    0.8425
   18.915    0.8250
   18.960    0.9479
   19.005    0.9830
   19.050    0.7899
   19.095    0.8952
   19.140    0.8601
   19.185    0.8777
   19.230    1.0532
   19.275    1.0005
   19.320    1.0532
   19.365    1.0181
   19.410    1.0356
   19.455    0.9303
   19.500    0.9128
   19.545    1.0005
   19.590    1.1585
   19.635    0.9830
   19.680    0.8250
   19.725    0.9654
   19.770    1.1585
   19.815    0.8601
   19.860    0.8074
   19.905    0.9303
   19.950    0.8952
   19.995    0.8777
   20.040    0.7723
   20.085    0.8601
   20.130    1.0532
   20.175    1.0707
   20.220    0.8601
   20.265    1.0181
   20.310    1.1410
   20.355    1.1761
   20.400    1.4042
   20.445    1.2463
   20.490    0.8952
   20.535    0.7723
   20.580    0.9303
   20.625    0.8425
   20.670    0.9128
   20.715    1.0356
   20.760    1.2463
   20.805    0.8952
   20.850    0.8425
   20.895    0.9128
   20.940    0.8777
   20.985    0.9303
   21.030    0.9128
   21.075    0.8601
   21.120    1.0356
   21.165    0.9479
   21.210    1.0005
   21.255    0.8601
   21.300    1.0356
   21.345    1.0707
   21.390    0.9830
   21.435    0.7548
   21.480    1.1058
   21.525    0.8250
   21.570    0.9654
   21.615    0.8777
   21.660    1.0005
   21.705    0.8952
   21.750    0.7899
   21.795    1.1585
   21.840    1.2112
   21.885    1.0356
   21.930    0.9479
   21.975    0.8601
   22.020    0.8777
   22.065    1.0356
   22.110    1.0356
   22.155    0.8074
   22.200    1.0181
   22.245    0.9654
   22.290    1.0005
   22.335    0.9654
   22.380    0.9479
   22.425    1.0356
   22.470    0.9479
   22.515    1.2112
   22.560    1.3516
   22.605    1.2814
   22.650    0.8777
   22.695    1.0356
   22.740    0.9479
   22.785    0.9830
   22.830    1.2112
   22.875    1.4042
   22.920    1.4920
   22.965    1.1058
   23.010    1.0005
   23.055    1.0356
   23.100    1.1585
   23.145    0.8777
   23.190    1.1585
   23.235    1.1058
   23.280    1.2638
   23.325    1.0883
   23.370    0.7021
   23.415    0.9654
   23.460    0.9479
   23.505    0.8425
   23.550    0.9830
   23.595    0.8425
   23.640    1.0005
   23.685    0.9303
   23.730    1.0532
   23.775    1.0005
   23.820    0.8777
   23.865    1.2463
   23.910    1.0883
   23.955    0.9654
   24.000    1.0005
   24.045    0.8601
   24.090    1.0005
   24.135    0.8952
   24.180    1.1585
   24.225    1.1234
   24.270    0.8601
   24.315    0.9128
   24.360    1.1585
   24.405    0.9128
   24.450    0.9479
   24.495    0.8952
   24.540    1.0005
   24.585    0.8777
   24.630    0.9303
   24.675    0.7548
   24.720    0.8601
   24.765    0.9654
   24.810    0.8952
   24.855    0.9479
   24.900    0.9128
   24.945    0.9479
   24.990    0.8952
   25.035    0.8952
   25.080    0.9479
   25.125    0.9303
   25.170    0.8952
   25.215    0.8601
   25.260    0.9303
   25.305    1.1585
   25.350    0.9479
   25.395    0.9303
   25.440    0.8777
   25.485    0.9654
   25.530    0.7723
   25.575    0.8074
   25.620    1.0005
   25.665    0.9479
   25.710    0.8777
   25.755    1.1058
   25.800    1.3691
   25.845    1.0707
   25.890    1.0883
   25.935    0.9479
   25.980    0.9830
   26.025    0.8777
   26.070    0.9303
   26.115    0.9654
   26.160    0.9830
   26.205    0.8425
   26.250    0.9128
   26.295    0.7548
   26.340    0.9128
   26.385    1.2287
   26.430    1.0883
   26.475    0.8601
   26.520    0.7548
   26.565    1.0005
   26.610    0.7548
   26.655    0.7548
   26.700    0.8952
   26.745    0.9479
   26.790    0.9654
   26.835    1.0181
   26.880    0.8601
   26.925    0.8777
   26.970    1.1761
   27.015    1.0707
   27.060    1.0356
   27.105    0.8952
   27.150    0.9303
   27.195    0.8250
   27.240    0.8601
   27.285    0.9654
   27.330    0.7197
   27.375    0.9654
   27.420    0.8601
   27.465    0.8425
   27.510    0.9303
   27.555    0.8425
   27.600    0.9654
   27.645    1.0532
   27.690    0.7899
   27.735    0.7372
   27.780    0.7197
   27.825    0.8250
   27.870    0.8250
   27.915    0.7723
   27.960    0.9479
   28.005    0.8777
   28.050    0.9303
   28.095    0.7548
   28.140    0.9830
   28.185    0.9128
   28.230    0.9830
   28.275    0.9830
   28.320    0.9303
   28.365    0.8074
   28.410    0.9654
   28.455    0.8074
   28.500    0.7197
   28.545    0.6846
   28.590    0.7899
   28.635    0.9479
   28.680    0.6670
   28.725    0.8952
   28.770    0.9830
   28.815    0.8601
   28.860    0.7021
   28.905    0.8601
   28.950    0.8425
   28.995    0.8250
   29.040    0.6319
   29.085    1.0181
   29.130    1.0181
   29.175    0.6495
   29.220    0.9128
   29.265    0.8952
   29.310    0.9479
   29.355    0.9830
   29.400    1.0356
   29.445    0.9654
   29.490    0.7548
   29.535    0.8074
   29.580    0.8425
   29.625    0.8601
   29.670    0.7723
   29.715    0.8952
   29.760    0.7899
   29.805    0.9479
   29.850    0.8601
   29.895    0.9128
   29.940    1.0883
   29.985    0.7899
   30.030    0.9128
   30.075    0.8074
   30.120    0.6495
   30.165    0.7548
   30.210    0.9303
   30.255    0.7021
   30.300    0.9128
   30.345    0.6495
   30.390    0.7372
   30.435    0.8777
   30.480    0.6495
   30.525    0.6670
   30.570    0.9654
   30.615    1.0005
   30.660    0.9479
   30.705    0.8250
   30.750    0.8601
   30.795    0.6670
   30.840    0.7197
   30.885    0.9128
   30.930    0.6846
   30.975    0.8425
   31.020    0.5793
   31.065    0.7723
   31.110    0.7372
   31.155    0.9128
   31.200    0.8777
   31.245    0.8777
   31.290    0.6495
   31.335    0.8952
   31.380    1.0181
   31.425    0.7021
   31.470    0.6846
   31.515    0.8601
   31.560    0.6670
   31.605    0.6319
   31.650    0.6670
   31.695    0.6495
   31.740    0.6495
   31.785    0.8601
   31.830    0.7548
   31.875    0.9128
   31.920    0.6319
   31.965    0.8777
   32.010    0.7723
   32.055    0.6846
   32.100    0.7021
   32.145    0.7723
   32.190    0.8425
   32.235    0.7372
   32.280    0.6495
   32.325    0.7548
   32.370    0.5793
   32.415    0.9479
   32.460    0.6846
   32.505    0.6846
   32.550    0.7723
   32.595    0.5968
   32.640    0.8601
   32.685    0.7021
   32.730    0.6670
   32.775    0.5266
   32.820    0.6670
   32.865    0.7021
   32.910    0.6846
   32.955    0.7548
   33.000    0.7197
   33.045    0.8601
   33.090    0.7899
   33.135    0.6319
   33.180    0.6144
   33.225    0.7548
   33.270    0.5441
   33.315    0.6846
   33.360    0.6319
   33.405    0.7372
   33.450    0.7021
   33.495    0.7723
   33.540    0.5793
   33.585    0.7197
   33.630    0.6846
   33.675    0.6670
   33.720    0.4388
   33.765    0.5617
   33.810    0.6495
   33.855    0.6846
   33.900    0.5793
   33.945    0.6495
   33.990    0.5793
   34.035    0.7021
   34.080    0.6319
   34.125    0.7899
   34.170    0.4213
   34.215    0.6495
   34.260    0.6495
   34.305    0.6846
   34.350    0.5090
   34.395    0.7723
   34.440    0.6670
   34.485    0.7723
   34.530    0.5441
   34.575    0.7197
   34.620    0.5617
   34.665    0.4739
   34.710    0.6144
   34.755    0.7372
   34.800    0.7021
   34.845    0.7372
   34.890    0.6670
   34.935    0.7723
   34.980    0.6495
   35.025    0.5617
   35.070    0.5793
   35.115    0.6319
   35.160    0.5968
   35.205    0.5968
   35.250    0.5968
   35.295    0.4739
   35.340    0.5266
   35.385    0.6846
   35.430    0.6670
   35.475    0.4915
   35.520    0.4564
   35.565    0.5968
   35.610    0.5441
   35.655    0.6144
   35.700    0.5441
   35.745    0.5441
   35.790    0.6144
   35.835    0.5090
   35.880    0.5266
   35.925    0.5090
   35.970    0.6670
   36.015    0.5441
   36.060    0.5968
   36.105    0.4739
   36.150    0.6319
   36.195    0.7197
   36.240    0.5266
   36.285    0.6319
   36.330    0.5441
   36.375    0.6495
   36.420    0.5617
   36.465    0.5968
   36.510    0.5090
   36.555    0.5441
   36.600    0.4213
   36.645    0.3862
   36.690    0.4739
   36.735    0.6670
   36.780    0.5617
   36.825    0.5617
   36.870    0.4564
   36.915    0.5968
   36.960    0.6319
   37.005    0.6846
   37.050    0.4564
   37.095    0.7372
   37.140    0.6144
   37.185    0.6495
   37.230    0.5441
   37.275    0.4388
   37.320    0.5090
   37.365    0.5090
   37.410    0.4388
   37.455    0.5968
   37.500    0.5793
   37.545    0.5090
   37.590    0.5441
   37.635    0.6144
   37.680    0.4564
   37.725    0.6144
   37.770    0.5617
   37.815    0.5441
   37.860    0.6144
   37.905    0.7021
   37.950    0.6144
   37.995    0.6144
   38.040    0.3511
   38.085    0.4739
   38.130    0.5266
   38.175    0.5266
   38.220    0.4388
   38.265    0.4739
   38.310    0.4564
   38.355    0.4739
   38.400    0.5266
   38.445    0.5090
   38.490    0.5968
   38.535    0.5793
   38.580    0.4037
   38.625    0.5617
   38.670    0.4564
   38.715    0.4739
   38.760    0.5441
   38.805    0.5266
   38.850    0.4213
   38.895    0.5793
   38.940    0.5090
   38.985    0.6319
   39.030    0.4564
   39.075    0.5441
   39.120    0.6319
   39.165    0.3862
   39.210    0.5617
   39.255    0.5090
   39.300    0.6319
   39.345    0.4739
   39.390    0.5266
   39.435    0.5441
   39.480    0.4739
   39.525    0.4388
   39.570    0.5968
   39.615    0.5793
   39.660    0.5266
   39.705    0.4915
   39.750    0.5441
   39.795    0.4388
   39.840    0.5968
   39.885    0.5441
   39.930    0.4915
   39.975    0.5266
   40.020    0.4739
   40.065    0.5090
   40.110    0.4739
   40.155    0.4915
   40.200    0.5441
   40.245    0.5090
   40.290    0.5617
   40.335    0.4037
   40.380    0.7021
   40.425    0.6670
   40.470    0.6144
   40.515    0.6495
   40.560    0.4388
   40.605    0.5266
   40.650    0.5441
   40.695    0.3686
   40.740    0.4564
   40.785    0.4739
   40.830    0.4915
   40.875    0.4037
   40.920    0.5441
   40.965    0.5266
   41.010    0.4739
   41.055    0.4564
   41.100    0.4564
   41.145    0.5793
   41.190    0.5968
   41.235    0.4739
   41.280    0.4564
   41.325    0.5968
   41.370    0.5793
   41.415    0.5266
   41.460    0.5266
   41.505    0.4915
   41.550    0.5441
   41.595    0.6495
   41.640    0.5793
   41.685    0.3862
   41.730    0.4037
   41.775    0.4739
   41.820    0.5793
   41.865    0.4915
   41.910    0.4739
   41.955    0.3862
   42.000    0.4213
   42.045    0.3862
   42.090    0.5266
   42.135    0.4213
   42.180    0.3511
   42.225    0.4037
   42.270    0.5968
   42.315    0.4915
   42.360    0.4388
   42.405    0.5090
   42.450    0.5441
   42.495    0.5090
   42.540    0.4739
   42.585    0.5266
   42.630    0.5617
   42.675    0.5793
   42.720    0.4388
   42.765    0.4739
   42.810    0.3862
   42.855    0.4037
   42.900    0.4037
   42.945    0.5090
   42.990    0.3511
   43.035    0.3511
   43.080    0.4739
   43.125    0.4739
   43.170    0.5441
   43.215    0.4915
   43.260    0.5441
   43.305    0.5090
   43.350    0.5617
   43.395    0.6144
   43.440    0.5617
   43.485    0.3160
   43.530    0.4915
   43.575    0.4388
   43.620    0.4213
   43.665    0.3511
   43.710    0.4739
   43.755    0.5266
   43.800    0.3862
   43.845    0.4915
   43.890    0.4564
   43.935    0.4915
   43.980    0.4739
   44.025    0.4564
   44.070    0.5090
   44.115    0.5617
   44.160    0.5441
   44.205    0.4739
   44.250    0.5441
   44.295    0.5617
   44.340    0.5266
   44.385    0.4564
   44.430    0.5617
   44.475    0.4564
   44.520    0.4213
   44.565    0.4213
   44.610    0.4213
   44.655    0.3862
   44.700    0.4739
   44.745    0.5617
   44.790    0.5441
   44.835    0.4388
   44.880    0.4388
   44.925    0.4388
   44.970    0.3511
   45.015    0.5968
   45.060    0.4739
   45.105    0.4037
   45.150    0.4739
   45.195    0.4388
   45.240    0.4739
   45.285    0.4037
   45.330    0.6144
   45.375    0.5090
   45.420    0.5266
   45.465    0.4564
   45.510    0.3686
   45.555    0.3511
   45.600    0.4037
   45.645    0.4388
   45.690    0.5266
   45.735    0.3686
   45.780    0.3862
   45.825    0.4213
   45.870    0.4388
   45.915    0.3862
   45.960    0.5441
   46.005    0.4739
   46.050    0.4564
   46.095    0.4564
   46.140    0.4739
   46.185    0.4213
   46.230    0.5090
   46.275    0.4564
   46.320    0.4564
   46.365    0.3335
   46.410    0.3686
   46.455    0.5266
   46.500    0.5090
   46.545    0.4564
   46.590    0.3862
   46.635    0.2808
   46.680    0.4213
   46.725    0.3686
   46.770    0.5617
   46.815    0.4564
   46.860    0.4915
   46.905    0.3862
   46.950    0.5617
   46.995    0.4739
   47.040    0.4739
   47.085    0.4739
   47.130    0.4915
   47.175    0.4564
   47.220    0.4915
   47.265    0.3686
   47.310    0.4564
   47.355    0.5090
   47.400    0.4213
   47.445    0.5617
   47.490    0.5266
   47.535    0.4388
   47.580    0.4564
   47.625    0.2457
   47.670    0.5793
   47.715    0.3862
   47.760    0.4388
   47.805    0.4213
   47.850    0.3686
   47.895    0.3335
   47.940    0.4388
   47.985    0.4915
   48.030    0.3862
   48.075    0.3686
   48.120    0.4739
   48.165    0.3160
   48.210    0.4564
   48.255    0.3335
   48.300    0.4915
   48.345    0.3862
   48.390    0.4037
   48.435    0.5617
   48.480    0.4739
   48.525    0.4564
   48.570    0.4739
   48.615    0.5090
   48.660    0.4564
   48.705    0.3862
   48.750    0.5266
   48.795    0.3335
   48.840    0.5090
   48.885    0.4213
   48.930    0.3862
   48.975    0.5266
   49.020    0.4564
   49.065    0.4564
   49.110    0.4915
   49.155    0.4388
   49.200    0.2457
   49.245    0.3511
   49.290    0.3862
   49.335    0.2633
   49.380    0.4213
   49.425    0.5266
   49.470    0.4213
   49.515    0.4213
   49.560    0.4213
   49.605    0.4739
   49.650    0.5617
   49.695    0.3862
   49.740    0.4915
   49.785    0.3335
   49.830    0.4213
   49.875    0.4388
   49.920    0.3862
   49.965    0.3862
   49.980    0.4388