File: data/PXRD/PXRD_KE-049-1-2_Cu-Ka1_capillary-1mm_5s-deg.xyd
    1.500   29.2575
    1.530   28.9626
    1.560   29.2154
    1.590   29.0679
    1.620   27.4671
    1.650   26.9721
    1.680   26.4139
    1.710   26.1190
    1.740   25.1080
    1.770   25.0553
    1.800   24.8973
    1.830   24.5498
    1.860   24.5182
    1.890   23.8231
    1.920   23.8757
    1.950   23.2859
    1.980   23.5071
    2.010   22.7909
    2.040   23.2438
    2.070   23.1701
    2.100   22.4223
    2.130   21.9379
    2.160   22.8857
    2.190   23.9284
    2.220   23.0121
    2.250   24.0864
    2.280   23.0121
    2.310   23.8231
    2.340   23.7177
    2.370   24.1706
    2.400   25.1290
    2.430   24.6551
    2.460   26.0032
    2.490   26.4244
    2.520   26.5403
    2.550   26.8562
    2.580   28.7520
    2.610   28.6783
    2.640   30.5003
    2.670   29.9842
    2.700   31.1216
    2.730   32.6909
    2.760   33.7651
    2.790   35.5450
    2.820   36.8404
    2.850   38.0200
    2.880   40.2317
    2.910   41.9484
    2.940   44.2759
    2.970   47.0985
    3.000   48.8468
    3.030   51.2270
    3.060   56.0506
    3.090   57.7883
    3.120   63.6756
    3.150   68.2465
    3.180   74.2812
    3.210   78.5887
    3.240   87.0774
    3.270   95.7873
    3.300  105.1290
    3.330  120.4213
    3.360  133.9337
    3.390  157.1880
    3.420  181.3797
    3.450  187.3828
    3.480  165.4239
    3.510  120.9057
    3.540   80.1580
    3.570   57.7988
    3.600   48.7730
    3.630   44.7288
    3.660   45.7504
    3.690   46.8562
    3.720   46.0348
    3.750   49.6577
    3.780   53.9021
    3.810   56.6930
    3.840   62.2538
    3.870   68.1411
    3.900   73.9968
    3.930   76.5771
    3.960   77.3144
    3.990   80.9163
    4.020   85.2343
    4.050   88.5624
    4.080   84.8341
    4.110   81.2638
    4.140   74.9658
    4.170   65.6135
    4.200   56.4824
    4.230   48.9100
    4.260   41.2217
    4.290   35.3765
    4.320   28.7730
    4.350   24.1706
    4.380   20.4213
    4.410   17.0721
    4.440   15.7767
    4.470   14.6498
    4.500   12.8383
    4.530   12.1748
    4.560   11.4060
    4.590   11.0900
    4.620   10.4581
    4.650    9.8999
    4.680    9.9315
    4.710    9.8473
    4.740    9.1311
    4.770    9.3312
    4.800    9.0258
    4.830    8.6993
    4.860    8.6783
    4.890    8.6467
    4.920    8.8257
    4.950    8.6993
    4.980    8.9837
    5.010    8.5097
    5.040    8.3939
    5.070    8.5519
    5.100    8.3518
    5.130    8.5413
    5.160    8.6677
    5.190    8.4887
    5.220    8.3623
    5.250    8.4571
    5.280    8.6993
    5.310    8.3728
    5.340    8.8468
    5.370    8.5203
    5.400    8.4360
    5.430    8.4571
    5.460    8.6783
    5.490    8.8468
    5.520    9.3734
    5.550    8.7730
    5.580    8.0990
    5.610    7.7409
    5.640    7.3407
    5.670    7.6040
    5.700    7.1090
    5.730    7.2565
    5.760    7.9937
    5.790    7.8357
    5.820    7.6040
    5.850    7.2775
    5.880    7.0669
    5.910    7.7830
    5.940    7.0458
    5.970    8.1306
    6.000    7.6672
    6.030    7.7830
    6.060    7.2143
    6.090    7.8989
    6.120    7.4776
    6.150    7.7304
    6.180    7.8568
    6.210    8.0990
    6.240    7.6672
    6.270    7.9726
    6.300    7.6356
    6.330    8.6361
    6.360    8.2991
    6.390    8.3202
    6.420    8.2149
    6.450    8.7098
    6.480    8.6677
    6.510    8.9521
    6.540    9.9105
    6.570    9.8157
    6.600   10.2791
    6.630   10.8268
    6.660   11.3955
    6.690   11.9431
    6.720   12.7962
    6.750   14.0600
    6.780   15.2501
    6.810   16.3033
    6.840   18.1043
    6.870   20.6740
    6.900   24.1074
    6.930   26.3402
    6.960   25.2554
    6.990   22.0958
    7.020   16.4718
    7.050   12.3749
    7.080   10.4371
    7.110    9.2048
    7.140    8.6783
    7.170    8.4676
    7.200    7.8989
    7.230    7.7725
    7.260    8.1622
    7.290    7.6883
    7.320    7.8778
    7.350    8.0779
    7.380    7.8778
    7.410    7.5197
    7.440    8.1833
    7.470    7.8041
    7.500    8.0674
    7.530    8.6783
    7.560    8.2464
    7.590    8.5940
    7.620    8.4992
    7.650    8.8889
    7.680    8.6993
    7.710    9.2364
    7.740    9.8894
    7.770    9.7209
    7.800    9.6788
    7.830   10.7741
    7.860   10.4265
    7.890   11.2059
    7.920   11.2796
    7.950   11.6377
    7.980   11.8273
    8.010   12.9437
    8.040   12.5856
    8.070   13.6282
    8.100   14.1232
    8.130   13.5018
    8.160   14.1654
    8.190   14.5550
    8.220   14.9763
    8.250   15.0711
    8.280   14.7446
    8.310   14.3549
    8.340   13.7441
    8.370   13.5756
    8.400   13.3017
    8.430   12.5118
    8.460   12.1643
    8.490   12.4592
    8.520   11.9431
    8.550   11.6166
    8.580   11.1532
    8.610   10.3739
    8.640   10.2264
    8.670    9.8473
    8.700    9.2259
    8.730    9.1417
    8.760    9.0363
    8.790    8.7520
    8.820    8.5097
    8.850    7.9410
    8.880    8.2780
    8.910    7.8778
    8.940    8.6361
    8.970    8.2254
    9.000    8.4466
    9.030    8.4992
    9.060    8.4255
    9.090    8.7730
    9.120    9.1311
    9.150    9.2259
    9.180    9.0785
    9.210    9.7946
    9.240    9.9526
    9.270    9.8473
    9.300    9.8684
    9.330    9.2680
    9.360    9.3102
    9.390    8.8257
    9.420    8.3728
    9.450    8.4466
    9.480    8.1095
    9.510    7.8884
    9.540    7.7936
    9.570    8.3728
    9.600    8.4676
    9.630    7.8462
    9.660    7.9305
    9.690    7.4776
    9.720    7.4039
    9.750    6.8562
    9.780    7.2986
    9.810    7.9726
    9.840    7.6883
    9.870    7.4776
    9.900    7.7514
    9.930    7.8357
    9.960    7.9726
    9.990    7.2143
   10.020    7.7093
   10.050    7.6883
   10.080    8.4360
   10.110    8.0253
   10.140    7.9305
   10.170    8.4466
   10.200    8.5940
   10.230    8.1833
   10.260    7.7199
   10.290    8.1727
   10.320    8.0779
   10.350    8.7941
   10.380    8.8889
   10.410    9.4576
   10.440    9.3102
   10.470    8.7520
   10.500    9.1943
   10.530    7.5092
   10.560    7.4671
   10.590    7.6567
   10.620    7.5408
   10.650    7.7199
   10.680    7.8462
   10.710    7.4460
   10.740    7.5092
   10.770    7.2249
   10.800    7.8778
   10.830    8.1938
   10.860    7.2249
   10.890    7.6356
   10.920    7.5619
   10.950    7.1511
   10.980    7.3934
   11.010    7.1090
   11.040    7.0879
   11.070    7.6461
   11.100    7.4882
   11.130    7.2670
   11.160    7.0774
   11.190    7.0985
   11.220    7.3512
   11.250    6.9300
   11.280    7.2459
   11.310    7.1195
   11.340    7.7514
   11.370    7.2354
   11.400    7.4144
   11.430    7.1933
   11.460    7.6356
   11.490    6.9510
   11.520    7.4882
   11.550    7.3618
   11.580    7.3196
   11.610    7.3828
   11.640    7.6040
   11.670    7.8146
   11.700    7.3091
   11.730    7.6461
   11.760    7.8778
   11.790    7.6251
   11.820    8.0147
   11.850    7.6145
   11.880    7.1511
   11.910    8.0463
   11.940    7.9516
   11.970    7.8884
   12.000    7.8146
   12.030    8.0779
   12.060    8.1938
   12.090    8.8889
   12.120    8.6572
   12.150    8.5835
   12.180    8.5519
   12.210    8.9731
   12.240    8.9205
   12.270    8.7098
   12.300    8.4571
   12.330    9.0785
   12.360    8.8889
   12.390    8.5097
   12.420    8.5308
   12.450    8.2043
   12.480    8.2254
   12.510    8.0463
   12.540    8.4992
   12.570    8.1938
   12.600    8.4255
   12.630    8.3518
   12.660    8.3939
   12.690    8.5203
   12.720    8.2359
   12.750    8.4360
   12.780    8.1727
   12.810    8.8784
   12.840    8.0358
   12.870    7.7725
   12.900    7.6145
   12.930    8.0885
   12.960    7.8041
   12.990    8.0042
   13.020    8.0990
   13.050    8.3834
   13.080    7.6567
   13.110    7.6356
   13.140    8.1095
   13.170    7.7936
   13.200    7.8568
   13.230    7.6777
   13.260    7.6040
   13.290    8.0253
   13.320    8.0569
   13.350    8.2991
   13.380    7.9621
   13.410    7.9305
   13.440    8.1095
   13.470    7.7514
   13.500    7.8462
   13.530    7.6040
   13.560    8.0253
   13.590    8.0042
   13.620    7.6672
   13.650    7.9305
   13.680    7.5724
   13.710    7.9200
   13.740    7.2565
   13.770    7.5303
   13.800    7.7199
   13.830    7.7830
   13.860    7.6988
   13.890    7.8884
   13.920    7.2565
   13.950    7.5303
   13.980    7.3618
   14.010    7.5197
   14.040    7.0353
   14.070    7.4776
   14.100    7.1827
   14.130    7.8041
   14.160    7.6461
   14.190    7.2038
   14.220    7.2459
   14.250    6.6351
   14.280    6.9405
   14.310    7.2670
   14.340    7.1195
   14.370    7.1933
   14.400    6.9089
   14.430    6.8457
   14.460    6.8668
   14.490    6.8246
   14.520    6.8562
   14.550    6.7193
   14.580    7.0563
   14.610    6.7615
   14.640    6.7509
   14.670    7.0985
   14.700    6.9510
   14.730    7.0353
   14.760    7.1933
   14.790    7.0879
   14.820    6.9826
   14.850    7.2670
   14.880    7.0669
   14.910    6.9405
   14.940    7.2249
   14.970    6.5613
   15.000    7.0248
   15.030    7.1617
   15.060    7.4039
   15.090    7.3196
   15.120    7.1827
   15.150    7.3302
   15.180    7.2143
   15.210    7.2986
   15.240    7.2038
   15.270    7.3407
   15.300    7.3618
   15.330    7.4882
   15.360    6.8352
   15.390    7.0985
   15.420    7.5303
   15.450    7.0669
   15.480    7.7514
   15.510    7.3091
   15.540    7.2459
   15.570    7.4882
   15.600    7.4355
   15.630    7.5408
   15.660    7.4882
   15.690    7.1406
   15.720    7.4460
   15.750    7.4671
   15.780    7.2459
   15.810    6.9194
   15.840    7.2459
   15.870    7.0669
   15.900    7.0879
   15.930    7.0669
   15.960    7.1722
   15.990    7.2354
   16.020    7.3196
   16.050    7.6672
   16.080    6.9721
   16.110    7.2354
   16.140    7.4566
   16.170    7.3302
   16.200    7.2143
   16.230    7.3091
   16.260    7.5197
   16.290    7.1722
   16.320    7.0142
   16.350    7.0458
   16.380    6.8773
   16.410    7.0248
   16.440    6.8352
   16.470    6.9616
   16.500    7.0037
   16.530    6.6667
   16.560    6.7930
   16.590    7.5724
   16.620    7.0458
   16.650    7.4566
   16.680    7.0037
   16.710    6.9616
   16.740    7.1827
   16.770    7.2880
   16.800    7.0458
   16.830    7.1617
   16.860    7.2143
   16.890    6.5613
   16.920    7.0458
   16.950    6.9826
   16.980    7.4987
   17.010    7.0879
   17.040    6.9300
   17.070    6.9932
   17.100    7.1511
   17.130    7.4671
   17.160    7.1195
   17.190    6.8878
   17.220    7.2354
   17.250    7.0669
   17.280    7.3618
   17.310    7.1617
   17.340    7.1722
   17.370    7.1722
   17.400    7.5303
   17.430    7.3407
   17.460    7.2986
   17.490    7.5935
   17.520    7.3723
   17.550    7.0458
   17.580    7.1090
   17.610    7.3302
   17.640    7.0248
   17.670    7.4144
   17.700    7.0669
   17.730    6.9194
   17.760    6.9300
   17.790    7.3091
   17.820    7.1933
   17.850    7.4671
   17.880    7.4882
   17.910    7.2459
   17.940    7.2354
   17.970    7.4355
   18.000    7.2986
   18.030    7.5513
   18.060    7.7830
   18.090    7.4355
   18.120    7.2670
   18.150    7.4566
   18.180    7.0985
   18.210    7.6461
   18.240    7.1195
   18.270    7.4776
   18.300    7.1511
   18.330    6.8562
   18.360    7.2354
   18.390    7.2986
   18.420    7.1406
   18.450    7.2670
   18.480    7.4671
   18.510    7.1406
   18.540    7.0458
   18.570    7.5724
   18.600    7.2038
   18.630    7.3407
   18.660    7.0563
   18.690    7.4039
   18.720    6.8141
   18.750    7.1301
   18.780    7.1511
   18.810    7.0142
   18.840    7.3196
   18.870    7.1195
   18.900    7.2038
   18.930    7.0879
   18.960    7.1511
   18.990    6.8141
   19.020    7.1090
   19.050    7.2565
   19.080    6.8773
   19.110    7.4039
   19.140    7.4355
   19.170    7.3196
   19.200    7.0879
   19.230    7.3723
   19.260    7.7620
   19.290    7.4144
   19.320    7.4987
   19.350    7.3934
   19.380    7.3091
   19.410    7.4250
   19.440    7.3828
   19.470    7.7304
   19.500    7.8462
   19.530    7.5935
   19.560    7.9516
   19.590    8.1938
   19.620    7.8778
   19.650    8.0674
   19.680    8.6993
   19.710    8.2043
   19.740    8.2464
   19.770    7.9410
   19.800    8.4676
   19.830    8.5519
   19.860    8.5413
   19.890    8.1727
   19.920    8.1517
   19.950    8.6677
   19.980    8.1306
   20.010    8.3939
   20.040    8.5308
   20.070    8.7098
   20.100    7.9305
   20.130    8.3623
   20.160    7.9305
   20.190    8.1833
   20.220    8.3728
   20.250    7.7199
   20.280    8.0674
   20.310    7.8778
   20.340    8.1517
   20.370    8.4044
   20.400    7.8568
   20.430    7.6883
   20.460    8.2780
   20.490    7.9831
   20.520    8.4992
   20.550    7.9621
   20.580    7.3618
   20.610    7.9831
   20.640    7.8778
   20.670    7.5829
   20.700    7.9200
   20.730    7.6145
   20.760    7.8252
   20.790    8.1517
   20.820    7.8462
   20.850    8.0674
   20.880    8.3096
   20.910    8.2149
   20.940    8.2464
   20.970    8.2675
   21.000    8.2991
   21.030    8.5940
   21.060    8.3202
   21.090    8.1306
   21.120    8.1833
   21.150    8.0253
   21.180    8.3834
   21.210    8.3728
   21.240    8.2570
   21.270    8.2570
   21.300    8.2675
   21.330    8.5413
   21.360    7.8146
   21.390    8.2359
   21.420    7.8462
   21.450    7.7514
   21.480    7.9200
   21.510    8.8362
   21.540    8.1517
   21.570    8.4992
   21.600    8.3307
   21.630    8.0042
   21.660    8.2043
   21.690    8.1622
   21.720    7.9305
   21.750    7.9305
   21.780    7.9726
   21.810    7.7409
   21.840    7.5619
   21.870    8.0674
   21.900    7.8252
   21.930    8.0358
   21.960    8.6151
   21.990    7.9621
   22.020    7.5619
   22.050    7.7725
   22.080    8.0463
   22.110    7.7725
   22.140    8.3518
   22.170    7.8252
   22.200    7.7830
   22.230    7.9200
   22.260    7.6567
   22.290    7.8146
   22.320    7.7725
   22.350    7.8146
   22.380    7.7409
   22.410    7.8041
   22.440    7.6777
   22.470    7.5619
   22.500    8.0674
   22.530    7.6461
   22.560    8.0253
   22.590    7.8252
   22.620    7.8357
   22.650    7.9410
   22.680    7.8252
   22.710    7.6988
   22.740    7.8041
   22.770    8.0779
   22.800    7.5408
   22.830    8.1306
   22.860    7.5724
   22.890    7.8041
   22.920    7.7409
   22.950    8.0779
   22.980    8.2570
   23.010    8.0253
   23.040    7.7409
   23.070    7.6567
   23.100    7.5935
   23.130    7.7514
   23.160    8.0253
   23.190    7.8884
   23.220    7.7830
   23.250    7.8041
   23.280    7.0458
   23.310    7.7620
   23.340    7.7725
   23.370    7.8462
   23.400    7.9621
   23.430    7.6040
   23.460    7.7830
   23.490    7.7830
   23.520    7.7620
   23.550    7.6145
   23.580    8.0253
   23.610    7.0774
   23.640    7.4987
   23.670    7.7514
   23.700    7.6461
   23.730    7.5303
   23.760    7.7093
   23.790    7.6988
   23.820    7.5935
   23.850    7.4566
   23.880    7.9621
   23.910    7.1827
   23.940    7.7409
   23.970    7.8146
   24.000    7.5513
   24.030    7.7725
   24.060    7.5619
   24.090    7.6356
   24.120    7.4250
   24.150    7.1090
   24.180    7.3934
   24.210    7.2775
   24.240    8.0253
   24.270    7.8462
   24.300    7.1617
   24.330    7.4882
   24.360    7.3091
   24.390    8.0674
   24.420    7.3302
   24.450    7.7199
   24.480    7.5619
   24.510    7.8041
   24.540    8.0253
   24.570    7.6567
   24.600    7.9621
   24.630    7.3512
   24.660    7.6040
   24.690    7.6251
   24.720    7.6883
   24.750    7.5408
   24.780    7.2986
   24.810    7.2880
   24.840    7.5935
   24.870    6.8036
   24.900    7.7199
   24.930    7.5197
   24.960    7.2986
   24.990    7.1933
   25.020    7.2880
   25.050    7.5829
   25.080    7.4566
   25.110    7.1195
   25.140    7.3618
   25.170    7.3723
   25.200    7.4566
   25.230    7.3302
   25.260    7.1827
   25.290    7.1301
   25.320    7.3512
   25.350    7.2354
   25.380    7.6567
   25.410    7.4250
   25.440    7.1511
   25.470    7.5619
   25.500    7.2775
   25.530    7.0985
   25.560    6.8457
   25.590    7.5724
   25.620    7.0985
   25.650    7.3407
   25.680    7.1406
   25.710    7.1722
   25.740    7.1722
   25.770    7.0985
   25.800    7.1933
   25.830    6.9194
   25.860    6.7615
   25.890    7.5829
   25.920    7.1195
   25.950    7.2880
   25.980    7.0669
   26.010    7.2143
   26.040    7.0037
   26.070    6.9405
   26.100    6.6561
   26.130    6.9194
   26.160    7.0142
   26.190    7.0037
   26.220    7.0774
   26.250    6.7615
   26.280    6.6456
   26.310    6.9616
   26.340    6.9932
   26.370    6.4876
   26.400    6.9300
   26.430    6.9300
   26.460    7.1511
   26.490    6.8141
   26.520    7.1617
   26.550    6.9932
   26.580    6.7825
   26.610    7.0037
   26.640    6.9932
   26.670    6.6772
   26.700    7.0142
   26.730    6.9932
   26.760    6.8246
   26.790    7.0879
   26.820    7.4144
   26.850    6.6245
   26.880    7.0353
   26.910    6.6561
   26.940    7.3196
   26.970    6.8246
   27.000    6.9721
   27.030    6.6877
   27.060    6.4876
   27.090    6.7299
   27.120    7.0879
   27.150    7.1195
   27.165    7.0563