File: data/PXRD/PXRD_KE-272MS_Cu-Ka1_film-3mm_3s-deg.xyd
    1.500   11.7957
    1.530   11.6904
    1.560   11.1989
    1.590   11.7606
    1.620   11.3744
    1.650   10.5670
    1.680   10.5670
    1.710    9.6191
    1.740   10.9356
    1.770   10.3037
    1.800   10.5845
    1.830   10.1808
    1.860    9.4962
    1.890   10.3037
    1.920    9.6015
    1.950    9.1452
    1.980    9.4436
    2.010    9.2154
    2.040    9.5489
    2.070    9.0047
    2.100    9.2505
    2.130    9.1627
    2.160    9.0750
    2.190    9.2154
    2.220    8.7590
    2.250    8.6537
    2.280    8.6186
    2.310    8.7941
    2.340    8.1622
    2.370    8.2324
    2.400    8.2851
    2.430    8.0744
    2.460    7.8989
    2.490    8.6186
    2.520    8.7414
    2.550    8.6888
    2.580    7.6883
    2.610    8.5133
    2.640    7.9340
    2.670    7.8462
    2.700    7.9867
    2.730    7.5127
    2.760    7.6883
    2.790    7.3372
    2.820    7.5829
    2.850    7.5127
    2.880    8.0920
    2.910    7.7234
    2.940    6.7755
    2.970    7.4074
    3.000    7.7058
    3.030    7.0388
    3.060    7.5127
    3.090    7.8638
    3.120    7.2143
    3.150    7.9164
    3.180    7.9516
    3.210    7.6005
    3.240    8.0744
    3.270    7.1792
    3.300    7.5478
    3.330    7.8638
    3.360    7.4425
    3.390    7.5478
    3.420    7.5127
    3.450    7.5127
    3.480    7.8111
    3.510    7.7760
    3.540    8.2675
    3.570    7.2319
    3.600    7.1968
    3.630    7.1090
    3.660    7.7409
    3.690    7.5829
    3.720    7.1266
    3.750    7.0037
    3.780    7.3372
    3.810    7.7936
    3.840    7.5478
    3.870    6.6175
    3.900    7.2319
    3.930    7.4952
    3.960    7.3899
    3.990    7.4952
    4.020    7.4601
    4.050    7.1617
    4.080    7.6356
    4.110    7.2845
    4.140    7.1792
    4.170    7.7058
    4.200    7.9516
    4.230    7.6180
    4.260    7.3723
    4.290    7.3196
    4.320    7.5127
    4.350    7.6532
    4.380    8.0218
    4.410    7.6883
    4.440    7.2494
    4.470    7.4952
    4.500    7.9691
    4.530    7.1968
    4.560    7.2845
    4.590    7.5478
    4.620    7.8813
    4.650    8.1622
    4.680    8.1622
    4.710    7.8989
    4.740    8.1622
    4.770    7.9867
    4.800    7.5303
    4.830    7.8287
    4.860    8.7063
    4.890    7.6883
    4.920    8.1973
    4.950    8.3202
    4.980    8.2851
    5.010    9.0398
    5.040    8.5308
    5.070    8.6361
    5.100    8.6888
    5.130    9.1452
    5.160    9.4787
    5.190    9.2856
    5.220    9.4787
    5.250   10.1457
    5.280   10.0404
    5.310   10.4616
    5.340    9.5664
    5.370    9.6191
    5.400   10.6547
    5.430   10.8654
    5.460   10.6723
    5.490   10.5494
    5.520   10.6196
    5.550   10.4265
    5.580   10.6021
    5.610   10.7425
    5.640   10.0755
    5.670   10.3212
    5.700   10.3388
    5.730    9.6718
    5.760    9.7771
    5.790    9.4611
    5.820    8.8468
    5.850    8.6010
    5.880    8.3026
    5.910    8.3377
    5.940    8.6010
    5.970    8.2324
    6.000    8.2675
    6.030    7.6356
    6.060    8.0042
    6.090    7.9516
    6.120    7.7760
    6.150    7.5478
    6.180    7.3723
    6.210    7.1617
    6.240    7.2494
    6.270    7.2670
    6.300    7.1792
    6.330    7.0739
    6.360    7.0915
    6.390    7.1968
    6.420    7.5303
    6.450    6.7755
    6.480    6.8457
    6.510    7.1090
    6.540    7.3372
    6.570    6.9510
    6.600    7.4601
    6.630    6.3718
    6.660    6.7228
    6.690    7.0563
    6.720    6.7579
    6.750    6.5824
    6.780    6.5824
    6.810    6.5649
    6.840    6.3893
    6.870    6.0734
    6.900    6.4069
    6.930    6.4069
    6.960    6.4595
    6.990    6.7579
    7.020    7.0388
    7.050    6.7755
    7.080    6.5649
    7.110    7.1090
    7.140    7.0563
    7.170    6.2138
    7.200    6.1260
    7.230    6.2313
    7.260    5.7223
    7.290    5.9681
    7.320    5.6872
    7.350    5.7925
    7.380    5.4064
    7.410    5.9681
    7.440    5.8978
    7.470    5.1255
    7.500    5.7399
    7.530    5.5819
    7.560    5.2835
    7.590    5.4415
    7.620    5.4766
    7.650    5.4590
    7.680    5.7223
    7.710    5.1957
    7.740    5.1080
    7.770    5.0553
    7.800    4.9675
    7.830    5.3010
    7.860    4.7744
    7.890    5.1782
    7.920    5.2835
    7.950    5.0202
    7.980    4.6340
    8.010    4.4058
    8.040    4.8798
    8.070    5.0728
    8.100    4.6165
    8.130    4.6867
    8.160    4.9851
    8.190    5.0202
    8.220    5.1957
    8.250    4.4936
    8.280    4.6516
    8.310    4.3707
    8.340    5.2659
    8.370    4.4760
    8.400    4.5287
    8.430    4.4936
    8.460    4.7042
    8.490    4.4936
    8.520    4.3707
    8.550    4.5111
    8.580    4.8447
    8.610    4.7218
    8.640    4.7218
    8.670    4.5638
    8.700    4.5814
    8.730    4.6165
    8.760    4.2478
    8.790    4.3181
    8.820    4.3532
    8.850    4.4234
    8.880    4.2654
    8.910    4.6340
    8.940    4.4058
    8.970    4.2478
    9.000    4.3883
    9.030    4.5111
    9.060    4.8447
    9.090    4.4936
    9.120    4.2830
    9.150    4.3707
    9.180    4.7393
    9.210    3.9670
    9.240    4.5287
    9.270    4.4409
    9.300    4.3883
    9.330    4.4585
    9.360    4.1250
    9.390    4.4585
    9.420    4.2478
    9.450    4.3181
    9.480    4.3883
    9.510    4.5638
    9.540    4.3707
    9.570    4.3181
    9.600    4.0723
    9.630    4.1250
    9.660    4.5989
    9.690    4.2654
    9.720    4.2654
    9.750    4.2830
    9.780    4.3707
    9.810    4.2654
    9.840    4.0021
    9.870    4.4760
    9.900    3.9494
    9.930    4.6165
    9.960    4.3707
    9.990    4.5111
   10.020    4.5814
   10.050    4.7920
   10.080    4.7393
   10.110    4.9851
   10.140    4.8973
   10.170    4.9500
   10.200    4.6516
   10.230    4.4936
   10.260    4.8798
   10.290    4.0899
   10.320    4.3883
   10.350    4.4760
   10.380    4.6516
   10.410    4.3532
   10.440    4.5814
   10.470    4.3707
   10.500    4.4234
   10.530    4.3532
   10.560    4.7744
   10.590    4.6691
   10.620    4.4936
   10.650    4.4234
   10.680    4.5463
   10.710    4.5287
   10.740    4.5638
   10.770    4.4760
   10.800    4.6340
   10.830    4.4760
   10.860    4.7744
   10.890    5.1255
   10.920    4.6691
   10.950    4.6867
   10.980    4.9324
   11.010    4.7744
   11.040    4.5463
   11.070    5.0553
   11.100    4.5463
   11.130    4.5287
   11.160    4.8271
   11.190    4.8622
   11.220    4.7569
   11.250    4.8622
   11.280    4.8095
   11.310    4.4409
   11.340    4.9149
   11.370    4.7042
   11.400    4.9675
   11.430    4.2127
   11.460    4.4409
   11.490    5.0202
   11.520    4.6867
   11.550    4.7569
   11.580    4.5287
   11.610    4.4760
   11.640    4.4936
   11.670    4.6165
   11.700    3.8968
   11.730    4.6165
   11.760    4.1601
   11.790    4.3181
   11.820    4.1425
   11.850    4.6165
   11.880    4.4585
   11.910    4.3356
   11.940    4.6691
   11.970    4.5989
   12.000    4.5814
   12.030    4.1776
   12.060    4.4058
   12.090    4.0723
   12.120    4.3356
   12.150    4.6165
   12.180    4.4409
   12.210    4.2830
   12.240    4.4585
   12.270    4.5989
   12.300    4.7569
   12.330    5.2484
   12.360    4.5287
   12.390    4.9500
   12.420    4.7920
   12.450    4.7218
   12.480    4.1074
   12.510    4.4585
   12.540    4.2127
   12.570    4.3532
   12.600    4.4234
   12.630    4.1425
   12.660    4.0548
   12.690    4.5989
   12.720    4.1250
   12.750    4.4936
   12.780    4.4058
   12.810    4.1952
   12.840    4.2303
   12.870    4.4760
   12.900    4.4585
   12.930    4.0899
   12.960    4.5287
   12.990    4.1425
   13.020    4.3532
   13.050    4.3883
   13.080    4.4234
   13.110    4.1425
   13.140    4.2830
   13.170    4.3356
   13.200    4.0899
   13.230    4.6165
   13.260    4.1250
   13.290    4.1952
   13.320    3.9319
   13.350    4.1425
   13.380    4.1776
   13.410    3.8266
   13.440    4.0372
   13.470    4.1776
   13.500    4.2303
   13.530    4.3707
   13.560    4.4234
   13.590    4.0723
   13.620    4.0899
   13.650    3.9494
   13.680    4.0372
   13.710    4.6867
   13.740    4.3181
   13.770    4.4936
   13.800    4.7042
   13.830    4.5814
   13.860    4.5638
   13.890    4.2654
   13.920    4.8271
   13.950    4.3005
   13.980    4.5814
   14.010    4.8271
   14.040    4.0899
   14.070    4.5287
   14.100    4.3707
   14.130    5.1606
   14.160    4.5111
   14.190    4.8973
   14.220    4.6165
   14.250    4.8447
   14.280    5.0202
   14.310    5.1431
   14.340    4.7744
   14.370    4.5638
   14.400    4.8622
   14.430    4.6867
   14.460    4.9851
   14.490    4.7042
   14.520    4.6516
   14.550    4.9500
   14.580    4.5989
   14.610    4.8798
   14.640    4.3883
   14.670    4.5287
   14.700    4.9851
   14.730    4.4760
   14.760    4.4760
   14.790    4.2654
   14.820    4.7744
   14.850    4.4760
   14.880    4.5989
   14.910    4.4058
   14.940    4.7920
   14.970    4.0723
   15.000    4.1776
   15.030    4.1250
   15.060    4.2830
   15.090    4.3005
   15.120    3.6510
   15.150    3.8968
   15.180    4.2127
   15.210    4.1074
   15.240    4.1250
   15.270    3.9319
   15.300    4.2303
   15.330    4.0548
   15.360    4.2478
   15.390    3.8968
   15.420    3.8441
   15.450    4.7920
   15.480    3.7739
   15.510    3.8968
   15.540    3.7388
   15.570    4.4585
   15.600    4.3356
   15.630    3.8617
   15.660    3.9319
   15.690    4.3532
   15.720    4.4058
   15.750    4.0197
   15.780    4.2127
   15.810    4.4760
   15.840    4.1425
   15.870    4.3707
   15.900    4.4585
   15.930    4.3356
   15.960    4.7393
   15.990    4.4409
   16.020    4.7569
   16.050    4.5989
   16.080    4.2127
   16.110    4.5638
   16.140    4.0372
   16.170    3.8968
   16.200    3.9670
   16.230    4.5287
   16.260    4.0548
   16.290    4.1601
   16.320    4.1425
   16.350    3.9846
   16.380    3.8792
   16.410    4.3707
   16.440    4.0723
   16.470    4.0723
   16.500    4.5989
   16.530    4.0021
   16.560    4.4409
   16.590    4.4058
   16.620    4.2830
   16.650    4.0372
   16.680    3.8792
   16.710    4.4409
   16.740    4.7218
   16.770    4.0548
   16.800    4.1425
   16.830    4.1250
   16.860    4.2830
   16.890    4.2303
   16.920    4.0723
   16.950    4.0021
   16.980    4.1776
   17.010    4.0372
   17.040    4.1074
   17.070    3.8090
   17.100    4.0899
   17.130    4.6867
   17.160    4.2127
   17.190    4.2303
   17.220    3.9670
   17.250    3.7739
   17.280    3.7388
   17.310    3.9846
   17.340    3.9494
   17.370    3.9319
   17.400    4.3005
   17.430    3.9143
   17.460    4.3356
   17.490    3.5106
   17.520    4.0548
   17.550    4.2478
   17.580    3.5808
   17.610    3.8441
   17.640    4.3532
   17.670    4.0548
   17.700    3.7739
   17.730    4.1250
   17.760    4.0548
   17.790    4.2830
   17.820    4.5463
   17.850    3.9319
   17.880    4.0372
   17.910    4.1601
   17.940    3.7915
   17.970    4.3181
   18.000    3.7564
   18.030    3.9319
   18.060    3.9670
   18.090    4.2654
   18.120    3.8968
   18.150    3.7388
   18.180    4.0021
   18.210    4.3005
   18.240    4.4585
   18.270    3.9319
   18.300    3.9143
   18.330    3.8090
   18.360    4.3532
   18.390    4.1601
   18.420    3.7915
   18.450    4.1776
   18.480    4.5989
   18.510    3.9670
   18.540    4.2478
   18.570    3.5633
   18.600    3.8792
   18.630    4.1952
   18.660    4.2303
   18.690    4.1074
   18.720    4.2830
   18.750    3.6862
   18.780    4.4058
   18.810    3.9494
   18.840    4.0723
   18.870    4.1250
   18.900    4.1425
   18.930    4.0372
   18.960    3.9494
   18.990    4.1952
   19.020    3.9846
   19.050    4.0372
   19.080    4.1074
   19.110    3.6862
   19.140    4.0723
   19.170    3.9846
   19.200    4.2478
   19.230    4.0372
   19.260    4.2654
   19.290    4.0899
   19.320    4.1952
   19.350    4.1074
   19.380    4.1952
   19.410    3.8792
   19.440    3.8441
   19.470    3.7915
   19.500    3.7388
   19.530    3.8968
   19.560    3.6335
   19.590    4.3356
   19.620    3.7388
   19.650    4.0548
   19.680    3.6686
   19.710    3.6510
   19.740    3.7037
   19.770    3.7213
   19.800    4.0723
   19.830    3.7213
   19.860    3.8266
   19.890    3.9319
   19.920    3.7739
   19.950    4.2478
   19.980    3.8617
   20.010    3.8266
   20.040    3.7388
   20.070    3.5633
   20.100    3.8968
   20.130    3.7037
   20.160    3.8266
   20.190    3.6686
   20.220    3.7915
   20.250    3.6862
   20.280    3.8090
   20.310    3.5808
   20.340    3.9846
   20.370    3.7213
   20.400    3.6862
   20.430    3.9143
   20.460    3.6335
   20.490    3.9494
   20.520    3.5984
   20.550    3.7037
   20.580    3.1420
   20.610    3.4931
   20.640    3.4580
   20.670    3.4931
   20.700    3.8617
   20.730    3.7564
   20.760    3.4404
   20.790    3.3702
   20.820    3.8441
   20.850    3.3175
   20.880    3.0016
   20.910    3.4229
   20.940    3.4580
   20.970    3.7037
   21.000    3.1245
   21.030    3.6159
   21.060    3.5457
   21.090    3.6159
   21.120    3.5457
   21.150    3.4931
   21.180    3.9143
   21.210    3.8968
   21.240    3.7915
   21.270    3.5984
   21.300    3.5633
   21.330    3.4580
   21.360    3.3351
   21.390    3.7037
   21.420    3.4580
   21.450    3.6510
   21.480    3.7915
   21.510    3.6862
   21.540    3.5633
   21.570    3.6862
   21.600    4.0372
   21.630    3.9846
   21.660    4.1074
   21.690    3.7564
   21.720    3.2298
   21.750    3.4931
   21.780    3.1245
   21.810    3.2122
   21.840    3.8441
   21.870    3.0718
   21.900    3.5282
   21.930    3.4404
   21.960    3.5808
   21.990    3.2824
   22.020    3.3702
   22.050    3.5633
   22.080    3.6335
   22.110    3.3526
   22.140    3.2122
   22.170    3.1245
   22.200    3.2298
   22.230    3.3702
   22.260    3.3526
   22.290    3.4053
   22.320    3.6159
   22.350    3.4755
   22.380    3.0542
   22.410    3.1947
   22.440    3.2824
   22.470    3.1069
   22.500    3.3702
   22.530    2.9489
   22.560    3.3000
   22.590    3.2473
   22.620    3.2473
   22.650    3.2824
   22.680    3.4229
   22.710    3.2473
   22.740    3.1420
   22.770    3.3526
   22.800    3.7213
   22.830    3.1596
   22.860    3.5633
   22.890    3.1245
   22.920    3.0191
   22.950    3.4755
   22.980    2.8963
   23.010    3.0367
   23.040    2.8436
   23.070    3.0016
   23.100    3.1947
   23.130    3.1947
   23.160    3.2473
   23.190    3.1947
   23.220    3.2122
   23.250    3.1947
   23.280    3.4755
   23.310    3.3351
   23.340    2.8612
   23.370    3.3877
   23.400    3.2473
   23.430    2.8612
   23.460    2.8787
   23.490    3.0191
   23.520    3.2824
   23.550    3.2298
   23.580    2.7383
   23.610    3.4580
   23.640    3.2122
   23.670    2.9840
   23.700    3.2473
   23.730    3.1771
   23.760    3.2298
   23.790    3.2824
   23.820    2.8787
   23.850    2.9489
   23.880    3.4755
   23.910    3.8968
   23.940    3.6862
   23.970    3.0718
   24.000    3.2298
   24.030    3.3877
   24.060    3.0542
   24.090    3.4053
   24.120    2.9489
   24.150    2.7032
   24.180    2.7734
   24.210    2.8612
   24.240    3.0191
   24.270    3.1947
   24.300    2.9840
   24.330    3.0191
   24.360    2.9665
   24.390    2.9665
   24.420    2.5803
   24.450    2.7383
   24.480    3.1947
   24.510    2.8085
   24.540    2.9138
   24.570    3.0718
   24.600    3.0542
   24.630    3.1771
   24.660    3.0367
   24.690    2.6330
   24.720    2.9138
   24.750    3.0016
   24.780    2.9314
   24.810    2.8436
   24.840    3.1069
   24.870    2.5979
   24.900    2.8787
   24.930    2.7734
   24.960    3.0191
   24.990    2.9314
   25.020    2.6505
   25.050    2.7909
   25.080    3.0367
   25.110    3.0542
   25.140    2.8436
   25.170    2.7207
   25.200    2.8963
   25.230    2.7207
   25.260    2.9489
   25.290    2.7383
   25.320    2.8963
   25.350    2.8612
   25.380    2.8963
   25.410    2.7734
   25.440    3.0191
   25.470    2.7909
   25.500    2.6681
   25.530    3.1771
   25.560    2.9489
   25.590    2.6681
   25.620    3.0191
   25.650    2.8787
   25.680    2.9138
   25.710    3.0542
   25.740    2.8787
   25.770    3.0893
   25.800    2.4750
   25.830    2.8260
   25.860    2.6856
   25.890    2.8085
   25.920    2.9314
   25.950    2.5452
   25.980    2.8085
   26.010    2.8963
   26.040    3.0893
   26.070    3.2473
   26.100    2.9840
   26.130    2.7032
   26.160    2.9665
   26.190    2.9840
   26.220    2.5628
   26.250    3.1245
   26.280    2.5628
   26.310    2.6681
   26.340    2.6505
   26.370    2.9314
   26.400    2.6154
   26.430    2.5101
   26.460    2.7909
   26.490    2.2819
   26.520    2.6505
   26.550    2.4574
   26.580    2.8787
   26.610    2.7909
   26.640    2.8436
   26.670    2.5628
   26.700    2.6154
   26.730    2.4223
   26.760    2.5628
   26.790    2.7734
   26.820    2.7383
   26.850    2.3697
   26.880    2.5276
   26.910    2.6505
   26.940    2.4048
   26.970    2.4574
   27.000    2.8787
   27.030    2.9138
   27.060    2.7558
   27.090    3.1420
   27.120    2.7909
   27.150    2.5628
   27.180    2.6681
   27.210    2.8436
   27.240    2.4574
   27.270    2.5803
   27.300    2.2819
   27.330    2.4925
   27.360    2.3521
   27.390    2.4925
   27.420    2.3521
   27.450    2.3872
   27.480    2.7383
   27.510    2.4399
   27.540    2.3346
   27.570    2.5452
   27.600    2.4048
   27.630    2.4399
   27.660    2.4925
   27.690    2.3170
   27.720    2.2995
   27.750    2.3697
   27.780    2.6681
   27.810    2.6330
   27.840    2.5276
   27.870    2.5803
   27.900    2.2468
   27.930    2.4925
   27.960    2.5979
   27.990    2.0011
   28.020    2.5452
   28.050    2.2292
   28.080    2.1766
   28.110    2.7909
   28.140    2.5276
   28.170    2.4925
   28.200    2.2643
   28.230    2.4750
   28.260    2.3346
   28.290    2.4750
   28.320    2.1239
   28.350    2.4574
   28.380    2.4574
   28.410    2.3697
   28.440    2.1766
   28.470    2.3346
   28.500    2.1941
   28.530    2.2468
   28.560    2.4223
   28.590    2.2292
   28.620    2.3346
   28.650    2.1590
   28.680    2.2468
   28.710    2.3346
   28.740    2.3521
   28.770    2.1415
   28.800    2.3346
   28.830    2.4750
   28.860    2.3170
   28.890    2.3170
   28.920    2.5276
   28.950    2.4925
   28.980    2.3697
   29.010    2.2643
   29.040    2.2819
   29.070    2.4925
   29.100    2.6505
   29.130    2.6856
   29.160    2.4399
   29.190    2.2117
   29.220    2.4048
   29.250    2.1941
   29.280    2.2995
   29.310    2.3521
   29.340    2.0186
   29.370    2.2292
   29.400    2.1941
   29.430    2.1941
   29.460    2.0888
   29.490    1.9659
   29.520    2.0186
   29.550    1.8431
   29.580    2.2117
   29.610    2.3872
   29.640    2.0011
   29.670    2.2117
   29.700    2.0011
   29.730    2.1064
   29.760    1.8431
   29.790    2.2643
   29.820    2.3346
   29.850    2.5628
   29.880    2.8963
   29.910    3.0191
   29.940    2.5452
   29.970    2.2292
   30.000    2.1239
   30.030    2.1064
   30.060    2.0537
   30.090    2.1766
   30.120    2.1766
   30.150    1.9659
   30.180    1.7378
   30.210    1.8255
   30.240    1.9835
   30.270    2.0011
   30.300    2.1766
   30.330    2.2292
   30.360    1.8606
   30.390    2.0713
   30.420    2.2292
   30.450    2.0011
   30.480    1.9835
   30.510    2.0362
   30.540    2.1941
   30.570    2.0011
   30.600    2.0011
   30.630    2.4048
   30.660    1.8957
   30.690    2.0362
   30.720    1.5973
   30.750    2.3170
   30.780    2.0537
   30.810    2.0362
   30.840    2.0011
   30.870    1.9133
   30.900    1.7553
   30.930    2.1941
   30.960    1.8255
   30.990    2.0362
   31.020    1.8255
   31.050    1.8782
   31.080    1.7904
   31.110    2.0011
   31.140    1.9133
   31.170    1.7202
   31.200    1.8431
   31.230    1.8606
   31.260    1.8431
   31.290    1.6675
   31.320    1.8080
   31.350    1.5973
   31.380    1.7378
   31.410    1.9133
   31.440    1.3867
   31.470    1.7553
   31.500    1.5447
   31.530    1.5973
   31.560    1.9308
   31.590    1.5798
   31.620    1.4745
   31.650    1.7378
   31.680    1.5447
   31.710    1.8782
   31.740    1.8255
   31.770    1.7027
   31.800    1.7202
   31.830    1.8255
   31.860    1.7027
   31.890    1.9659
   31.920    1.8606
   31.950    1.9308
   31.980    1.7027
   32.010    1.7904
   32.040    1.5622
   32.070    1.4394
   32.100    1.7378
   32.130    1.4920
   32.160    1.7729
   32.190    1.7553
   32.220    1.7202
   32.250    1.5096
   32.280    1.6324
   32.310    1.7904
   32.340    1.7378
   32.370    1.5973
   32.400    1.4920
   32.430    1.8255
   32.460    1.7729
   32.490    2.1941
   32.520    1.8431
   32.550    1.9308
   32.580    1.6149
   32.610    1.6675
   32.640    1.7027
   32.670    1.9659
   32.700    1.6675
   32.730    1.3516
   32.760    1.3165
   32.790    1.8606
   32.820    1.6149
   32.850    1.6851
   32.880    1.8080
   32.910    1.6149
   32.940    1.8255
   32.970    1.3691
   33.000    1.5798
   33.030    1.6324
   33.060    1.3691
   33.090    1.6324
   33.120    1.5973
   33.150    1.5798
   33.180    1.4218
   33.210    1.3691
   33.240    1.6149
   33.270    1.5096
   33.300    1.8080
   33.330    1.4920
   33.360    1.3516
   33.390    1.5096
   33.420    1.6149
   33.450    1.7027
   33.480    1.7378
   33.510    1.4394
   33.540    1.3867
   33.570    1.4569
   33.600    1.3165
   33.630    1.4569
   33.660    1.4745
   33.690    1.2638
   33.720    1.4745
   33.750    1.5447
   33.780    1.4569
   33.810    1.2638
   33.840    1.4920
   33.870    1.4042
   33.900    1.6324
   33.930    1.4042
   33.960    1.5798
   33.990    1.4394
   34.020    1.4569
   34.050    1.4218
   34.080    1.8431
   34.110    1.8080
   34.140    1.7553
   34.170    1.7027
   34.200    1.7553
   34.230    1.3691
   34.260    1.4394
   34.290    1.2814
   34.320    1.5973
   34.350    1.1761
   34.380    1.4569
   34.410    1.3867
   34.440    1.5271
   34.470    1.6324
   34.500    1.7904
   34.530    1.5271
   34.560    1.5973
   34.590    1.7027
   34.620    1.4745
   34.650    1.4394
   34.680    1.2463
   34.710    1.4569
   34.740    1.3691
   34.770    1.4920
   34.800    1.3165
   34.830    1.5622
   34.860    1.4218
   34.890    1.4042
   34.920    1.5798
   34.950    1.4745
   34.980    1.3691
   35.010    1.4042
   35.040    1.6149
   35.070    1.5447
   35.100    1.4042
   35.130    1.5271
   35.160    1.2112
   35.190    1.3340
   35.220    1.2638
   35.250    1.1410
   35.280    1.2638
   35.310    1.4042
   35.340    1.4042
   35.370    1.5271
   35.400    1.3516
   35.430    1.1585
   35.460    1.3516
   35.490    1.5622
   35.520    1.3516
   35.550    1.3516
   35.580    1.6675
   35.610    1.3691
   35.640    1.4394
   35.670    1.3165
   35.700    1.6500
   35.730    1.4569
   35.760    1.5096
   35.790    1.4920
   35.820    1.4745
   35.850    1.2638
   35.880    1.3691
   35.910    1.2287
   35.940    1.2287
   35.970    1.1936
   36.000    1.4920
   36.030    1.4745
   36.060    1.5622
   36.090    1.2989
   36.120    1.2989
   36.150    1.6324
   36.180    1.4745
   36.210    1.3867
   36.240    1.2463
   36.270    1.6675
   36.300    1.2463
   36.330    1.3691
   36.360    1.6149
   36.390    1.5622
   36.420    1.3691
   36.450    1.2638
   36.480    1.3867
   36.510    1.4569
   36.540    1.4920
   36.570    1.2463
   36.600    1.4218
   36.630    1.2989
   36.660    1.4218
   36.690    1.4042
   36.720    1.2287
   36.750    1.4394
   36.780    1.4394
   36.810    1.3340
   36.840    1.2638
   36.870    1.4569
   36.900    1.5447
   36.930    1.2112
   36.960    1.6324
   36.990    1.2112
   37.020    1.2463
   37.050    1.2463
   37.080    1.3867
   37.110    1.2638
   37.140    1.4218
   37.170    1.5271
   37.200    1.3516
   37.230    1.5447
   37.260    1.4569
   37.290    1.2638
   37.320    1.2989
   37.350    1.2814
   37.380    1.3340
   37.410    1.1761
   37.440    1.3867
   37.470    1.4920
   37.500    1.2287
   37.530    1.3867
   37.560    1.1585
   37.590    1.2112
   37.620    1.2989
   37.650    1.4394
   37.680    1.3340
   37.710    1.2989
   37.740    1.3691
   37.770    1.4394
   37.800    1.4042
   37.830    1.2814
   37.860    1.2989
   37.890    1.2989
   37.920    1.1761
   37.950    1.2287
   37.980    1.1410
   38.010    1.4042
   38.040    1.4218
   38.070    1.2463
   38.100    1.4218
   38.130    1.3340
   38.160    1.4394
   38.190    1.4394
   38.220    1.2463
   38.250    1.2638
   38.280    1.0883
   38.310    1.2287
   38.340    1.2463
   38.370    1.3516
   38.400    1.4745
   38.430    1.1058
   38.460    1.1410
   38.490    1.2287
   38.520    1.3340
   38.550    1.2989
   38.580    1.1234
   38.610    1.0707
   38.640    1.1761
   38.670    1.1234
   38.700    1.3516
   38.730    1.3867
   38.760    1.2989
   38.790    1.2814
   38.820    1.2463
   38.850    1.1410
   38.880    1.2638
   38.910    1.2638
   38.940    1.1585
   38.970    1.2287
   39.000    1.2463
   39.030    1.3516
   39.060    1.1234
   39.090    1.0883
   39.120    1.0532
   39.150    1.3165
   39.180    0.9830
   39.210    1.0707
   39.240    1.2287
   39.270    1.4218
   39.300    1.2814
   39.330    1.1761
   39.360    1.4218
   39.390    1.2814
   39.420    1.1585
   39.450    1.3165
   39.480    1.3691
   39.510    1.0532
   39.540    1.2112
   39.570    1.3516
   39.600    1.4042
   39.630    1.0707
   39.660    1.4218
   39.690    1.3165
   39.720    1.3340
   39.750    1.1936
   39.780    1.0883
   39.810    1.1234
   39.840    0.9830
   39.870    1.2638
   39.900    1.3165
   39.930    1.1058
   39.960    1.3691
   39.990    1.0883