File: data/PXRD/PXRD_KE-048-1-2_Cu-Ka1_capillary-1mm_5s-deg.xyd
    1.500   32.7541
    1.515   32.7857
    1.530   32.7225
    1.545   32.7225
    1.560   31.8483
    1.575   30.5845
    1.590   31.5429
    1.605   31.0690
    1.620   30.3212
    1.635   30.6582
    1.650   29.8789
    1.665   29.1943
    1.680   28.5835
    1.695   29.4681
    1.710   30.1632
    1.725   30.1001
    1.740   29.2575
    1.755   29.3418
    1.770   29.2680
    1.785   28.8468
    1.800   28.0885
    1.815   28.3202
    1.830   28.1306
    1.845   29.2259
    1.860   28.0147
    1.875   27.8989
    1.890   27.6883
    1.905   27.6883
    1.920   27.7830
    1.935   27.7620
    1.950   27.1406
    1.965   27.6040
    1.980   27.8989
    1.995   27.5408
    2.010   26.3928
    2.025   27.0458
    2.040   27.1090
    2.055   27.2249
    2.070   27.8041
    2.085   27.1722
    2.100   27.0669
    2.115   27.7409
    2.130   28.2359
    2.145   27.9094
    2.160   27.7830
    2.175   28.0253
    2.190   27.9621
    2.205   27.9200
    2.220   28.8257
    2.235   29.0047
    2.250   29.2891
    2.265   28.8678
    2.280   29.0995
    2.295   29.9105
    2.310   29.1417
    2.325   29.3207
    2.340   30.3212
    2.355   29.6788
    2.370   30.1316
    2.385   29.6893
    2.400   29.8894
    2.415   30.6372
    2.430   31.0795
    2.445   31.1743
    2.460   31.8694
    2.475   32.7751
    2.490   33.6388
    2.505   33.7125
    2.520   33.7335
    2.535   34.3865
    2.550   34.5656
    2.565   35.3133
    2.580   35.7557
    2.595   34.9447
    2.610   35.7030
    2.625   37.6830
    2.640   37.4092
    2.655   38.1569
    2.670   38.9889
    2.685   39.5155
    2.700   41.1480
    2.715   40.8320
    2.730   42.6119
    2.745   43.1385
    2.760   43.4755
    2.775   43.8968
    2.790   45.0869
    2.805   45.2659
    2.820   46.4455
    2.835   48.8468
    2.850   48.9731
    2.865   49.8789
    2.880   52.0063
    2.895   52.0906
    2.910   52.8278
    2.925   55.1764
    2.940   56.9142
    2.955   57.6303
    2.970   59.6525
    2.985   60.6740
    3.000   60.9795
    3.015   63.8125
    3.030   66.1295
    3.045   67.6988
    3.060   70.2580
    3.075   73.3649
    3.090   75.4502
    3.105   76.8826
    3.120   78.3886
    3.135   80.5687
    3.150   86.0032
    3.165   88.8784
    3.180   92.3433
    3.195   95.9242
    3.210   98.5150
    3.225  103.1490
    3.240  105.8347
    3.255  111.6904
    3.270  115.5240
    3.285  120.5793
    3.300  129.1943
    3.315  135.6293
    3.330  141.6114
    3.345  150.1949
    3.360  161.1901
    3.375  169.2154
    3.390  180.2738
    3.405  193.4703
    3.420  210.9637
    3.435  227.4987
    3.450  245.6556
    3.465  256.3876
    3.480  260.0527
    3.495  252.1327
    3.510  233.3544
    3.525  206.8141
    3.540  175.2607
    3.555  145.9189
    3.570  122.6540
    3.585  108.3202
    3.600   96.9984
    3.615   93.1754
    3.630   92.0800
    3.645   91.2586
    3.660   91.1322
    3.675   94.0706
    3.690   95.4292
    3.705   99.5577
    3.720  103.7915
    3.735  107.0774
    3.750  113.7336
    3.765  120.1685
    3.780  125.9400
    3.795  132.5961
    3.810  141.3165
    3.825  151.9431
    3.840  162.8225
    3.855  177.7778
    3.870  188.4676
    3.885  202.4118
    3.900  208.2149
    3.915  207.6883
    3.930  203.2228
    3.945  187.4776
    3.960  162.9173
    3.975  134.7762
    3.990  109.5419
    4.005   91.6904
    4.020   77.3670
    4.035   65.2870
    4.050   55.2712
    4.065   46.2559
    4.080   38.7046
    4.095   34.4708
    4.110   31.3533
    4.125   26.9510
    4.140   24.1074
    4.155   21.9589
    4.170   21.2744
    4.185   19.3681
    4.200   17.8831
    4.215   16.7878
    4.230   15.7767
    4.245   14.9236
    4.260   13.4492
    4.275   13.7862
    4.290   13.8494
    4.305   13.5018
    4.320   12.4908
    4.335   12.1748
    4.350   11.9958
    4.365   11.6272
    4.380   11.6272
    4.395   11.1216
    4.410   11.1111
    4.425   11.1216
    4.440   11.1638
    4.455   10.4265
    4.470   10.7636
    4.485   10.7636
    4.500   10.8478
    4.515   10.2686
    4.530   10.5108
    4.545   10.1316
    4.560   10.7109
    4.575   10.3739
    4.590    9.6788
    4.605    9.3839
    4.620    9.4787
    4.635    9.4681
    4.650    9.4260
    4.665    9.5103
    4.680    9.4050
    4.695    9.2470
    4.710    8.7836
    4.725    9.5208
    4.740    9.7841
    4.755    9.2154
    4.770    8.8152
    4.785    9.2575
    4.800    9.3523
    4.815    8.6783
    4.830    9.3418
    4.845    9.0469
    4.860    9.6682
    4.875    9.8894
    4.890    9.4155
    4.905    9.2364
    4.920    9.1522
    4.935    9.3207
    4.950    9.6682
    4.965    9.2154
    4.980    9.5945
    4.995   10.1948
    5.010    9.3944
    5.025    9.7946
    5.040    9.9737
    5.055   10.0685
    5.070    9.4471
    5.085    9.7209
    5.100   10.0685
    5.115    9.9947
    5.130   10.3844
    5.145   10.8268
    5.160   11.1954
    5.175   10.5845
    5.190   10.6161
    5.205   10.9742
    5.220   11.0900
    5.235   11.1322
    5.250   11.2796
    5.265   11.3744
    5.280   11.4692
    5.295   11.5113
    5.310   12.0274
    5.325   12.1327
    5.340   12.6488
    5.355   12.3012
    5.370   12.8805
    5.385   13.2912
    5.400   13.3123
    5.415   14.2496
    5.430   13.9758
    5.445   14.4497
    5.460   16.0506
    5.475   16.7562
    5.490   18.4729
    5.505   19.7367
    5.520   21.4850
    5.535   23.5176
    5.550   23.0226
    5.565   21.4323
    5.580   17.7988
    5.595   13.0490
    5.610   10.1211
    5.625    8.8362
    5.640    8.5308
    5.655    8.2359
    5.670    8.0358
    5.685    7.8041
    5.700    7.9410
    5.715    7.8146
    5.730    8.4887
    5.745    8.1306
    5.760    8.1517
    5.775    7.6672
    5.790    7.6672
    5.805    7.8146
    5.820    8.4255
    5.835    7.7725
    5.850    8.0569
    5.865    8.2254
    5.880    7.9094
    5.895    8.2359
    5.910    7.5829
    5.925    7.6356
    5.940    7.7514
    5.955    7.9516
    5.970    8.0779
    5.985    8.1833
    6.000    8.2149
    6.015    7.9937
    6.030    8.2886
    6.045    8.2254
    6.060    7.8462
    6.075    7.9516
    6.090    8.0358
    6.105    8.0463
    6.120    8.4887
    6.135    8.2043
    6.150    7.9937
    6.165    8.4466
    6.180    8.5940
    6.195    8.7730
    6.210    8.3834
    6.225    8.7414
    6.240    8.8468
    6.255    8.6572
    6.270    8.7204
    6.285    8.8889
    6.300    9.0679
    6.315    8.9521
    6.330    8.7730
    6.345    9.2786
    6.360    9.1732
    6.375   10.1632
    6.390   10.0474
    6.405   10.0053
    6.420   10.0685
    6.435   10.7004
    6.450   10.5003
    6.465   10.3107
    6.480   10.9005
    6.495   10.8478
    6.510   11.5113
    6.525   11.6377
    6.540   12.2486
    6.555   12.1748
    6.570   12.9753
    6.585   12.5118
    6.600   13.1227
    6.615   13.5756
    6.630   14.1548
    6.645   14.5234
    6.660   15.0500
    6.675   16.1559
    6.690   17.0511
    6.705   17.7988
    6.720   18.0095
    6.735   19.7578
    6.750   20.6214
    6.765   21.3691
    6.780   22.9595
    6.795   23.7283
    6.810   24.2654
    6.825   25.4450
    6.840   26.5824
    6.855   27.8884
    6.870   29.3102
    6.885   31.5219
    6.900   34.8605
    6.915   36.9036
    6.930   39.8631
    6.945   42.9173
    6.960   45.2133
    6.975   45.6661
    6.990   44.8763
    7.005   41.2533
    7.020   35.8083
    7.035   30.5845
    7.050   25.8662
    7.065   21.5482
    7.080   17.6198
    7.095   15.1448
    7.110   13.0384
    7.125   11.9115
    7.140   11.2902
    7.155   11.2059
    7.170   10.5845
    7.185   10.5740
    7.200    9.9315
    7.215   10.9531
    7.230    9.7209
    7.245   10.0369
    7.260    9.8894
    7.275    9.8368
    7.290   10.1738
    7.305   10.4687
    7.320   10.5740
    7.335   10.3528
    7.350   11.0479
    7.365   11.1216
    7.380   10.7214
    7.395   11.3007
    7.410   11.3849
    7.425   12.1327
    7.440   11.8483
    7.455   12.2801
    7.470   12.3433
    7.485   12.5329
    7.500   12.8699
    7.515   13.2701
    7.530   14.2075
    7.545   14.1548
    7.560   14.5972
    7.575   15.6819
    7.590   16.6403
    7.605   18.0411
    7.620   18.7151
    7.635   18.9889
    7.650   19.5366
    7.665   21.3691
    7.680   22.5803
    7.695   23.9810
    7.710   25.2343
    7.725   27.2775
    7.740   28.6783
    7.755   31.3955
    7.770   33.4176
    7.785   34.8394
    7.800   35.4186
    7.815   36.9352
    7.830   38.5255
    7.845   38.5571
    7.860   38.1253
    7.875   37.0616
    7.890   35.4608
    7.905   32.0169
    7.920   30.1211
    7.935   27.4039
    7.950   25.6556
    7.965   24.0548
    7.980   21.5377
    7.995   20.0316
    8.010   18.9258
    8.025   16.6614
    8.040   14.8183
    8.055   14.1969
    8.070   13.6809
    8.085   12.7541
    8.100   12.4697
    8.115   11.4481
    8.130   10.8268
    8.145   10.7846
    8.160   10.2159
    8.175    9.3734
    8.190    8.9521
    8.205    9.1417
    8.220    9.0785
    8.235    8.8784
    8.250    9.5419
    8.265    8.7730
    8.280    8.3834
    8.295    8.1517
    8.310    8.5940
    8.325    8.3834
    8.340    8.6361
    8.355    8.5308
    8.370    8.0779
    8.385    8.1306
    8.400    8.0674
    8.415    8.0569
    8.430    7.9410
    8.445    8.1201
    8.460    7.8462
    8.475    8.1727
    8.490    7.5408
    8.505    7.2880
    8.520    7.4882
    8.535    7.6356
    8.550    7.6567
    8.565    7.4460
    8.580    7.5408
    8.595    7.4882
    8.610    7.5935
    8.625    7.2670
    8.640    7.6672
    8.655    7.1406
    8.670    7.5408
    8.685    7.3302
    8.700    7.4250
    8.715    7.3512
    8.730    7.4776
    8.745    7.6567
    8.760    7.5724
    8.775    7.9200
    8.790    7.5092
    8.805    7.8357
    8.820    7.1195
    8.835    7.4987
    8.850    7.3723
    8.865    7.2986
    8.880    7.1617
    8.895    7.0879
    8.910    7.0037
    8.925    6.6667
    8.940    7.0774
    8.955    6.9510
    8.970    7.3512
    8.985    7.0985
    9.000    7.2143
    9.015    7.0563
    9.030    7.2143
    9.045    7.0353
    9.060    6.6140
    9.075    7.7725
    9.090    7.3618
    9.105    7.1933
    9.120    7.1722
    9.135    7.4566
    9.150    7.4250
    9.165    7.1722
    9.180    7.0985
    9.195    7.4039
    9.210    7.4671
    9.225    7.3934
    9.240    7.4776
    9.255    7.3407
    9.270    7.4039
    9.285    7.5092
    9.300    7.1617
    9.315    7.0669
    9.330    7.5619
    9.345    8.0569
    9.360    7.9621
    9.375    7.6251
    9.390    7.8357
    9.405    8.3939
    9.420    8.4571
    9.435    8.0042
    9.450    8.3096
    9.465    8.5940
    9.480    8.7309
    9.495    9.1943
    9.510    9.8894
    9.525   10.3318
    9.540   10.7004
    9.555   11.7641
    9.570   11.9747
    9.585   13.8915
    9.600   14.1022
    9.615   13.5650
    9.630   13.1332
    9.645   11.8905
    9.660    9.9526
    9.675    8.6361
    9.690    7.8041
    9.705    7.4460
    9.720    7.4039
    9.735    7.2143
    9.750    7.2670
    9.765    7.4882
    9.780    7.3091
    9.795    7.4355
    9.810    7.0458
    9.825    6.8562
    9.840    6.9194
    9.855    7.1827
    9.870    6.9089
    9.885    6.9089
    9.900    6.9194
    9.915    7.5724
    9.930    7.3723
    9.945    7.2880
    9.960    7.2143
    9.975    7.6777
    9.990    7.6461
   10.005    7.6567
   10.020    7.5513
   10.035    7.5092
   10.050    7.3512
   10.065    7.1933
   10.080    7.3512
   10.095    7.2038
   10.110    7.4250
   10.125    7.4250
   10.140    7.2986
   10.155    7.4144
   10.170    7.6777
   10.185    7.5619
   10.200    7.5303
   10.215    8.2570
   10.230    8.1727
   10.245    7.7620
   10.260    7.7304
   10.275    8.2780
   10.290    8.2570
   10.305    8.6783
   10.320    8.2991
   10.335    8.7730
   10.350    9.3839
   10.365    9.6051
   10.380    9.5419
   10.395   10.1948
   10.410    9.4787
   10.425    8.8468
   10.440    8.9837
   10.455    8.3939
   10.470    8.2675
   10.485    8.7730
   10.500    8.7625
   10.515    8.0042
   10.530    7.7304
   10.545    7.6040
   10.560    7.6145
   10.575    7.6883
   10.590    7.4144
   10.605    7.4671
   10.620    7.2775
   10.635    7.4460
   10.650    7.4566
   10.665    7.5513
   10.680    7.5935
   10.695    7.2354
   10.710    7.7304
   10.725    7.7199
   10.740    7.3512
   10.755    7.5935
   10.770    7.5724
   10.785    7.7725
   10.800    7.4987
   10.815    7.7199
   10.830    7.7830
   10.845    7.3828
   10.860    7.7514
   10.875    7.4460
   10.890    7.7830
   10.905    7.5197
   10.920    7.8041
   10.935    8.1095
   10.950    8.2780
   10.965    7.6672
   10.980    8.2780
   10.995    7.8989
   11.010    8.2886
   11.025    8.5097
   11.040    8.5729
   11.055    8.5729
   11.070    9.0363
   11.085    9.7314
   11.100    9.3628
   11.115    9.0890
   11.130    9.0574
   11.145    8.4044
   11.160    8.1517
   11.175    8.2675
   11.190    7.7725
   11.205    7.3828
   11.220    7.8462
   11.235    7.7304
   11.250    7.7725
   11.265    7.2459
   11.280    7.9094
   11.295    7.5303
   11.310    7.5092
   11.325    7.4671
   11.340    7.5197
   11.355    7.9937
   11.370    7.4776
   11.385    7.7093
   11.400    8.2464
   11.415    7.9937
   11.430    7.8252
   11.445    8.0885
   11.460    8.0990
   11.475    7.9831
   11.490    8.6151
   11.505    8.6783
   11.520    8.6783
   11.535    8.4992
   11.550    9.0363
   11.565    8.5835
   11.580    9.6788
   11.595    9.1417
   11.610    9.2364
   11.625    9.5524
   11.640    9.7525
   11.655    9.5735
   11.670    9.7420
   11.685   10.8583
   11.700   10.4265
   11.715   10.4897
   11.730   10.5003
   11.745   11.2586
   11.760   11.7114
   11.775   12.0063
   11.790   11.6588
   11.805   11.1532
   11.820   10.7952
   11.835   10.2159
   11.850   10.1316
   11.865    9.8789
   11.880    9.5419
   11.895    9.3734
   11.910    9.0363
   11.925    9.0047
   11.940    9.1732