File: data/PXRD/PXRD_KE-049_Cu-Ka1_capillary-1mm_5s-deg.xyd
    1.500   24.9184
    1.530   24.8236
    1.560   24.6761
    1.590   24.9078
    1.620   22.7488
    1.650   22.7804
    1.680   22.3065
    1.710   23.0016
    1.740   22.4434
    1.770   22.0537
    1.800   22.1064
    1.830   22.5382
    1.860   22.0748
    1.890   22.4118
    1.920   22.3697
    1.950   21.2006
    1.980   21.9273
    2.010   21.5166
    2.040   21.3586
    2.070   21.3165
    2.100   21.6746
    2.130   22.0853
    2.160   21.0005
    2.190   22.9805
    2.220   22.5171
    2.250   22.5171
    2.280   23.0858
    2.310   23.7704
    2.340   23.9810
    2.370   23.7493
    2.400   25.0974
    2.430   24.6656
    2.460   24.9605
    2.490   25.9189
    2.520   26.8773
    2.550   27.6251
    2.580   29.0995
    2.610   29.4155
    2.640   30.2791
    2.670   31.0374
    2.700   31.4587
    2.730   32.9647
    2.760   33.7125
    2.790   35.8610
    2.820   37.1564
    2.850   38.9047
    2.880   40.4634
    2.910   41.8957
    2.940   44.0548
    2.970   46.0769
    3.000   48.3728
    3.030   50.8689
    3.060   54.8394
    3.090   57.8410
    3.120   61.3376
    3.150   65.3397
    3.180   70.6161
    3.210   74.4602
    3.240   81.3902
    3.270   89.2470
    3.300   98.0305
    3.330  106.0874
    3.360  120.1369
    3.390  135.9137
    3.420  156.7562
    3.450  179.3681
    3.480  189.3312
    3.510  172.0695
    3.540  127.3407
    3.570   86.7931
    3.600   62.7804
    3.630   53.8810
    3.660   50.4265
    3.690   49.3102
    3.720   49.6051
    3.750   51.6588
    3.780   55.2080
    3.810   59.1680
    3.840   64.2127
    3.870   70.5740
    3.900   79.7578
    3.930   83.8441
    3.960   82.0116
    3.990   78.6309
    4.020   82.6751
    4.050   86.4455
    4.080   88.9732
    4.110   87.1617
    4.140   84.3181
    4.170   74.8605
    4.200   66.7615
    4.230   56.6509
    4.260   50.0790
    4.290   41.8852
    4.320   34.8078
    4.350   28.3518
    4.380   23.5598
    4.410   20.9057
    4.440   18.6098
    4.470   16.5666
    4.500   14.7446
    4.530   13.9652
    4.560   12.7962
    4.590   11.3744
    4.620   11.8589
    4.650   11.3323
    4.680   10.7952
    4.710   10.6056
    4.740    9.8262
    4.770    9.6472
    4.800    9.8473
    4.830    9.7104
    4.860    9.7841
    4.890    8.9521
    4.920    9.8999
    4.950    9.4681
    4.980    9.2786
    5.010    9.0469
    5.040    9.5524
    5.070    9.5313
    5.100    9.2575
    5.130    8.9731
    5.160    9.4155
    5.190    9.5208
    5.220    9.3523
    5.250    9.8894
    5.280   10.2791
    5.310    9.6998
    5.340    9.9526
    5.370   10.2580
    5.400   10.0474
    5.430   10.4897
    5.460   11.2902
    5.490   11.7536
    5.520   13.0279
    5.550   12.9753
    5.580   10.9426
    5.610    8.9731
    5.640    7.6567
    5.670    7.9937
    5.700    7.6567
    5.730    7.4671
    5.760    7.8568
    5.790    7.3091
    5.820    7.5935
    5.850    8.0990
    5.880    8.3096
    5.910    7.7514
    5.940    7.7409
    5.970    7.7304
    6.000    7.9410
    6.030    7.6040
    6.060    7.9937
    6.090    8.2675
    6.120    8.2043
    6.150    8.3096
    6.180    8.2675
    6.210    8.2043
    6.240    8.5519
    6.270    8.7414
    6.300    8.3518
    6.330    8.6783
    6.360    8.6151
    6.390    8.7730
    6.420    8.7098
    6.450    9.1732
    6.480    9.1627
    6.510    9.4892
    6.540   10.0053
    6.570   11.0479
    6.600   10.5740
    6.630   11.1954
    6.660   11.8378
    6.690   12.3328
    6.720   12.7962
    6.750   14.2812
    6.780   16.6298
    6.810   16.2296
    6.840   17.3986
    6.870   18.7046
    6.900   21.9905
    6.930   24.2549
    6.960   26.0242
    6.990   25.5187
    7.020   23.4123
    7.050   18.1464
    7.080   13.0595
    7.110   10.9426
    7.140    9.3102
    7.170    8.6783
    7.200    8.4255
    7.230    8.5097
    7.260    8.5097
    7.290    7.9831
    7.320    8.2675
    7.350    8.1517
    7.380    8.3307
    7.410    7.7514
    7.440    8.1727
    7.470    8.2991
    7.500    8.5835
    7.530    8.3307
    7.560    8.6783
    7.590    8.6888
    7.620    9.0153
    7.650    9.1311
    7.680    9.3628
    7.710    9.6472
    7.740    9.8684
    7.770   10.7214
    7.800   11.2270
    7.830   11.0163
    7.860   11.1532
    7.890   11.2796
    7.920   10.8162
    7.950   11.6272
    7.980   12.3117
    8.010   12.4592
    8.040   13.3860
    8.070   13.0595
    8.100   14.3233
    8.130   14.5866
    8.160   14.7551
    8.190   14.6603
    8.220   15.2185
    8.250   15.3344
    8.280   15.2185
    8.310   14.7762
    8.340   14.4708
    8.370   14.4392
    8.400   14.3023
    8.430   13.6177
    8.460   13.4176
    8.490   12.9542
    8.520   12.0800
    8.550   12.6488
    8.580   11.5429
    8.610   11.5534
    8.640   10.4581
    8.670   10.4265
    8.700   10.0158
    8.730    9.5103
    8.760    9.4997
    8.790    9.2996
    8.820    9.0258
    8.850    8.7098
    8.880    8.5940
    8.910    9.2048
    8.940    7.8778
    8.970    8.4887
    9.000    8.5835
    9.030    8.9942
    9.060    9.0995
    9.090    9.1838
    9.120    8.8994
    9.150    9.3312
    9.180    9.1838
    9.210   10.1422
    9.240    9.8157
    9.270   10.3633
    9.300   10.0895
    9.330    9.8578
    9.360    9.3312
    9.390    9.2470
    9.420    8.7414
    9.450    8.7836
    9.480    8.7941
    9.510    8.6572
    9.540    8.7730
    9.570    9.6156
    9.600    9.7946
    9.630    9.6788
    9.660    8.2359
    9.690    7.4776
    9.720    7.3828
    9.750    7.2775
    9.780    7.9831
    9.810    7.5619
    9.840    7.5829
    9.870    8.0885
    9.900    7.6461
    9.930    7.3828
    9.960    7.2354
    9.990    7.6461
   10.020    7.6145
   10.050    7.7725
   10.080    8.2886
   10.110    8.0779
   10.140    8.1833
   10.170    8.8784
   10.200    8.6993
   10.230    8.7730
   10.260    8.7520
   10.290    8.7520
   10.320    8.5624
   10.350    9.9210
   10.380    9.3312
   10.410    8.9731
   10.440    9.6472
   10.470    9.2364
   10.500    9.4050
   10.530    8.1727
   10.560    8.2359
   10.590    7.9516
   10.620    7.9726
   10.650    7.7304
   10.680    8.0042
   10.710    7.5724
   10.740    7.2459
   10.770    7.8989
   10.800    8.0463
   10.830    7.8884
   10.860    7.6567
   10.890    7.8357
   10.920    8.2043
   10.950    7.7725
   10.980    7.7830
   11.010    7.3934
   11.040    8.4781
   11.070    7.8568
   11.100    7.9094
   11.130    7.5408
   11.160    7.4039
   11.190    7.5197
   11.220    7.2880
   11.250    7.1511
   11.280    7.6040
   11.310    7.2143
   11.340    7.7409
   11.370    7.3618
   11.400    7.7093
   11.430    7.1933
   11.460    7.3934
   11.490    7.7725
   11.520    7.6461
   11.550    7.6883
   11.580    7.1617
   11.610    8.1411
   11.640    7.9094
   11.670    7.9726
   11.700    7.7409
   11.730    8.1727
   11.760    8.8046
   11.790    8.1306
   11.820    7.5092
   11.850    7.7830
   11.880    7.8989
   11.910    7.9305
   11.940    8.2149
   11.970    7.9305
   12.000    8.2149
   12.030    7.8673
   12.060    8.6783
   12.090    8.6993
   12.120    8.1938
   12.150    9.2048
   12.180    9.0890
   12.210    8.9100
   12.240    9.0995
   12.270    8.9310
   12.300    9.0890
   12.330    9.2891
   12.360    9.2470
   12.390    9.0785
   12.420    8.7414
   12.450    8.8573
   12.480    8.6572
   12.510    8.5835
   12.540    8.5097
   12.570    8.4676
   12.600    8.8362
   12.630    8.4466
   12.660    8.5835
   12.690    8.6045
   12.720    8.8994
   12.750    8.3939
   12.780    8.2780
   12.810    8.2359
   12.840    8.4887
   12.870    8.5413
   12.900    8.4781
   12.930    8.9205
   12.960    8.7625
   12.990    7.7830
   13.020    8.7730
   13.050    8.1411
   13.080    8.5519
   13.110    8.3202
   13.140    8.5097
   13.170    7.6672
   13.200    7.7936
   13.230    8.0358
   13.260    7.8884
   13.290    7.8462
   13.320    7.9200
   13.350    7.7199
   13.380    8.0990
   13.410    7.9621
   13.440    8.2991
   13.470    8.1095
   13.500    8.2464
   13.530    8.1622
   13.560    8.1727
   13.590    8.1938
   13.620    7.7620
   13.650    8.1095
   13.680    7.8252
   13.710    7.8778
   13.740    7.3934
   13.770    7.5935
   13.800    7.6988
   13.830    7.4144
   13.860    7.5724
   13.890    7.6040
   13.920    7.3618
   13.950    7.0985
   13.980    7.7830
   14.010    7.3723
   14.040    7.6883
   14.070    7.2670
   14.100    7.6567
   14.130    7.4882
   14.160    7.3934
   14.190    7.0458
   14.220    6.6245
   14.250    7.3091
   14.280    6.9721
   14.310    7.0248
   14.340    7.1090
   14.370    6.9932
   14.400    7.2775
   14.430    7.5408
   14.460    7.2038
   14.490    7.1722
   14.520    7.0669
   14.550    6.8457
   14.580    7.2038
   14.610    7.1090
   14.640    7.2038
   14.670    6.8984
   14.700    7.3196
   14.730    6.9405
   14.760    6.9300
   14.790    6.9405
   14.820    7.1511
   14.850    7.5935
   14.880    6.8773
   14.910    7.0458
   14.940    6.8352
   14.970    7.1617
   15.000    7.0458
   15.030    7.2249
   15.060    7.1933
   15.090    7.1301
   15.120    6.6877
   15.150    7.2143
   15.180    7.0458
   15.210    7.2459
   15.240    7.3302
   15.270    7.4566
   15.300    6.9721
   15.330    7.5935
   15.360    7.8778
   15.390    8.1833
   15.420    7.2986
   15.450    7.5408
   15.480    7.3828
   15.510    7.3196
   15.540    7.7304
   15.570    7.3618
   15.600    7.4671
   15.630    7.3618
   15.660    7.1722
   15.690    7.5724
   15.720    7.6356
   15.750    7.6777
   15.780    7.4882
   15.810    7.3512
   15.840    7.4250
   15.870    7.4039
   15.900    7.2354
   15.930    7.4671
   15.960    7.2038
   15.990    6.8878
   16.020    7.4776
   16.050    7.4250
   16.080    7.2354
   16.110    7.8357
   16.140    7.1722
   16.170    7.2775
   16.200    7.4776
   16.230    7.3407
   16.260    7.3512
   16.290    6.9721
   16.320    7.0037
   16.350    7.4460
   16.380    7.4355
   16.410    7.4776
   16.440    7.0774
   16.470    7.0248
   16.500    7.2986
   16.530    7.3407
   16.560    7.2986
   16.590    7.0879
   16.620    7.3196
   16.650    7.1933
   16.680    7.8041
   16.710    7.1511
   16.740    7.2459
   16.770    6.9932
   16.800    7.1722
   16.830    7.3512
   16.860    7.2565
   16.890    6.9932
   16.920    7.4460
   16.950    7.5829
   16.980    7.2038
   17.010    7.1827
   17.040    6.9194
   17.070    7.4144
   17.100    7.5197
   17.130    7.1827
   17.160    7.3828
   17.190    7.3828
   17.220    6.9405
   17.250    7.1722
   17.280    7.3196
   17.310    7.4250
   17.340    7.2143
   17.370    7.2986
   17.400    7.1301
   17.430    7.4250
   17.460    7.7514
   17.490    7.5935
   17.520    7.3723
   17.550    7.9305
   17.580    7.6672
   17.610    7.5724
   17.640    7.1722
   17.670    7.4987
   17.700    7.8041
   17.730    7.2354
   17.760    7.5513
   17.790    7.3723
   17.820    7.0458
   17.850    7.9516
   17.880    7.4987
   17.910    7.6040
   17.940    7.3091
   17.970    7.3934
   18.000    7.6672
   18.030    7.8146
   18.060    7.0879
   18.090    7.8673
   18.120    7.5619
   18.150    7.7830
   18.180    7.2880
   18.210    7.4460
   18.240    7.2249
   18.270    7.2775
   18.300    7.3618
   18.330    6.9826
   18.360    7.3091
   18.390    6.8878
   18.420    7.6251
   18.450    7.2354
   18.480    7.2249
   18.510    7.4039
   18.540    6.9826
   18.570    7.0248
   18.600    7.3618
   18.630    7.6672
   18.660    7.6040
   18.690    6.9826
   18.720    7.2775
   18.750    7.4039
   18.780    7.0353
   18.810    7.4566
   18.840    7.6356
   18.870    7.2775
   18.900    7.2565
   18.930    7.4250
   18.960    7.4144
   18.990    7.4250
   19.020    7.3302
   19.050    7.2354
   19.080    7.5197
   19.110    7.1511
   19.140    7.4460
   19.170    7.4250
   19.200    7.6356
   19.230    7.0037
   19.260    7.4355
   19.290    7.7830
   19.320    7.3302
   19.350    7.8041
   19.380    7.5829
   19.410    7.6988
   19.440    7.8884
   19.470    7.9094
   19.500    7.4987
   19.530    7.7409
   19.560    8.3939
   19.590    8.1938
   19.620    8.0990
   19.650    8.7098
   19.680    8.5624
   19.710    8.2464
   19.740    8.6151
   19.770    8.3939
   19.800    8.0990
   19.830    8.7520
   19.860    8.2991
   19.890    8.2149
   19.920    8.7204
   19.950    8.2464
   19.980    8.6572
   20.010    8.5203
   20.040    8.3096
   20.070    8.7098
   20.100    8.2149
   20.130    8.3834
   20.160    8.1411
   20.190    7.6672
   20.220    8.4781
   20.250    8.3202
   20.280    7.8568
   20.310    7.9937
   20.340    8.1201
   20.370    8.5097
   20.400    8.2254
   20.430    8.2464
   20.460    8.5308
   20.490    8.4360
   20.520    8.2886
   20.550    8.3939
   20.580    8.1095
   20.610    8.2991
   20.640    8.0147
   20.670    8.0358
   20.700    7.7304
   20.730    8.1727
   20.760    8.2991
   20.790    7.6251
   20.820    8.1411
   20.850    8.2149
   20.880    8.1727
   20.910    8.8889
   20.940    8.0147
   20.970    8.5097
   21.000    8.5203
   21.030    8.8889
   21.060    8.4571
   21.090    8.7414
   21.120    8.5624
   21.150    8.6677
   21.180    8.4466
   21.210    8.2991
   21.240    8.5203
   21.270    8.6361
   21.300    8.0885
   21.330    8.4676
   21.360    8.1938
   21.390    8.4150
   21.420    8.0674
   21.450    8.5729
   21.480    8.5308
   21.510    8.4150
   21.540    8.1306
   21.570    8.8468
   21.600    7.9937
   21.630    8.3307
   21.660    7.7199
   21.690    8.2254
   21.720    8.0990
   21.750    8.3939
   21.780    8.4255
   21.810    8.2149
   21.840    8.1306
   21.870    7.6567
   21.900    8.3096
   21.930    8.0779
   21.960    8.1622
   21.990    8.1727
   22.020    8.1622
   22.050    8.2149
   22.080    8.0358
   22.110    8.3202
   22.140    8.1517
   22.170    7.7514
   22.200    8.2043
   22.230    8.1201
   22.260    8.3834
   22.290    8.0147
   22.320    8.0990
   22.350    8.5308
   22.380    8.1306
   22.410    8.0358
   22.440    8.2149
   22.470    7.9831
   22.500    8.0147
   22.530    8.2254
   22.560    8.1833
   22.590    7.9305
   22.620    8.4571
   22.650    8.3307
   22.680    8.6151
   22.710    7.6777
   22.740    8.2886
   22.770    7.9621
   22.800    8.1938
   22.830    8.0569
   22.860    7.7936
   22.890    7.8041
   22.920    8.4887
   22.950    8.2149
   22.980    8.4360
   23.010    7.9621
   23.040    7.9094
   23.070    8.1306
   23.100    8.1727
   23.130    8.2359
   23.160    8.3728
   23.190    7.8989
   23.220    7.8673
   23.250    7.9410
   23.280    7.9726
   23.310    8.0463
   23.340    8.1727
   23.370    8.0147
   23.400    8.2464
   23.430    8.2149
   23.460    7.9831
   23.490    7.8357
   23.520    7.9410
   23.550    7.6988
   23.580    7.5724
   23.610    7.6461
   23.640    8.0885
   23.670    7.7830
   23.700    7.3723
   23.730    7.6672
   23.760    7.7725
   23.790    7.4882
   23.820    7.6988
   23.850    7.8041
   23.880    7.4250
   23.910    7.7514
   23.940    8.2359
   23.970    8.0463
   24.000    8.0147
   24.030    7.8462
   24.060    7.2880
   24.090    7.6461
   24.120    7.6145
   24.150    7.4039
   24.180    7.3512
   24.210    7.4250
   24.240    7.6567
   24.270    7.5303
   24.300    7.6777
   24.330    7.5935
   24.360    7.6461
   24.390    7.8146
   24.420    7.9621
   24.450    7.7830
   24.480    8.1095
   24.510    7.8252
   24.540    7.8884
   24.570    8.0147
   24.600    7.4039
   24.630    7.9937
   24.660    7.5513
   24.690    8.0463
   24.720    7.7093
   24.750    7.8568
   24.780    7.7304
   24.810    7.4250
   24.840    8.1201
   24.870    7.4671
   24.900    7.2354
   24.930    7.5724
   24.960    7.3512
   24.990    7.6356
   25.020    7.1933
   25.050    7.3091
   25.080    7.0142
   25.110    7.7620
   25.140    7.4250
   25.170    7.4566
   25.200    7.0669
   25.230    7.6567
   25.260    7.7514
   25.290    7.6145
   25.320    7.5197
   25.350    7.3512
   25.380    7.3512
   25.410    7.6883
   25.440    7.8673
   25.470    7.6883
   25.500    7.5092
   25.530    7.4460
   25.560    7.1827
   25.590    7.6988
   25.620    7.4250
   25.650    7.1511
   25.680    7.3723
   25.710    7.8462
   25.740    7.2354
   25.770    6.9932
   25.800    7.2038
   25.830    7.0774
   25.860    7.5935
   25.890    7.7936
   25.920    7.2459
   25.950    7.4671
   25.980    7.1195
   26.010    7.7093
   26.040    7.0563
   26.070    7.5092
   26.100    6.9405
   26.130    6.8562
   26.160    7.0353
   26.190    7.4250
   26.220    6.5613
   26.250    7.0985
   26.280    6.9932
   26.310    7.1617
   26.340    7.2354
   26.370    7.4355
   26.400    6.9405
   26.430    7.0458
   26.460    7.1301
   26.490    7.4144
   26.520    6.9826
   26.550    6.9721
   26.580    7.0774
   26.610    6.8878
   26.640    7.1933
   26.670    7.0142
   26.700    7.1511
   26.730    7.2143
   26.760    7.2459
   26.790    7.0353
   26.820    6.8878
   26.850    7.2670
   26.880    7.1406
   26.910    7.3828
   26.940    7.1511
   26.970    6.9089
   27.000    7.0669
   27.030    6.8246
   27.060    7.0669
   27.090    7.4039
   27.120    7.1406
   27.150    7.2038
   27.180    6.8878
   27.210    7.1090
   27.240    7.2249
   27.270    7.4144
   27.300    6.8457
   27.330    6.5929
   27.360    7.0985
   27.390    7.1195
   27.420    6.7615
   27.450    7.3723
   27.480    7.2880
   27.510    6.8984
   27.540    6.7193
   27.570    6.6456
   27.600    6.7720
   27.630    6.9405
   27.660    7.0037
   27.690    6.5192
   27.720    7.0563
   27.750    7.2459
   27.780    6.2665
   27.810    6.7930
   27.840    6.5824
   27.870    6.7615
   27.900    6.7193
   27.930    7.1301
   27.960    6.8878
   27.990    6.4244
   28.020    6.7509
   28.050    7.3723
   28.080    7.0985
   28.110    7.2670
   28.140    7.4250
   28.170    7.2670
   28.200    7.2249
   28.230    7.2459
   28.260    7.1090
   28.290    7.0037
   28.320    6.8878
   28.350    7.2354
   28.380    6.8562
   28.410    6.9194
   28.440    6.7720
   28.470    6.6351
   28.500    7.0353
   28.530    6.9089
   28.560    6.9089
   28.590    6.9616
   28.620    6.8562
   28.650    6.9194
   28.680    6.5508
   28.710    7.0774
   28.740    6.8562
   28.770    6.8141
   28.800    6.9510
   28.830    6.6140
   28.860    6.6245
   28.890    6.3402
   28.920    6.8668
   28.950    7.0353
   28.980    6.5298
   29.010    6.8246
   29.040    6.5298
   29.070    6.9194
   29.100    6.4771
   29.130    6.8246
   29.160    6.9300
   29.190    6.6035
   29.220    6.9194
   29.250    6.6561
   29.280    6.5824
   29.310    6.6245
   29.340    6.5508
   29.370    6.8141
   29.400    6.2770
   29.430    6.7193
   29.460    7.0353
   29.490    6.7930
   29.520    6.3823
   29.550    6.5613
   29.580    6.6351
   29.610    6.7509
   29.640    6.4244
   29.670    6.5824
   29.700    6.6561
   29.730    6.5719
   29.760    7.0142
   29.790    6.6351
   29.820    6.7930
   29.850    6.8352
   29.880    6.7509
   29.910    6.4139
   29.940    6.9300
   29.970    6.7193
   30.000    6.4982
   30.030    6.3823
   30.060    6.3086
   30.090    7.0563
   30.120    6.4560
   30.150    6.6245
   30.180    6.5613
   30.210    6.7825
   30.240    6.6667
   30.270    6.5929
   30.300    6.4034
   30.330    6.8457
   30.360    6.6561
   30.390    6.3718
   30.420    6.5087
   30.450    6.8141
   30.480    6.2981
   30.510    6.1506
   30.540    6.4560
   30.570    6.5508
   30.600    6.4139
   30.630    6.3823
   30.660    6.4350
   30.690    6.2349
   30.720    6.8141
   30.750    6.7404
   30.780    6.3086
   30.810    5.9610
   30.840    6.5613
   30.870    6.2349
   30.900    6.5508
   30.930    6.6351
   30.960    6.0769
   30.990    6.2875
   31.020    6.1611
   31.050    6.6772
   31.080    6.4876
   31.110    6.6140
   31.140    6.5298
   31.170    6.3928
   31.200    6.4034
   31.230    6.6456
   31.260    6.1190
   31.290    6.2770
   31.320    6.1085
   31.350    6.4876
   31.380    6.7193
   31.410    6.4771
   31.440    6.0032
   31.470    6.7299
   31.500    6.2665
   31.530    6.4244
   31.560    6.3296
   31.590    6.8036
   31.620    6.7615
   31.650    6.3507
   31.680    6.5087
   31.710    6.0979
   31.740    6.6245
   31.770    6.6983
   31.800    6.7509
   31.830    6.2349
   31.860    6.4876
   31.890    6.4982
   31.920    6.1611
   31.950    6.7509
   31.980    6.2243
   32.010    6.4244
   32.040    6.4876
   32.070    6.4034
   32.100    6.2665
   32.130    6.5298
   32.160    6.8352
   32.190    6.6245
   32.220    6.8141
   32.250    6.3191
   32.280    6.2875
   32.310    6.2770
   32.340    6.1506
   32.370    6.3928
   32.400    6.1295
   32.430    6.1927
   32.460    6.1295
   32.490    6.1190
   32.520    6.6561
   32.550    6.4982
   32.580    6.2981
   32.610    6.0348
   32.640    5.9084
   32.670    6.2243
   32.700    5.7609
   32.730    5.9821
   32.760    6.1717
   32.790    5.9294
   32.820    6.1822
   32.850    6.3507
   32.880    6.0558
   32.910    6.4771
   32.940    5.7925
   32.970    6.6667
   33.000    6.0558
   33.030    6.3296
   33.060    5.5924
   33.090    6.0453
   33.120    6.1611
   33.150    6.2454
   33.180    6.0664
   33.210    6.1295
   33.240    5.7925
   33.270    6.3612
   33.300    6.1085
   33.330    6.3296
   33.360    5.8347
   33.390    6.1295
   33.420    5.9821
   33.450    6.1401
   33.480    6.1190
   33.510    5.7083
   33.540    6.4139
   33.570    5.8873
   33.600    6.0979
   33.630    6.3402
   33.660    5.9294
   33.690    5.8031
   33.720    6.2454
   33.750    5.9505
   33.780    5.9400
   33.810    5.8873
   33.840    6.2243
   33.870    6.0558
   33.900    5.9189
   33.930    6.3402
   33.960    6.2875
   33.990    5.8768
   34.020    5.9926
   34.050    6.1611
   34.080    6.0242
   34.110    5.9294
   34.140    5.9716
   34.170    6.2033
   34.200    6.0874
   34.230    6.1717
   34.260    5.9505
   34.290    6.0242
   34.320    5.6556
   34.350    5.6977
   34.380    5.6451
   34.410    5.9821
   34.440    6.1506
   34.470    6.0242
   34.500    5.8452
   34.530    5.8136
   34.560    5.9189
   34.590    5.9716
   34.620    5.8662
   34.650    5.9400
   34.680    6.1085
   34.710    5.5819
   34.740    5.4450
   34.770    5.4976
   34.800    5.8662
   34.830    6.1717
   34.860    5.8031
   34.890    6.1506
   34.920    5.7609
   34.950    5.5187
   34.980    5.9189
   35.010    5.8978
   35.040    5.7293
   35.070    5.5503
   35.100    6.0242
   35.130    5.4555
   35.160    5.8662
   35.190    6.0242
   35.220    6.0242
   35.250    6.0979
   35.280    5.9610
   35.310    5.6345
   35.340    5.9400
   35.370    5.9400
   35.400    5.8136
   35.430    6.0558
   35.460    5.9400
   35.490    5.7504
   35.520    5.8978
   35.550    5.9821
   35.580    6.0874
   35.610    5.8136
   35.640    5.8557
   35.670    5.8031
   35.700    5.9505
   35.730    5.7083
   35.760    5.7399
   35.790    5.6977
   35.820    6.1295
   35.850    5.5608
   35.880    5.6451
   35.910    5.6029
   35.940    5.6135
   35.970    5.7188
   36.000    5.9505
   36.030    5.7293
   36.060    5.3818
   36.090    5.7504
   36.120    5.8768
   36.150    5.5819
   36.180    5.8241
   36.210    5.9084
   36.240    5.5714
   36.270    5.5503
   36.300    5.5398
   36.330    5.9189
   36.360    6.1611
   36.390    5.5714
   36.420    5.3186
   36.450    5.3818
   36.480    5.7399
   36.510    5.7399
   36.540    5.3712
   36.570    5.6661
   36.600    5.2765
   36.630    5.6345
   36.660    5.5819
   36.690    5.4450
   36.720    5.5082
   36.750    5.1817
   36.780    5.5714
   36.810    5.2554
   36.840    5.9821
   36.870    5.6556
   36.900    5.6451
   36.930    5.5398
   36.960    5.5398
   36.990    5.8136
   37.020    5.5819
   37.050    5.8136
   37.080    5.7083
   37.110    5.7399
   37.140    5.6135
   37.170    5.5292
   37.200    5.7609
   37.230    5.5398
   37.260    5.8347
   37.290    5.3397
   37.320    5.6767
   37.350    5.6240
   37.380    5.2027
   37.410    5.3923
   37.440    5.5398
   37.470    5.3397
   37.500    5.3923
   37.530    5.6135
   37.560    5.5924
   37.590    5.4028
   37.620    5.7293
   37.650    5.5292
   37.680    5.4239
   37.710    5.5187
   37.740    5.1395
   37.770    6.0769
   37.800    5.7820
   37.830    5.5187
   37.860    5.5187
   37.890    5.4239
   37.920    5.4344
   37.950    5.4555
   37.980    5.6556
   38.010    5.5187
   38.040    5.3607
   38.070    5.2765
   38.100    5.4766
   38.130    5.3186
   38.160    5.5714
   38.190    5.7504
   38.220    5.4660
   38.250    5.2238
   38.280    5.5503
   38.310    5.2027
   38.340    5.5503
   38.370    5.6872
   38.400    5.3081
   38.430    5.2870
   38.460    5.5714
   38.490    5.3397
   38.520    5.1606
   38.550    5.4976
   38.580    5.3291
   38.610    5.6135
   38.640    5.5292
   38.670    5.3712
   38.700    5.5503
   38.730    5.4555
   38.760    5.4134
   38.790    5.2238
   38.820    5.4555
   38.850    5.2449
   38.880    5.5924
   38.910    5.2765
   38.940    5.2133
   38.970    5.6451
   39.000    5.1817
   39.030    5.6451
   39.060    5.3502
   39.090    5.6451
   39.120    5.7293
   39.150    5.6872
   39.180    5.5187
   39.210    5.0869
   39.240    5.4028
   39.270    5.9084
   39.300    5.3081
   39.330    5.5398
   39.360    5.2133
   39.390    5.3818
   39.420    5.2870
   39.450    5.3291
   39.480    5.7083
   39.510    5.6977
   39.540    5.3923
   39.570    5.4555
   39.600    5.3923
   39.630    5.5924
   39.660    5.2238
   39.690    5.1290
   39.720    5.4134
   39.750    5.7399
   39.780    5.4239
   39.810    5.1606
   39.840    5.4555
   39.870    5.3186
   39.900    5.5608
   39.930    5.2554
   39.960    5.3712
   39.990    5.3397