File: data/PXRD/PXRD_KE-199_Cu-Ka1_capillary-1mm_5s-deg.xyd
    1.500   19.2522
    1.530   19.3049
    1.560   18.6203
    1.590   17.1037
    1.620   17.5355
    1.650   17.5145
    1.680   16.2401
    1.710   15.7135
    1.740   15.4292
    1.770   15.4186
    1.800   15.2080
    1.830   15.1343
    1.860   13.4597
    1.890   13.3649
    1.920   14.1864
    1.950   12.4065
    1.980   12.7962
    2.010   12.3960
    2.040   12.6277
    2.070   12.3539
    2.100   11.8378
    2.130   11.7641
    2.160   12.3539
    2.190   11.7746
    2.220   11.1743
    2.250   11.1111
    2.280   11.1954
    2.310   11.2691
    2.340   11.3007
    2.370   10.8478
    2.400   10.4371
    2.430   10.7004
    2.460   10.5740
    2.490   10.3528
    2.520   10.9531
    2.550   10.7741
    2.580   10.7530
    2.610   10.3844
    2.640   11.5324
    2.670   11.3955
    2.700   11.6166
    2.730   11.8905
    2.760   11.7641
    2.790   12.9963
    2.820   13.3649
    2.850   14.2601
    2.880   13.9968
    2.910   15.1343
    2.940   16.9142
    2.970   17.7883
    3.000   18.4834
    3.030   20.4739
    3.060   21.5798
    3.090   24.2338
    3.120   26.0032
    3.150   29.1522
    3.180   32.1643
    3.210   36.1664
    3.240   40.0421
    3.270   46.0979
    3.300   51.2270
    3.330   60.0316
    3.360   70.3212
    3.390   82.1590
    3.420   93.5756
    3.450   93.7230
    3.480   81.7062
    3.510   63.2122
    3.540   47.9516
    3.570   40.7478
    3.600   37.2723
    3.630   36.3244
    3.660   39.3892
    3.690   41.4323
    3.720   46.6561
    3.750   52.6277
    3.780   62.8647
    3.810   78.6730
    3.840   98.2307
    3.870   96.3455
    3.900   71.6482
    3.930   43.0964
    3.960   37.9463
    3.990   36.3033
    4.020   38.1253
    4.050   37.8199
    4.080   36.1032
    4.110   34.9447
    4.140   32.7330
    4.170   29.7736
    4.200   26.6456
    4.230   23.8863
    4.260   20.0421
    4.290   17.7883
    4.320   15.4186
    4.350   13.0174
    4.380   11.3428
    4.410   10.6056
    4.440    9.5103
    4.470    9.0785
    4.500    8.1201
    4.530    7.8252
    4.560    7.5935
    4.590    7.2670
    4.620    6.5403
    4.650    6.6877
    4.680    6.1295
    4.710    5.7293
    4.740    5.8873
    4.770    5.8136
    4.800    5.8662
    4.830    5.4871
    4.860    5.9926
    4.890    5.6977
    4.920    6.0874
    4.950    5.7293
    4.980    5.4871
    5.010    5.7609
    5.040    5.6556
    5.070    5.6029
    5.100    5.5398
    5.130    5.6872
    5.160    5.7715
    5.190    5.9610
    5.220    5.8662
    5.250    6.4666
    5.280    6.7299
    5.310    7.1617
    5.340    7.6251
    5.370    8.3939
    5.400    9.3734
    5.430   12.2064
    5.460   14.8499
    5.490   14.2601
    5.520   10.6266
    5.550    6.5719
    5.580    5.0026
    5.610    4.9921
    5.640    4.9289
    5.670    4.3707
    5.700    4.5603
    5.730    4.2022
    5.760    4.7183
    5.790    4.6972
    5.820    4.7815
    5.850    4.5287
    5.880    4.3918
    5.910    4.3918
    5.940    4.2970
    5.970    4.7815
    6.000    4.0758
    6.030    4.3707
    6.060    4.4023
    6.090    4.6024
    6.120    4.3497
    6.150    4.6235
    6.180    4.6445
    6.210    4.5603
    6.240    4.1601
    6.270    4.2443
    6.300    4.2549
    6.330    4.3813
    6.360    4.2127
    6.390    4.4550
    6.420    4.2865
    6.450    4.5182
    6.480    4.7499
    6.510    4.6972
    6.540    4.6340
    6.570    4.6867
    6.600    4.9078
    6.630    5.7399
    6.660    6.0979
    6.690    6.8141
    6.720    7.1617
    6.750    7.0458
    6.780    6.9405
    6.810    8.0885
    6.840    8.7941
    6.870    9.8368
    6.900   10.9637
    6.930   11.6693
    6.960   11.4587
    6.990   10.0790
    7.020    9.0363
    7.050    7.7725
    7.080    6.4560
    7.110    5.8136
    7.140    5.4134
    7.170    5.1711
    7.200    5.1290
    7.230    4.8973
    7.260    4.9816
    7.290    4.8341
    7.320    4.8868
    7.350    4.6656
    7.380    4.5287
    7.410    4.5498
    7.440    4.8763
    7.470    4.9605
    7.500    4.8973
    7.530    5.0658
    7.560    5.2554
    7.590    4.9710
    7.620    5.2975
    7.650    5.3818
    7.680    6.0348
    7.710    6.3928
    7.740    7.6251
    7.770    7.9937
    7.800    7.6883
    7.830    6.6561
    7.860    5.4766
    7.890    6.0979
    7.920    5.9400
    7.950    5.8557
    7.980    5.6661
    8.010    6.1822
    8.040    5.9294
    8.070    5.8978
    8.100    6.1927
    8.130    6.6877
    8.160    6.2981
    8.190    6.3507
    8.220    6.2875
    8.250    6.3507
    8.280    6.2981
    8.310    6.2033
    8.340    6.3507
    8.370    5.9716
    8.400    6.0453
    8.430    6.3086
    8.460    6.2033
    8.490    5.7188
    8.520    5.5503
    8.550    5.5924
    8.580    5.4028
    8.610    5.3712
    8.640    5.4239
    8.670    5.5187
    8.700    5.2659
    8.730    5.3607
    8.760    5.1290
    8.790    4.5287
    8.820    4.8973
    8.850    4.7183
    8.880    4.8657
    8.910    4.4866
    8.940    4.3813
    8.970    4.2970
    9.000    4.5076
    9.030    4.0442
    9.060    3.9600
    9.090    4.0021
    9.120    4.4339
    9.150    4.4655
    9.180    4.2022
    9.210    4.2338
    9.240    3.9810
    9.270    3.9284
    9.300    4.3497
    9.330    4.5392
    9.360    4.6656
    9.390    4.9710
    9.420    5.3712
    9.450    5.9821
    9.480    6.8878
    9.510    8.8362
    9.540    9.2575
    9.570    7.9621
    9.600    5.6345
    9.630    4.5814
    9.660    3.9494
    9.690    4.2127
    9.720    4.2233
    9.750    4.2759
    9.780    4.5498
    9.810    3.8020
    9.840    4.2338
    9.870    4.0021
    9.900    4.2549
    9.930    3.9916
    9.960    3.8757
    9.990    4.0548
   10.020    4.1390
   10.050    4.1180
   10.080    4.0126
   10.110    4.0653
   10.140    4.2549
   10.170    4.0864
   10.200    4.5392
   10.230    4.9078
   10.260    5.3397
   10.290    5.8768
   10.320    5.8978
   10.350    5.7820
   10.380    4.8025
   10.410    4.5287
   10.440    4.6656
   10.470    4.7288
   10.500    4.4444
   10.530    4.2443
   10.560    4.4971
   10.590    4.5603
   10.620    4.0969
   10.650    3.9494
   10.680    4.3075
   10.710    4.1074
   10.740    4.1390
   10.770    4.0969
   10.800    3.7177
   10.830    4.1285
   10.860    4.0232
   10.890    4.0126
   10.920    4.4655
   10.950    4.6867
   10.980    5.2659
   11.010    5.2870
   11.040    5.0869
   11.070    5.1395
   11.100    4.2865
   11.130    4.0758
   11.160    4.1706
   11.190    3.7809
   11.220    4.1390
   11.250    4.2549
   11.280    4.3497
   11.310    4.1706
   11.340    4.0653
   11.370    3.8863
   11.400    4.2233
   11.430    4.0548
   11.460    4.3286
   11.490    3.9389
   11.520    4.1706
   11.550    4.0864
   11.580    4.2654
   11.610    4.4550
   11.640    4.9710
   11.670    4.9184
   11.700    5.1711
   11.730    5.0764
   11.760    4.5182
   11.790    3.9810
   11.820    3.8441
   11.850    3.9600
   11.880    3.8863
   11.910    4.1496
   11.940    4.2654
   11.970    4.0969
   12.000    4.0442
   12.030    4.1601
   12.060    4.0337
   12.090    4.3286
   12.120    4.3075
   12.150    4.1706
   12.180    4.2759
   12.210    4.1496
   12.240    4.6235
   12.270    4.3813
   12.300    4.4128
   12.330    4.4760
   12.360    4.2654
   12.390    4.0548
   12.420    4.1811
   12.450    4.2549
   12.480    4.3391
   12.510    4.2654
   12.540    4.0337
   12.570    4.4339
   12.600    4.1496
   12.630    4.0548
   12.660    3.8757
   12.690    4.1180
   12.720    4.2127
   12.750    4.0548
   12.780    4.3497
   12.810    4.6024
   12.840    4.3181
   12.870    4.4234
   12.900    4.9289
   12.930    5.3397
   12.960    4.9394
   12.990    4.8552
   13.020    4.2338
   13.050    4.1390
   13.080    4.0653
   13.110    3.9810
   13.140    4.2338
   13.170    4.0548
   13.200    4.0758
   13.230    3.9389
   13.260    4.0758
   13.290    4.3602
   13.320    4.4866
   13.350    3.7915
   13.380    4.0021
   13.410    4.0232
   13.440    4.4339
   13.470    4.7709
   13.500    4.4866
   13.530    4.9710
   13.560    4.9394
   13.590    4.1601
   13.620    4.0232
   13.650    3.7915
   13.680    3.9284
   13.710    3.9705
   13.740    3.7599
   13.770    4.2127
   13.800    4.1706
   13.830    3.8125
   13.860    4.0548
   13.890    3.7177
   13.920    3.8125
   13.950    4.0548
   13.980    4.4866
   14.010    4.1074
   14.040    4.4550
   14.070    4.5603
   14.100    4.8025
   14.130    4.3497
   14.160    4.3181
   14.190    3.9705
   14.220    3.7809
   14.250    3.8125
   14.280    4.0653
   14.310    3.8968
   14.340    3.8231
   14.370    4.0442
   14.400    4.0548
   14.430    3.9389
   14.460    3.9916
   14.490    4.0653
   14.520    3.9494
   14.550    3.8757
   14.580    3.7072
   14.610    3.9179
   14.640    3.6124
   14.670    3.8125
   14.700    4.0021
   14.730    3.8336
   14.760    3.9600
   14.790    4.1811
   14.820    4.0126
   14.850    3.5598
   14.880    3.8125
   14.910    3.8441
   14.940    4.0337
   14.970    3.7388
   15.000    3.8757
   15.030    3.8125
   15.060    3.8863
   15.090    4.1285
   15.120    3.9179
   15.150    3.8336
   15.180    3.9916
   15.210    3.8757
   15.240    3.5914
   15.270    3.8125
   15.300    3.8547
   15.330    3.8020
   15.360    3.7915
   15.390    3.8336
   15.420    3.6546
   15.450    3.8020
   15.480    4.0232
   15.510    3.7704
   15.540    4.3075
   15.570    4.2654
   15.600    3.9284
   15.630    4.0548
   15.660    3.6546
   15.690    3.7493
   15.720    3.8441
   15.750    3.6651
   15.780    4.0021
   15.810    3.9284
   15.840    3.8020
   15.870    3.8336
   15.900    4.0126
   15.930    3.9494
   15.960    4.0337
   15.990    3.8757
   16.020    3.7388
   16.050    3.8863
   16.080    4.3707
   16.110    4.1285
   16.140    4.0232
   16.170    3.9284
   16.200    3.9284
   16.230    3.8441
   16.260    3.8020
   16.290    4.0969
   16.320    3.6756
   16.350    4.1285
   16.380    3.9073
   16.410    3.6651
   16.440    3.7388
   16.470    3.5492
   16.500    4.0548
   16.530    4.0969
   16.560    4.3602
   16.590    4.2759
   16.620    4.0232
   16.650    4.0864
   16.680    3.9810
   16.710    3.7177
   16.740    4.0548
   16.770    3.8336
   16.800    4.1285
   16.830    3.7388
   16.860    4.0021
   16.890    4.0758
   16.920    3.8968
   16.950    3.8336
   16.980    4.1601
   17.010    4.3918
   17.040    4.6130
   17.070    4.6024
   17.100    4.6235
   17.130    3.9389
   17.160    4.0864
   17.190    3.9810
   17.220    4.0548
   17.250    4.1917
   17.280    3.8757
   17.310    3.6756
   17.340    3.7072
   17.370    3.6440
   17.400    3.8547
   17.430    3.7177
   17.460    4.1390
   17.490    4.0969
   17.520    3.6756
   17.550    3.8757
   17.580    4.5498
   17.610    3.7493
   17.640    3.7388
   17.670    3.7283
   17.700    3.5598
   17.730    3.9073
   17.760    3.8863
   17.790    4.0337
   17.820    3.7072
   17.850    3.6651
   17.880    4.0758
   17.910    4.2127
   17.940    4.2127
   17.970    3.9705
   18.000    3.7915
   18.030    3.9810
   18.060    3.7915
   18.090    3.7915
   18.120    3.7915
   18.150    3.8968
   18.180    3.9389
   18.210    3.9494
   18.240    4.0548
   18.270    3.7177
   18.300    4.0969
   18.330    4.0126
   18.360    4.3602
   18.390    4.2970
   18.420    4.2549
   18.450    3.8441
   18.480    4.2127
   18.510    3.7493
   18.540    3.8020
   18.570    4.2865
   18.600    3.9810
   18.630    3.9705
   18.660    3.7915
   18.690    3.6862
   18.720    4.0337
   18.750    3.8652
   18.780    3.8441
   18.810    3.9284
   18.840    4.2865
   18.870    3.8968
   18.900    3.9179
   18.930    4.1390
   18.960    3.9600
   18.990    3.6967
   19.020    3.9389
   19.050    3.5914
   19.080    4.0021
   19.110    3.8336
   19.140    3.9284
   19.170    3.7177
   19.200    3.7915
   19.230    4.3286
   19.260    4.0758
   19.290    3.9810
   19.320    4.0337
   19.350    3.7809
   19.380    4.0969
   19.410    4.0864
   19.440    4.1285
   19.470    4.1601
   19.500    3.7177
   19.530    4.5392
   19.560    4.2654
   19.590    4.2759
   19.620    4.8236
   19.650    4.2970
   19.680    4.5814
   19.710    4.0021
   19.740    3.9494
   19.770    4.1180
   19.800    4.4550
   19.830    4.1601
   19.860    4.0442
   19.890    4.1706
   19.920    4.4550
   19.950    4.0021
   19.980    4.2759
   20.010    4.5182
   20.040    4.2127
   20.070    4.3707
   20.100    4.4339
   20.130    4.2338
   20.160    3.9916
   20.190    4.0653
   20.220    4.2127
   20.250    4.1706
   20.280    4.5287
   20.310    4.3391
   20.340    4.5603
   20.370    5.0553
   20.400    4.8552
   20.430    4.3918
   20.460    4.5392
   20.490    4.3286
   20.520    4.4234
   20.550    4.2338
   20.580    4.4128
   20.610    4.4655
   20.640    4.3286
   20.670    4.2127
   20.700    4.2338
   20.730    4.4866
   20.760    4.3497
   20.790    4.0969
   20.820    4.1601
   20.850    4.3391
   20.880    3.9494
   20.910    4.3181
   20.940    3.8757
   20.970    4.4339
   21.000    4.3286
   21.030    4.2865
   21.060    4.4234
   21.090    3.8757
   21.120    4.4444
   21.150    4.0864
   21.180    4.1811
   21.210    4.2338
   21.240    3.8336
   21.270    4.3707
   21.300    3.9179
   21.330    4.3602
   21.360    4.1390
   21.390    4.0442
   21.420    4.5182
   21.450    3.9916
   21.480    4.2970
   21.510    4.1074
   21.540    4.1496
   21.570    4.0864
   21.600    4.1074
   21.630    3.8757
   21.660    4.0969
   21.690    4.3286
   21.720    4.1706
   21.750    4.5287
   21.780    4.4866
   21.810    4.1074
   21.840    4.6656
   21.870    4.4339
   21.900    4.5919
   21.930    4.4234
   21.960    4.3075
   21.990    4.2338
   22.020    4.1706
   22.050    4.1601
   22.080    4.3602
   22.110    4.3181
   22.140    4.2970
   22.170    4.2865
   22.200    4.2654
   22.230    4.1601
   22.260    4.5603
   22.290    4.3391
   22.320    4.4023
   22.350    4.0969
   22.380    4.1390
   22.410    4.2865
   22.440    4.5919
   22.470    4.5603
   22.500    4.5603
   22.530    4.5392
   22.560    4.7920
   22.590    4.8973
   22.620    4.7815
   22.650    4.2443
   22.680    4.1496
   22.710    4.1811
   22.740    4.0442
   22.770    4.4234
   22.800    4.3181
   22.830    4.5708
   22.860    4.6130
   22.890    4.7499
   22.920    4.9710
   22.950    4.8131
   22.980    4.6972
   23.010    4.2549
   23.040    4.1811
   23.070    3.9600
   23.100    4.3181
   23.130    4.4339
   23.160    4.1074
   23.190    4.3181
   23.220    4.5076
   23.250    4.2022
   23.280    4.3391
   23.310    4.2549
   23.340    4.2338
   23.370    4.0442
   23.400    4.0021
   23.430    3.8441
   23.460    4.3497
   23.490    4.1706
   23.520    4.3918
   23.550    3.8547
   23.580    4.2233
   23.610    4.1180
   23.640    4.3075
   23.670    4.1496
   23.700    3.6230
   23.730    3.6967
   23.760    4.3286
   23.790    4.0126
   23.820    4.2338
   23.850    4.1180
   23.880    4.2022
   23.910    4.2233
   23.940    4.0337
   23.970    4.4866
   24.000    3.8757
   24.030    3.7599
   24.060    4.0969
   24.090    3.9073
   24.120    4.0758
   24.150    4.0969
   24.180    3.8125
   24.210    3.9494
   24.240    4.2654
   24.270    4.0864
   24.300    4.0653
   24.330    3.8231
   24.360    4.0758
   24.390    3.8547
   24.420    4.0969
   24.450    4.0232
   24.480    3.9284
   24.510    4.1706
   24.540    3.7493
   24.570    3.8757
   24.600    4.1496
   24.630    4.0653
   24.660    3.8652
   24.690    4.2127
   24.720    4.1496
   24.750    3.9916
   24.780    3.6651
   24.810    4.2233
   24.840    3.7809
   24.870    4.1496
   24.900    3.8125
   24.930    4.0758
   24.960    3.6967
   24.990    4.1390
   25.020    3.9494
   25.050    4.0548
   25.080    3.6019
   25.110    3.8757
   25.140    3.7704
   25.170    3.7599
   25.200    4.3391
   25.230    3.9073
   25.260    3.9705
   25.290    3.6967
   25.320    3.7283
   25.350    3.6967
   25.380    3.7809
   25.410    3.6546
   25.440    3.7915
   25.470    4.1706
   25.500    3.7388
   25.530    3.9494
   25.560    3.9810
   25.590    4.2338
   25.620    4.0864
   25.650    3.7915
   25.680    3.7704
   25.710    3.7072
   25.740    3.8336
   25.770    3.9916
   25.800    4.5814
   25.830    4.3918
   25.860    4.2127
   25.890    4.0969
   25.920    3.8020
   25.950    3.5387
   25.980    3.8441
   26.010    3.9916
   26.040    3.8020
   26.070    3.8020
   26.100    3.6756
   26.130    3.3807
   26.160    3.9073
   26.190    3.9705
   26.220    3.8863
   26.250    3.5598
   26.280    3.8652
   26.310    3.4018
   26.340    3.7915
   26.370    3.7915
   26.400    3.7493
   26.430    3.9284
   26.460    4.0758
   26.490    3.6756
   26.520    3.9916
   26.550    3.6546
   26.580    3.7283
   26.610    3.8547
   26.640    3.6335
   26.670    3.3702
   26.700    3.7072
   26.730    3.5492
   26.760    3.8441
   26.790    3.8125
   26.820    3.5282
   26.850    3.6967
   26.880    3.8547
   26.910    3.8125
   26.940    3.8863
   26.970    3.9810
   27.000    3.7177
   27.030    3.8968
   27.060    3.8441
   27.090    3.7704
   27.120    3.4755
   27.150    3.7388
   27.180    3.5387
   27.210    3.4229
   27.240    3.4755
   27.270    3.6230
   27.300    3.5176
   27.330    3.4544
   27.360    3.6967
   27.390    3.5387
   27.420    3.6124
   27.450    3.5598
   27.480    3.5387
   27.510    3.7283
   27.540    4.0442
   27.570    3.6967
   27.600    3.5387
   27.630    3.7809
   27.660    3.8020
   27.690    3.4018
   27.720    3.5282
   27.750    3.3913
   27.780    3.4650
   27.810    3.6019
   27.840    3.7915
   27.870    3.5914
   27.900    3.6546
   27.930    3.7915
   27.960    3.7493
   27.990    3.7599
   28.020    3.6756
   28.050    3.7599
   28.080    3.7388
   28.110    3.8125
   28.140    3.9494
   28.170    3.6862
   28.200    4.1180
   28.230    3.5176
   28.260    3.8020
   28.290    3.7072
   28.320    3.4860
   28.350    3.6756
   28.380    3.8336
   28.410    3.6019
   28.440    3.6124
   28.470    3.5492
   28.500    3.8336
   28.530    3.3807
   28.560    3.6756
   28.590    3.7177
   28.620    3.3702
   28.650    3.8441
   28.680    3.8547
   28.710    3.7072
   28.740    3.5282
   28.770    3.5914
   28.800    3.5387
   28.830    3.8336
   28.860    3.5598
   28.890    3.5703
   28.920    3.4123
   28.950    3.6019
   28.980    3.4439
   29.010    3.8336
   29.040    3.9179
   29.070    3.4334
   29.100    3.4229
   29.130    3.4229
   29.160    3.3281
   29.190    3.3386
   29.220    3.4966
   29.250    3.6019
   29.280    3.5282
   29.310    3.5598
   29.340    3.5492
   29.370    3.4123
   29.400    3.5492
   29.430    3.6335
   29.460    3.1806
   29.490    3.3175
   29.520    3.4755
   29.550    3.6440
   29.580    3.1806
   29.610    3.7177
   29.640    3.3386
   29.670    3.3702
   29.700    3.4544
   29.730    3.4755
   29.760    3.4860
   29.790    3.5071
   29.820    3.2965
   29.850    3.1806
   29.880    3.5282
   29.910    3.4018
   29.940    3.4755
   29.970    3.5282
   30.000    3.5071
   30.030    3.6019
   30.060    3.2227
   30.090    3.6230
   30.120    3.6862
   30.150    3.4966
   30.180    3.3175
   30.210    3.2543
   30.240    3.6440
   30.270    3.3702
   30.300    3.0332
   30.330    3.2438
   30.360    3.3491
   30.390    3.3491
   30.420    3.4544
   30.450    3.3913
   30.480    3.8336
   30.510    3.1490
   30.540    3.4966
   30.570    3.4650
   30.600    3.2649
   30.630    3.4650
   30.660    3.4018
   30.690    3.1174
   30.720    3.4334
   30.750    3.4755
   30.780    3.2017
   30.810    3.2649
   30.840    3.2227
   30.870    3.3281
   30.900    3.0648
   30.930    3.4650
   30.960    3.4650
   30.990    3.5071
   31.020    3.4334
   31.050    3.1174
   31.080    3.4229
   31.110    3.3175
   31.140    3.4860
   31.170    3.3702
   31.200    3.3597
   31.230    3.2122
   31.260    3.4018
   31.290    3.4439
   31.320    3.3702
   31.350    3.0121
   31.380    3.3070
   31.410    3.2333
   31.440    3.2754
   31.470    3.3597
   31.500    3.6124
   31.530    3.1701
   31.560    3.6230
   31.590    3.3386
   31.620    3.2859
   31.650    3.1596
   31.680    3.0964
   31.710    3.6756
   31.740    3.5703
   31.770    3.8441
   31.800    3.4966
   31.830    3.1912
   31.860    3.2859
   31.890    3.4123
   31.920    3.1490
   31.950    3.1385
   31.980    3.2122
   32.010    3.3702
   32.040    2.9068
   32.070    3.2754
   32.100    3.5492
   32.130    3.1912
   32.160    3.4123
   32.190    3.4334
   32.220    3.3807
   32.250    3.2859
   32.280    3.2754
   32.310    3.6124
   32.340    3.2543
   32.370    3.5071
   32.400    3.2333
   32.430    3.2227
   32.460    3.2649
   32.490    3.3281
   32.520    3.3175
   32.550    3.2859
   32.580    3.2754
   32.610    3.1806
   32.640    3.0226
   32.670    3.2859
   32.700    3.2333
   32.730    3.3702
   32.760    3.3807
   32.790    3.4229
   32.820    3.3491
   32.850    3.2754
   32.880    3.4650
   32.910    3.2227
   32.940    3.1806
   32.970    3.3597
   33.000    3.2543
   33.030    3.3175
   33.060    3.1806
   33.090    2.9910
   33.120    3.2859
   33.150    3.2859
   33.180    2.9489
   33.210    3.0648
   33.240    3.3281
   33.270    2.9910
   33.300    3.0226
   33.330    3.1806
   33.360    3.1806
   33.390    3.2754
   33.420    3.0542
   33.450    2.9910
   33.480    2.9068
   33.510    3.0753
   33.540    3.0964
   33.570    3.0964
   33.600    3.0964
   33.630    3.0226
   33.660    3.2543
   33.690    3.0016
   33.720    3.0437
   33.750    3.2859
   33.780    3.0437
   33.810    3.3807
   33.840    3.0753
   33.870    3.1596
   33.900    2.9700
   33.930    2.9700
   33.960    3.0016
   33.990    3.1701
   34.020    2.9384
   34.050    2.8541
   34.080    3.2227
   34.110    2.8541
   34.140    3.0437
   34.170    2.9279
   34.200    3.2227
   34.230    3.1069
   34.260    2.9489
   34.290    3.0332
   34.320    2.9384
   34.350    3.2859
   34.380    3.0858
   34.410    3.0016
   34.440    2.9384
   34.470    3.0437
   34.500    3.0648
   34.530    3.0858
   34.560    3.2227
   34.590    3.0753
   34.620    2.8857
   34.650    2.9700
   34.680    2.8647
   34.710    2.9595
   34.740    3.0016
   34.770    3.3175
   34.800    2.9384
   34.830    3.0121
   34.860    3.1280
   34.890    3.1701
   34.920    2.9700
   34.950    2.9173
   34.980    3.1806
   35.010    2.7067
   35.040    3.0332
   35.070    3.0964
   35.100    3.1596
   35.130    3.1174
   35.160    3.2543
   35.190    2.8752
   35.220    2.9384
   35.250    3.2122
   35.280    3.1385
   35.310    2.9595
   35.340    3.1174
   35.370    3.2333
   35.400    3.0437
   35.430    3.1385
   35.460    3.2333
   35.490    2.9068
   35.520    2.8963
   35.550    2.9068
   35.580    3.1490
   35.610    2.9910
   35.640    2.8752
   35.670    3.0437
   35.700    3.0753
   35.730    3.0648
   35.760    2.7804
   35.790    2.9595
   35.820    2.9068
   35.850    3.1174
   35.880    3.0858
   35.910    3.0437
   35.940    3.0858
   35.970    2.7383
   36.000    2.7593
   36.030    2.9173
   36.060    2.9910
   36.090    2.9384
   36.120    2.9910
   36.150    2.9173
   36.180    2.9805
   36.210    2.7909
   36.240    2.9805
   36.270    3.1701
   36.300    2.7383
   36.330    2.7699
   36.360    2.8963
   36.390    3.2017
   36.420    3.0016
   36.450    2.9910
   36.480    2.7593
   36.510    2.9489
   36.540    3.0016
   36.570    3.0437
   36.600    3.1069
   36.630    2.9805
   36.660    3.0226
   36.690    3.0858
   36.720    3.0437
   36.750    2.6435
   36.780    3.0437
   36.810    2.9595
   36.840    2.9910
   36.870    2.9068
   36.900    2.8015
   36.930    3.1069
   36.960    2.8857
   36.990    2.5803
   37.020    2.9173
   37.050    3.2227
   37.080    2.8752
   37.110    3.1596
   37.140    3.1069
   37.170    2.8015
   37.200    2.7804
   37.230    2.8436
   37.260    2.9384
   37.290    3.0226
   37.320    3.0964
   37.350    2.8436
   37.380    3.0858
   37.410    3.0964
   37.440    2.8015
   37.470    2.9279
   37.500    3.0226
   37.530    2.9068
   37.560    3.0753
   37.590    2.9489
   37.620    2.9279
   37.650    2.6119
   37.680    2.9068
   37.710    2.8963
   37.740    2.9279
   37.770    2.7699
   37.800    2.8541
   37.830    2.8647
   37.860    2.8752
   37.890    2.7067
   37.920    2.8752
   37.950    3.0753
   37.980    2.9173
   38.010    2.9279
   38.040    2.9173
   38.070    3.0016
   38.100    3.0332
   38.130    2.8015
   38.160    2.6856
   38.190    2.8120
   38.220    2.8857
   38.250    3.1912
   38.280    2.9279
   38.310    2.8331
   38.340    2.8963
   38.370    2.9489
   38.400    2.9805
   38.430    2.8436
   38.460    3.0437
   38.490    2.8963
   38.520    2.7699
   38.550    2.8436
   38.580    2.7278
   38.610    2.9068
   38.640    2.7383
   38.670    2.8963
   38.700    2.9384
   38.730    2.8647
   38.760    2.9489
   38.790    2.9384
   38.820    2.7488
   38.850    2.9595
   38.880    2.8857
   38.910    3.0437
   38.940    2.6856
   38.970    2.9805
   39.000    2.6646
   39.030    2.9384
   39.060    2.9068
   39.090    2.9279
   39.120    2.7699
   39.150    2.6856
   39.180    2.9068
   39.210    2.7593
   39.240    2.8752
   39.270    2.9068
   39.300    2.8436
   39.330    2.8120
   39.360    2.9489
   39.390    2.9700
   39.420    2.7383
   39.450    2.8752
   39.480    2.7488
   39.510    2.9805
   39.540    2.6962
   39.570    2.8015
   39.600    3.0858
   39.630    2.9700
   39.660    2.8436
   39.690    2.6646
   39.720    2.7172
   39.750    2.7804
   39.780    3.2122
   39.810    2.6540
   39.840    2.7278
   39.870    2.8225
   39.900    2.9279
   39.930    2.7804
   39.960    2.7067
   39.990    2.6856