File: data/PXRD/PXRD_KE-263_Co-Ka1_film-3mm_30s-deg.xyd
    1.500    3.1550
    1.530    3.0640
    1.560    3.0159
    1.590    2.9428
    1.620    2.7287
    1.650    2.6271
    1.680    2.6146
    1.710    2.5682
    1.740    2.4469
    1.770    2.4362
    1.800    2.4915
    1.830    2.3810
    1.860    2.3078
    1.890    2.2508
    1.920    2.1509
    1.950    2.2294
    1.980    2.2525
    2.010    2.1776
    2.040    2.1152
    2.070    2.0403
    2.100    2.0046
    2.130    1.8958
    2.160    1.9226
    2.190    2.0082
    2.220    1.9529
    2.250    1.9476
    2.280    1.8905
    2.310    1.9137
    2.340    1.7514
    2.370    1.7032
    2.400    1.7425
    2.430    1.8209
    2.460    1.6444
    2.490    1.7371
    2.520    1.7264
    2.550    1.7906
    2.580    1.6729
    2.610    1.6961
    2.640    1.6800
    2.670    1.6497
    2.700    1.6212
    2.730    1.5713
    2.760    1.5802
    2.790    1.5695
    2.820    1.5605
    2.850    1.5909
    2.880    1.5534
    2.910    1.5588
    2.940    1.5766
    2.970    1.5784
    3.000    1.5338
    3.030    1.5409
    3.060    1.5481
    3.090    1.5177
    3.120    1.5249
    3.150    1.4874
    3.180    1.5481
    3.210    1.4553
    3.240    1.5070
    3.270    1.4411
    3.300    1.4732
    3.330    1.5605
    3.360    1.5356
    3.390    1.4589
    3.420    1.4660
    3.450    1.4446
    3.480    1.5284
    3.510    1.4321
    3.540    1.4856
    3.570    1.3679
    3.600    1.4268
    3.630    1.3983
    3.660    1.4268
    3.690    1.4179
    3.720    1.4910
    3.750    1.3858
    3.780    1.3358
    3.810    1.3430
    3.840    1.3430
    3.870    1.4286
    3.900    1.3679
    3.930    1.3661
    3.960    1.3858
    3.990    1.4072
    4.020    1.3412
    4.050    1.4304
    4.080    1.3876
    4.110    1.3715
    4.140    1.4090
    4.170    1.3822
    4.200    1.3661
    4.230    1.3893
    4.260    1.4375
    4.290    1.3376
    4.320    1.4304
    4.350    1.3537
    4.380    1.3447
    4.410    1.3519
    4.440    1.3572
    4.470    1.3109
    4.500    1.3822
    4.530    1.3929
    4.560    1.4072
    4.590    1.4072
    4.620    1.3893
    4.650    1.3965
    4.680    1.4375
    4.710    1.4339
    4.740    1.3733
    4.770    1.3590
    4.800    1.3644
    4.830    1.3858
    4.860    1.4446
    4.890    1.4214
    4.920    1.4143
    4.950    1.3733
    4.980    1.4000
    5.010    1.4232
    5.040    1.3751
    5.070    1.3733
    5.100    1.4411
    5.130    1.5035
    5.160    1.3679
    5.190    1.3769
    5.220    1.4000
    5.250    1.3376
    5.280    1.4250
    5.310    1.4500
    5.340    1.3947
    5.370    1.4072
    5.400    1.3769
    5.430    1.3876
    5.460    1.4125
    5.490    1.4125
    5.520    1.5195
    5.550    1.3715
    5.580    1.3519
    5.610    1.4036
    5.640    1.4036
    5.670    1.4589
    5.700    1.4714
    5.730    1.4054
    5.760    1.5659
    5.790    1.5053
    5.820    1.5588
    5.850    1.5552
    5.880    1.5588
    5.910    1.6319
    5.940    1.5944
    5.970    1.6390
    6.000    1.7532
    6.030    1.7068
    6.060    1.6997
    6.090    1.7496
    6.120    1.8905
    6.150    1.7853
    6.180    1.9030
    6.210    1.8620
    6.240    1.9190
    6.270    1.9297
    6.300    1.8673
    6.330    1.9226
    6.360    1.9815
    6.390    2.0243
    6.420    1.9850
    6.450    1.9244
    6.480    1.9137
    6.510    1.9743
    6.540    1.9975
    6.570    1.9493
    6.600    1.8941
    6.630    1.8120
    6.660    1.9672
    6.690    1.8067
    6.720    1.7050
    6.750    1.7567
    6.780    1.6979
    6.810    1.7692
    6.840    1.7764
    6.870    1.5820
    6.900    1.5837
    6.930    1.5730
    6.960    1.5338
    6.990    1.5195
    7.020    1.5552
    7.050    1.4660
    7.080    1.4268
    7.110    1.3947
    7.140    1.4357
    7.170    1.4232
    7.200    1.4393
    7.230    1.4411
    7.260    1.4214
    7.290    1.4197
    7.320    1.4090
    7.350    1.3483
    7.380    1.3233
    7.410    1.3947
    7.440    1.2645
    7.470    1.3661
    7.500    1.3983
    7.530    1.3644
    7.560    1.3572
    7.590    1.3019
    7.620    1.3358
    7.650    1.2805
    7.680    1.2681
    7.710    1.2574
    7.740    1.2395
    7.770    1.2645
    7.800    1.2734
    7.830    1.2930
    7.860    1.2377
    7.890    1.1628
    7.920    1.2538
    7.950    1.2342
    7.980    1.2128
    8.010    1.2288
    8.040    1.1218
    8.070    1.2360
    8.100    1.2235
    8.130    1.1468
    8.160    1.1307
    8.190    1.1646
    8.220    1.0879
    8.250    1.0754
    8.280    1.1040
    8.310    1.0808
    8.340    1.1575
    8.370    1.1111
    8.400    1.1432
    8.430    1.0701
    8.460    1.1165
    8.490    1.1700
    8.520    1.1182
    8.550    1.0309
    8.580    1.0844
    8.610    1.0523
    8.640    1.0130
    8.670    1.0540
    8.700    0.9952
    8.730    1.0202
    8.760    1.0023
    8.790    1.0861
    8.820    1.0647
    8.850    0.9773
    8.880    0.9506
    8.910    1.1111
    8.940    0.9310
    8.970    0.9559
    9.000    0.9452
    9.030    0.9773
    9.060    1.0380
    9.090    0.8953
    9.120    0.9649
    9.150    0.9203
    9.180    0.9542
    9.210    0.9488
    9.240    0.9310
    9.270    0.9595
    9.300    0.8614
    9.330    0.9649
    9.360    0.9185
    9.390    0.9114
    9.420    0.8757
    9.450    0.9328
    9.480    0.8668
    9.510    0.8561
    9.540    0.9042
    9.570    0.8097
    9.600    0.9149
    9.630    0.9060
    9.660    0.9756
    9.690    0.8596
    9.720    0.9078
    9.750    0.8454
    9.780    0.8935
    9.810    0.8525
    9.840    0.8917
    9.870    0.8828
    9.900    0.9024
    9.930    0.8917
    9.960    0.9470
    9.990    0.8668
   10.020    0.9042
   10.050    0.8436
   10.080    0.8614
   10.110    0.8828
   10.140    0.8579
   10.170    0.8900
   10.200    0.8739
   10.230    0.7865
   10.260    0.8632
   10.290    0.8507
   10.320    0.8079
   10.350    0.8489
   10.380    0.8240
   10.410    0.7544
   10.440    0.7901
   10.470    0.8454
   10.500    0.8168
   10.530    0.8311
   10.560    0.8418
   10.590    0.8311
   10.620    0.8632
   10.650    0.7669
   10.680    0.7829
   10.710    0.8026
   10.740    0.8151
   10.770    0.8204
   10.800    0.8579
   10.830    0.8703
   10.860    0.8115
   10.890    0.7615
   10.920    0.8614
   10.950    0.7508
   10.980    0.7919
   11.010    0.8543
   11.040    0.8079
   11.070    0.7972
   11.100    0.8418
   11.130    0.8436
   11.160    0.8204
   11.190    0.8151
   11.220    0.8614
   11.250    0.7259
   11.280    0.8079
   11.310    0.8240
   11.340    0.8026
   11.370    0.8311
   11.400    0.7919
   11.430    0.8489
   11.460    0.8061
   11.490    0.8347
   11.520    0.7419
   11.550    0.7740
   11.580    0.7972
   11.610    0.7562
   11.640    0.8293
   11.670    0.8953
   11.700    0.8650
   11.730    0.8044
   11.760    0.7687
   11.790    0.8008
   11.820    0.8365
   11.850    0.7865
   11.880    0.7901
   11.910    0.8561
   11.940    0.8168
   11.970    0.8347
   12.000    0.8240
   12.030    0.8275
   12.060    0.8382
   12.090    0.7883
   12.120    0.8632
   12.150    0.8293
   12.180    0.9149
   12.210    0.8418
   12.240    0.8168
   12.270    0.9007
   12.300    0.8543
   12.330    0.8882
   12.360    0.8275
   12.390    0.9167
   12.420    0.8365
   12.450    0.8293
   12.480    0.8311
   12.510    0.8186
   12.540    0.8311
   12.570    0.8489
   12.600    0.9345
   12.630    0.8953
   12.660    0.8454
   12.690    0.8329
   12.720    0.8757
   12.750    0.8721
   12.780    0.8900
   12.810    0.8418
   12.840    0.8828
   12.870    0.8204
   12.900    0.8668
   12.930    0.8525
   12.960    0.8365
   12.990    0.8222
   13.020    0.8989
   13.050    0.9345
   13.080    0.8543
   13.110    0.8507
   13.140    0.8097
   13.170    0.8418
   13.200    0.9024
   13.230    0.9060
   13.260    0.9114
   13.290    0.8543
   13.320    0.8436
   13.350    0.8311
   13.380    0.8579
   13.410    0.8703
   13.440    0.7937
   13.470    0.8365
   13.500    0.8757
   13.530    0.8133
   13.560    0.8079
   13.590    0.8953
   13.620    0.8864
   13.650    0.8525
   13.680    0.8882
   13.710    0.9595
   13.740    0.9131
   13.770    0.8311
   13.800    0.8507
   13.830    0.7901
   13.860    0.8686
   13.890    0.8204
   13.920    0.7758
   13.950    0.8650
   13.980    0.8614
   14.010    0.8507
   14.040    0.8329
   14.070    0.7562
   14.100    0.8989
   14.130    0.8810
   14.160    0.8008
   14.190    0.8525
   14.220    0.8008
   14.250    0.7812
   14.280    0.8614
   14.310    0.8329
   14.340    0.7865
   14.370    0.7687
   14.400    0.8596
   14.430    0.7562
   14.460    0.8561
   14.490    0.8668
   14.520    0.8400
   14.550    0.8061
   14.580    0.8489
   14.610    0.7651
   14.640    0.7919
   14.670    0.7669
   14.700    0.7633
   14.730    0.8293
   14.760    0.7901
   14.790    0.7794
   14.820    0.7580
   14.850    0.8347
   14.880    0.8186
   14.910    0.8061
   14.940    0.7794
   14.970    0.7740
   15.000    0.7544
   15.030    0.7687
   15.060    0.7508
   15.090    0.7812
   15.120    0.8115
   15.150    0.7865
   15.180    0.7473
   15.210    0.7954
   15.240    0.7794
   15.270    0.7419
   15.300    0.8133
   15.330    0.8365
   15.360    0.7972
   15.390    0.8365
   15.420    0.8240
   15.450    0.7384
   15.480    0.7776
   15.510    0.7972
   15.540    0.7901
   15.570    0.7865
   15.600    0.7491
   15.630    0.8097
   15.660    0.7829
   15.690    0.7919
   15.720    0.7883
   15.750    0.7687
   15.780    0.7651
   15.810    0.8472
   15.840    0.8222
   15.870    0.7491
   15.900    0.7687
   15.930    0.8329
   15.960    0.7954
   15.990    0.8258
   16.020    0.7776
   16.050    0.8614
   16.080    0.8008
   16.110    0.8275
   16.140    0.8151
   16.170    0.8668
   16.200    0.7937
   16.230    0.8097
   16.260    0.8418
   16.290    0.7901
   16.320    0.7919
   16.350    0.8133
   16.380    0.7687
   16.410    0.8168
   16.440    0.8293
   16.470    0.8472
   16.500    0.8079
   16.530    0.8026
   16.560    0.8382
   16.590    0.8846
   16.620    0.8882
   16.650    0.8917
   16.680    0.8293
   16.710    0.8561
   16.740    0.9631
   16.770    0.9131
   16.800    0.8579
   16.830    0.8400
   16.860    0.9167
   16.890    0.8721
   16.920    0.8971
   16.950    0.8382
   16.980    0.9310
   17.010    0.8614
   17.040    0.7562
   17.070    0.8739
   17.100    0.8632
   17.130    0.8168
   17.160    0.8775
   17.190    0.8668
   17.220    0.8061
   17.250    0.9042
   17.280    0.8472
   17.310    0.8115
   17.340    0.8061
   17.370    0.7919
   17.400    0.8061
   17.430    0.8008
   17.460    0.8418
   17.490    0.7544
   17.520    0.7919
   17.550    0.8311
   17.580    0.8365
   17.610    0.7901
   17.640    0.7972
   17.670    0.8168
   17.700    0.8311
   17.730    0.7348
   17.760    0.7508
   17.790    0.8258
   17.820    0.7205
   17.850    0.7705
   17.880    0.7491
   17.910    0.7990
   17.940    0.7812
   17.970    0.7241
   18.000    0.7865
   18.030    0.7901
   18.060    0.7722
   18.090    0.8222
   18.120    0.7419
   18.150    0.7633
   18.180    0.7259
   18.210    0.7937
   18.240    0.7669
   18.270    0.7758
   18.300    0.7259
   18.330    0.7277
   18.360    0.7580
   18.390    0.7348
   18.420    0.8115
   18.450    0.8008
   18.480    0.8097
   18.510    0.8079
   18.540    0.7562
   18.570    0.7366
   18.600    0.8329
   18.630    0.7901
   18.660    0.8329
   18.690    0.8329
   18.720    0.7526
   18.750    0.7883
   18.780    0.7651
   18.810    0.7580
   18.840    0.8222
   18.870    0.7544
   18.900    0.7865
   18.930    0.7722
   18.960    0.7437
   18.990    0.7740
   19.020    0.7722
   19.050    0.7651
   19.080    0.7722
   19.110    0.7847
   19.140    0.8293
   19.170    0.7722
   19.200    0.7205
   19.230    0.7580
   19.260    0.7705
   19.290    0.7865
   19.320    0.8008
   19.350    0.7223
   19.380    0.8044
   19.410    0.7491
   19.440    0.7508
   19.470    0.7722
   19.500    0.7205
   19.530    0.7419
   19.560    0.7865
   19.590    0.7758
   19.620    0.7544
   19.650    0.7437
   19.680    0.7598
   19.710    0.7829
   19.740    0.7829
   19.770    0.7705
   19.800    0.7669
   19.830    0.7366
   19.860    0.7829
   19.890    0.7134
   19.920    0.7687
   19.950    0.7009
   19.980    0.7562
   20.010    0.7384
   20.040    0.7259
   20.070    0.7277
   20.100    0.7348
   20.130    0.7348
   20.160    0.7241
   20.190    0.7598
   20.220    0.7401
   20.250    0.7544
   20.280    0.7419
   20.310    0.7544
   20.340    0.7455
   20.370    0.7027
   20.400    0.7580
   20.430    0.7740
   20.460    0.7508
   20.490    0.6866
   20.520    0.7562
   20.550    0.7776
   20.580    0.7312
   20.610    0.7758
   20.640    0.7080
   20.670    0.7526
   20.700    0.7152
   20.730    0.7277
   20.760    0.7205
   20.790    0.7633
   20.820    0.7705
   20.850    0.7562
   20.880    0.6973
   20.910    0.6617
   20.940    0.7526
   20.970    0.7919
   21.000    0.7348
   21.030    0.7740
   21.060    0.7491
   21.090    0.7544
   21.120    0.7205
   21.150    0.7954
   21.180    0.7705
   21.210    0.6884
   21.240    0.7241
   21.270    0.6795
   21.300    0.7152
   21.330    0.7294
   21.360    0.7080
   21.390    0.7348
   21.420    0.7580
   21.450    0.7419
   21.480    0.7526
   21.510    0.7455
   21.540    0.7812
   21.570    0.7419
   21.600    0.7812
   21.630    0.7508
   21.660    0.7384
   21.690    0.7063
   21.720    0.7437
   21.750    0.7455
   21.780    0.7116
   21.810    0.7419
   21.840    0.7740
   21.870    0.7098
   21.900    0.7170
   21.930    0.7259
   21.960    0.6688
   21.990    0.6956
   22.020    0.7651
   22.050    0.6902
   22.080    0.7633
   22.110    0.6920
   22.140    0.7294
   22.170    0.7027
   22.200    0.7116
   22.230    0.6831
   22.260    0.6973
   22.290    0.7526
   22.320    0.7473
   22.350    0.6831
   22.380    0.7152
   22.410    0.7633
   22.440    0.7455
   22.470    0.7294
   22.500    0.7080
   22.530    0.7223
   22.560    0.7366
   22.590    0.7633
   22.620    0.6920
   22.650    0.6849
   22.680    0.6421
   22.710    0.6956
   22.740    0.6742
   22.770    0.7812
   22.800    0.6938
   22.830    0.6742
   22.860    0.6617
   22.890    0.6421
   22.920    0.6973
   22.950    0.6973
   22.980    0.6902
   23.010    0.7080
   23.040    0.6528
   23.070    0.6831
   23.100    0.7080
   23.130    0.6920
   23.160    0.6849
   23.190    0.6973
   23.220    0.6938
   23.250    0.7401
   23.280    0.6849
   23.310    0.7098
   23.340    0.6510
   23.370    0.6652
   23.400    0.6563
   23.430    0.6635
   23.460    0.6813
   23.490    0.6884
   23.520    0.7152
   23.550    0.6759
   23.580    0.6920
   23.610    0.6884
   23.640    0.6367
   23.670    0.6189
   23.700    0.6314
   23.730    0.6938
   23.760    0.6581
   23.790    0.7116
   23.820    0.6849
   23.850    0.6064
   23.880    0.6349
   23.910    0.6759
   23.940    0.6884
   23.970    0.6956
   24.000    0.6492
   24.030    0.6563
   24.060    0.6224
   24.090    0.6260
   24.120    0.6028
   24.150    0.6849
   24.180    0.6403
   24.210    0.6545
   24.240    0.6813
   24.270    0.6581
   24.300    0.6224
   24.330    0.6421
   24.360    0.6135
   24.390    0.6563
   24.420    0.6438
   24.450    0.6189
   24.480    0.6849
   24.510    0.6492
   24.540    0.6242
   24.570    0.6082
   24.600    0.6956
   24.630    0.6278
   24.660    0.6492
   24.690    0.6278
   24.720    0.6831
   24.750    0.6563
   24.780    0.6795
   24.810    0.6545
   24.840    0.6973
   24.870    0.5903
   24.900    0.6563
   24.930    0.6724
   24.960    0.7384
   24.990    0.6617
   25.020    0.6385
   25.050    0.6617
   25.080    0.6670
   25.110    0.6545
   25.140    0.6492
   25.170    0.6438
   25.200    0.6331
   25.230    0.6742
   25.260    0.6278
   25.290    0.6438
   25.320    0.5796
   25.350    0.6688
   25.380    0.6403
   25.410    0.6064
   25.440    0.6510
   25.470    0.6135
   25.500    0.6367
   25.530    0.6046
   25.560    0.6349
   25.590    0.6777
   25.620    0.6403
   25.650    0.5921
   25.680    0.6296
   25.710    0.6242
   25.740    0.6599
   25.770    0.5993
   25.800    0.6331
   25.830    0.6189
   25.860    0.6670
   25.890    0.6046
   25.920    0.5689
   25.950    0.6135
   25.980    0.5993
   26.010    0.5903
   26.040    0.5689
   26.070    0.5814
   26.100    0.5868
   26.130    0.5600
   26.160    0.5761
   26.190    0.5975
   26.220    0.6349
   26.250    0.6100
   26.280    0.5903
   26.310    0.6046
   26.340    0.6314
   26.370    0.5975
   26.400    0.5886
   26.430    0.6331
   26.460    0.5707
   26.490    0.6117
   26.520    0.5868
   26.550    0.5440
   26.580    0.5654
   26.610    0.5582
   26.640    0.6207
   26.670    0.5814
   26.700    0.5832
   26.730    0.5850
   26.760    0.5975
   26.790    0.5814
   26.820    0.5350
   26.850    0.5689
   26.880    0.4869
   26.910    0.5743
   26.940    0.5975
   26.970    0.5618
   27.000    0.6010
   27.030    0.5564
   27.060    0.6260
   27.090    0.5796
   27.120    0.5618
   27.150    0.6028
   27.180    0.5582
   27.210    0.5654
   27.240    0.5725
   27.270    0.5975
   27.300    0.5600
   27.330    0.5226
   27.360    0.5636
   27.390    0.5261
   27.420    0.5814
   27.450    0.5261
   27.480    0.5279
   27.510    0.5850
   27.540    0.5939
   27.570    0.5564
   27.600    0.5475
   27.630    0.5636
   27.660    0.6100
   27.690    0.5440
   27.720    0.5921
   27.750    0.5903
   27.780    0.5689
   27.810    0.5119
   27.840    0.5547
   27.870    0.5457
   27.900    0.5368
   27.930    0.5743
   27.960    0.5065
   27.990    0.5564
   28.020    0.5083
   28.050    0.5261
   28.080    0.5600
   28.110    0.5457
   28.140    0.5475
   28.170    0.5243
   28.200    0.5243
   28.230    0.5297
   28.260    0.5315
   28.290    0.5636
   28.320    0.5939
   28.350    0.6314
   28.380    0.6777
   28.410    0.6545
   28.440    0.6189
   28.470    0.5083
   28.500    0.5083
   28.530    0.5422
   28.560    0.5190
   28.590    0.4869
   28.620    0.5440
   28.650    0.5154
   28.680    0.5350
   28.710    0.5511
   28.740    0.5315
   28.770    0.4958
   28.800    0.5065
   28.830    0.5457
   28.860    0.5279
   28.890    0.5012
   28.920    0.5172
   28.950    0.5226
   28.980    0.5279
   29.010    0.4958
   29.040    0.4584
   29.070    0.5315
   29.100    0.5119
   29.130    0.5297
   29.160    0.4994
   29.190    0.5208
   29.220    0.5279
   29.250    0.4869
   29.280    0.5208
   29.310    0.4726
   29.340    0.4815
   29.370    0.5368
   29.400    0.4833
   29.430    0.5065
   29.460    0.5422
   29.490    0.4798
   29.520    0.5511
   29.550    0.6028
   29.580    0.6367
   29.610    0.6438
   29.640    0.5083
   29.670    0.4869
   29.700    0.4762
   29.730    0.5208
   29.760    0.5404
   29.790    0.5582
   29.820    0.4691
   29.850    0.5012
   29.880    0.5350
   29.910    0.5440
   29.940    0.4958
   29.970    0.5136
   30.000    0.5636
   30.030    0.4798
   30.060    0.4869
   30.090    0.5493
   30.120    0.5903
   30.150    0.6207
   30.180    0.6581
   30.210    0.5993
   30.240    0.5868
   30.270    0.4833
   30.300    0.4976
   30.330    0.5297
   30.360    0.4922
   30.390    0.5172
   30.420    0.4780
   30.450    0.4940
   30.480    0.5065
   30.510    0.4887
   30.540    0.4905
   30.570    0.4512
   30.600    0.4851
   30.630    0.4673
   30.660    0.4744
   30.690    0.4958
   30.720    0.4815
   30.750    0.4619
   30.780    0.5279
   30.810    0.4673
   30.840    0.4673
   30.870    0.4976
   30.900    0.4673
   30.930    0.4744
   30.960    0.5208
   30.990    0.5029
   31.020    0.5226
   31.050    0.4530
   31.080    0.4512
   31.110    0.4459
   31.140    0.4940
   31.170    0.4566
   31.200    0.4905
   31.230    0.4566
   31.260    0.4762
   31.290    0.5154
   31.320    0.5850
   31.350    0.6563
   31.380    0.7865
   31.410    0.7437
   31.440    0.5618
   31.470    0.5243
   31.500    0.4798
   31.530    0.4584
   31.560    0.4584
   31.590    0.4530
   31.620    0.4316
   31.650    0.4584
   31.680    0.4869
   31.710    0.4031
   31.740    0.3995
   31.770    0.4263
   31.800    0.4708
   31.830    0.4780
   31.860    0.4584
   31.890    0.6100
   31.920    0.6670
   31.950    0.6117
   31.980    0.5903
   32.010    0.5119
   32.040    0.4762
   32.070    0.4512
   32.100    0.4245
   32.130    0.4049
   32.160    0.4566
   32.190    0.4120
   32.220    0.3888
   32.250    0.4084
   32.280    0.4280
   32.310    0.4280
   32.340    0.3995
   32.370    0.4316
   32.400    0.4191
   32.430    0.4441
   32.460    0.4352
   32.490    0.4173
   32.520    0.4120
   32.550    0.4245
   32.580    0.4049
   32.610    0.4209
   32.640    0.4084
   32.670    0.4227
   32.700    0.4191
   32.730    0.3852
   32.760    0.4245
   32.790    0.4138
   32.820    0.4120
   32.850    0.4066
   32.880    0.4370
   32.910    0.4459
   32.940    0.3906
   32.970    0.4548
   33.000    0.4405
   33.030    0.4263
   33.060    0.4156
   33.090    0.4120
   33.120    0.3799
   33.150    0.4156
   33.180    0.4263
   33.210    0.4138
   33.240    0.4209
   33.270    0.4049
   33.300    0.3745
   33.330    0.3906
   33.360    0.4084
   33.390    0.4227
   33.420    0.4173
   33.450    0.3834
   33.480    0.4156
   33.510    0.4334
   33.540    0.4173
   33.570    0.4584
   33.600    0.4298
   33.630    0.4566
   33.660    0.4601
   33.690    0.4601
   33.720    0.4245
   33.750    0.4370
   33.780    0.4013
   33.810    0.3977
   33.840    0.4316
   33.870    0.4227
   33.900    0.4031
   33.930    0.3977
   33.960    0.4173
   33.990    0.3959
   34.020    0.3906
   34.050    0.4013
   34.080    0.4298
   34.110    0.4370
   34.140    0.3906
   34.170    0.4013
   34.200    0.3674
   34.230    0.3924
   34.260    0.3995
   34.290    0.4352
   34.320    0.3692
   34.350    0.3710
   34.380    0.3870
   34.410    0.4084
   34.440    0.3620
   34.470    0.3692
   34.500    0.3442
   34.530    0.3692
   34.560    0.3638
   34.590    0.4102
   34.620    0.3282
   34.650    0.3620
   34.680    0.3496
   34.710    0.3228
   34.740    0.3496
   34.770    0.3513
   34.800    0.3531
   34.830    0.3246
   34.860    0.3656
   34.890    0.3389
   34.920    0.3674
   34.950    0.3192
   34.980    0.3603
   35.010    0.3781
   35.040    0.3513
   35.070    0.3406
   35.100    0.3781
   35.130    0.3781
   35.160    0.3620
   35.190    0.3513
   35.220    0.3210
   35.250    0.3781
   35.280    0.3121
   35.310    0.2907
   35.340    0.3496
   35.370    0.3531
   35.400    0.4173
   35.430    0.3478
   35.460    0.3085
   35.490    0.3299
   35.520    0.3014
   35.550    0.3603
   35.580    0.3192
   35.610    0.3335
   35.640    0.3924
   35.670    0.3335
   35.700    0.3460
   35.730    0.3068
   35.760    0.3121
   35.790    0.3282
   35.820    0.2871
   35.850    0.2996
   35.880    0.3157
   35.910    0.3103
   35.940    0.2961
   35.970    0.2836
   36.000    0.3371
   36.030    0.3531
   36.060    0.3549
   36.090    0.3496
   36.120    0.3175
   36.150    0.3264
   36.180    0.2943
   36.210    0.3317
   36.240    0.3192
   36.270    0.3192
   36.300    0.2978
   36.330    0.3085
   36.360    0.3014
   36.390    0.2871
   36.420    0.2925
   36.450    0.3032
   36.480    0.2854
   36.510    0.2747
   36.540    0.3192
   36.570    0.3282
   36.600    0.3175
   36.630    0.3246
   36.660    0.3032
   36.690    0.3032
   36.720    0.2711
   36.750    0.3282
   36.780    0.2764
   36.810    0.3121
   36.840    0.3246
   36.870    0.3121
   36.900    0.2818
   36.930    0.2943
   36.960    0.2889
   36.990    0.2961
   37.020    0.3032
   37.050    0.3175
   37.080    0.3157
   37.110    0.2907
   37.140    0.3299
   37.170    0.3603
   37.200    0.3210
   37.230    0.3032
   37.260    0.2871
   37.290    0.2889
   37.320    0.3192
   37.350    0.2889
   37.380    0.2925
   37.410    0.2925
   37.440    0.2818
   37.470    0.3246
   37.500    0.2889
   37.530    0.3192
   37.560    0.3299
   37.590    0.3246
   37.620    0.2907
   37.650    0.2961
   37.680    0.2996
   37.710    0.2889
   37.740    0.2515
   37.770    0.3192
   37.800    0.3050
   37.830    0.2925
   37.860    0.2533
   37.890    0.2764
   37.920    0.3103
   37.950    0.2764
   37.980    0.2764
   38.010    0.2747
   38.040    0.2961
   38.070    0.2711
   38.100    0.2871
   38.130    0.2854
   38.160    0.3139
   38.190    0.2675
   38.220    0.2836
   38.250    0.3032
   38.280    0.3068
   38.310    0.2497
   38.340    0.2640
   38.370    0.2782
   38.400    0.2657
   38.430    0.2729
   38.460    0.2533
   38.490    0.2497
   38.520    0.2657
   38.550    0.2533
   38.580    0.2764
   38.610    0.2961
   38.640    0.2354
   38.670    0.2319
   38.700    0.2711
   38.730    0.2961
   38.760    0.2996
   38.790    0.2461
   38.820    0.2675
   38.850    0.2604
   38.880    0.3014
   38.910    0.2729
   38.940    0.2622
   38.970    0.2693
   39.000    0.2586
   39.030    0.2390
   39.060    0.2354
   39.090    0.2782
   39.120    0.2871
   39.150    0.2212
   39.180    0.2265
   39.210    0.2568
   39.240    0.2533
   39.270    0.2319
   39.300    0.2675
   39.330    0.2818
   39.360    0.2657
   39.390    0.2479
   39.420    0.2533
   39.450    0.2515
   39.480    0.2390
   39.510    0.2943
   39.540    0.2408
   39.570    0.2533
   39.600    0.2497
   39.630    0.2426
   39.660    0.2497
   39.690    0.2657
   39.720    0.2889
   39.750    0.2693
   39.780    0.2693
   39.810    0.2550
   39.840    0.2140
   39.870    0.2336
   39.900    0.2390
   39.930    0.2640
   39.960    0.2426
   39.990    0.2461