File: data/PXRD/PXRD_KE-312-2_Cu-Ka1_capillary-1mm_3s-deg.xyd
    1.500   11.7606
    1.530   11.7430
    1.560   10.6723
    1.590   10.6547
    1.620   10.4441
    1.650    9.8824
    1.680   10.0579
    1.710    9.7595
    1.740    9.2329
    1.770    9.3031
    1.800    9.0398
    1.830    8.4606
    1.860    8.4430
    1.890    8.4781
    1.920    8.5308
    1.950    8.4430
    1.980    8.4430
    2.010    8.1797
    2.040    7.8638
    2.070    7.9164
    2.100    8.0042
    2.130    7.9867
    2.160    7.4250
    2.190    7.4250
    2.220    7.4074
    2.250    6.9335
    2.280    8.0569
    2.310    7.1266
    2.340    7.0212
    2.370    7.6883
    2.400    6.9159
    2.430    7.1968
    2.460    7.8813
    2.490    7.3547
    2.520    7.1266
    2.550    6.8808
    2.580    7.2143
    2.610    7.5478
    2.640    7.3372
    2.670    7.3547
    2.700    7.3547
    2.730    7.4074
    2.760    7.2494
    2.790    8.1622
    2.820    7.5303
    2.850    7.8111
    2.880    8.1973
    2.910    7.8989
    2.940    7.6356
    2.970    8.0218
    3.000    8.1271
    3.030    8.3728
    3.060    8.6712
    3.090    9.0574
    3.120    8.4606
    3.150    9.4436
    3.180    9.5489
    3.210    9.7069
    3.240    9.6718
    3.270   10.3914
    3.300   10.6898
    3.330   10.7776
    3.360   11.4973
    3.390   11.4095
    3.420   12.4451
    3.450   13.4106
    3.480   12.6909
    3.510   13.9723
    3.540   14.1302
    3.570   15.8856
    3.600   16.5175
    3.630   17.0792
    3.660   19.0276
    3.690   20.5020
    3.720   22.0467
    3.750   26.6105
    3.780   30.1913
    3.810   37.5987
    3.840   41.9695
    3.870   33.4562
    3.900   20.1334
    3.930   12.8840
    3.960    9.1627
    3.990    7.9164
    4.020    7.3372
    4.050    6.7755
    4.080    7.0037
    4.110    6.5473
    4.140    6.8984
    4.170    6.5824
    4.200    6.6175
    4.230    5.9856
    4.260    6.8633
    4.290    6.5122
    4.320    6.4771
    4.350    5.9681
    4.380    6.2665
    4.410    5.7574
    4.440    6.4069
    4.470    6.1787
    4.500    5.8978
    4.530    5.5117
    4.560    5.8627
    4.590    5.8452
    4.620    6.2665
    4.650    5.8978
    4.680    6.0558
    4.710    6.1260
    4.740    6.0734
    4.770    6.5122
    4.800    6.1260
    4.830    5.6345
    4.860    6.2138
    4.890    5.8978
    4.920    5.6345
    4.950    5.7048
    4.980    5.7048
    5.010    6.3016
    5.040    5.5819
    5.070    5.8452
    5.100    6.3016
    5.130    6.2138
    5.160    6.4420
    5.190    6.4595
    5.220    6.1260
    5.250    6.6000
    5.280    6.9159
    5.310    7.1968
    5.340    7.4425
    5.370    7.5829
    5.400    8.2149
    5.430    8.7239
    5.460    8.7063
    5.490    7.9340
    5.520    7.4074
    5.550    6.2313
    5.580    5.8101
    5.610    5.6872
    5.640    5.9329
    5.670    5.4064
    5.700    5.8101
    5.730    5.4064
    5.760    5.7399
    5.790    5.6697
    5.820    5.6345
    5.850    5.3537
    5.880    6.0032
    5.910    5.5292
    5.940    5.5643
    5.970    5.6345
    6.000    6.1260
    6.030    5.3888
    6.060    5.7574
    6.090    5.4415
    6.120    5.9681
    6.150    5.1606
    6.180    5.5468
    6.210    5.6521
    6.240    5.7223
    6.270    5.7925
    6.300    6.1260
    6.330    5.7223
    6.360    5.5292
    6.390    5.6521
    6.420    6.0909
    6.450    5.5819
    6.480    5.6345
    6.510    5.7574
    6.540    6.1962
    6.570    5.8627
    6.600    6.1787
    6.630    6.0207
    6.660    6.6351
    6.690    6.2138
    6.720    6.6000
    6.750    6.0909
    6.780    6.0383
    6.810    6.1611
    6.840    5.5292
    6.870    6.0558
    6.900    6.5824
    6.930    5.7750
    6.960    6.0909
    6.990    6.0734
    7.020    5.8803
    7.050    5.9856
    7.080    6.1611
    7.110    5.9154
    7.140    6.2840
    7.170    6.2138
    7.200    5.7399
    7.230    5.3186
    7.260    5.6697
    7.290    5.8627
    7.320    5.6872
    7.350    6.1436
    7.380    5.9505
    7.410    6.0558
    7.440    6.2665
    7.470    6.2665
    7.500    5.9329
    7.530    6.4946
    7.560    6.6877
    7.590    6.2665
    7.620    6.8282
    7.650    6.6702
    7.680    7.3372
    7.710    7.3372
    7.740    7.2845
    7.770    8.2851
    7.800    7.3021
    7.830    6.3191
    7.860    6.1962
    7.890    6.5298
    7.920    6.2840
    7.950    6.3367
    7.980    6.3718
    8.010    6.1787
    8.040    5.8101
    8.070    6.1260
    8.100    6.2489
    8.130    6.6526
    8.160    5.9681
    8.190    5.7048
    8.220    6.6526
    8.250    6.3893
    8.280    6.4771
    8.310    5.8276
    8.340    6.3718
    8.370    6.2489
    8.400    6.7228
    8.430    5.8276
    8.460    6.3718
    8.490    6.1436
    8.520    6.5649
    8.550    6.1962
    8.580    6.3367
    8.610    6.3542
    8.640    6.7228
    8.670    6.4595
    8.700    6.5298
    8.730    6.8457
    8.760    6.4946
    8.790    6.3016
    8.820    6.2138
    8.850    6.2489
    8.880    6.8106
    8.910    6.6351
    8.940    6.7755
    8.970    7.0388
    9.000    6.2665
    9.030    6.8282
    9.060    6.4244
    9.090    6.9159
    9.120    6.8282
    9.150    6.2313
    9.180    6.6175
    9.210    6.4595
    9.240    6.4244
    9.270    7.0037
    9.300    7.0212
    9.330    7.0388
    9.360    7.6005
    9.390    6.6702
    9.420    7.0915
    9.450    7.9516
    9.480    7.9516
    9.510    8.6712
    9.540    8.3553
    9.570    8.0744
    9.600    8.0042
    9.630    6.9510
    9.660    7.3899
    9.690    7.1617
    9.720    6.6702
    9.750    6.7579
    9.780    6.4946
    9.810    7.2143
    9.840    7.0388
    9.870    7.0739
    9.900    6.6702
    9.930    7.1617
    9.960    7.2319
    9.990    7.0212
   10.020    6.8984
   10.050    6.7404
   10.080    6.8457
   10.110    6.9510
   10.140    6.8808
   10.170    7.2143
   10.200    7.3372
   10.230    7.5127
   10.260    7.4425
   10.290    7.7760
   10.320    7.1968
   10.350    6.9861
   10.380    7.1266
   10.410    6.6877
   10.440    7.1266
   10.470    7.0915
   10.500    6.7579
   10.530    7.1266
   10.560    7.2670
   10.590    6.9159
   10.620    6.7228
   10.650    6.7404
   10.680    6.6351
   10.710    6.6351
   10.740    6.4946
   10.770    6.8282
   10.800    7.0388
   10.830    6.4946
   10.860    7.1968
   10.890    6.7579
   10.920    6.8106
   10.950    7.4776
   10.980    7.2845
   11.010    7.7585
   11.040    7.0037
   11.070    7.0739
   11.100    6.6702
   11.130    6.3191
   11.160    6.3718
   11.190    6.3718
   11.220    6.3016
   11.250    6.3367
   11.280    6.5298
   11.310    6.4420
   11.340    6.5824
   11.370    6.5824
   11.400    6.9510
   11.430    6.7579
   11.460    7.0563
   11.490    6.3893
   11.520    6.7053
   11.550    6.1787
   11.580    6.8282
   11.610    6.7930
   11.640    7.2143
   11.670    7.1266
   11.700    6.9510
   11.730    6.4771
   11.760    6.5122
   11.790    6.5649
   11.820    6.3718
   11.850    6.0383
   11.880    5.8276
   11.910    6.2313
   11.940    6.4771
   11.970    5.9154
   12.000    6.3367
   12.030    6.6000
   12.060    6.3367
   12.090    6.4244
   12.120    6.5122
   12.150    5.6872
   12.180    6.0909
   12.210    5.8276
   12.240    6.0734
   12.270    5.8627
   12.300    6.4420
   12.330    6.3016
   12.360    6.1787
   12.390    5.7048
   12.420    6.6526
   12.450    5.7223
   12.480    6.0032
   12.510    6.3542
   12.540    6.2665
   12.570    5.6872
   12.600    5.7925
   12.630    6.1436
   12.660    6.3367
   12.690    5.7223
   12.720    6.0207
   12.750    5.7750
   12.780    5.8978
   12.810    6.0909
   12.840    5.7399
   12.870    6.5298
   12.900    6.3893
   12.930    6.3016
   12.960    6.0383
   12.990    6.1962
   13.020    5.9856
   13.050    5.3186
   13.080    5.9154
   13.110    6.4420
   13.140    5.6170
   13.170    6.3016
   13.200    6.1611
   13.230    5.5643
   13.260    5.8627
   13.290    5.6521
   13.320    5.5292
   13.350    5.6872
   13.380    5.8101
   13.410    5.9856
   13.440    5.9856
   13.470    6.2138
   13.500    5.8627
   13.530    5.9856
   13.560    5.9681
   13.590    5.7750
   13.620    5.8101
   13.650    5.9681
   13.680    5.8101
   13.710    6.0734
   13.740    5.7223
   13.770    6.4946
   13.800    5.5994
   13.830    5.7925
   13.860    5.8452
   13.890    5.6170
   13.920    5.5292
   13.950    5.9505
   13.980    5.6872
   14.010    5.9329
   14.040    6.1085
   14.070    5.9329
   14.100    6.1260
   14.130    6.0383
   14.160    6.0734
   14.190    5.4064
   14.220    5.6170
   14.250    6.0558
   14.280    6.1611
   14.310    5.7223
   14.340    5.7574
   14.370    5.9681
   14.400    5.9154
   14.430    6.1260
   14.460    5.5117
   14.490    6.3016
   14.520    5.9681
   14.550    5.7574
   14.580    5.8452
   14.610    5.6521
   14.640    5.7574
   14.670    5.3010
   14.700    6.2840
   14.730    5.6697
   14.760    5.6345
   14.790    5.8803
   14.820    5.5117
   14.850    5.4064
   14.880    5.9329
   14.910    5.8978
   14.940    5.7399
   14.970    5.5819
   15.000    6.0734
   15.030    5.5292
   15.060    6.1260
   15.090    5.7399
   15.120    5.8101
   15.150    5.8276
   15.180    5.5819
   15.210    5.5643
   15.240    5.4590
   15.270    5.2835
   15.300    5.8978
   15.330    6.1085
   15.360    5.4064
   15.390    5.7574
   15.420    5.6872
   15.450    5.4239
   15.480    5.6521
   15.510    5.7925
   15.540    6.0032
   15.570    5.7048
   15.600    5.4590
   15.630    5.6170
   15.660    5.3361
   15.690    6.0207
   15.720    6.1260
   15.750    5.9154
   15.780    5.8803
   15.810    5.8276
   15.840    5.3712
   15.870    6.1085
   15.900    5.8101
   15.930    5.7574
   15.960    5.5643
   15.990    5.9681
   16.020    5.5819
   16.050    5.7925
   16.080    5.7223
   16.110    5.8101
   16.140    5.6697
   16.170    5.9154
   16.200    5.9856
   16.230    5.6872
   16.260    5.9329
   16.290    5.4766
   16.320    5.7925
   16.350    5.4941
   16.380    5.8276
   16.410    5.5994
   16.440    5.9856
   16.470    5.7925
   16.500    5.7925
   16.530    6.4771
   16.560    5.9505
   16.590    5.6345
   16.620    5.8452
   16.650    6.1085
   16.680    6.0032
   16.710    5.5292
   16.740    5.7574
   16.770    5.8101
   16.800    5.7223
   16.830    5.6697
   16.860    6.1260
   16.890    5.7925
   16.920    5.8276
   16.950    5.7223
   16.980    6.0909
   17.010    5.9856
   17.040    6.5122
   17.070    6.0558
   17.100    5.9154
   17.130    5.8627
   17.160    5.8978
   17.190    6.1085
   17.220    5.9505
   17.250    5.8276
   17.280    5.9154
   17.310    5.8803
   17.340    6.0032
   17.370    5.9856
   17.400    5.8452
   17.430    5.8101
   17.460    5.6521
   17.490    5.7223
   17.520    5.4941
   17.550    5.3888
   17.580    5.7399
   17.610    5.3537
   17.640    5.9681
   17.670    5.8276
   17.700    5.9329
   17.730    5.8101
   17.760    5.7925
   17.790    5.5468
   17.820    6.3367
   17.850    5.7750
   17.880    5.8276
   17.910    5.7925
   17.940    6.5824
   17.970    6.2138
   18.000    5.5468
   18.030    5.6872
   18.060    5.7223
   18.090    6.3367
   18.120    5.8803
   18.150    5.3537
   18.180    5.0377
   18.210    6.1260
   18.240    5.9681
   18.270    5.4766
   18.300    5.7750
   18.330    5.7574
   18.360    5.5819
   18.390    6.1085
   18.420    6.1436
   18.450    5.4766
   18.480    5.2484
   18.510    6.0734
   18.540    5.7223
   18.570    5.5819
   18.600    5.9505
   18.630    5.8803
   18.660    5.7048
   18.690    5.8452
   18.720    6.1085
   18.750    6.0032
   18.780    5.8978
   18.810    6.0909
   18.840    6.1962
   18.870    5.5468
   18.900    5.8276
   18.930    5.6697
   18.960    6.0383
   18.990    5.7399
   19.020    6.0032
   19.050    5.9681
   19.080    6.1436
   19.110    5.9505
   19.140    5.7223
   19.170    5.9329
   19.200    5.6170
   19.230    5.6872
   19.260    5.9154
   19.290    6.0207
   19.320    6.1611
   19.350    5.5819
   19.380    5.7048
   19.410    6.1260
   19.440    5.8276
   19.470    5.5819
   19.500    6.0909
   19.530    6.0207
   19.560    5.8101
   19.590    6.0734
   19.620    6.3542
   19.650    6.1611
   19.680    6.2489
   19.710    5.9154
   19.740    5.9329
   19.770    5.4766
   19.800    5.8627
   19.830    6.0909
   19.860    6.2840
   19.890    6.0909
   19.920    6.0207
   19.950    6.1787
   19.980    5.3888
   20.010    5.6872
   20.040    5.7750
   20.070    5.5643
   20.100    5.8978
   20.130    6.1962
   20.160    5.7048
   20.190    5.9329
   20.220    6.3016
   20.250    6.2313
   20.280    5.9329
   20.310    6.4595
   20.340    6.4069
   20.370    6.5473
   20.400    6.0558
   20.430    6.5473
   20.460    5.7399
   20.490    5.7925
   20.520    6.3367
   20.550    5.9856
   20.580    6.3367
   20.610    5.7750
   20.640    6.1436
   20.670    6.0032
   20.700    6.3367
   20.730    6.1085
   20.760    5.4415
   20.790    6.1085
   20.820    5.4239
   20.850    5.8101
   20.880    5.6345
   20.910    5.9505
   20.940    5.9681
   20.970    5.8978
   21.000    5.8627
   21.030    6.0383
   21.060    6.1260
   21.090    5.7574
   21.120    5.9681
   21.150    6.2840
   21.180    5.7399
   21.210    5.8452
   21.240    6.0734
   21.270    6.4244
   21.300    6.1436
   21.330    5.9505
   21.360    6.3718
   21.390    6.3893
   21.420    6.4244
   21.450    6.0734
   21.480    5.8276
   21.510    5.9856
   21.540    5.9154
   21.570    5.9329
   21.600    6.1436
   21.630    6.2665
   21.660    6.4069
   21.690    5.8803
   21.720    6.4946
   21.750    6.1260
   21.780    6.0032
   21.810    6.5122
   21.840    6.5824
   21.870    6.3542
   21.900    6.6526
   21.930    6.0909
   21.960    6.3367
   21.990    6.2665
   22.020    6.1611
   22.050    6.6702
   22.080    6.1260
   22.110    6.3718
   22.140    6.2138
   22.170    6.6000
   22.200    5.9154
   22.230    6.2138
   22.260    6.2665
   22.290    6.2840
   22.320    6.6877
   22.350    6.6175
   22.380    5.9505
   22.410    6.7404
   22.440    6.1260
   22.470    6.6351
   22.500    7.2319
   22.530    6.1085
   22.560    6.8808
   22.590    6.1962
   22.620    6.2138
   22.650    6.5473
   22.680    6.2313
   22.710    6.2489
   22.740    6.6175
   22.770    6.4244
   22.800    6.2840
   22.830    6.2665
   22.860    6.9335
   22.890    6.3191
   22.920    7.1968
   22.950    6.6877
   22.980    6.4595
   23.010    6.6000
   23.040    5.7048
   23.070    6.5122
   23.100    6.2665
   23.130    6.2138
   23.160    6.0909
   23.190    6.6175
   23.220    6.6175
   23.250    5.9329
   23.280    6.3718
   23.310    5.8276
   23.340    6.5122
   23.370    5.8803
   23.400    6.3718
   23.430    6.4771
   23.460    6.6175
   23.490    6.0032
   23.520    6.0207
   23.550    6.7228
   23.580    6.3718
   23.610    6.2138
   23.640    6.5473
   23.670    6.1436
   23.700    6.0558
   23.730    6.1962
   23.760    5.8627
   23.790    6.1085
   23.820    6.1962
   23.850    6.0207
   23.880    6.4069
   23.910    5.5468
   23.940    6.1611
   23.970    5.8101
   24.000    6.1787
   24.030    5.8276
   24.060    5.9856
   24.090    5.7925
   24.120    6.0558
   24.150    5.9329
   24.180    5.8803
   24.210    6.5122
   24.240    6.5122
   24.270    5.8452
   24.300    6.5122
   24.330    6.1611
   24.360    5.7925
   24.390    5.8101
   24.420    6.3016
   24.450    6.1611
   24.480    5.5819
   24.510    6.0207
   24.540    5.9681
   24.570    6.2489
   24.600    6.2840
   24.630    6.1085
   24.660    6.1787
   24.690    5.8803
   24.720    6.2665
   24.750    6.4420
   24.780    6.3016
   24.810    6.0032
   24.840    6.3016
   24.870    5.7574
   24.900    5.9329
   24.930    5.8978
   24.960    6.0909
   24.990    6.0032
   25.020    6.1260
   25.050    5.9154
   25.080    6.1436
   25.110    6.0032
   25.140    6.1436
   25.170    6.0032
   25.200    5.8276
   25.230    6.0909
   25.260    5.8101
   25.290    5.8978
   25.320    6.0032
   25.350    6.1787
   25.380    6.2840
   25.410    5.6872
   25.440    6.0383
   25.470    6.1962
   25.500    6.1787
   25.530    6.5122
   25.560    5.8978
   25.590    5.9505
   25.620    5.9856
   25.650    5.6697
   25.680    6.1436
   25.710    5.9154
   25.740    5.8452
   25.770    6.0558
   25.800    6.0909
   25.830    6.8457
   25.860    5.7925
   25.890    5.4941
   25.920    5.7399
   25.950    5.8803
   25.980    5.6521
   26.010    5.7223
   26.040    5.5117
   26.070    5.7750
   26.100    5.8803
   26.130    5.4941
   26.160    6.1611
   26.190    5.7750
   26.220    6.1611
   26.250    5.8627
   26.280    5.8627
   26.310    5.2835
   26.340    5.4941
   26.370    6.0734
   26.400    5.7223
   26.430    6.2665
   26.460    6.2665
   26.490    6.2840
   26.520    5.7925
   26.550    5.7574
   26.580    6.0383
   26.610    6.0383
   26.640    5.8627
   26.670    6.1260
   26.700    5.8627
   26.730    5.4590
   26.760    5.8101
   26.790    6.1611
   26.820    6.0909
   26.850    5.7750
   26.880    5.7574
   26.910    5.3537
   26.940    5.7574
   26.970    5.8452
   27.000    5.8803
   27.030    6.2138
   27.060    5.3888
   27.090    5.6170
   27.120    5.5643
   27.150    6.1787
   27.180    5.8452
   27.210    5.6697
   27.240    5.5468
   27.270    5.7048
   27.300    5.9329
   27.330    5.4590
   27.360    5.7048
   27.390    5.5468
   27.420    5.3537
   27.450    5.6170
   27.480    5.7048
   27.510    5.7574
   27.540    5.6872
   27.570    6.1436
   27.600    5.8101
   27.630    6.0909
   27.660    5.9681
   27.690    5.2484
   27.720    5.4590
   27.750    5.7750
   27.780    5.7750
   27.810    5.7574
   27.840    5.8452
   27.870    5.8452
   27.900    5.8276
   27.930    5.5468
   27.960    6.2313
   27.990    5.5468
   28.020    5.5994
   28.050    5.7048
   28.080    5.6345
   28.110    5.5819
   28.140    5.3537
   28.170    5.5994
   28.200    5.6345
   28.230    5.4064
   28.260    5.4064
   28.290    5.7223
   28.320    5.2308
   28.350    5.5468
   28.380    5.6521
   28.410    5.4064
   28.440    5.3712
   28.470    5.5819
   28.500    5.1080
   28.530    5.3010
   28.560    5.3712
   28.590    5.4766
   28.620    5.6872
   28.650    5.8452
   28.680    5.9856
   28.710    5.1255
   28.740    5.5292
   28.770    5.3888
   28.800    5.2133
   28.830    5.4239
   28.860    5.6521
   28.890    5.8276
   28.920    5.8276
   28.950    5.2484
   28.980    5.2308
   29.010    5.8452
   29.040    5.5292
   29.070    5.6697
   29.100    5.3888
   29.130    5.2484
   29.160    5.7048
   29.190    5.5643
   29.220    5.8101
   29.250    5.5819
   29.280    5.9505
   29.310    5.8276
   29.340    5.7574
   29.370    5.1080
   29.400    5.3712
   29.430    5.2659
   29.460    5.3186
   29.490    5.4239
   29.520    5.3186
   29.550    5.8627
   29.580    5.2484
   29.610    5.8101
   29.640    5.2308
   29.670    5.4064
   29.700    5.4064
   29.730    5.3010
   29.760    5.4415
   29.790    5.7750
   29.820    5.4590
   29.850    5.3361
   29.880    5.1431
   29.910    5.3712
   29.940    5.8452
   29.970    5.4941
   30.000    5.5117
   30.030    5.1957
   30.060    5.3361
   30.090    5.8978
   30.120    5.0904
   30.150    5.4064
   30.180    5.1431
   30.210    5.6170
   30.240    5.0728
   30.270    5.4590
   30.300    5.5117
   30.330    5.3712
   30.360    5.3537
   30.390    5.6697
   30.420    5.5643
   30.450    5.1606
   30.480    5.0377
   30.510    5.4239
   30.540    5.0728
   30.570    5.4590
   30.600    5.0553
   30.630    5.3712
   30.660    4.8798
   30.690    4.9149
   30.720    4.8095
   30.750    5.5292
   30.780    5.0553
   30.810    5.1606
   30.840    5.2308
   30.870    5.1782
   30.900    5.0377
   30.930    5.2484
   30.960    5.2308
   30.990    5.5819
   31.020    5.0377
   31.050    5.4415
   31.080    5.3888
   31.110    5.6521
   31.140    5.4064
   31.170    5.1606
   31.200    4.9324
   31.230    5.2133
   31.260    5.2308
   31.290    5.4064
   31.320    5.4239
   31.350    5.0553
   31.380    5.3186
   31.410    5.5117
   31.440    4.9149
   31.470    5.4415
   31.500    5.0377
   31.530    5.3010
   31.560    5.5643
   31.590    5.1080
   31.620    5.0728
   31.650    5.1782
   31.680    5.1606
   31.710    5.5819
   31.740    5.5117
   31.770    5.6697
   31.800    5.7048
   31.830    5.4590
   31.860    5.1957
   31.890    5.3888
   31.920    5.4766
   31.950    5.1080
   31.980    5.4415
   32.010    5.2308
   32.040    5.0904
   32.070    5.0377
   32.100    4.9500
   32.130    5.5117
   32.160    5.0904
   32.190    4.9149
   32.220    5.0202
   32.250    5.4239
   32.280    5.0377
   32.310    5.0553
   32.340    5.4415
   32.370    4.8447
   32.400    4.9500
   32.430    5.1255
   32.460    5.4590
   32.490    4.7393
   32.520    5.3361
   32.550    4.9675
   32.580    5.1782
   32.610    5.2133
   32.640    4.8622
   32.670    4.8271
   32.700    4.8095
   32.730    5.1255
   32.760    5.0904
   32.790    5.3888
   32.820    4.9500
   32.850    5.2484
   32.880    4.7218
   32.910    4.7920
   32.940    4.9675
   32.970    4.8447
   33.000    5.1782
   33.030    4.3883
   33.060    5.0026
   33.090    5.2659
   33.120    4.9324
   33.150    4.7218
   33.180    4.6516
   33.210    5.1255
   33.240    4.7569
   33.270    4.8622
   33.300    5.2308
   33.330    4.9500
   33.360    4.9675
   33.390    4.9500
   33.420    4.5111
   33.450    4.5111
   33.480    4.9851
   33.510    4.8798
   33.540    5.1431
   33.570    5.0553
   33.600    4.7569
   33.630    5.1080
   33.660    4.7042
   33.690    5.3361
   33.720    5.0728
   33.750    5.0377
   33.780    5.0904
   33.810    4.9675
   33.840    5.0553
   33.870    4.9500
   33.900    5.0202
   33.930    5.4590
   33.960    4.8622
   33.990    5.0904
   34.020    5.0728
   34.050    4.9675
   34.080    4.6691
   34.110    5.0377
   34.140    4.7393
   34.170    5.2308
   34.200    4.8798
   34.230    5.2308
   34.260    4.7920
   34.290    5.0026
   34.320    4.5287
   34.350    4.9324
   34.380    5.0553
   34.410    4.9500
   34.440    4.7218
   34.470    4.8271
   34.500    4.6340
   34.530    4.6867
   34.560    4.6340
   34.590    5.3537
   34.620    4.7569
   34.650    4.9500
   34.680    5.0377
   34.710    5.0904
   34.740    4.8271
   34.770    5.0904
   34.800    5.0026
   34.830    4.8271
   34.860    4.6867
   34.890    5.0553
   34.920    5.0553
   34.950    5.1606
   34.980    4.8271
   35.010    4.8095
   35.040    5.2835
   35.070    4.7569
   35.100    4.3707
   35.130    4.8271
   35.160    4.8271
   35.190    5.0553
   35.220    4.1250
   35.250    5.0377
   35.280    4.5111
   35.310    4.7744
   35.340    5.0026
   35.370    4.9851
   35.400    4.7042
   35.430    4.7920
   35.460    4.8271
   35.490    4.3356
   35.520    4.5111
   35.550    4.4585
   35.580    4.6867
   35.610    4.8622
   35.640    5.4415
   35.670    5.1255
   35.700    5.1957
   35.730    4.8095
   35.760    4.8271
   35.790    4.6691
   35.820    4.6691
   35.850    4.9149
   35.880    5.0904
   35.910    4.3181
   35.940    4.9149
   35.970    4.9324
   36.000    5.1782
   36.030    5.0904
   36.060    4.2654
   36.090    4.4585
   36.120    4.8973
   36.150    5.0202
   36.180    4.6516
   36.210    4.9851
   36.240    4.8447
   36.270    4.4936
   36.300    5.0026
   36.330    5.1782
   36.360    4.6165
   36.390    4.8095
   36.420    4.8447
   36.450    5.1431
   36.480    4.6165
   36.510    4.7569
   36.540    4.8973
   36.570    4.7042
   36.600    4.8271
   36.630    5.1606
   36.660    5.2133
   36.690    4.5814
   36.720    4.7920
   36.750    4.9675
   36.780    4.9500
   36.810    4.5638
   36.840    4.6867
   36.870    4.8271
   36.900    4.6691
   36.930    5.1255
   36.960    4.5111
   36.990    5.0904
   37.020    4.6867
   37.050    4.4409
   37.080    4.6165
   37.110    4.8271
   37.140    4.7569
   37.170    4.6516
   37.200    5.0904
   37.230    4.8798
   37.260    4.7744
   37.290    4.5638
   37.320    4.8622
   37.350    4.8095
   37.380    4.9500
   37.410    4.2303
   37.440    4.8095
   37.470    4.8447
   37.500    4.6516
   37.530    4.5287
   37.560    4.7744
   37.590    4.1952
   37.620    4.3883
   37.650    4.2127
   37.680    5.1255
   37.710    4.7218
   37.740    4.8447
   37.770    4.7744
   37.800    4.6165
   37.830    4.4585
   37.860    5.4239
   37.890    4.2654
   37.920    5.0202
   37.950    4.5463
   37.980    4.9675
   38.010    4.7393
   38.040    4.8798
   38.070    4.9324
   38.100    4.4760
   38.130    4.5814
   38.160    4.4936
   38.190    4.6516
   38.220    4.5463
   38.250    4.8447
   38.280    4.8095
   38.310    4.4936
   38.340    4.7744
   38.370    4.5814
   38.400    4.5287
   38.430    4.7218
   38.460    4.5814
   38.490    4.5814
   38.520    4.9851
   38.550    5.0728
   38.580    4.8622
   38.610    4.2303
   38.640    4.4058
   38.670    4.4058
   38.700    4.7218
   38.730    4.9851
   38.760    4.6340
   38.790    4.9675
   38.820    4.5463
   38.850    5.0904
   38.880    4.9324
   38.910    4.9500
   38.940    4.6165
   38.970    4.6691
   39.000    4.9149
   39.030    4.5463
   39.060    4.4760
   39.090    5.0904
   39.120    4.4760
   39.150    4.5463
   39.180    4.6340
   39.210    4.6691
   39.240    4.7744
   39.270    4.5463
   39.300    4.7569
   39.330    4.6867
   39.360    4.5463
   39.390    4.9149
   39.420    4.4585
   39.450    5.0377
   39.480    4.7569
   39.510    4.5989
   39.540    4.7569
   39.570    4.6867
   39.600    4.8973
   39.630    5.0026
   39.660    4.7042
   39.690    4.9149
   39.720    4.0548
   39.750    5.1782
   39.780    4.7393
   39.810    4.6867
   39.840    4.5463
   39.870    4.9500
   39.900    4.6165
   39.930    4.9675
   39.960    4.8622
   39.990    4.7744