File: data/PXRD/PXRD_KE-052_Cu-Ka1_capillary-1mm_5s-deg.xyd
    1.500   23.6335
    1.530   24.0232
    1.560   22.5803
    1.590   22.2644
    1.620   21.1164
    1.650   21.2954
    1.680   21.0216
    1.710   20.9373
    1.740   20.4423
    1.770   20.0632
    1.800   19.8736
    1.830   18.8836
    1.860   18.6519
    1.890   19.3892
    1.920   18.7467
    1.950   18.1359
    1.980   17.3565
    2.010   17.8304
    2.040   17.7146
    2.070   17.1353
    2.100   17.1985
    2.130   16.9668
    2.160   17.2196
    2.190   16.3244
    2.220   16.5034
    2.250   16.1453
    2.280   15.6082
    2.310   15.9663
    2.340   15.9452
    2.370   15.5240
    2.400   14.9868
    2.430   16.2085
    2.460   15.9768
    2.490   16.0716
    2.520   15.6293
    2.550   15.2185
    2.580   15.5345
    2.610   15.5766
    2.640   15.6187
    2.670   15.5240
    2.700   15.8504
    2.730   15.2817
    2.760   15.9347
    2.790   16.0190
    2.820   15.4924
    2.850   15.5556
    2.880   15.8820
    2.910   16.3454
    2.940   16.2612
    2.970   16.5561
    3.000   16.5034
    3.030   16.5140
    3.060   17.3565
    3.090   16.8194
    3.120   17.9463
    3.150   17.3986
    3.180   18.3465
    3.210   18.1991
    3.240   19.1469
    3.270   19.4523
    3.300   20.4529
    3.330   21.2112
    3.360   20.8636
    3.390   21.9695
    3.420   23.5282
    3.450   23.6546
    3.480   25.7609
    3.510   27.0563
    3.540   28.9100
    3.570   29.4681
    3.600   31.2480
    3.630   32.9121
    3.660   35.4081
    3.690   38.4518
    3.720   42.2749
    3.750   46.5087
    3.780   52.7857
    3.810   60.2949
    3.840   69.7525
    3.870   87.1301
    3.900  101.8326
    3.930   94.3444
    3.960   58.1991
    3.990   25.2870
    4.020   15.3555
    4.050   12.7541
    4.080   11.5850
    4.110   10.8478
    4.140   10.5845
    4.170    9.9315
    4.200   10.1211
    4.230    9.8999
    4.260   10.0790
    4.290    9.3523
    4.320    9.1206
    4.350    9.2996
    4.380    9.5735
    4.410    9.3312
    4.440    8.8362
    4.470    9.1417
    4.500    9.4155
    4.530    8.9626
    4.560    9.2154
    4.590    9.9210
    4.620    9.2048
    4.650    8.9942
    4.680    9.1417
    4.710    9.0574
    4.740    9.4892
    4.770    9.7314
    4.800    9.3944
    4.830    9.5103
    4.860    9.9105
    4.890    9.3734
    4.920    9.7841
    4.950    9.5524
    4.980   10.3423
    5.010   10.2791
    5.040   11.2586
    5.070   10.8478
    5.100   11.5429
    5.130   11.1111
    5.160   11.7536
    5.190   12.1432
    5.220   12.2801
    5.250   13.7441
    5.280   13.9442
    5.310   15.0290
    5.340   16.0927
    5.370   16.5140
    5.400   18.1885
    5.430   20.8110
    5.460   23.5071
    5.490   28.0885
    5.520   32.2275
    5.550   31.2270
    5.580   22.2749
    5.610   12.9542
    5.640    9.5103
    5.670    8.9100
    5.700    8.7309
    5.730    8.6151
    5.760    8.2149
    5.790    7.8989
    5.820    8.4992
    5.850    8.3834
    5.880    7.8252
    5.910    7.6988
    5.940    7.9410
    5.970    7.7093
    6.000    7.7199
    6.030    7.9305
    6.060    7.9937
    6.090    7.3828
    6.120    8.0358
    6.150    8.2991
    6.180    7.9831
    6.210    8.2570
    6.240    7.9516
    6.270    7.7093
    6.300    7.9937
    6.330    7.9831
    6.360    8.1938
    6.390    8.3307
    6.420    8.3939
    6.450    7.8778
    6.480    8.7730
    6.510    8.2043
    6.540    8.5413
    6.570    8.5624
    6.600    8.7625
    6.630    9.3102
    6.660    9.4576
    6.690    9.9315
    6.720   10.6582
    6.750   11.8062
    6.780   11.6272
    6.810   11.4060
    6.840    9.2259
    6.870    7.9621
    6.900    7.9305
    6.930    7.9621
    6.960    7.8041
    6.990    7.3618
    7.020    7.8568
    7.050    7.9726
    7.080    7.6251
    7.110    7.4671
    7.140    8.2570
    7.170    8.3412
    7.200    7.4144
    7.230    7.7304
    7.260    7.8357
    7.290    7.6251
    7.320    8.0358
    7.350    8.3728
    7.380    8.0147
    7.410    8.3096
    7.440    8.1201
    7.470    8.3834
    7.500    8.1833
    7.530    8.5729
    7.560    8.5519
    7.590    8.2991
    7.620    9.3944
    7.650    9.2575
    7.680    9.7209
    7.710   10.4265
    7.740   11.1848
    7.770   11.9642
    7.800   13.3860
    7.830   13.6493
    7.860   12.6066
    7.890   10.6477
    7.920    8.5097
    7.950    8.0358
    7.980    7.9410
    8.010    7.8778
    8.040    7.4671
    8.070    7.9831
    8.100    7.6251
    8.130    7.7199
    8.160    8.1201
    8.190    8.0253
    8.220    7.6883
    8.250    7.9831
    8.280    7.8673
    8.310    7.9410
    8.340    7.8673
    8.370    8.0463
    8.400    8.1411
    8.430    7.7725
    8.460    7.5513
    8.490    8.0463
    8.520    7.4882
    8.550    8.3307
    8.580    8.0990
    8.610    7.9094
    8.640    8.4676
    8.670    8.4466
    8.700    8.3939
    8.730    8.6467
    8.760    8.6361
    8.790    8.2570
    8.820    8.1727
    8.850    8.0253
    8.880    7.5935
    8.910    7.8252
    8.940    7.5935
    8.970    7.8252
    9.000    8.0990
    9.030    8.1411
    9.060    8.2043
    9.090    8.3728
    9.120    8.1411
    9.150    8.9205
    9.180    9.0363
    9.210    8.4571
    9.240    8.9626
    9.270    9.1627
    9.300    9.1206
    9.330    9.6261
    9.360    9.6893
    9.390   10.3949
    9.420   11.7957
    9.450   12.1643
    9.480   13.3860
    9.510   15.4292
    9.540   16.8720
    9.570   20.6951
    9.600   20.6530
    9.630   18.2728
    9.660   13.1543
    9.690    9.8157
    9.720    8.9837
    9.750    8.2359
    9.780    8.4992
    9.810    8.1938
    9.840    8.0569
    9.870    8.1306
    9.900    8.2254
    9.930    8.8257
    9.960    8.0990
    9.990    8.2675
   10.020    8.3623
   10.050    8.2359
   10.080    8.4466
   10.110    8.7836
   10.140    8.4887
   10.170    9.0047
   10.200    8.7730
   10.230    9.2048
   10.260    8.8573
   10.290    9.7736
   10.320   10.2686
   10.350   11.1954
   10.380   10.8162
   10.410   10.0895
   10.440    8.6467
   10.470    8.8362
   10.500    8.1201
   10.530    8.3939
   10.560    7.7304
   10.590    8.1306
   10.620    8.1095
   10.650    8.1833
   10.680    8.0463
   10.710    7.7830
   10.740    8.2359
   10.770    7.8673
   10.800    8.3728
   10.830    8.2675
   10.860    8.5729
   10.890    8.8678
   10.920    8.6151
   10.950    8.8784
   10.980    9.0995
   11.010   10.2896
   11.040   10.9005
   11.070   11.1532
   11.100   11.7009
   11.130    9.6261
   11.160    9.0258
   11.190    7.7725
   11.220    8.2570
   11.250    7.9516
   11.280    7.7620
   11.310    7.8146
   11.340    7.5513
   11.370    7.6251
   11.400    7.7304
   11.430    7.4460
   11.460    7.8357
   11.490    7.8778
   11.520    7.9937
   11.550    8.1938
   11.580    8.2149
   11.610    8.3939
   11.640    8.3518
   11.670    8.8889
   11.700    9.8789
   11.730    9.8262
   11.760    9.9947
   11.790    9.6682
   11.820    9.0995
   11.850    7.8462
   11.880    7.5408
   11.910    7.2775
   11.940    7.4039
   11.970    7.9621
   12.000    7.3723
   12.030    7.6145
   12.060    7.2565
   12.090    7.7830
   12.120    7.2459
   12.150    6.9300
   12.180    7.5724
   12.210    7.2354
   12.240    7.2670
   12.270    7.4882
   12.300    7.3302
   12.330    7.3618
   12.360    7.6356
   12.390    7.5303
   12.420    7.4671
   12.450    7.6883
   12.480    7.1722
   12.510    7.0458
   12.540    7.1511
   12.570    6.9300
   12.600    6.6772
   12.630    7.3828
   12.660    6.9932
   12.690    7.4460
   12.720    7.2249
   12.750    7.0985
   12.780    6.9089
   12.810    7.1301
   12.840    7.3196
   12.870    7.7830
   12.900    7.9094
   12.930    7.5935
   12.960    8.4044
   12.990    8.7836
   13.020    8.5835
   13.050    8.0885
   13.080    7.8568
   13.110    7.0563
   13.140    6.8773
   13.170    6.7509
   13.200    6.5613
   13.230    6.9405
   13.260    7.0563
   13.290    6.8457
   13.320    6.8984
   13.350    7.1617
   13.380    7.0985
   13.410    6.9932
   13.440    7.0879
   13.470    7.2354
   13.500    7.5092
   13.530    7.3302
   13.560    7.6040
   13.590    7.6988
   13.620    7.5935
   13.650    7.0458
   13.680    7.2880
   13.710    7.0669
   13.740    7.0142
   13.770    6.9721
   13.800    6.8668
   13.830    6.5824
   13.860    7.2565
   13.890    7.4250
   13.920    6.9826
   13.950    6.7404
   13.980    7.6251
   14.010    7.2986
   14.040    7.3512
   14.070    7.6461
   14.100    8.4676
   14.130    8.7836
   14.160    8.1938
   14.190    7.9937
   14.220    7.1617
   14.250    6.7930
   14.280    6.8036
   14.310    6.7825
   14.340    7.0037
   14.370    6.7825
   14.400    6.7509
   14.430    6.8141
   14.460    6.7930
   14.490    6.6245
   14.520    6.6561
   14.550    6.9826
   14.580    7.0142
   14.610    7.0037
   14.640    6.5508
   14.670    7.0458
   14.700    6.7299
   14.730    6.6035
   14.760    6.7193
   14.790    6.6140
   14.820    6.7193
   14.850    6.6456
   14.880    6.8668
   14.910    6.7299
   14.940    6.8036
   14.970    6.6351
   15.000    6.7404
   15.030    6.7088
   15.060    6.9932
   15.090    6.6035
   15.120    6.9194
   15.150    6.9194
   15.180    6.9826
   15.210    7.3934
   15.240    6.9721
   15.270    7.1511
   15.300    6.7088
   15.330    6.8562
   15.360    6.7720
   15.390    6.8246
   15.420    6.8773
   15.450    6.6035
   15.480    7.0037
   15.510    6.8352
   15.540    6.8668
   15.570    6.7088
   15.600    6.8036
   15.630    6.8773
   15.660    6.4455
   15.690    6.2981
   15.720    6.7825
   15.750    6.8036
   15.780    6.8141
   15.810    6.6351
   15.840    6.8141
   15.870    6.5403
   15.900    6.7825
   15.930    6.5087
   15.960    6.8668
   15.990    6.9405
   16.020    6.8773
   16.050    6.6456
   16.080    6.8141
   16.110    7.3302
   16.140    7.2459
   16.170    7.5092
   16.200    7.2038
   16.230    7.5829
   16.260    6.9300
   16.290    6.6035
   16.320    7.0353
   16.350    6.4771
   16.380    6.8457
   16.410    6.7825
   16.440    7.0037
   16.470    6.8457
   16.500    6.8036
   16.530    6.9300
   16.560    6.8562
   16.590    6.8141
   16.620    6.5087
   16.650    7.0879
   16.680    7.0248
   16.710    7.1301
   16.740    6.9405
   16.770    6.8246
   16.800    7.0142
   16.830    6.8457
   16.860    7.0248
   16.890    6.5192
   16.920    7.5513
   16.950    7.3618
   16.980    7.2880
   17.010    7.8146
   17.040    7.8252
   17.070    8.4466
   17.100    8.6572
   17.130    8.6572
   17.160    8.0674
   17.190    7.9305
   17.220    7.1301
   17.250    6.9194
   17.280    7.0774
   17.310    6.8141
   17.340    6.8668
   17.370    6.9616
   17.400    6.5824
   17.430    6.8878
   17.460    7.1406
   17.490    6.8457
   17.520    6.8457
   17.550    6.9721
   17.580    7.2143
   17.610    7.1090
   17.640    6.7930
   17.670    7.0774
   17.700    6.8668
   17.730    6.8878
   17.760    6.9616
   17.790    7.0985
   17.820    6.9300
   17.850    6.7088
   17.880    7.1406
   17.910    6.9194
   17.940    6.8878
   17.970    7.1617
   18.000    7.0879
   18.030    7.1722
   18.060    7.3934
   18.090    7.2880
   18.120    6.8668
   18.150    7.1722
   18.180    6.9932
   18.210    6.7193
   18.240    6.7720
   18.270    7.1406
   18.300    6.8878
   18.330    7.2143
   18.360    6.9194
   18.390    7.2670
   18.420    7.3828
   18.450    7.0248
   18.480    7.0985
   18.510    6.6772
   18.540    6.9826
   18.570    6.9300
   18.600    6.2665
   18.630    6.5824
   18.660    6.8141
   18.690    6.8352
   18.720    6.5613
   18.750    6.5087
   18.780    7.2143
   18.810    6.7720
   18.840    6.9405
   18.870    6.7720
   18.900    6.6140
   18.930    7.1090
   18.960    6.9089
   18.990    6.9510
   19.020    6.9300
   19.050    7.0879
   19.080    7.0458
   19.110    6.9826
   19.140    7.0879
   19.170    6.6351
   19.200    7.0248
   19.230    6.4771
   19.260    6.8036
   19.290    6.7509
   19.320    6.8352
   19.350    6.7720
   19.380    6.5192
   19.410    6.7509
   19.440    6.8246
   19.470    6.8036
   19.500    6.8562
   19.530    7.0879
   19.560    7.3196
   19.590    7.3091
   19.620    7.4882
   19.650    7.5513
   19.680    7.1195
   19.710    7.4460
   19.740    7.1511
   19.770    7.1617
   19.800    6.9616
   19.830    6.8457
   19.860    7.1301
   19.890    7.0669
   19.920    6.7193
   19.950    7.4144
   19.980    6.9194
   20.010    6.8773
   20.040    7.0353
   20.070    7.1090
   20.100    6.8984
   20.130    7.1511
   20.160    7.2038
   20.190    7.0248
   20.220    7.0353
   20.250    6.7615
   20.280    7.1511
   20.310    7.0037
   20.340    7.6672
   20.370    7.7304
   20.400    7.9200
   20.430    7.7830
   20.460    8.0885
   20.490    7.7725
   20.520    7.4460
   20.550    7.2249
   20.580    7.2565
   20.610    7.3407
   20.640    7.5303
   20.670    7.1617
   20.700    7.0248
   20.730    6.7930
   20.760    6.9721
   20.790    6.9616
   20.820    6.8773
   20.850    7.0037
   20.880    6.9932
   20.910    7.2670
   20.940    7.1933
   20.970    6.9932
   21.000    7.0037
   21.030    7.3196
   21.060    7.0142
   21.090    7.3091
   21.120    7.3407
   21.150    7.2249
   21.180    6.5929
   21.210    7.4144
   21.240    6.8878
   21.270    7.1301
   21.300    7.0774
   21.330    7.3618
   21.360    7.1933
   21.390    7.1301
   21.420    7.0879
   21.450    7.0669
   21.480    6.6245
   21.510    7.6251
   21.540    7.2670
   21.570    6.8246
   21.600    7.0248
   21.630    7.0458
   21.660    7.2775
   21.690    7.1406
   21.720    7.2459
   21.750    7.2143
   21.780    7.2565
   21.810    6.8562
   21.840    7.6777
   21.870    7.7830
   21.900    7.6040
   21.930    7.5092
   21.960    7.6567
   21.990    7.5513
   22.020    7.0142
   22.050    7.5092
   22.080    7.6040
   22.110    7.4671
   22.140    6.7509
   22.170    7.4566
   22.200    7.3302
   22.230    7.5724
   22.260    7.4250
   22.290    7.3091
   22.320    7.8041
   22.350    7.4987
   22.380    7.5197
   22.410    7.1722
   22.440    7.5935
   22.470    7.6988
   22.500    7.7199
   22.530    8.0779
   22.560    8.5308
   22.590    9.2575
   22.620    8.9626
   22.650    8.4887
   22.680    8.4781
   22.710    8.2043
   22.740    7.6777
   22.770    7.4671
   22.800    7.2986
   22.830    7.7830
   22.860    8.3518
   22.890    8.2780
   22.920    8.3834
   22.950    8.6045
   22.980    8.6572
   23.010    8.6783
   23.040    7.8041
   23.070    7.4671
   23.100    7.3091
   23.130    7.5092
   23.160    7.4566
   23.190    7.4776
   23.220    7.6567
   23.250    7.5303
   23.280    7.4355
   23.310    7.4250
   23.340    7.4671
   23.370    7.7199
   23.400    6.8352
   23.430    7.5829
   23.460    7.0985
   23.490    7.4039
   23.520    7.5303
   23.550    7.6777
   23.580    6.9826
   23.610    7.3196
   23.640    6.8878
   23.670    7.5513
   23.700    7.3618
   23.730    7.0037
   23.760    6.8668
   23.790    7.0985
   23.820    7.2670
   23.850    7.5092
   23.880    6.9616
   23.910    7.5829
   23.940    7.6777
   23.970    7.8146
   24.000    7.7725
   24.030    7.2880
   24.060    7.4671
   24.090    6.7825
   24.120    7.3302
   24.150    7.0353
   24.180    7.1722
   24.210    6.4982
   24.240    6.9932
   24.270    7.0458
   24.300    7.3723
   24.330    7.3091
   24.360    7.3302
   24.390    7.3091
   24.420    6.7825
   24.450    7.2670
   24.480    7.3196
   24.510    6.8878
   24.540    6.8457
   24.570    7.2038
   24.600    7.0458
   24.630    6.8668
   24.660    6.9932
   24.690    7.3828
   24.720    6.6561
   24.750    6.7299
   24.780    6.6772
   24.810    7.2143
   24.840    7.1301
   24.870    7.0563
   24.900    7.0563
   24.930    7.5513
   24.960    7.0669
   24.990    6.7299
   25.020    6.7088
   25.050    6.8141
   25.080    6.8668
   25.110    6.9405
   25.140    6.9194
   25.170    7.2670
   25.200    7.1090
   25.230    7.0563
   25.260    7.1301
   25.290    7.5619
   25.320    6.9616
   25.350    7.2143
   25.380    7.0879
   25.410    7.2249
   25.440    6.8562
   25.470    6.7615
   25.500    7.0563
   25.530    6.9194
   25.560    7.0879
   25.590    6.8352
   25.620    7.3934
   25.650    7.4355
   25.680    6.9194
   25.710    6.6245
   25.740    7.0879
   25.770    7.4039
   25.800    7.3196
   25.830    7.9305
   25.860    7.7304
   25.890    7.8673
   25.920    7.5935
   25.950    7.6145
   25.980    7.4460
   26.010    7.1195
   26.040    6.8246
   26.070    6.8562
   26.100    6.4876
   26.130    6.9089
   26.160    6.9932
   26.190    6.9194
   26.220    6.7930
   26.250    6.7509
   26.280    6.5508
   26.310    6.4982
   26.340    6.9089
   26.370    7.0879
   26.400    7.0248
   26.430    6.9405
   26.460    6.9089
   26.490    6.8878
   26.520    6.4139
   26.550    6.9089
   26.580    6.6245
   26.610    6.9194
   26.640    6.8984
   26.670    6.2454
   26.700    6.9510
   26.730    6.9932
   26.760    6.4455
   26.790    6.6877
   26.820    6.4139
   26.850    6.8141
   26.880    7.1827
   26.910    6.6351
   26.940    6.8457
   26.970    6.8878
   27.000    6.4244
   27.030    6.8141
   27.060    7.0458
   27.090    6.9089
   27.120    7.0669
   27.150    6.6561
   27.180    6.7404
   27.210    6.6456
   27.240    6.6140
   27.270    6.6245
   27.300    6.6772
   27.330    6.5824
   27.360    6.7930
   27.390    6.4982
   27.420    6.5719
   27.450    6.7930
   27.480    6.5192
   27.510    6.4560
   27.540    6.6983
   27.570    6.6456
   27.600    6.6772
   27.630    6.7930
   27.660    6.5508
   27.690    6.7509
   27.720    6.7088
   27.750    6.5824
   27.780    6.5508
   27.810    6.5929
   27.840    6.7825
   27.870    6.4455
   27.900    6.8352
   27.930    6.2559
   27.960    6.7193
   27.990    6.7825
   28.020    6.9721
   28.050    6.9932
   28.080    6.7299
   28.110    6.4666
   28.140    6.8773
   28.170    6.6561
   28.200    6.7193
   28.230    6.7193
   28.260    6.7088
   28.290    7.0774
   28.320    6.8773
   28.350    6.5298
   28.380    6.9510
   28.410    6.5719
   28.440    6.4139
   28.470    6.7509
   28.500    6.7404
   28.530    6.7720
   28.560    6.4244
   28.590    6.3928
   28.620    6.6983
   28.650    6.1295
   28.680    6.5929
   28.710    6.0558
   28.740    6.5403
   28.770    6.1822
   28.800    6.5824
   28.830    6.2981
   28.860    6.1295
   28.890    6.3086
   28.920    6.2665
   28.950    6.3296
   28.980    6.4350
   29.010    6.1927
   29.040    6.6351
   29.070    6.1822
   29.100    6.6035
   29.130    6.4982
   29.160    6.2243
   29.190    6.5192
   29.220    5.9926
   29.250    6.4139
   29.280    6.0558
   29.310    6.5403
   29.340    6.0769
   29.370    6.7509
   29.400    6.5403
   29.430    6.2665
   29.460    6.3402
   29.490    6.3086
   29.520    6.3086
   29.550    6.1822
   29.580    6.5192
   29.610    5.7820
   29.640    6.3612
   29.670    6.0242
   29.700    6.0874
   29.730    6.4771
   29.760    5.9821
   29.790    6.2033
   29.820    6.3402
   29.850    6.5087
   29.880    6.1085
   29.910    6.0137
   29.940    6.4350
   29.970    5.7609
   30.000    6.2770
   30.030    5.9716
   30.060    5.8873
   30.090    5.6661
   30.120    5.8031
   30.150    6.1717
   30.180    6.0769
   30.210    5.9294
   30.240    6.4982
   30.270    5.9926
   30.300    6.2770
   30.330    6.0769
   30.360    5.9926
   30.390    6.0032
   30.420    5.9610
   30.450    5.9294
   30.480    6.3191
   30.510    5.9821
   30.540    5.8347
   30.570    5.9505
   30.600    6.0137
   30.630    5.9716
   30.660    6.1822
   30.690    5.9084
   30.720    6.0032
   30.750    5.9294
   30.780    6.3928
   30.810    6.2454
   30.840    6.2033
   30.870    5.6029
   30.900    6.1190
   30.930    5.8136
   30.960    5.7399
   30.990    6.1190
   31.020    5.9084
   31.050    6.0558
   31.080    5.8557
   31.110    5.9400
   31.140    5.9505
   31.170    5.7715
   31.200    5.6661
   31.230    6.1401
   31.260    5.7399
   31.290    5.9400
   31.320    5.8557
   31.350    6.2454
   31.380    5.9189
   31.410    5.9926
   31.440    6.1401
   31.470    5.9084
   31.500    6.0769
   31.530    5.7820
   31.560    5.7083
   31.590    6.1401
   31.620    5.7925
   31.650    5.7820
   31.680    5.9716
   31.710    6.1927
   31.740    6.3612
   31.770    6.0032
   31.800    5.8347
   31.830    5.7504
   31.860    5.8662
   31.890    5.8241
   31.920    5.8347
   31.950    6.0032
   31.980    6.0137
   32.010    5.8557
   32.040    5.8136
   32.070    6.2454
   32.100    5.9610
   32.130    6.0137
   32.160    6.1506
   32.190    5.8452
   32.220    5.7083
   32.250    5.8452
   32.280    6.0453
   32.310    5.6767
   32.340    5.8662
   32.370    5.8347
   32.400    5.9505
   32.430    5.5608
   32.460    5.4766
   32.490    5.5819
   32.520    5.3923
   32.550    5.7293
   32.580    5.7715
   32.610    5.3502
   32.640    5.8347
   32.670    5.8136
   32.700    5.9189
   32.730    5.5082
   32.760    5.7820
   32.790    5.4239
   32.820    5.6029
   32.850    5.3923
   32.880    5.1395
   32.910    5.6872
   32.940    5.9610
   32.970    5.6345
   33.000    5.9189
   33.030    5.7083
   33.060    5.9084
   33.090    5.5187
   33.120    5.3923
   33.150    5.4028
   33.180    5.6977
   33.210    5.8136
   33.240    5.8347
   33.270    5.4028
   33.300    5.4555
   33.330    5.5819
   33.360    6.1190
   33.390    5.3186
   33.420    5.6240
   33.450    5.7293
   33.480    5.3081
   33.510    5.3291
   33.540    5.3186
   33.570    5.4239
   33.600    5.7083
   33.630    5.8031
   33.660    5.3081
   33.690    5.7715
   33.720    5.5187
   33.750    5.7293
   33.780    5.7399
   33.810    5.5608
   33.840    5.5714
   33.870    6.0453
   33.900    5.7820
   33.930    5.6451
   33.960    5.5187
   33.990    5.2343
   34.020    5.6556
   34.050    5.8241
   34.080    5.3818
   34.110    5.5292
   34.140    5.5819
   34.170    5.5082
   34.200    5.6135
   34.230    5.3186
   34.260    5.4555
   34.290    5.1922
   34.320    5.4555
   34.350    5.4239
   34.380    5.4871
   34.410    5.3712
   34.440    5.5292
   34.470    5.2238
   34.500    5.4871
   34.530    5.0132
   34.560    5.1501
   34.590    5.2554
   34.620    5.2765
   34.650    5.4344
   34.680    5.4028
   34.710    5.5608
   34.740    5.0553
   34.770    5.0026
   34.800    5.6029
   34.830    5.6345
   34.860    5.1606
   34.890    5.5082
   34.920    5.3502
   34.950    5.1395
   34.980    5.3291
   35.010    5.4239
   35.040    5.3818
   35.070    5.2975
   35.100    5.0132
   35.130    5.2554
   35.160    4.9289
   35.190    5.0869
   35.220    5.1395
   35.250    5.4028
   35.280    4.9816
   35.310    5.1817
   35.340    5.4450
   35.370    5.6135
   35.400    5.1817
   35.430    5.0869
   35.460    5.2343
   35.490    5.1080
   35.520    5.1080
   35.550    5.1395
   35.580    5.4871
   35.610    5.1080
   35.640    5.1290
   35.670    5.1606
   35.700    4.9816
   35.730    4.9500
   35.760    5.3607
   35.790    5.1711
   35.820    5.2659
   35.850    5.4239
   35.880    5.1395
   35.910    5.0553
   35.940    4.8025
   35.970    5.1290
   36.000    4.9921
   36.030    5.3397
   36.060    5.0132
   36.090    5.3923
   36.120    5.2659
   36.150    5.7083
   36.180    5.4344
   36.210    5.2659
   36.240    5.2133
   36.270    5.0132
   36.300    5.0658
   36.330    5.1501
   36.360    5.2343
   36.390    5.2238
   36.420    5.0237
   36.450    5.3607
   36.480    5.3081
   36.510    4.9710
   36.540    5.2027
   36.570    4.8763
   36.600    5.3607
   36.630    5.0974
   36.660    5.3818
   36.690    4.9184
   36.720    5.0553
   36.750    5.3186
   36.780    5.1395
   36.810    5.5924
   36.840    5.1080
   36.870    4.7499
   36.900    5.0237
   36.930    4.9710
   36.960    5.3186
   36.990    5.0237
   37.020    5.2343
   37.050    4.9816
   37.080    5.4344
   37.110    5.5082
   37.140    5.5082
   37.170    5.1185
   37.200    5.3502
   37.230    5.1817
   37.260    5.1185
   37.290    4.9710
   37.320    4.8131
   37.350    5.1501
   37.380    5.1501
   37.410    5.0026
   37.440    5.0658
   37.470    5.0448
   37.500    5.1395
   37.530    5.0448
   37.560    5.0026
   37.590    4.8973
   37.620    5.2870
   37.650    4.9816
   37.680    5.1817
   37.710    5.0553
   37.740    5.0869
   37.770    4.9710
   37.800    5.1922
   37.830    5.0026
   37.860    5.1080
   37.890    4.8973
   37.920    5.0553
   37.950    5.0342
   37.980    5.0658
   38.010    5.1080
   38.040    4.9710
   38.070    4.9710
   38.100    4.9184
   38.130    4.8447
   38.160    4.9710
   38.190    4.9078
   38.220    5.2765
   38.250    4.8236
   38.280    5.2554
   38.310    5.0869
   38.340    4.9500
   38.370    5.1080
   38.400    5.4450
   38.430    4.9605
   38.460    5.0448
   38.490    5.1290
   38.520    5.1395
   38.550    5.1080
   38.580    5.1817
   38.610    5.1290
   38.640    4.9289
   38.670    4.7920
   38.700    4.7920
   38.730    4.9710
   38.760    5.1080
   38.790    5.1501
   38.820    4.7183
   38.850    5.0448
   38.880    5.2027
   38.910    5.3502
   38.940    5.0764
   38.970    4.8341
   39.000    4.8552
   39.030    4.8657
   39.060    4.7288
   39.090    5.2343
   39.120    4.6445
   39.150    4.8657
   39.180    4.8236
   39.210    4.8341
   39.240    4.9078
   39.270    5.3081
   39.300    5.0869
   39.330    4.8447
   39.360    4.5919
   39.390    4.8131
   39.420    4.9500
   39.450    4.6551
   39.480    5.1501
   39.510    4.9078
   39.540    4.8973
   39.570    4.8657
   39.600    5.0132
   39.630    4.7288
   39.660    4.8868
   39.690    5.0974
   39.720    4.8131
   39.750    4.7604
   39.780    4.8868
   39.810    4.8341
   39.840    5.1711
   39.870    5.3818
   39.900    4.8552
   39.930    5.1501
   39.960    4.7604
   39.990    5.1395