File: data/PXRD/PXRD_KE-067_Cu-Ka1_capillary-1mm_5s-deg.xyd
    1.500   15.5345
    1.530   15.5450
    1.560   14.7446
    1.590   14.7341
    1.620   15.3449
    1.650   14.5129
    1.680   14.8605
    1.710   14.0179
    1.740   14.3549
    1.770   14.1548
    1.800   13.8389
    1.830   13.6598
    1.860   13.2912
    1.890   13.6914
    1.920   13.5334
    1.950   13.4808
    1.980   13.1543
    2.010   13.8283
    2.040   13.1964
    2.070   13.4597
    2.100   13.4071
    2.130   14.1338
    2.160   13.7967
    2.190   13.9126
    2.220   13.7757
    2.250   14.3549
    2.280   14.0600
    2.310   14.7446
    2.340   14.2391
    2.370   14.7657
    2.400   14.7867
    2.430   15.2712
    2.460   15.4924
    2.490   15.7346
    2.520   15.7557
    2.550   16.0716
    2.580   17.2196
    2.610   17.1669
    2.640   16.6825
    2.670   18.4518
    2.700   17.9568
    2.730   19.1680
    2.760   19.9789
    2.790   20.6740
    2.820   21.3481
    2.850   22.8120
    2.880   23.5492
    2.910   24.5392
    2.940   25.0764
    2.970   26.3612
    3.000   27.4882
    3.030   29.6367
    3.060   31.8694
    3.090   33.5545
    3.120   34.3023
    3.150   37.3776
    3.180   38.4939
    3.210   41.0427
    3.240   45.1922
    3.270   48.6677
    3.300   53.0068
    3.330   58.7994
    3.360   64.1074
    3.390   72.3117
    3.420   81.9589
    3.450   93.1859
    3.480  101.3691
    3.510   97.9779
    3.540   83.2965
    3.570   63.9179
    3.600   49.4155
    3.630   43.7493
    3.660   41.8431
    3.690   40.4318
    3.720   41.5166
    3.750   44.1601
    3.780   46.7615
    3.810   50.9637
    3.840   56.5982
    3.870   64.2865
    3.900   73.7441
    3.930   70.9005
    3.960   55.4292
    3.990   43.6124
    4.020   41.7588
    4.050   40.4634
    4.080   37.0300
    4.110   33.9968
    4.140   31.8378
    4.170   27.0248
    4.200   24.2759
    4.230   21.4218
    4.260   19.1469
    4.290   17.0090
    4.320   15.1448
    4.350   14.1127
    4.380   13.0700
    4.410   12.0800
    4.440   10.8162
    4.470    9.8578
    4.500    9.1206
    4.530    8.9415
    4.560    8.8046
    4.590    8.5729
    4.620    7.7620
    4.650    8.1727
    4.680    7.6461
    4.710    7.1722
    4.740    7.2249
    4.770    6.9932
    4.800    7.3196
    4.830    6.9826
    4.860    6.6877
    4.890    6.6351
    4.920    7.0985
    4.950    6.5613
    4.980    7.2038
    5.010    7.1722
    5.040    6.8878
    5.070    6.7615
    5.100    6.9721
    5.130    7.3723
    5.160    6.7720
    5.190    7.5935
    5.220    7.5619
    5.250    7.1090
    5.280    7.4776
    5.310    7.5092
    5.340    8.2675
    5.370    8.7204
    5.400    9.2575
    5.430   10.0369
    5.460   11.0479
    5.490   13.8705
    5.520   15.4502
    5.550   15.0395
    5.580    9.1311
    5.610    5.7715
    5.640    5.6135
    5.670    5.5924
    5.700    5.4450
    5.730    5.5503
    5.760    5.4555
    5.790    5.0342
    5.820    5.8873
    5.850    5.3607
    5.880    5.0869
    5.910    5.4766
    5.940    5.3291
    5.970    5.6556
    6.000    5.2975
    6.030    5.3712
    6.060    5.0869
    6.090    5.3607
    6.120    5.4028
    6.150    5.4239
    6.180    5.2870
    6.210    5.9084
    6.240    5.3712
    6.270    5.6872
    6.300    5.6240
    6.330    5.6556
    6.360    5.7188
    6.390    6.1295
    6.420    5.8873
    6.450    6.0348
    6.480    6.4139
    6.510    6.3402
    6.540    6.5508
    6.570    6.6245
    6.600    7.1933
    6.630    7.5513
    6.660    7.7409
    6.690    8.3623
    6.720    9.1311
    6.750   10.5635
    6.780   11.0795
    6.810   10.3107
    6.840    9.5313
    6.870   10.3844
    6.900   10.7109
    6.930   11.6272
    6.960   13.4492
    6.990   13.6493
    7.020   13.0174
    7.050   11.2059
    7.080    9.4787
    7.110    8.0674
    7.140    7.2670
    7.170    6.7509
    7.200    6.4982
    7.230    6.0979
    7.260    5.9189
    7.290    6.0874
    7.320    5.7504
    7.350    5.8978
    7.380    6.0979
    7.410    6.1401
    7.440    5.8452
    7.470    6.6245
    7.500    6.0032
    7.530    6.2454
    7.560    6.2138
    7.590    6.8141
    7.620    6.8141
    7.650    6.7615
    7.680    7.3618
    7.710    7.5513
    7.740    7.5829
    7.770    8.5729
    7.800    8.8573
    7.830    8.7309
    7.860    8.8257
    7.890    7.6251
    7.920    7.5829
    7.950    7.8778
    7.980    7.9305
    8.010    8.3518
    8.040    8.5729
    8.070    7.9094
    8.100    8.1411
    8.130    8.0147
    8.160    7.8778
    8.190    7.9516
    8.220    7.7830
    8.250    7.3512
    8.280    7.2143
    8.310    7.5619
    8.340    7.2038
    8.370    6.9510
    8.400    6.6667
    8.430    6.8141
    8.460    6.7825
    8.490    6.2665
    8.520    6.4244
    8.550    6.3507
    8.580    5.7504
    8.610    6.1085
    8.640    5.9610
    8.670    5.7188
    8.700    5.9716
    8.730    6.0242
    8.760    5.5082
    8.790    5.6661
    8.820    5.4766
    8.850    5.3712
    8.880    5.0764
    8.910    5.4871
    8.940    5.4871
    8.970    5.2975
    9.000    5.1817
    9.030    5.2975
    9.060    5.1606
    9.090    5.1501
    9.120    5.2343
    9.150    5.0764
    9.180    5.2343
    9.210    5.2870
    9.240    5.7083
    9.270    5.3502
    9.300    5.3081
    9.330    5.6345
    9.360    5.4450
    9.390    5.2765
    9.420    5.8241
    9.450    6.0348
    9.480    6.2665
    9.510    6.8773
    9.540    8.1095
    9.570    9.0995
    9.600    9.0995
    9.630    7.6356
    9.660    4.9921
    9.690    4.8131
    9.720    4.6551
    9.750    4.7709
    9.780    5.4134
    9.810    5.1290
    9.840    4.7183
    9.870    4.9816
    9.900    4.8763
    9.930    5.1606
    9.960    5.4344
    9.990    4.9289
   10.020    5.0448
   10.050    4.9816
   10.080    4.9710
   10.110    5.0448
   10.140    5.4028
   10.170    5.1395
   10.200    5.3923
   10.230    5.3818
   10.260    5.4871
   10.290    5.8557
   10.320    6.1190
   10.350    6.3296
   10.380    6.4771
   10.410    5.9821
   10.440    5.5924
   10.470    5.4976
   10.500    5.5503
   10.530    5.5398
   10.560    5.4450
   10.590    5.2133
   10.620    5.0974
   10.650    4.8657
   10.680    5.6135
   10.710    5.0237
   10.740    5.1501
   10.770    5.1185
   10.800    5.2027
   10.830    5.0237
   10.860    4.7288
   10.890    5.0132
   10.920    4.9921
   10.950    5.4555
   10.980    5.2659
   11.010    5.2027
   11.040    5.9084
   11.070    6.2454
   11.100    5.8031
   11.130    5.3818
   11.160    4.8657
   11.190    5.1606
   11.220    4.9184
   11.250    4.9921
   11.280    4.9184
   11.310    4.9605
   11.340    5.1501
   11.370    4.6972
   11.400    5.0974
   11.430    5.0764
   11.460    4.7815
   11.490    5.1395
   11.520    4.9921
   11.550    5.0658
   11.580    5.6767
   11.610    5.0237
   11.640    5.6661
   11.670    5.3291
   11.700    6.4139
   11.730    6.8352
   11.760    6.2875
   11.790    6.3928
   11.820    5.7504
   11.850    5.0658
   11.880    4.9816
   11.910    5.2554
   11.940    5.1080
   11.970    5.3818
   12.000    5.3397
   12.030    5.6029
   12.060    5.2027
   12.090    4.8973
   12.120    4.7183
   12.150    5.5187
   12.180    5.3712
   12.210    5.1922
   12.240    5.5924
   12.270    5.4976
   12.300    5.3291
   12.330    5.3712
   12.360    5.6872
   12.390    5.6240
   12.420    5.0869
   12.450    5.1395
   12.480    5.3502
   12.510    5.0448
   12.540    5.3081
   12.570    4.9921
   12.600    5.1711
   12.630    5.3081
   12.660    5.0869
   12.690    4.9078
   12.720    5.0764
   12.750    4.7815
   12.780    4.9605
   12.810    5.2554
   12.840    5.3607
   12.870    5.4239
   12.900    5.3291
   12.930    5.4871
   12.960    5.4766
   12.990    5.6556
   13.020    6.0242
   13.050    5.1817
   13.080    5.1290
   13.110    4.9710
   13.140    5.1290
   13.170    4.9816
   13.200    4.8341
   13.230    5.0342
   13.260    4.7709
   13.290    5.0237
   13.320    5.0237
   13.350    4.8763
   13.380    5.0342
   13.410    4.8763
   13.440    5.2027
   13.470    4.9816
   13.500    5.1711
   13.530    5.2659
   13.560    5.2659
   13.590    5.2659
   13.620    4.9921
   13.650    4.8657
   13.680    5.0974
   13.710    4.7920
   13.740    5.0974
   13.770    4.6972
   13.800    4.6024
   13.830    5.1395
   13.860    4.6340
   13.890    5.0448
   13.920    5.0132
   13.950    4.9500
   13.980    5.2870
   14.010    5.2554
   14.040    5.3081
   14.070    5.3081
   14.100    5.2659
   14.130    5.8241
   14.160    5.3818
   14.190    4.9289
   14.220    5.1290
   14.250    4.5919
   14.280    4.8973
   14.310    4.6761
   14.340    4.6761
   14.370    4.5498
   14.400    4.6867
   14.430    4.9289
   14.460    4.5919
   14.490    4.8236
   14.520    4.9605
   14.550    4.8657
   14.580    4.7288
   14.610    4.7815
   14.640    4.8341
   14.670    4.7288
   14.700    4.8657
   14.730    4.5076
   14.760    4.7920
   14.790    4.8025
   14.820    4.7499
   14.850    4.7709
   14.880    4.4023
   14.910    4.8973
   14.940    4.6761
   14.970    4.6867
   15.000    4.9184
   15.030    4.7920
   15.060    5.0553
   15.090    4.9500
   15.120    4.8447
   15.150    4.8236
   15.180    5.0132
   15.210    4.9184
   15.240    5.0448
   15.270    4.6972
   15.300    4.5919
   15.330    4.7815
   15.360    4.5919
   15.390    5.0132
   15.420    4.7393
   15.450    5.0658
   15.480    5.0448
   15.510    4.8447
   15.540    4.8973
   15.570    4.8552
   15.600    5.0026
   15.630    4.6656
   15.660    4.5076
   15.690    4.8131
   15.720    4.6551
   15.750    4.8025
   15.780    4.7183
   15.810    4.9500
   15.840    5.2238
   15.870    4.6551
   15.900    4.6130
   15.930    4.6656
   15.960    4.7288
   15.990    4.6235
   16.020    4.8447
   16.050    5.0658
   16.080    4.7499
   16.110    4.7393
   16.140    4.6551
   16.170    4.8236
   16.200    4.7288
   16.230    5.0869
   16.260    4.5498
   16.290    4.7183
   16.320    4.6024
   16.350    4.8236
   16.380    4.6024
   16.410    4.3286
   16.440    4.5708
   16.470    4.7604
   16.500    4.8341
   16.530    4.6340
   16.560    4.8236
   16.590    4.7183
   16.620    4.5603
   16.650    4.7499
   16.680    4.9394
   16.710    4.9710
   16.740    4.4971
   16.770    4.6972
   16.800    4.9078
   16.830    4.3602
   16.860    4.7604
   16.890    4.6130
   16.920    4.8552
   16.950    4.4234
   16.980    4.9500
   17.010    4.8236
   17.040    4.8973
   17.070    5.1395
   17.100    5.6029
   17.130    5.4450
   17.160    5.0553
   17.190    4.8552
   17.220    4.7288
   17.250    4.5287
   17.280    4.8763
   17.310    4.4760
   17.340    4.5498
   17.370    4.9710
   17.400    4.7499
   17.430    4.6235
   17.460    4.4023
   17.490    4.9605
   17.520    5.1290
   17.550    5.2238
   17.580    4.9394
   17.610    5.0553
   17.640    4.9710
   17.670    4.9289
   17.700    5.0237
   17.730    4.5182
   17.760    4.8236
   17.790    5.0342
   17.820    4.7815
   17.850    5.1817
   17.880    4.7077
   17.910    5.1501
   17.940    4.9500
   17.970    4.6761
   18.000    5.0869
   18.030    5.0658
   18.060    4.7815
   18.090    4.6972
   18.120    4.8552
   18.150    4.5708
   18.180    4.8131
   18.210    4.9816
   18.240    4.7815
   18.270    4.6340
   18.300    4.5287
   18.330    4.7288
   18.360    4.7288
   18.390    4.7709
   18.420    4.9289
   18.450    4.7920
   18.480    4.7815
   18.510    4.9289
   18.540    4.9078
   18.570    4.7499
   18.600    4.7077
   18.630    4.8657
   18.660    4.8657
   18.690    4.4234
   18.720    4.9921
   18.750    4.5498
   18.780    4.5392
   18.810    4.7920
   18.840    4.8763
   18.870    4.7709
   18.900    5.2133
   18.930    5.0448
   18.960    5.0974
   18.990    5.0658
   19.020    5.0026
   19.050    4.8552
   19.080    5.0237
   19.110    4.4866
   19.140    5.0764
   19.170    5.2238
   19.200    4.9078
   19.230    4.6130
   19.260    4.9816
   19.290    5.0026
   19.320    4.7077
   19.350    5.0448
   19.380    4.9500
   19.410    4.6235
   19.440    4.9921
   19.470    5.1080
   19.500    4.9289
   19.530    4.8025
   19.560    5.3607
   19.590    5.0974
   19.620    4.9605
   19.650    5.2554
   19.680    5.2027
   19.710    4.8025
   19.740    5.0237
   19.770    5.0869
   19.800    4.9710
   19.830    4.9921
   19.860    5.0026
   19.890    5.0132
   19.920    5.2765
   19.950    5.1922
   19.980    4.9394
   20.010    5.4134
   20.040    5.1080
   20.070    5.2659
   20.100    5.0764
   20.130    5.0764
   20.160    5.3923
   20.190    5.0026
   20.220    4.8868
   20.250    5.0132
   20.280    5.4660
   20.310    5.1817
   20.340    4.9816
   20.370    5.6872
   20.400    5.5503
   20.430    5.6345
   20.460    5.6556
   20.490    6.1190
   20.520    5.3818
   20.550    5.1711
   20.580    5.3712
   20.610    5.2659
   20.640    5.4134
   20.670    4.9394
   20.700    5.2133
   20.730    4.7815
   20.760    5.2870
   20.790    5.0132
   20.820    5.2870
   20.850    5.0026
   20.880    5.3607
   20.910    5.1817
   20.940    5.3712
   20.970    5.4134
   21.000    5.1606
   21.030    5.1290
   21.060    5.4871
   21.090    5.1501
   21.120    5.3818
   21.150    5.4976
   21.180    5.0553
   21.210    4.9816
   21.240    5.2659
   21.270    5.1395
   21.300    5.1711
   21.330    5.2343
   21.360    5.4134
   21.390    5.0342
   21.420    5.2765
   21.450    5.5187
   21.480    5.3607
   21.510    5.2027
   21.540    5.5608
   21.570    5.5398
   21.600    5.2659
   21.630    5.7293
   21.660    5.4344
   21.690    5.0237
   21.720    5.2870
   21.750    5.2659
   21.780    5.0448
   21.810    5.6872
   21.840    5.4976
   21.870    5.6872
   21.900    5.6767
   21.930    5.3397
   21.960    5.2343
   21.990    4.9500
   22.020    5.0448
   22.050    5.3291
   22.080    5.4660
   22.110    5.5187
   22.140    5.2238
   22.170    5.1395
   22.200    5.0764
   22.230    5.1922
   22.260    5.3186
   22.290    5.0764
   22.320    5.2554
   22.350    5.0553
   22.380    5.1711
   22.410    5.4660
   22.440    4.9184
   22.470    5.0764
   22.500    5.2765
   22.530    5.2238
   22.560    5.6872
   22.590    5.8557
   22.620    5.8768
   22.650    5.9926
   22.680    5.2659
   22.710    5.0237
   22.740    5.0132
   22.770    5.6872
   22.800    5.2027
   22.830    5.3607
   22.860    5.3502
   22.890    5.6977
   22.920    5.3397
   22.950    5.6451
   22.980    5.5819
   23.010    5.5714
   23.040    5.5608
   23.070    5.4134
   23.100    5.2659
   23.130    5.1922
   23.160    5.2238
   23.190    5.2027
   23.220    5.6345
   23.250    4.9921
   23.280    5.4450
   23.310    5.1606
   23.340    5.4660
   23.370    5.4344
   23.400    5.3081
   23.430    4.8868
   23.460    5.1817
   23.490    5.2870
   23.520    5.2238
   23.550    5.1606
   23.580    5.2554
   23.610    5.4028
   23.640    5.6029
   23.670    5.3818
   23.700    4.8763
   23.730    5.1711
   23.760    5.0658
   23.790    5.0132
   23.820    5.0553
   23.850    4.9394
   23.880    5.0764
   23.910    4.8341
   23.940    5.3397
   23.970    5.1395
   24.000    5.3712
   24.030    4.7604
   24.060    5.0974
   24.090    5.1080
   24.120    4.8447
   24.150    4.9816
   24.180    4.9184
   24.210    5.1817
   24.240    4.8131
   24.270    4.5603
   24.300    5.1711
   24.330    4.9500
   24.360    4.8973
   24.390    4.9921
   24.420    4.7920
   24.450    4.9078
   24.480    4.9921
   24.510    4.9921
   24.540    4.8868
   24.570    4.8552
   24.600    5.0658
   24.630    5.1290
   24.660    4.8341
   24.690    4.9184
   24.720    4.7393
   24.750    4.7709
   24.780    4.8868
   24.810    4.6867
   24.840    5.0132
   24.870    5.3291
   24.900    4.6656
   24.930    4.8025
   24.960    5.1395
   24.990    5.0869
   25.020    4.9289
   25.050    4.9816
   25.080    4.7183
   25.110    4.8763
   25.140    4.8657
   25.170    4.9184
   25.200    4.4339
   25.230    4.6972
   25.260    4.8763
   25.290    5.0448
   25.320    4.7499
   25.350    5.0658
   25.380    4.6972
   25.410    4.9816
   25.440    4.8447
   25.470    4.7393
   25.500    4.8447
   25.530    4.9816
   25.560    5.0342
   25.590    4.6130
   25.620    4.7499
   25.650    4.9605
   25.680    4.9921
   25.710    4.9500
   25.740    4.6656
   25.770    4.8973
   25.800    4.8236
   25.830    5.3502
   25.860    5.0658
   25.890    4.8973
   25.920    4.7604
   25.950    5.0658
   25.980    4.9289
   26.010    4.7183
   26.040    4.6972
   26.070    4.9078
   26.100    4.7815
   26.130    4.3391
   26.160    4.5287
   26.190    4.3497
   26.220    4.8236
   26.250    4.6235
   26.280    4.8447
   26.310    4.5498
   26.340    4.1285
   26.370    4.5814
   26.400    4.4023
   26.430    4.8657
   26.460    4.6867
   26.490    5.1711
   26.520    4.6551
   26.550    4.1496
   26.580    4.6024
   26.610    4.4128
   26.640    4.4128
   26.670    4.4866
   26.700    4.4760
   26.730    4.6130
   26.760    4.5708
   26.790    4.3181
   26.820    4.4971
   26.850    4.3391
   26.880    4.6867
   26.910    4.4234
   26.940    4.4760
   26.970    4.3497
   27.000    4.2865
   27.030    4.4128
   27.060    4.7604
   27.090    4.6551
   27.120    4.6551
   27.150    4.5708
   27.180    4.8447
   27.210    4.7288
   27.240    4.3813
   27.270    4.3391
   27.300    4.4023
   27.330    4.5392
   27.360    4.4023
   27.390    4.6445
   27.420    4.4234
   27.450    4.5498
   27.480    4.6340
   27.510    4.4234
   27.540    4.2443
   27.570    4.6551
   27.600    4.5814
   27.630    5.0342
   27.660    4.5076
   27.690    4.6656
   27.720    4.8447
   27.750    4.3286
   27.780    4.4234
   27.810    4.3813
   27.840    4.2338
   27.870    4.6340
   27.900    4.5603
   27.930    4.4866
   27.960    4.7077
   27.990    5.0553
   28.020    4.6972
   28.050    4.6656
   28.080    4.8868
   28.110    4.8341
   28.140    4.7920
   28.170    4.8552
   28.200    4.9078
   28.230    4.8657
   28.260    4.7077
   28.290    4.6972
   28.320    4.3181
   28.350    4.5182
   28.380    4.6656
   28.410    4.4655
   28.440    4.2549
   28.470    4.4760
   28.500    4.7499
   28.530    4.1285
   28.560    4.7393
   28.590    4.3391
   28.620    4.4971
   28.650    4.5498
   28.680    4.5287
   28.710    4.4655
   28.740    4.5814
   28.770    4.4866
   28.800    4.4655
   28.830    4.3707
   28.860    4.5603
   28.890    4.2549
   28.920    4.4128
   28.950    4.4760
   28.980    4.7709
   29.010    4.7604
   29.040    4.4444
   29.070    4.8447
   29.100    4.4444
   29.130    4.4866
   29.160    4.4655
   29.190    4.3707
   29.220    4.7604
   29.250    4.3497
   29.280    4.5814
   29.310    4.6867
   29.340    4.3918
   29.370    4.2759
   29.400    4.3075
   29.430    4.3075
   29.460    4.2970
   29.490    4.5182
   29.520    4.5182
   29.550    4.4339
   29.580    4.2233
   29.610    4.5076
   29.640    4.4023
   29.670    4.1285
   29.700    4.1706
   29.730    4.1390
   29.760    4.4339
   29.790    4.4128
   29.820    4.3075
   29.850    4.2759
   29.880    4.2970
   29.910    4.7499
   29.940    4.4550
   29.970    4.3813
   30.000    4.2970
   30.030    3.9179
   30.060    4.0969
   30.090    4.0653
   30.120    4.1285
   30.150    4.2865
   30.180    4.4339
   30.210    4.4550
   30.240    4.4234
   30.270    3.8863
   30.300    4.0864
   30.330    4.0758
   30.360    4.3075
   30.390    4.1706
   30.420    4.3286
   30.450    4.3918
   30.480    4.2549
   30.510    4.1390
   30.540    3.8547
   30.570    4.2338
   30.600    4.1706
   30.630    4.0337
   30.660    4.0864
   30.690    4.0969
   30.720    4.7604
   30.750    4.0653
   30.780    3.9494
   30.810    3.9284
   30.840    3.9600
   30.870    4.1285
   30.900    4.2022
   30.930    4.0864
   30.960    4.2443
   30.990    3.8441
   31.020    4.0126
   31.050    4.2549
   31.080    3.8125
   31.110    3.7283
   31.140    3.9284
   31.170    4.0021
   31.200    4.0337
   31.230    3.8652
   31.260    4.0969
   31.290    3.9179
   31.320    4.2233
   31.350    4.1496
   31.380    4.1390
   31.410    4.3075
   31.440    4.1390
   31.470    3.9705
   31.500    3.8652
   31.530    4.2970
   31.560    3.9916
   31.590    4.1390
   31.620    4.2865
   31.650    4.0021
   31.680    4.0232
   31.710    4.0864
   31.740    4.2654
   31.770    4.1390
   31.800    4.1706
   31.830    4.1285
   31.860    4.5919
   31.890    3.7915
   31.920    4.1390
   31.950    4.2127
   31.980    4.2338
   32.010    3.9916
   32.040    4.7183
   32.070    4.2022
   32.100    4.7920
   32.130    4.7288
   32.160    4.4128
   32.190    4.2654
   32.220    4.1285
   32.250    4.1285
   32.280    3.9810
   32.310    4.2549
   32.340    3.9494
   32.370    3.9810
   32.400    3.9073
   32.430    4.0442
   32.460    3.6124
   32.490    3.9600
   32.520    3.9494
   32.550    3.6651
   32.580    3.9284
   32.610    3.9916
   32.640    3.7704
   32.670    3.6651
   32.700    3.7915
   32.730    4.0969
   32.760    4.1601
   32.790    3.7915
   32.820    3.8336
   32.850    3.9073
   32.880    4.2443
   32.910    3.5808
   32.940    3.8125
   32.970    4.0442
   33.000    3.7704
   33.030    3.7599
   33.060    3.3175
   33.090    3.6440
   33.120    3.5387
   33.150    3.8441
   33.180    3.5071
   33.210    3.5808
   33.240    3.5808
   33.270    3.4123
   33.300    3.9284
   33.330    3.8652
   33.360    3.4544
   33.390    3.4650
   33.420    3.7809
   33.450    3.8231
   33.480    3.8652
   33.510    3.5282
   33.540    3.7704
   33.570    3.6440
   33.600    3.7283
   33.630    3.7704
   33.660    3.7493
   33.690    3.6440
   33.720    3.6967
   33.750    4.1390
   33.780    3.7704
   33.810    3.7072
   33.840    4.0653
   33.870    3.8757
   33.900    4.1285
   33.930    4.1917
   33.960    3.7809
   33.990    3.6756
   34.020    3.6967
   34.050    3.6440
   34.080    3.4860
   34.110    3.4860
   34.140    3.6335
   34.170    3.5808
   34.200    3.5176
   34.230    3.3913
   34.260    3.7388
   34.290    3.5387
   34.320    3.2438
   34.350    3.6440
   34.380    3.5176
   34.410    3.4334
   34.440    3.6546
   34.470    3.5598
   34.500    3.7915
   34.530    3.9284
   34.560    3.4966
   34.590    3.5176
   34.620    3.5492
   34.650    3.5387
   34.680    3.5808
   34.710    3.4966
   34.740    3.3807
   34.770    3.5598
   34.800    3.4123
   34.830    3.6019
   34.860    3.5492
   34.890    3.9600
   34.920    3.5176
   34.950    3.2017
   34.980    3.2965
   35.010    3.2859
   35.040    3.4755
   35.070    3.5492
   35.100    3.3491
   35.130    3.4755
   35.160    3.4544
   35.190    3.6440
   35.220    3.4650
   35.250    3.5914
   35.280    3.7177
   35.310    3.5387
   35.340    3.8020
   35.370    3.4860
   35.400    3.3913
   35.430    3.4966
   35.460    3.5176
   35.490    3.6440
   35.520    3.4018
   35.550    3.5387
   35.580    3.4544
   35.610    3.1806
   35.640    3.1490
   35.670    3.3913
   35.700    3.4544
   35.730    3.6756
   35.760    3.6651
   35.790    3.4334
   35.820    3.3597
   35.850    3.2122
   35.880    3.6230
   35.910    3.7388
   35.940    3.4860
   35.970    3.6230
   36.000    3.3281
   36.030    3.4018
   36.060    3.2965
   36.090    3.1385
   36.120    3.5492
   36.150    3.3175
   36.180    3.2649
   36.210    3.2227
   36.240    3.2333
   36.270    3.3597
   36.300    3.2965
   36.330    3.5071
   36.360    3.1912
   36.390    3.2965
   36.420    3.4755
   36.450    3.4123
   36.480    3.1280
   36.510    3.3070
   36.540    3.5703
   36.570    3.2227
   36.600    3.2438
   36.630    3.4334
   36.660    3.3913
   36.690    3.2859
   36.720    2.9279
   36.750    3.5282
   36.780    3.1069
   36.810    3.5808
   36.840    3.2543
   36.870    3.0964
   36.900    3.4018
   36.930    2.9489
   36.960    3.2754
   36.990    3.2965
   37.020    3.2965
   37.050    3.4860
   37.080    3.4229
   37.110    3.3597
   37.140    3.3807
   37.170    3.4755
   37.200    3.0648
   37.230    3.0437
   37.260    3.2438
   37.290    3.2649
   37.320    3.3913
   37.350    3.1490
   37.380    3.3070
   37.410    3.2017
   37.440    3.0437
   37.470    3.1701
   37.500    3.2438
   37.530    3.3807
   37.560    3.5071
   37.590    3.2333
   37.620    3.0542
   37.650    3.5808
   37.680    3.2227
   37.710    3.0437
   37.740    3.1912
   37.770    3.3175
   37.800    3.2122
   37.830    3.3702
   37.860    3.0542
   37.890    3.1806
   37.920    3.1596
   37.950    3.5914
   37.980    3.3807
   38.010    3.0858
   38.040    3.0858
   38.070    3.2333
   38.100    3.3175
   38.130    3.0964
   38.160    3.1912
   38.190    3.4018
   38.220    3.0437
   38.250    3.2859
   38.280    3.0332
   38.310    3.1385
   38.340    3.1701
   38.370    3.0121
   38.400    3.0542
   38.430    3.0964
   38.460    3.3491
   38.490    3.3070
   38.520    3.2543
   38.550    3.2333
   38.580    3.0753
   38.610    3.3913
   38.640    3.2649
   38.670    3.3070
   38.700    3.4860
   38.730    3.4123
   38.760    3.2122
   38.790    3.0964
   38.820    3.4544
   38.850    3.0332
   38.880    3.0016
   38.910    3.3175
   38.940    2.9595
   38.970    3.2965
   39.000    3.1806
   39.030    3.3281
   39.060    3.1490
   39.090    3.3597
   39.120    3.0332
   39.150    3.0542
   39.180    3.0437
   39.210    3.1490
   39.240    3.3386
   39.270    2.9910
   39.300    3.4966
   39.330    3.2017
   39.360    3.3491
   39.390    2.9910
   39.420    3.0753
   39.450    3.1385
   39.480    3.3491
   39.510    3.1280
   39.540    3.3386
   39.570    2.9279
   39.600    2.8120
   39.630    3.0648
   39.660    3.0332
   39.690    3.4123
   39.720    3.0332
   39.750    2.9279
   39.780    3.2017
   39.810    3.1596
   39.840    3.1385
   39.870    3.1174
   39.900    3.0121
   39.930    3.0648
   39.960    3.2543
   39.990    3.0648