File: data/PXRD/PXRD_Blank_Cu-Ka1_capillary-1mm_5s-deg.xyd
    1.500    1.5587
    1.530    1.6324
    1.560    1.6640
    1.590    1.6851
    1.620    1.7272
    1.650    1.6324
    1.680    1.6535
    1.710    2.0853
    1.740    1.8220
    1.770    1.9273
    1.800    2.1169
    1.830    1.9695
    1.860    2.0642
    1.890    1.9484
    1.920    2.0748
    1.950    2.1169
    1.980    2.0432
    2.010    2.1169
    2.040    2.2749
    2.070    2.1485
    2.100    2.3486
    2.130    2.6540
    2.160    2.3907
    2.190    2.1696
    2.220    2.3591
    2.250    2.4329
    2.280    2.4118
    2.310    2.2749
    2.340    2.5171
    2.370    2.6014
    2.400    2.3275
    2.430    2.5382
    2.460    2.6330
    2.490    2.6435
    2.520    2.2854
    2.550    2.5171
    2.580    2.5803
    2.610    2.6540
    2.640    2.7593
    2.670    2.5066
    2.700    2.4855
    2.730    2.5908
    2.760    2.4539
    2.790    2.6014
    2.820    2.6119
    2.850    2.5698
    2.880    2.7909
    2.910    2.7278
    2.940    2.6646
    2.970    2.6014
    3.000    2.6962
    3.030    2.5171
    3.060    2.7488
    3.090    2.6435
    3.120    2.5592
    3.150    2.5908
    3.180    2.6224
    3.210    2.9489
    3.240    2.7699
    3.270    2.7172
    3.300    2.8331
    3.330    2.9805
    3.360    2.9384
    3.390    2.9279
    3.420    3.0437
    3.450    3.1174
    3.480    2.8963
    3.510    2.6962
    3.540    2.8752
    3.570    2.9489
    3.600    3.1174
    3.630    3.2438
    3.660    2.7383
    3.690    3.0648
    3.720    3.0226
    3.750    2.7699
    3.780    2.8963
    3.810    3.0016
    3.840    2.8225
    3.870    3.1385
    3.900    2.9595
    3.930    2.9700
    3.960    3.0753
    3.990    2.8436
    4.020    3.3386
    4.050    3.0858
    4.080    2.9384
    4.110    3.0648
    4.140    2.8225
    4.170    2.8752
    4.200    3.0332
    4.230    2.9489
    4.260    3.1280
    4.290    3.2122
    4.320    2.9489
    4.350    3.1490
    4.380    3.1912
    4.410    2.9805
    4.440    3.1280
    4.470    3.0016
    4.500    3.1174
    4.530    2.8752
    4.560    3.1385
    4.590    3.0858
    4.620    2.9595
    4.650    2.9384
    4.680    2.9700
    4.710    3.2649
    4.740    3.1806
    4.770    3.1280
    4.800    3.2859
    4.830    3.0753
    4.860    3.2227
    4.890    3.2965
    4.920    3.3070
    4.950    3.2649
    4.980    2.9279
    5.010    3.0858
    5.040    2.9700
    5.070    2.9068
    5.100    2.8647
    5.130    3.1174
    5.160    3.0964
    5.190    3.1701
    5.220    3.1701
    5.250    3.3702
    5.280    3.0858
    5.310    3.0016
    5.340    3.4018
    5.370    3.2649
    5.400    2.8120
    5.430    3.0858
    5.460    3.3175
    5.490    3.2227
    5.520    3.5598
    5.550    3.1069
    5.580    3.1912
    5.610    3.2227
    5.640    3.4966
    5.670    3.2017
    5.700    3.0121
    5.730    2.7278
    5.760    3.2438
    5.790    3.2122
    5.820    3.1912
    5.850    3.0437
    5.880    3.2017
    5.910    3.3491
    5.940    3.1701
    5.970    3.1806
    6.000    3.0542
    6.030    3.1596
    6.060    2.9384
    6.090    3.0542
    6.120    3.4018
    6.150    3.3807
    6.180    3.1174
    6.210    3.1806
    6.240    3.2227
    6.270    3.1174
    6.300    3.0542
    6.330    2.9068
    6.360    3.2859
    6.390    3.2227
    6.420    3.2543
    6.450    3.2965
    6.480    3.1280
    6.510    3.3597
    6.540    3.4755
    6.570    3.3597
    6.600    2.9595
    6.630    3.2649
    6.660    3.1701
    6.690    3.0964
    6.720    3.1701
    6.750    3.1806
    6.780    3.3913
    6.810    3.1174
    6.840    3.0648
    6.870    3.2965
    6.900    3.4860
    6.930    3.1596
    6.960    2.8963
    6.990    3.2543
    7.020    3.0753
    7.050    3.2017
    7.080    3.4860
    7.110    3.4966
    7.140    3.2649
    7.170    3.3281
    7.200    3.2649
    7.230    3.2649
    7.260    3.4544
    7.290    2.9489
    7.320    3.2227
    7.350    3.3070
    7.380    3.0121
    7.410    3.1280
    7.440    3.0226
    7.470    3.2859
    7.500    3.2543
    7.530    3.1806
    7.560    3.1069
    7.590    3.1490
    7.620    3.1701
    7.650    3.2965
    7.680    3.2122
    7.710    3.2965
    7.740    3.0332
    7.770    3.0437
    7.800    3.2017
    7.830    3.0858
    7.860    2.9068
    7.890    2.9910
    7.920    3.2859
    7.950    3.0016
    7.980    3.1069
    8.010    3.4229
    8.040    3.3597
    8.070    3.1806
    8.100    3.1912
    8.130    3.2227
    8.160    3.3597
    8.190    2.8963
    8.220    3.3281
    8.250    3.2438
    8.280    3.0858
    8.310    3.2438
    8.340    3.3386
    8.370    3.1806
    8.400    3.2017
    8.430    2.9173
    8.460    3.2859
    8.490    3.1385
    8.520    3.1596
    8.550    3.1490
    8.580    3.0332
    8.610    3.0753
    8.640    3.2754
    8.670    2.9700
    8.700    3.0964
    8.730    3.4229
    8.760    3.0753
    8.790    3.1596
    8.820    3.0964
    8.850    3.2122
    8.880    3.1069
    8.910    3.1912
    8.940    2.9700
    8.970    2.8436
    9.000    3.3386
    9.030    3.0964
    9.060    3.0964
    9.090    3.0858
    9.120    3.1806
    9.150    2.9173
    9.180    3.0753
    9.210    3.1385
    9.240    2.9384
    9.270    3.1596
    9.300    2.9910
    9.330    3.1490
    9.360    3.1806
    9.390    3.0332
    9.420    3.1596
    9.450    3.1912
    9.480    3.1385
    9.510    3.4229
    9.540    3.1069
    9.570    2.9173
    9.600    3.1280
    9.630    3.1385
    9.660    3.0542
    9.690    3.0226
    9.720    2.8752
    9.750    3.0016
    9.780    3.2754
    9.810    3.0542
    9.840    3.0437
    9.870    3.3386
    9.900    2.9173
    9.930    3.2649
    9.960    3.1912
    9.990    3.1385
   10.020    3.1385
   10.050    3.1490
   10.080    3.2122
   10.110    3.1385
   10.140    3.1490
   10.170    3.2333
   10.200    3.0964
   10.230    2.9910
   10.260    2.9910
   10.290    2.9700
   10.320    3.1069
   10.350    3.1912
   10.380    3.1701
   10.410    2.7909
   10.440    3.3386
   10.470    3.2017
   10.500    3.3281
   10.530    3.0648
   10.560    3.0016
   10.590    3.2122
   10.620    2.9489
   10.650    2.9173
   10.680    3.1069
   10.710    3.0964
   10.740    3.3175
   10.770    3.1912
   10.800    3.1912
   10.830    2.9279
   10.860    3.1385
   10.890    3.3386
   10.920    2.9910
   10.950    3.0648
   10.980    3.0753
   11.010    3.0964
   11.040    3.0542
   11.070    3.0648
   11.100    2.9068
   11.130    3.1385
   11.160    3.4755
   11.190    2.7804
   11.220    3.3807
   11.250    2.8225
   11.280    3.1806
   11.310    2.8647
   11.340    2.8647
   11.370    3.0858
   11.400    2.9910
   11.430    3.1596
   11.460    2.9068
   11.490    2.9910
   11.520    3.1069
   11.550    3.0226
   11.580    3.0648
   11.610    2.9173
   11.640    3.1596
   11.670    3.0226
   11.700    2.9910
   11.730    2.9489
   11.760    3.0226
   11.790    2.8331
   11.820    3.1385
   11.850    3.0753
   11.880    2.9068
   11.910    2.8647
   11.940    2.8752
   11.970    2.9384
   12.000    2.8857
   12.030    3.1385
   12.060    2.8541
   12.090    2.9700
   12.120    3.1596
   12.150    2.9173
   12.180    3.2017
   12.210    3.0437
   12.240    2.9173
   12.270    2.7804
   12.300    3.0016
   12.330    3.1069
   12.360    2.9910
   12.390    2.9489
   12.420    3.2227
   12.450    2.9700
   12.480    2.9068
   12.510    2.8647
   12.540    3.0016
   12.570    3.2543
   12.600    3.0016
   12.630    2.8752
   12.660    3.0016
   12.690    2.8120
   12.720    2.9910
   12.750    2.8963
   12.780    3.2227
   12.810    3.0753
   12.840    3.0648
   12.870    2.7699
   12.900    2.9910
   12.930    3.2017
   12.960    2.8120
   12.990    2.8541
   13.020    2.7383
   13.050    3.0437
   13.080    3.0016
   13.110    2.9700
   13.140    2.9595
   13.170    3.1280
   13.200    2.8963
   13.230    2.9173
   13.260    2.8015
   13.290    2.9384
   13.320    3.1069
   13.350    2.9489
   13.380    3.0016
   13.410    2.8752
   13.440    3.0964
   13.470    3.0437
   13.500    2.8331
   13.530    2.8963
   13.560    2.8857
   13.590    2.8963
   13.620    2.9595
   13.650    2.7383
   13.680    2.8120
   13.710    2.8120
   13.740    2.7593
   13.770    2.9173
   13.800    3.0858
   13.830    2.9173
   13.860    3.0226
   13.890    3.0858
   13.920    3.0753
   13.950    2.8225
   13.980    3.0332
   14.010    2.9595
   14.040    2.7909
   14.070    2.6119
   14.100    2.8120
   14.130    2.7278
   14.160    2.9384
   14.190    2.9595
   14.220    2.8857
   14.250    3.0226
   14.280    2.7909
   14.310    3.0016
   14.340    2.8436
   14.370    3.0121
   14.400    3.1174
   14.430    2.6751
   14.460    2.9279
   14.490    2.7383
   14.520    3.0753
   14.550    2.8225
   14.580    3.0016
   14.610    3.1912
   14.640    2.8015
   14.670    2.8541
   14.700    2.7488
   14.730    3.0016
   14.760    2.9700
   14.790    2.9173
   14.820    2.9700
   14.850    3.2122
   14.880    2.9068
   14.910    2.9279
   14.940    2.7278
   14.970    2.9068
   15.000    2.8752
   15.030    2.8541
   15.060    2.9068
   15.090    2.8331
   15.120    2.9595
   15.150    2.9068
   15.180    3.0332
   15.210    3.0121
   15.240    2.7488
   15.270    3.0016
   15.300    2.7909
   15.330    2.9910
   15.360    2.7909
   15.390    3.0542
   15.420    2.9910
   15.450    2.6435
   15.480    2.9173
   15.510    3.0332
   15.540    3.0858
   15.570    2.9279
   15.600    2.8857
   15.630    2.8436
   15.660    3.0753
   15.690    2.7278
   15.720    2.7067
   15.750    2.8541
   15.780    2.8225
   15.810    2.6962
   15.840    2.7488
   15.870    2.7278
   15.900    2.7699
   15.930    3.2122
   15.960    2.8541
   15.990    2.6751
   16.020    3.0964
   16.050    2.9700
   16.080    3.0016
   16.110    2.6751
   16.140    2.9279
   16.170    2.7172
   16.200    2.7699
   16.230    2.9279
   16.260    2.8015
   16.290    2.6962
   16.320    2.7804
   16.350    2.7488
   16.380    2.9068
   16.410    2.8541
   16.440    3.0121
   16.470    3.0016
   16.500    2.9279
   16.530    2.8857
   16.560    2.9384
   16.590    2.6435
   16.620    2.8857
   16.650    2.9173
   16.680    2.9489
   16.710    2.9595
   16.740    2.8647
   16.770    2.9595
   16.800    2.8331
   16.830    2.9700
   16.860    2.9279
   16.890    3.0542
   16.920    3.0964
   16.950    3.0753
   16.980    2.5698
   17.010    2.8436
   17.040    2.6435
   17.070    2.9384
   17.100    3.0753
   17.130    2.9805
   17.160    3.1596
   17.190    3.1069
   17.220    3.2438
   17.250    3.0016
   17.280    2.8436
   17.310    2.8120
   17.340    3.2965
   17.370    2.7172
   17.400    2.8752
   17.430    2.8647
   17.460    2.7278
   17.490    2.7593
   17.520    2.8120
   17.550    2.8015
   17.580    2.9384
   17.610    2.8331
   17.640    2.8331
   17.670    2.9173
   17.700    2.9173
   17.730    3.0858
   17.760    2.9384
   17.790    2.7909
   17.820    2.7804
   17.850    2.6330
   17.880    2.8541
   17.910    2.8331
   17.940    3.0016
   17.970    2.7804
   18.000    3.0648
   18.030    2.9068
   18.060    2.8225
   18.090    2.7383
   18.120    2.9595
   18.150    3.1069
   18.180    2.9068
   18.210    2.8331
   18.240    2.9700
   18.270    3.2438
   18.300    2.8436
   18.330    2.8436
   18.360    2.9279
   18.390    2.6751
   18.420    2.9910
   18.450    2.6540
   18.480    2.8541
   18.510    2.8963
   18.540    2.8436
   18.570    3.1385
   18.600    2.9279
   18.630    2.8015
   18.660    3.0964
   18.690    2.8857
   18.720    3.2227
   18.750    2.5592
   18.780    3.0437
   18.810    3.0437
   18.840    3.0226
   18.870    2.8120
   18.900    3.1069
   18.930    2.6962
   18.960    3.2017
   18.990    3.3702
   19.020    3.0016
   19.050    3.0016
   19.080    2.8752
   19.110    3.0016
   19.140    3.1806
   19.170    3.0542
   19.200    2.9384
   19.230    2.9595
   19.260    3.0016
   19.290    2.9910
   19.320    3.0437
   19.350    3.0016
   19.380    2.9910
   19.410    3.1701
   19.440    2.9910
   19.470    2.8647
   19.500    2.8963
   19.530    3.1806
   19.560    2.8541
   19.590    3.0858
   19.620    3.2859
   19.650    2.8436
   19.680    3.0226
   19.710    3.1701
   19.740    2.8857
   19.770    3.3386
   19.800    3.2754
   19.830    2.8647
   19.860    2.8752
   19.890    3.1174
   19.920    2.8541
   19.950    3.0858
   19.980    3.0016
   20.010    3.2017
   20.040    3.2859
   20.070    2.9910
   20.100    2.8752
   20.130    2.8541
   20.160    2.9910
   20.190    2.9910
   20.220    3.5914
   20.250    3.0016
   20.280    2.7909
   20.310    3.0964
   20.340    3.1280
   20.370    3.2017
   20.400    3.0016
   20.430    3.2122
   20.460    3.2438
   20.490    3.0332
   20.520    2.9805
   20.550    3.1490
   20.580    3.0226
   20.610    3.0753
   20.640    3.1490
   20.670    3.0016
   20.700    3.1912
   20.730    3.2333
   20.760    3.1490
   20.790    2.8963
   20.820    3.0437
   20.850    2.8225
   20.880    3.0858
   20.910    3.1280
   20.940    2.7383
   20.970    3.0542
   21.000    3.3175
   21.030    3.0858
   21.060    3.3281
   21.090    3.2017
   21.120    2.8752
   21.150    3.0226
   21.180    3.3386
   21.210    3.1701
   21.240    3.0226
   21.270    3.2965
   21.300    3.0121
   21.330    3.1490
   21.360    2.9910
   21.390    3.0542
   21.420    3.3913
   21.450    3.0542
   21.480    3.2227
   21.510    3.2649
   21.540    3.0858
   21.570    3.1280
   21.600    3.1280
   21.630    3.3386
   21.660    3.0437
   21.690    3.1490
   21.720    3.2754
   21.750    3.1912
   21.780    3.1069
   21.810    3.1701
   21.840    3.0542
   21.870    3.2122
   21.900    3.1280
   21.930    3.2438
   21.960    3.2227
   21.990    3.2438
   22.020    3.0858
   22.050    3.4334
   22.080    2.7593
   22.110    3.1701
   22.140    2.9068
   22.170    3.0016
   22.200    3.0753
   22.230    3.1806
   22.260    2.9595
   22.290    2.9384
   22.320    2.9700
   22.350    3.2333
   22.380    3.0648
   22.410    3.3281
   22.440    3.2122
   22.470    3.2438
   22.500    2.8225
   22.530    2.9805
   22.560    3.0542
   22.590    3.1806
   22.620    3.2438
   22.650    3.2227
   22.680    3.1806
   22.710    3.1385
   22.740    3.4544
   22.770    3.3281
   22.800    3.3597
   22.830    3.3175
   22.860    3.0964
   22.890    2.9595
   22.920    3.1280
   22.950    3.0648
   22.980    3.1280
   23.010    3.0226
   23.040    2.7699
   23.070    2.8015
   23.100    3.2438
   23.130    3.0542
   23.160    3.0858
   23.190    3.2859
   23.220    3.1069
   23.250    3.1596
   23.280    3.0332
   23.310    2.8225
   23.340    2.7909
   23.370    3.2543
   23.400    3.2754
   23.430    3.0437
   23.460    3.4018
   23.490    3.1069
   23.520    3.2438
   23.550    3.0542
   23.580    3.3491
   23.610    2.8752
   23.640    2.8647
   23.670    3.0648
   23.700    3.0226
   23.730    3.1280
   23.760    3.0542
   23.790    2.9700
   23.820    3.1385
   23.850    3.3175
   23.880    2.8331
   23.910    3.1490
   23.940    3.1490
   23.970    3.0858
   24.000    3.1280
   24.030    2.9700
   24.060    3.1280
   24.090    3.0437
   24.120    3.1174
   24.150    2.8436
   24.180    2.9910
   24.210    3.0437
   24.240    3.0753
   24.270    3.1385
   24.300    3.0121
   24.330    3.0964
   24.360    3.0226
   24.390    3.1385
   24.420    2.8857
   24.450    3.0226
   24.480    3.1490
   24.510    3.1385
   24.540    2.9595
   24.570    2.9595
   24.600    2.9068
   24.630    3.1806
   24.660    3.2122
   24.690    3.1280
   24.720    2.7699
   24.750    2.9173
   24.780    3.0332
   24.810    3.1069
   24.840    2.9595
   24.870    2.9805
   24.900    2.9700
   24.930    2.8120
   24.960    3.2017
   24.990    2.8857
   25.020    2.8541
   25.050    2.9489
   25.080    3.0437
   25.110    3.0437
   25.140    3.0858
   25.170    2.9279
   25.200    3.1069
   25.230    3.0121
   25.260    2.9068
   25.290    2.9279
   25.320    2.9700
   25.350    2.9805
   25.380    3.0542
   25.410    3.0648
   25.440    2.9384
   25.470    2.6224
   25.500    2.8120
   25.530    3.0858
   25.560    3.0437
   25.590    3.0858
   25.620    2.9489
   25.650    2.9279
   25.680    2.7699
   25.710    2.9910
   25.740    3.0121
   25.770    2.8120
   25.800    2.8963
   25.830    2.8963
   25.860    2.7804
   25.890    3.3386
   25.920    2.7067
   25.950    2.8752
   25.980    3.0858
   26.010    2.8541
   26.040    3.0332
   26.070    3.0121
   26.100    2.8331
   26.130    2.9910
   26.160    2.9805
   26.190    2.8015
   26.220    2.8752
   26.250    3.0964
   26.280    2.9595
   26.310    2.8857
   26.340    2.8857
   26.370    2.8541
   26.400    2.8541
   26.430    2.9595
   26.460    2.7383
   26.490    2.9805
   26.520    2.7278
   26.550    2.8647
   26.580    2.7909
   26.610    2.8752
   26.640    2.6435
   26.670    2.5276
   26.700    2.8752
   26.730    2.7699
   26.760    2.8225
   26.790    2.6856
   26.820    3.1174
   26.850    2.7593
   26.880    2.7804
   26.910    3.0437
   26.940    2.8436
   26.970    2.9173
   27.000    2.6962
   27.030    2.9489
   27.060    2.7909
   27.090    2.6119
   27.120    2.6330
   27.150    3.0964
   27.180    2.8647
   27.210    2.4961
   27.240    2.6751
   27.270    2.6435
   27.300    2.8015
   27.330    2.6014
   27.360    2.7278
   27.390    2.7699
   27.420    2.7909
   27.450    2.6751
   27.480    2.5908
   27.510    2.8857
   27.540    2.7699
   27.570    2.7067
   27.600    2.6014
   27.630    2.7488
   27.660    2.8331
   27.690    2.5276
   27.720    2.8647
   27.750    2.8541
   27.780    2.5592
   27.810    2.8436
   27.840    3.0016
   27.870    2.6856
   27.900    2.9384
   27.930    2.6224
   27.960    2.6646
   27.990    2.7488
   28.020    2.7804
   28.050    2.9068
   28.080    2.4855
   28.110    2.8541
   28.140    2.6330
   28.170    2.4223
   28.200    2.6330
   28.230    2.4539
   28.260    2.6119
   28.290    2.6224
   28.320    2.5803
   28.350    2.7488
   28.380    2.7172
   28.410    2.5487
   28.440    2.5698
   28.470    2.6119
   28.500    3.0226
   28.530    2.7488
   28.560    2.6119
   28.590    2.8541
   28.620    2.5698
   28.650    2.6224
   28.680    2.4961
   28.710    2.5698
   28.740    2.6119
   28.770    2.6224
   28.800    2.6751
   28.830    2.4434
   28.860    2.8647
   28.890    2.4539
   28.920    2.5382
   28.950    2.8541
   28.980    2.4750
   29.010    2.6962
   29.040    2.5382
   29.070    2.8331
   29.100    2.5698
   29.130    2.6119
   29.160    2.7278
   29.190    2.6435
   29.220    2.4750
   29.250    2.3907
   29.280    2.5698
   29.310    2.6962
   29.340    2.6962
   29.370    2.7067
   29.400    2.3170
   29.430    2.5382
   29.460    2.3697
   29.490    2.3802
   29.520    2.4118
   29.550    2.5698
   29.580    2.4645
   29.610    2.6646
   29.640    2.7593
   29.670    2.3591
   29.700    2.4750
   29.730    2.7909
   29.760    2.4013
   29.790    2.3802
   29.820    2.4645
   29.850    2.4013
   29.880    2.3275
   29.910    2.4013
   29.940    2.2328
   29.970    2.2854
   30.000    2.3170
   30.030    2.4645
   30.060    2.4539
   30.090    2.4118
   30.120    2.4539
   30.150    2.4645
   30.180    2.2222
   30.210    2.4539
   30.240    2.3907
   30.270    2.5487
   30.300    2.5066
   30.330    2.2643
   30.360    2.4118
   30.390    2.5066
   30.420    2.4223
   30.450    2.1906
   30.480    2.6646
   30.510    2.2854
   30.540    2.6330
   30.570    2.2222
   30.600    2.5171
   30.630    2.1274
   30.660    2.4329
   30.690    2.3275
   30.720    2.2117
   30.750    2.5382
   30.780    2.1590
   30.810    2.3591
   30.840    1.9589
   30.870    2.5171
   30.900    2.2222
   30.930    2.4329
   30.960    2.1590
   30.990    2.2117
   31.020    2.3697
   31.050    2.2643
   31.080    2.4223
   31.110    2.2433
   31.140    2.4539
   31.170    2.4329
   31.200    2.2643
   31.230    2.2643
   31.260    2.2328
   31.290    2.5066
   31.320    2.2538
   31.350    2.3591
   31.380    2.3381
   31.410    2.3907
   31.440    2.4118
   31.470    2.4223
   31.500    2.7593
   31.530    2.5698
   31.560    2.4013
   31.590    2.5382
   31.620    2.4118
   31.650    2.5592
   31.680    2.6119
   31.710    2.3907
   31.740    2.4434
   31.770    2.2433
   31.800    2.3170
   31.830    2.1590
   31.860    2.4750
   31.890    2.1590
   31.920    2.3275
   31.950    1.8957
   31.980    2.3065
   32.010    2.2222
   32.040    1.9695
   32.070    1.9063
   32.100    2.0853
   32.130    1.9589
   32.160    2.1906
   32.190    2.1485
   32.220    2.2012
   32.250    2.0853
   32.280    2.0853
   32.310    1.9589
   32.340    2.0221
   32.370    2.0958
   32.400    2.0537
   32.430    2.2117
   32.460    2.0853
   32.490    2.0011
   32.520    2.0537
   32.550    2.0748
   32.580    2.1801
   32.610    1.9905
   32.640    1.9484
   32.670    1.9800
   32.700    2.2222
   32.730    2.0116
   32.760    2.1169
   32.790    2.0642
   32.820    2.2117
   32.850    2.0326
   32.880    2.2117
   32.910    1.8115
   32.940    2.2643
   32.970    2.3381
   33.000    1.9589
   33.030    1.8325
   33.060    1.9905
   33.090    2.2854
   33.120    2.0011
   33.150    2.0432
   33.180    2.2117
   33.210    1.9695
   33.240    2.0011
   33.270    1.9063
   33.300    1.6956
   33.330    1.8220
   33.360    2.1169
   33.390    2.0221
   33.420    1.9800
   33.450    1.9063
   33.480    1.7588
   33.510    1.9800
   33.540    1.8641
   33.570    1.9168
   33.600    1.9484
   33.630    1.9168
   33.660    1.8957
   33.690    2.0748
   33.720    1.8325
   33.750    1.7904
   33.780    1.8747
   33.810    2.0011
   33.840    2.0116
   33.870    2.0116
   33.900    1.6114
   33.930    1.9273
   33.960    2.0642
   33.990    2.0326
   34.020    1.8220
   34.050    1.9168
   34.080    1.6640
   34.110    1.6324
   34.140    1.8325
   34.170    2.0537
   34.200    1.9168
   34.230    1.8536
   34.260    1.8431
   34.290    1.7062
   34.320    1.8747
   34.350    1.6640
   34.380    1.6746
   34.410    1.5798
   34.440    1.8115
   34.470    1.7062
   34.500    1.6430
   34.530    1.6956
   34.560    1.7062
   34.590    1.6851
   34.620    1.7378
   34.650    1.6324
   34.680    1.8431
   34.710    1.5587
   34.740    1.7799
   34.770    1.7378
   34.800    1.6324
   34.830    1.8009
   34.860    1.7694
   34.890    1.3797
   34.920    1.5798
   34.950    1.5166
   34.980    1.5587
   35.010    1.6219
   35.040    1.6746
   35.070    1.7062
   35.100    1.6324
   35.130    1.7062
   35.160    1.5798
   35.190    1.7062
   35.220    1.3797
   35.250    1.7378
   35.280    1.8641
   35.310    1.7588
   35.340    1.5692
   35.370    1.6324
   35.400    1.5692
   35.430    1.7904
   35.460    1.5903
   35.490    1.5903
   35.520    1.7062
   35.550    1.7167
   35.580    1.7378
   35.610    1.8009
   35.640    1.6219
   35.670    1.6640
   35.700    1.3270
   35.730    1.6219
   35.760    1.5587
   35.790    1.4113
   35.820    1.6746
   35.850    1.3797
   35.880    1.5798
   35.910    1.6640
   35.940    1.7588
   35.970    1.4534
   36.000    1.7167
   36.030    1.7062
   36.060    1.6746
   36.090    1.4113
   36.120    1.5482
   36.150    1.5482
   36.180    1.6324
   36.210    1.6430
   36.240    1.6535
   36.270    1.5482
   36.300    1.4218
   36.330    1.6640
   36.360    1.4745
   36.390    1.4429
   36.420    1.4218
   36.450    1.5166
   36.480    1.3691
   36.510    1.5271
   36.540    1.4218
   36.570    1.4745
   36.600    1.3481
   36.630    1.5166
   36.660    1.1901
   36.690    1.3902
   36.720    1.3691
   36.750    1.3586
   36.780    1.4429
   36.810    1.3691
   36.840    1.4218
   36.870    1.4955
   36.900    1.6430
   36.930    1.3481
   36.960    1.4429
   36.990    1.5798
   37.020    1.4429
   37.050    1.4218
   37.080    1.5061
   37.110    1.4113
   37.140    1.2638
   37.170    1.3165
   37.200    1.2744
   37.230    1.4113
   37.260    1.5061
   37.290    1.3691
   37.320    1.4850
   37.350    1.2638
   37.380    1.3691
   37.410    1.2322
   37.440    1.2322
   37.470    1.3586
   37.500    1.4745
   37.530    1.3270
   37.560    1.2638
   37.590    1.2849
   37.620    1.3060
   37.650    1.3586
   37.680    1.2744
   37.710    1.4218
   37.740    1.2322
   37.770    1.3586
   37.800    1.3481
   37.830    1.1374
   37.860    1.3481
   37.890    1.3586
   37.920    1.2217
   37.950    1.1374
   37.980    1.3691
   38.010    1.3165
   38.040    1.2533
   38.070    1.4007
   38.100    1.2217
   38.130    1.2428
   38.160    1.4745
   38.190    1.4639
   38.220    1.3165
   38.250    1.2849
   38.280    1.3481
   38.310    1.1269
   38.340    1.2533
   38.370    1.4007
   38.400    1.2638
   38.430    1.2006
   38.460    1.1585
   38.490    1.1690
   38.520    1.2533
   38.550    1.3586
   38.580    1.3165
   38.610    1.2954
   38.640    1.1901
   38.670    1.1480
   38.700    1.2954
   38.730    1.3270
   38.760    1.2533
   38.790    1.2744
   38.820    1.2112
   38.850    1.3902
   38.880    1.2217
   38.910    1.1480
   38.940    1.2428
   38.970    1.2638
   39.000    1.2322
   39.030    1.2217
   39.060    1.3691
   39.090    1.5166
   39.120    1.1374
   39.150    1.3586
   39.180    1.3691
   39.210    1.2533
   39.240    1.0742
   39.270    1.1690
   39.300    1.2006
   39.330    1.2849
   39.360    1.0742
   39.390    1.2112
   39.420    1.3586
   39.450    1.0637
   39.480    1.1374
   39.510    1.1480
   39.540    1.0742
   39.570    1.2428
   39.600    1.3270
   39.630    1.0427
   39.660    1.2428
   39.690    1.1585
   39.720    1.2112
   39.750    1.2744
   39.780    1.2638
   39.810    1.1058
   39.840    1.1796
   39.870    1.2112
   39.900    1.2322
   39.930    1.2533
   39.960    1.3060
   39.990    1.1901