File: data/PXRD/PXRD_KE-275_Cu-Ka1_capillary-1mm_3s-deg.xyd
    1.500   16.1664
    1.530   16.2015
    1.560   14.5866
    1.590   15.3590
    1.620   15.7100
    1.650   14.3233
    1.680   13.7090
    1.710   14.3760
    1.740   13.4281
    1.770   13.3755
    1.800   12.2872
    1.830   12.7084
    1.860   11.8132
    1.890   12.0239
    1.920   12.1994
    1.950   10.8303
    1.980   10.5494
    2.010   10.7425
    2.040   10.6898
    2.070   10.3914
    2.100   10.4265
    2.130    9.9526
    2.160    9.4611
    2.190    9.2505
    2.220    9.3558
    2.250    9.3207
    2.280    8.8643
    2.310    9.1276
    2.340    9.1101
    2.370    9.2154
    2.400    8.9345
    2.430    9.0925
    2.460    8.5484
    2.490    8.8819
    2.520    8.3553
    2.550    8.3202
    2.580    8.2675
    2.610    8.0393
    2.640    7.9164
    2.670    8.2675
    2.700    8.3026
    2.730    8.0569
    2.760    7.9867
    2.790    8.6888
    2.820    8.3202
    2.850    8.5308
    2.880    8.0920
    2.910    8.3904
    2.940    9.5840
    2.970    9.2329
    3.000    9.3909
    3.030    9.8473
    3.060   10.4968
    3.090   11.3569
    3.120   12.2170
    3.150   12.6207
    3.180   14.0249
    3.210   15.8856
    3.240   17.7637
    3.270   18.8871
    3.300   20.8706
    3.330   23.6440
    3.360   25.4695
    3.390   28.5764
    3.420   33.9301
    3.450   37.6689
    3.480   43.1806
    3.510   47.4285
    3.540   56.8369
    3.570   65.9294
    3.600   76.5315
    3.630   92.3468
    3.660  113.0595
    3.690  146.3226
    3.720  200.4564
    3.750  271.8097
    3.780  259.8561
    3.810  154.9236
    3.840   47.5338
    3.870   15.8329
    3.900   10.5143
    3.930    8.3728
    3.960    7.7585
    3.990    6.4595
    4.020    6.7228
    4.050    5.7925
    4.080    5.6697
    4.110    5.8101
    4.140    6.1787
    4.170    5.8452
    4.200    5.8452
    4.230    5.9154
    4.260    5.6170
    4.290    5.0728
    4.320    5.1255
    4.350    5.3186
    4.380    4.5814
    4.410    5.1255
    4.440    4.7920
    4.470    5.0904
    4.500    5.5292
    4.530    5.4941
    4.560    5.0202
    4.590    4.8622
    4.620    5.1080
    4.650    5.3537
    4.680    4.8798
    4.710    5.2835
    4.740    4.7042
    4.770    5.0377
    4.800    5.0728
    4.830    6.1962
    4.860    5.7399
    4.890    5.4064
    4.920    6.1436
    4.950    6.3718
    4.980    6.5298
    5.010    7.1617
    5.040    7.2143
    5.070    7.9516
    5.100    9.3558
    5.130   10.2510
    5.160   11.9888
    5.190   13.2350
    5.220   15.7627
    5.250   19.7648
    5.280   24.5568
    5.310   34.4743
    5.340   44.0758
    5.370   43.1982
    5.400   27.5057
    5.430   11.3920
    5.460    7.0212
    5.490    5.4239
    5.520    5.0728
    5.550    4.8271
    5.580    5.1255
    5.610    4.8622
    5.640    5.0553
    5.670    5.0904
    5.700    5.1782
    5.730    4.5111
    5.760    4.5287
    5.790    5.0026
    5.820    4.7920
    5.850    4.8271
    5.880    4.5111
    5.910    4.2478
    5.940    4.4585
    5.970    4.5638
    6.000    4.6165
    6.030    4.6340
    6.060    4.4936
    6.090    4.3707
    6.120    4.7920
    6.150    4.8973
    6.180    4.3005
    6.210    4.4409
    6.240    5.0202
    6.270    5.0904
    6.300    5.0904
    6.330    5.1431
    6.360    5.6521
    6.390    6.3367
    6.420    6.4946
    6.450    7.2143
    6.480    8.4781
    6.510   10.7074
    6.540   13.5685
    6.570   15.4818
    6.600   14.4638
    6.630    9.0925
    6.660    5.5819
    6.690    5.1080
    6.720    4.7569
    6.750    4.4234
    6.780    4.4936
    6.810    4.2127
    6.840    3.9143
    6.870    4.3707
    6.900    4.5111
    6.930    4.0723
    6.960    4.2303
    6.990    4.2830
    7.020    4.1425
    7.050    3.8090
    7.080    4.3356
    7.110    4.2303
    7.140    4.6867
    7.170    4.1074
    7.200    4.4936
    7.230    4.4409
    7.260    4.4760
    7.290    4.6340
    7.320    4.3181
    7.350    4.5989
    7.380    4.9324
    7.410    5.1255
    7.440    5.1431
    7.470    6.3191
    7.500    6.6175
    7.530    7.8462
    7.560    9.6542
    7.590   11.6377
    7.620   11.6904
    7.650    8.4255
    7.680    5.2835
    7.710    4.4058
    7.740    4.5287
    7.770    4.4058
    7.800    4.4760
    7.830    4.1250
    7.860    4.3707
    7.890    3.9319
    7.920    4.1776
    7.950    4.2303
    7.980    4.3532
    8.010    4.1425
    8.040    3.9494
    8.070    4.3707
    8.100    4.2830
    8.130    3.9494
    8.160    3.7915
    8.190    4.0197
    8.220    4.2478
    8.250    4.2478
    8.280    4.0197
    8.310    4.8447
    8.340    4.5463
    8.370    4.9851
    8.400    5.3010
    8.430    6.0383
    8.460    6.9686
    8.490    8.4430
    8.520    9.0750
    8.550    7.4074
    8.580    5.4590
    8.610    4.4585
    8.640    4.4585
    8.670    4.0899
    8.700    3.7388
    8.730    3.9319
    8.760    4.1074
    8.790    3.9143
    8.820    3.6862
    8.850    4.2478
    8.880    3.8792
    8.910    4.0021
    8.940    4.1776
    8.970    3.7739
    9.000    3.8090
    9.030    4.0021
    9.060    4.1250
    9.090    4.1601
    9.120    4.7393
    9.150    5.2835
    9.180    5.9505
    9.210    5.9681
    9.240    7.0739
    9.270    9.1276
    9.300   13.0595
    9.330   14.5691
    9.360   11.3744
    9.390    8.0569
    9.420    4.6867
    9.450    3.7739
    9.480    4.0899
    9.510    3.9319
    9.540    3.8090
    9.570    3.7915
    9.600    3.7915
    9.630    3.5984
    9.660    3.6335
    9.690    3.9846
    9.720    3.7564
    9.750    3.8441
    9.780    3.8968
    9.810    3.8792
    9.840    4.0021
    9.870    4.3356
    9.900    4.6516
    9.930    5.2133
    9.960    5.7574
    9.990    6.8808
   10.020    8.8468
   10.050   12.1994
   10.080   14.6919
   10.110   13.0771
   10.140    8.5835
   10.170    5.2484
   10.200    3.9670
   10.230    3.9846
   10.260    4.1601
   10.290    4.0372
   10.320    3.7213
   10.350    3.7564
   10.380    3.9143
   10.410    3.8266
   10.440    3.5457
   10.470    3.8617
   10.500    4.0548
   10.530    4.0197
   10.560    4.4234
   10.590    4.1776
   10.620    4.6340
   10.650    4.6691
   10.680    5.4941
   10.710    5.9329
   10.740    8.1622
   10.770   10.2335
   10.800    9.8122
   10.830    8.1095
   10.860    5.4766
   10.890    4.1601
   10.920    3.8617
   10.950    3.6862
   10.980    3.9670
   11.010    3.9494
   11.040    3.7388
   11.070    3.5808
   11.100    3.5106
   11.130    3.5984
   11.160    3.9143
   11.190    3.8266
   11.220    4.1074
   11.250    3.8792
   11.280    4.2830
   11.310    4.1601
   11.340    4.5989
   11.370    4.9324
   11.400    6.0383
   11.430    7.7936
   11.460    7.2319
   11.490    6.6877
   11.520    4.9675
   11.550    3.9319
   11.580    3.9494
   11.610    4.2654
   11.640    3.8266
   11.670    3.5457
   11.700    3.6159
   11.730    3.6862
   11.760    3.6159
   11.790    3.5282
   11.820    4.0021
   11.850    3.5633
   11.880    3.7915
   11.910    3.7213
   11.940    3.6159
   11.970    4.5111
   12.000    4.5814
   12.030    5.1080
   12.060    5.7925
   12.090    6.4069
   12.120    5.1080
   12.150    4.1074
   12.180    3.9670
   12.210    3.8441
   12.240    3.3351
   12.270    3.8266
   12.300    3.4931
   12.330    4.0372
   12.360    3.7037
   12.390    3.7213
   12.420    3.3702
   12.450    4.1074
   12.480    3.5457
   12.510    3.6686
   12.540    3.8266
   12.570    4.2478
   12.600    5.2133
   12.630    6.1085
   12.660    6.9686
   12.690    6.4595
   12.720    5.5994
   12.750    4.4058
   12.780    3.3000
   12.810    3.3702
   12.840    3.5984
   12.870    3.3526
   12.900    3.6510
   12.930    3.1245
   12.960    3.3351
   12.990    3.6335
   13.020    3.6862
   13.050    3.3702
   13.080    3.7739
   13.110    3.6686
   13.140    3.6510
   13.170    4.1250
   13.200    4.3883
   13.230    4.7920
   13.260    4.8271
   13.290    4.7393
   13.320    3.7213
   13.350    3.4229
   13.380    3.6335
   13.410    3.3351
   13.440    3.4931
   13.470    3.6510
   13.500    3.6510
   13.530    3.8968
   13.560    3.4755
   13.590    3.7388
   13.620    3.7739
   13.650    4.2478
   13.680    4.7042
   13.710    5.7750
   13.740    7.0212
   13.770    9.2329
   13.800    9.0398
   13.830    6.9159
   13.860    5.0904
   13.890    3.7915
   13.920    3.4931
   13.950    3.4755
   13.980    3.2473
   14.010    3.6510
   14.040    3.8617
   14.070    3.5808
   14.100    3.7564
   14.130    3.4053
   14.160    3.3526
   14.190    3.6159
   14.220    3.6510
   14.250    3.6335
   14.280    3.4229
   14.310    3.8090
   14.340    3.4229
   14.370    3.2122
   14.400    3.9670
   14.430    3.8441
   14.460    3.6159
   14.490    3.5457
   14.520    3.5457
   14.550    3.2122
   14.580    3.3000
   14.610    3.6335
   14.640    3.5808
   14.670    3.8441
   14.700    3.5808
   14.730    4.0723
   14.760    3.8266
   14.790    5.0026
   14.820    4.8095
   14.850    4.8973
   14.880    4.2654
   14.910    3.5808
   14.940    3.4580
   14.970    3.2649
   15.000    3.5106
   15.030    3.3351
   15.060    3.5106
   15.090    3.8266
   15.120    3.9143
   15.150    3.5633
   15.180    3.5808
   15.210    3.3000
   15.240    3.4755
   15.270    3.3526
   15.300    3.4931
   15.330    3.8441
   15.360    3.5808
   15.390    3.6686
   15.420    3.2824
   15.450    3.0191
   15.480    3.6159
   15.510    3.3877
   15.540    3.3175
   15.570    3.4755
   15.600    3.5633
   15.630    3.7213
   15.660    3.3000
   15.690    4.0548
   15.720    4.5287
   15.750    5.5292
   15.780    5.3010
   15.810    5.0026
   15.840    4.4585
   15.870    3.5633
   15.900    3.4931
   15.930    3.9494
   15.960    3.3175
   15.990    3.4931
   16.020    3.4053
   16.050    3.4931
   16.080    3.7564
   16.110    3.3526
   16.140    3.7739
   16.170    4.0021
   16.200    4.3707
   16.230    4.5814
   16.260    4.1250
   16.290    4.6516
   16.320    3.4755
   16.350    3.3175
   16.380    3.5282
   16.410    3.7213
   16.440    3.2473
   16.470    3.5282
   16.500    3.7213
   16.530    3.4229
   16.560    3.9143
   16.590    3.4229
   16.620    4.3005
   16.650    4.7744
   16.680    4.9324
   16.710    5.3010
   16.740    4.8271
   16.770    3.9319
   16.800    3.4229
   16.830    3.6159
   16.860    3.7037
   16.890    3.7037
   16.920    3.3351
   16.950    3.7037
   16.980    3.7213
   17.010    3.3526
   17.040    3.8090
   17.070    3.9319
   17.100    4.5989
   17.130    4.8622
   17.160    4.8447
   17.190    4.2478
   17.220    3.8968
   17.250    3.3000
   17.280    3.6510
   17.310    3.4755
   17.340    3.3877
   17.370    3.4404
   17.400    3.3877
   17.430    3.8792
   17.460    3.7388
   17.490    3.5984
   17.520    3.9319
   17.550    3.9494
   17.580    3.8090
   17.610    4.0548
   17.640    3.8266
   17.670    3.5457
   17.700    3.6862
   17.730    3.7739
   17.760    3.9319
   17.790    3.6335
   17.820    3.5106
   17.850    4.2478
   17.880    3.8090
   17.910    3.8090
   17.940    3.8968
   17.970    4.6340
   18.000    4.5111
   18.030    3.8266
   18.060    4.1952
   18.090    3.6335
   18.120    3.5282
   18.150    3.4404
   18.180    3.6159
   18.210    4.1601
   18.240    3.7388
   18.270    3.7213
   18.300    3.8441
   18.330    4.2127
   18.360    4.1601
   18.390    4.5638
   18.420    4.4234
   18.450    3.7915
   18.480    3.6159
   18.510    3.6510
   18.540    3.8441
   18.570    3.3175
   18.600    3.6159
   18.630    3.3702
   18.660    4.0548
   18.690    3.4931
   18.720    3.7213
   18.750    3.7388
   18.780    3.7915
   18.810    3.8617
   18.840    3.5984
   18.870    3.7213
   18.900    3.8792
   18.930    3.3702
   18.960    3.7213
   18.990    3.6335
   19.020    3.8617
   19.050    3.8441
   19.080    3.7739
   19.110    3.6510
   19.140    4.2303
   19.170    4.0197
   19.200    4.1601
   19.230    4.2654
   19.260    3.9846
   19.290    3.5457
   19.320    3.5633
   19.350    3.6159
   19.380    3.4931
   19.410    3.4404
   19.440    3.4755
   19.470    3.5808
   19.500    3.0367
   19.530    3.4229
   19.560    3.2473
   19.590    3.8090
   19.620    3.6510
   19.650    3.5106
   19.680    3.5808
   19.710    3.5282
   19.740    3.3175
   19.770    3.7915
   19.800    3.7739
   19.830    3.7388
   19.860    4.3883
   19.890    4.7920
   19.920    5.1080
   19.950    6.1611
   19.980    5.3186
   20.010    4.5638
   20.040    4.4585
   20.070    3.8968
   20.100    3.7564
   20.130    3.7564
   20.160    3.4404
   20.190    3.4755
   20.220    3.6686
   20.250    4.0021
   20.280    3.8792
   20.310    3.2298
   20.340    3.7564
   20.370    3.7213
   20.400    3.3526
   20.430    3.7037
   20.460    3.6159
   20.490    3.9846
   20.520    3.3175
   20.550    3.8266
   20.580    3.9846
   20.610    3.8441
   20.640    4.1601
   20.670    4.0372
   20.700    4.2127
   20.730    3.9846
   20.760    4.1776
   20.790    3.7564
   20.820    3.6686
   20.850    3.8441
   20.880    3.4229
   20.910    3.2122
   20.940    3.6510
   20.970    3.4580
   21.000    3.8266
   21.030    3.3877
   21.060    3.6159
   21.090    3.6686
   21.120    3.8266
   21.150    3.8090
   21.180    3.2298
   21.210    3.5282
   21.240    3.6335
   21.270    3.4053
   21.300    3.7915
   21.330    4.1425
   21.360    4.5287
   21.390    4.8095
   21.420    4.1776
   21.450    4.2127
   21.480    3.9494
   21.510    3.7564
   21.540    3.7915
   21.570    3.2298
   21.600    3.5457
   21.630    3.3526
   21.660    3.9670
   21.690    3.9670
   21.720    4.0372
   21.750    4.0197
   21.780    4.3532
   21.810    3.3702
   21.840    3.4931
   21.870    3.5808
   21.900    3.5808
   21.930    3.7915
   21.960    4.1074
   21.990    4.1952
   22.020    4.2478
   22.050    5.0377
   22.080    5.8978
   22.110    5.6872
   22.140    5.0202
   22.170    4.3532
   22.200    3.7213
   22.230    3.2824
   22.260    3.7739
   22.290    3.6686
   22.320    4.3532
   22.350    4.8447
   22.380    4.8095
   22.410    5.5292
   22.440    5.6521
   22.470    5.1080
   22.500    4.6340
   22.530    3.8617
   22.560    4.3532
   22.590    3.5106
   22.620    3.4229
   22.650    3.7739
   22.680    3.6335
   22.710    3.4229
   22.740    3.9494
   22.770    3.8792
   22.800    3.2649
   22.830    4.1250
   22.860    4.2830
   22.890    3.8441
   22.920    3.7564
   22.950    3.6862
   22.980    3.8090
   23.010    4.0197
   23.040    3.7213
   23.070    3.6510
   23.100    3.8617
   23.130    3.9319
   23.160    3.8090
   23.190    3.5633
   23.220    3.5633
   23.250    3.9143
   23.280    3.8792
   23.310    3.9670
   23.340    4.8271
   23.370    4.8095
   23.400    5.3888
   23.430    5.1255
   23.460    4.6516
   23.490    3.9494
   23.520    3.9143
   23.550    4.1074
   23.580    3.8441
   23.610    4.1074
   23.640    3.8617
   23.670    3.6335
   23.700    3.9846
   23.730    3.7915
   23.760    3.7388
   23.790    3.5633
   23.820    3.6686
   23.850    3.8617
   23.880    3.9494
   23.910    3.4580
   23.940    3.5808
   23.970    3.4229
   24.000    3.6862
   24.030    3.5984
   24.060    3.5984
   24.090    3.9846
   24.120    3.8441
   24.150    3.5808
   24.180    3.5282
   24.210    3.8968
   24.240    3.5633
   24.270    3.6686
   24.300    3.8617
   24.330    3.5984
   24.360    3.6510
   24.390    4.0548
   24.420    3.4580
   24.450    3.7037
   24.480    3.6159
   24.510    3.4404
   24.540    3.7037
   24.570    3.3175
   24.600    3.2824
   24.630    3.5984
   24.660    4.0021
   24.690    3.7213
   24.720    4.0899
   24.750    3.7564
   24.780    3.7037
   24.810    3.6510
   24.840    3.4755
   24.870    3.6510
   24.900    3.6686
   24.930    3.7915
   24.960    4.0899
   24.990    4.4760
   25.020    3.7739
   25.050    3.9143
   25.080    3.6510
   25.110    3.8968
   25.140    3.9143
   25.170    3.8617
   25.200    4.7042
   25.230    5.3537
   25.260    5.5643
   25.290    5.1431
   25.320    5.1431
   25.350    4.3005
   25.380    4.2478
   25.410    3.8090
   25.440    3.3175
   25.470    3.8441
   25.500    3.7213
   25.530    3.5984
   25.560    3.6335
   25.590    3.7037
   25.620    3.5282
   25.650    3.7915
   25.680    3.4755
   25.710    3.0191
   25.740    3.8968
   25.770    3.9143
   25.800    4.0548
   25.830    4.2654
   25.860    4.3883
   25.890    4.1952
   25.920    3.8090
   25.950    4.1601
   25.980    3.9494
   26.010    3.3351
   26.040    3.6510
   26.070    3.6686
   26.100    3.1596
   26.130    3.3000
   26.160    3.4404
   26.190    3.3702
   26.220    3.5457
   26.250    3.6686
   26.280    3.5808
   26.310    3.2122
   26.340    3.6159
   26.370    3.4053
   26.400    3.4404
   26.430    3.8266
   26.460    3.7739
   26.490    3.5808
   26.520    3.6862
   26.550    3.5282
   26.580    3.7915
   26.610    3.4931
   26.640    3.2122
   26.670    3.7213
   26.700    3.2122
   26.730    3.6159
   26.760    3.4053
   26.790    3.5106
   26.820    3.3175
   26.850    3.2473
   26.880    4.0372
   26.910    3.2824
   26.940    3.3702
   26.970    3.7564
   27.000    3.7739
   27.030    3.6686
   27.060    3.8617
   27.090    3.5984
   27.120    3.6335
   27.150    3.3702
   27.180    3.4755
   27.210    3.7564
   27.240    3.4755
   27.270    3.2122
   27.300    3.9319
   27.330    3.2298
   27.360    3.3526
   27.390    3.2473
   27.420    3.4229
   27.450    3.3526
   27.480    3.5633
   27.510    3.4404
   27.540    3.7915
   27.570    3.8441
   27.600    3.7739
   27.630    3.6686
   27.660    3.6510
   27.690    3.2473
   27.720    3.3877
   27.750    3.6335
   27.780    3.5808
   27.810    3.4755
   27.840    3.8090
   27.870    3.8090
   27.900    3.5984
   27.930    3.4404
   27.960    3.1069
   27.990    3.3702
   28.020    3.3877
   28.050    3.5457
   28.080    3.2824
   28.110    3.3877
   28.140    3.1069
   28.170    2.9489
   28.200    3.1420
   28.230    3.4931
   28.260    3.1771
   28.290    3.4229
   28.320    3.4580
   28.350    3.7739
   28.380    3.3175
   28.410    3.3175
   28.440    3.4580
   28.470    3.6686
   28.500    3.2824
   28.530    3.0016
   28.560    3.7564
   28.590    4.0372
   28.620    4.1601
   28.650    4.5287
   28.680    3.8792
   28.710    4.0197
   28.740    3.6686
   28.770    3.9670
   28.800    3.0718
   28.830    3.1245
   28.860    3.2824
   28.890    3.2473
   28.920    3.3000
   28.950    3.1771
   28.980    3.0367
   29.010    3.3000
   29.040    3.3702
   29.070    3.3702
   29.100    3.1771
   29.130    3.4931
   29.160    3.7564
   29.190    3.3877
   29.220    3.8441
   29.250    3.5633
   29.280    3.3526
   29.310    3.4580
   29.340    3.3351
   29.370    3.3702
   29.400    3.0893
   29.430    3.7037
   29.460    3.4931
   29.490    3.1420
   29.520    3.4580
   29.550    3.2122
   29.580    3.6862
   29.610    3.3000
   29.640    3.3175
   29.670    3.2824
   29.700    3.5282
   29.730    3.3175
   29.760    3.3526
   29.790    3.8441
   29.820    3.4053
   29.850    3.4931
   29.880    3.4053
   29.910    3.2298
   29.940    3.3877
   29.970    3.6335
   30.000    3.0542
   30.030    3.1596
   30.060    3.3702
   30.090    3.0016
   30.120    3.5808
   30.150    3.1771
   30.180    3.4404
   30.210    3.6159
   30.240    3.5106
   30.270    3.1947
   30.300    3.3000
   30.330    3.2824
   30.360    2.9840
   30.390    3.4931
   30.420    2.9489
   30.450    3.0718
   30.480    3.1069
   30.510    3.1771
   30.540    3.2298
   30.570    2.9314
   30.600    2.9840
   30.630    3.2473
   30.660    3.0016
   30.690    2.9840
   30.720    2.9840
   30.750    2.9314
   30.780    2.9138
   30.810    3.3175
   30.840    3.2298
   30.870    2.7909
   30.900    3.1245
   30.930    2.9314
   30.960    2.7909
   30.990    3.1245
   31.020    3.0016
   31.050    3.6335
   31.080    3.1245
   31.110    3.5282
   31.140    3.0191
   31.170    3.1420
   31.200    3.5984
   31.230    3.5282
   31.260    3.3702
   31.290    3.2473
   31.320    3.0893
   31.350    3.3000
   31.380    3.2649
   31.410    3.1245
   31.440    3.2298
   31.470    3.2298
   31.500    3.5282
   31.530    3.2122
   31.560    2.9665
   31.590    3.3000
   31.620    3.2824
   31.650    3.3877
   31.680    3.2824
   31.710    3.3351
   31.740    3.3175
   31.770    3.4053
   31.800    3.4755
   31.830    3.1771
   31.860    3.0718
   31.890    2.9314
   31.920    3.2122
   31.950    2.9489
   31.980    2.9314
   32.010    3.1596
   32.040    2.9840
   32.070    3.2122
   32.100    3.1069
   32.130    2.8260
   32.160    2.8612
   32.190    3.5457
   32.220    3.4404
   32.250    3.2122
   32.280    3.1245
   32.310    3.1420
   32.340    3.0191
   32.370    2.7734
   32.400    2.8612
   32.430    2.8963
   32.460    3.1069
   32.490    2.6681
   32.520    3.0542
   32.550    2.7734
   32.580    3.1596
   32.610    2.7734
   32.640    3.0893
   32.670    3.1420
   32.700    3.0191
   32.730    3.1771
   32.760    2.9489
   32.790    2.9314
   32.820    2.8436
   32.850    3.2122
   32.880    3.0016
   32.910    3.1245
   32.940    3.0893
   32.970    2.8963
   33.000    3.0718
   33.030    2.9840
   33.060    3.0893
   33.090    2.7383
   33.120    2.9840
   33.150    3.0191
   33.180    3.0718
   33.210    2.8085
   33.240    3.1420
   33.270    2.9138
   33.300    2.9665
   33.330    2.9314
   33.360    2.4399
   33.390    2.9489
   33.420    2.9665
   33.450    3.0893
   33.480    2.6330
   33.510    2.8787
   33.540    2.7383
   33.570    2.9314
   33.600    2.7558
   33.630    2.4223
   33.660    2.8963
   33.690    2.9489
   33.720    2.8787
   33.750    3.1420
   33.780    2.7383
   33.810    2.9665
   33.840    2.8963
   33.870    3.2824
   33.900    2.8436
   33.930    3.0718
   33.960    2.3346
   33.990    2.8260
   34.020    2.6154
   34.050    2.4048
   34.080    2.9138
   34.110    2.8436
   34.140    2.8260
   34.170    2.5628
   34.200    2.7032
   34.230    2.6681
   34.260    2.5452
   34.290    2.3872
   34.320    2.6856
   34.350    2.7032
   34.380    2.4399
   34.410    2.7734
   34.440    3.0191
   34.470    2.8436
   34.500    2.7207
   34.530    2.7909
   34.560    2.7383
   34.590    2.9665
   34.620    2.5452
   34.650    2.6330
   34.680    3.0191
   34.710    2.8436
   34.740    2.7558
   34.770    3.0367
   34.800    2.6505
   34.830    2.9314
   34.860    2.9840
   34.890    2.9138
   34.920    2.5979
   34.950    2.5979
   34.980    2.7207
   35.010    2.4223
   35.040    3.0718
   35.070    2.5803
   35.100    2.7734
   35.130    2.9138
   35.160    2.7207
   35.190    2.8260
   35.220    2.6154
   35.250    2.8436
   35.280    2.4048
   35.310    2.4574
   35.340    2.5979
   35.370    2.3521
   35.400    2.7207
   35.430    2.7207
   35.460    2.5101
   35.490    2.5452
   35.520    2.5276
   35.550    2.2468
   35.580    2.4750
   35.610    2.4399
   35.640    2.4750
   35.670    2.7558
   35.700    2.7558
   35.730    2.5101
   35.760    2.6154
   35.790    2.5101
   35.820    2.3697
   35.850    2.7909
   35.880    2.7734
   35.910    2.6330
   35.940    2.7032
   35.970    2.4223
   36.000    2.4925
   36.030    2.3697
   36.060    2.5276
   36.090    2.6330
   36.120    2.5979
   36.150    2.8085
   36.180    2.5276
   36.210    2.7032
   36.240    2.8787
   36.270    2.5452
   36.300    2.4925
   36.330    2.5276
   36.360    2.3346
   36.390    2.7032
   36.420    2.7032
   36.450    2.4925
   36.480    2.5979
   36.510    2.3872
   36.540    2.7558
   36.570    2.3872
   36.600    2.6330
   36.630    2.5979
   36.660    2.2643
   36.690    2.7207
   36.720    2.2819
   36.750    2.7734
   36.780    2.4048
   36.810    2.6856
   36.840    2.4574
   36.870    2.4223
   36.900    2.5628
   36.930    2.5628
   36.960    2.6154
   36.990    2.5276
   37.020    2.7032
   37.050    2.7909
   37.080    2.7909
   37.110    2.7383
   37.140    2.4399
   37.170    2.7032
   37.200    2.4399
   37.230    2.4223
   37.260    2.4223
   37.290    2.3521
   37.320    2.7383
   37.350    2.7734
   37.380    2.4048
   37.410    2.6154
   37.440    2.1239
   37.470    2.5628
   37.500    2.6330
   37.530    2.5276
   37.560    2.5979
   37.590    2.2117
   37.620    2.5276
   37.650    2.4750
   37.680    2.4223
   37.710    2.5979
   37.740    2.4048
   37.770    2.4750
   37.800    2.4750
   37.830    2.5101
   37.860    2.6330
   37.890    2.1064
   37.920    2.1239
   37.950    2.4750
   37.980    2.2643
   38.010    2.3521
   38.040    2.5979
   38.070    2.4925
   38.100    2.4223
   38.130    2.2292
   38.160    2.4574
   38.190    2.8085
   38.220    2.1590
   38.250    2.3697
   38.280    2.3170
   38.310    2.8085
   38.340    2.5452
   38.370    2.6330
   38.400    2.5276
   38.430    2.6154
   38.460    2.5628
   38.490    2.3697
   38.520    2.5628
   38.550    2.2995
   38.580    2.1941
   38.610    2.3170
   38.640    2.4399
   38.670    2.3697
   38.700    2.7558
   38.730    2.6856
   38.760    2.8436
   38.790    2.6154
   38.820    2.6154
   38.850    2.5101
   38.880    2.7909
   38.910    2.4574
   38.940    2.0713
   38.970    2.5101
   39.000    2.5101
   39.030    2.4750
   39.060    2.6856
   39.090    2.4925
   39.120    2.4223
   39.150    2.5979
   39.180    2.4925
   39.210    2.4399
   39.240    2.5452
   39.270    2.3521
   39.300    2.5276
   39.330    2.2292
   39.360    2.2995
   39.390    2.7032
   39.420    2.7032
   39.450    2.3697
   39.480    2.5101
   39.510    2.6154
   39.540    2.4925
   39.570    2.6681
   39.600    2.3697
   39.630    2.4574
   39.660    2.5628
   39.690    2.7909
   39.720    2.2117
   39.750    2.3170
   39.780    2.2468
   39.810    2.4223
   39.840    2.4223
   39.870    2.1766
   39.900    1.9133
   39.930    2.4048
   39.960    2.0888
   39.990    2.3170