File: data/PXRD/PXRD_KE-116_Cu-Ka1_capillary-1mm_5s-deg.xyd
    1.500   29.1733
    1.530   28.4676
    1.560   28.1095
    1.590   27.4250
    1.620   25.2449
    1.650   26.7404
    1.680   25.6345
    1.710   25.0026
    1.740   24.3602
    1.770   23.8020
    1.800   24.1601
    1.830   23.6440
    1.860   23.8652
    1.890   22.9489
    1.920   22.4434
    1.950   21.9800
    1.980   22.0853
    2.010   22.5382
    2.040   21.9063
    2.070   22.1380
    2.100   21.9484
    2.130   21.9273
    2.160   22.3802
    2.190   22.2959
    2.220   22.2644
    2.250   22.7593
    2.280   22.7383
    2.310   23.1280
    2.340   22.2117
    2.370   23.1069
    2.400   23.0964
    2.430   24.0442
    2.460   23.6862
    2.490   25.1711
    2.520   25.6872
    2.550   25.3081
    2.580   25.7715
    2.610   27.3091
    2.640   27.7620
    2.670   29.2575
    2.700   29.5313
    2.730   30.6161
    2.760   31.6272
    2.790   34.0074
    2.820   33.6914
    2.850   34.9552
    2.880   36.8931
    2.910   38.3886
    2.940   40.5371
    2.970   42.3907
    3.000   44.0548
    3.030   46.5719
    3.060   49.0995
    3.090   52.4065
    3.120   55.8294
    3.150   60.3054
    3.180   64.1285
    3.210   68.9626
    3.240   74.5445
    3.270   81.8220
    3.300   90.2686
    3.330   99.4523
    3.360  112.3328
    3.390  123.1490
    3.420  134.0600
    3.450  140.5055
    3.480  132.8910
    3.510  111.3218
    3.540   84.4129
    3.570   66.0664
    3.600   53.3860
    3.630   48.8994
    3.660   45.7399
    3.690   44.7077
    3.720   45.5292
    3.750   46.4244
    3.780   48.5203
    3.810   51.3323
    3.840   52.3749
    3.870   55.6503
    3.900   56.9879
    3.930   60.3792
    3.960   62.6751
    3.990   61.7904
    4.020   63.4966
    4.050   61.4639
    4.080   58.4729
    4.110   53.0911
    4.140   49.9315
    4.170   44.7920
    4.200   40.0105
    4.230   35.6082
    4.260   30.3739
    4.290   27.5619
    4.320   24.1496
    4.350   21.2428
    4.380   18.4097
    4.410   16.8615
    4.440   15.2080
    4.470   14.3444
    4.500   13.4176
    4.530   12.4697
    4.560   11.6166
    4.590   10.8373
    4.620   10.4160
    4.650    9.9631
    4.680    9.6051
    4.710    9.1943
    4.740    8.9310
    4.770    8.7414
    4.800    8.2991
    4.830    8.5413
    4.860    8.5624
    4.890    8.0042
    4.920    7.8778
    4.950    8.0463
    4.980    8.1411
    5.010    7.8146
    5.040    7.8568
    5.070    7.7936
    5.100    7.2459
    5.130    7.3302
    5.160    7.3091
    5.190    7.2038
    5.220    7.4776
    5.250    7.3934
    5.280    7.2565
    5.310    7.6461
    5.340    6.9616
    5.370    7.2459
    5.400    6.8984
    5.430    6.5719
    5.460    6.6667
    5.490    6.9300
    5.520    6.7720
    5.550    6.3718
    5.580    6.3928
    5.610    6.5508
    5.640    6.7088
    5.670    6.3718
    5.700    6.3507
    5.730    6.6351
    5.760    7.0985
    5.790    6.5719
    5.820    6.1085
    5.850    5.7609
    5.880    6.7509
    5.910    6.2138
    5.940    6.6245
    5.970    6.3191
    6.000    6.2875
    6.030    6.3402
    6.060    5.9610
    6.090    6.5508
    6.120    6.3718
    6.150    6.4666
    6.180    6.2138
    6.210    6.4666
    6.240    6.7720
    6.270    6.8352
    6.300    6.9826
    6.330    7.0563
    6.360    7.2670
    6.390    6.9826
    6.420    7.4776
    6.450    7.3828
    6.480    7.7936
    6.510    7.9200
    6.540    8.1095
    6.570    8.4676
    6.600    8.3202
    6.630    8.9415
    6.660    8.9205
    6.690    9.2996
    6.720   10.3423
    6.750   10.7320
    6.780   12.0169
    6.810   12.5434
    6.840   14.0495
    6.870   15.3449
    6.900   16.4613
    6.930   18.3570
    6.960   18.8836
    6.990   17.6303
    7.020   15.1869
    7.050   12.3117
    7.080   10.4160
    7.110    9.2996
    7.140    8.0885
    7.170    7.9200
    7.200    7.2565
    7.230    7.5513
    7.260    6.8352
    7.290    7.1195
    7.320    6.5508
    7.350    6.9932
    7.380    6.7720
    7.410    6.7299
    7.440    7.1722
    7.470    7.1195
    7.500    7.1195
    7.530    7.1406
    7.560    7.3302
    7.590    7.4566
    7.620    7.6988
    7.650    7.8673
    7.680    7.6356
    7.710    8.1833
    7.740    8.4044
    7.770    8.4360
    7.800    8.6888
    7.830    8.6467
    7.860    9.1101
    7.890    8.6572
    7.920   10.1316
    7.950    9.8473
    7.980   10.1632
    8.010    9.6893
    8.040   10.5213
    8.070   10.1843
    8.100   10.8373
    8.130   10.5213
    8.160   10.4581
    8.190   10.2054
    8.220   10.5529
    8.250   10.1738
    8.280    9.9105
    8.310   10.1632
    8.340    9.4471
    8.370    9.7736
    8.400    9.2154
    8.430    9.2364
    8.460    8.6888
    8.490    8.1938
    8.520    7.9305
    8.550    8.0042
    8.580    8.1306
    8.610    7.8778
    8.640    7.7093
    8.670    7.5408
    8.700    7.2565
    8.730    7.3723
    8.760    7.2986
    8.790    7.0774
    8.820    6.8457
    8.850    6.9932
    8.880    6.5192
    8.910    6.4876
    8.940    6.4455
    8.970    6.5192
    9.000    6.4034
    9.030    5.9084
    9.060    6.2559
    9.090    6.1717
    9.120    6.4982
    9.150    6.2138
    9.180    6.2349
    9.210    5.8557
    9.240    6.0242
    9.270    6.1401
    9.300    5.9821
    9.330    6.0137
    9.360    5.9716
    9.390    5.8452
    9.420    5.9505
    9.450    5.9084
    9.480    6.1190
    9.510    6.0242
    9.540    5.7925
    9.570    5.7504
    9.600    5.6767
    9.630    5.5292
    9.660    5.7715
    9.690    5.8452
    9.720    5.9400
    9.750    5.4660
    9.780    5.8873
    9.810    5.8031
    9.840    5.7293
    9.870    5.7083
    9.900    5.6661
    9.930    5.8768
    9.960    5.6661
    9.990    5.6872
   10.020    5.6767
   10.050    5.4344
   10.080    5.7083
   10.110    5.8768
   10.140    6.0137
   10.170    6.0558
   10.200    6.0137
   10.230    5.8978
   10.260    5.9610
   10.290    5.9294
   10.320    5.9189
   10.350    6.0558
   10.380    6.5298
   10.410    6.4982
   10.440    6.0979
   10.470    6.5824
   10.500    6.6667
   10.530    6.3612
   10.560    6.4455
   10.590    5.7715
   10.620    5.9189
   10.650    5.9610
   10.680    5.9610
   10.710    5.1606
   10.740    5.8873
   10.770    5.9189
   10.800    5.7715
   10.830    5.4871
   10.860    5.7293
   10.890    5.5608
   10.920    5.7925
   10.950    5.6451
   10.980    5.6767
   11.010    5.6977
   11.040    5.5714
   11.070    5.6345
   11.100    5.7925
   11.130    5.9821
   11.160    5.5608
   11.190    5.8662
   11.220    5.6029
   11.250    6.1401
   11.280    5.7820
   11.310    5.6872
   11.340    5.5924
   11.370    5.5714
   11.400    5.9084
   11.430    5.5292
   11.460    5.7609
   11.490    6.2243
   11.520    5.3502
   11.550    5.5292
   11.580    5.7399
   11.610    5.9926
   11.640    6.0348
   11.670    6.0348
   11.700    5.6556
   11.730    5.9821
   11.760    6.0137
   11.790    5.8873
   11.820    5.9189
   11.850    6.2559
   11.880    5.9400
   11.910    6.6035
   11.940    5.8978
   11.970    6.3718
   12.000    6.1927
   12.030    6.2349
   12.060    6.0137
   12.090    6.2138
   12.120    6.0874
   12.150    6.1085
   12.180    6.5613
   12.210    6.1717
   12.240    6.3191
   12.270    6.4560
   12.300    6.5929
   12.330    6.4455
   12.360    6.4876
   12.390    6.3086
   12.420    6.3086
   12.450    6.4350
   12.480    6.1295
   12.510    6.3191
   12.540    5.9821
   12.570    6.4244
   12.600    6.0769
   12.630    6.2349
   12.660    6.1190
   12.690    6.4244
   12.720    5.8662
   12.750    6.1927
   12.780    5.9821
   12.810    6.3507
   12.840    6.4876
   12.870    6.0979
   12.900    6.0664
   12.930    6.0979
   12.960    6.0348
   12.990    5.8873
   13.020    5.9610
   13.050    6.1085
   13.080    5.8662
   13.110    6.0348
   13.140    5.9610
   13.170    5.9716
   13.200    5.8978
   13.230    6.0348
   13.260    5.7399
   13.290    5.5608
   13.320    5.8347
   13.350    5.9084
   13.380    6.0664
   13.410    5.7083
   13.440    6.2665
   13.470    6.2454
   13.500    5.9400
   13.530    5.7925
   13.560    5.8452
   13.590    5.6029
   13.620    5.9189
   13.650    6.1190
   13.680    6.0874
   13.710    6.1717
   13.740    6.0664
   13.770    5.8452
   13.800    6.3402
   13.830    5.9610
   13.860    5.7504
   13.890    5.8031
   13.920    5.9400
   13.950    5.8031
   13.980    5.9189
   14.010    6.0032
   14.040    5.5924
   14.070    5.7609
   14.100    5.7504
   14.130    5.8347
   14.160    5.5714
   14.190    5.4871
   14.220    5.6240
   14.250    5.8452
   14.280    5.5714
   14.310    5.6345
   14.340    5.4976
   14.370    5.5714
   14.400    5.5503
   14.430    5.5819
   14.460    5.7293
   14.490    5.8978
   14.520    5.4555
   14.550    5.6556
   14.580    5.6451
   14.610    5.5924
   14.640    5.4660
   14.670    5.2449
   14.700    5.4555
   14.730    5.4976
   14.760    5.5187
   14.790    5.3081
   14.820    5.5714
   14.850    5.4660
   14.880    5.2659
   14.910    5.4871
   14.940    5.4766
   14.970    5.6029
   15.000    5.4555
   15.030    5.4976
   15.060    5.6240
   15.090    5.5924
   15.120    5.9294
   15.150    5.6345
   15.180    5.4976
   15.210    5.7609
   15.240    5.3607
   15.270    5.6977
   15.300    5.8557
   15.330    5.7083
   15.360    5.2870
   15.390    5.4976
   15.420    5.8031
   15.450    5.8347
   15.480    5.7188
   15.510    6.2033
   15.540    5.7504
   15.570    5.6661
   15.600    5.9400
   15.630    5.6135
   15.660    5.4450
   15.690    5.3081
   15.720    5.8031
   15.750    5.5503
   15.780    5.2870
   15.810    5.8873
   15.840    5.7504
   15.870    5.4555
   15.900    5.8347
   15.930    5.7715
   15.960    5.5082
   15.990    5.5714
   16.020    5.4344
   16.050    5.8241
   16.080    5.8136
   16.110    5.7399
   16.140    5.5503
   16.170    5.8031
   16.200    5.5714
   16.230    5.3818
   16.260    5.4871
   16.290    5.6135
   16.320    5.4976
   16.350    5.5187
   16.380    5.6240
   16.410    5.2659
   16.440    5.6029
   16.470    5.8557
   16.500    5.7188
   16.530    5.3818
   16.560    5.1922
   16.590    5.0553
   16.620    5.6345
   16.650    5.2238
   16.680    5.4344
   16.710    5.1817
   16.740    5.5819
   16.770    5.5714
   16.800    5.4450
   16.830    5.3502
   16.860    5.4871
   16.890    5.5398
   16.920    5.2343
   16.950    5.5187
   16.980    5.4344
   17.010    5.2554
   17.040    5.5082
   17.070    5.7925
   17.100    5.1817
   17.130    5.5503
   17.160    5.3186
   17.190    5.4450
   17.220    5.5714
   17.250    5.5187
   17.280    5.5082
   17.310    5.2975
   17.340    5.6029
   17.370    5.5292
   17.400    5.7820
   17.430    5.3923
   17.460    5.5187
   17.490    5.2765
   17.520    5.3291
   17.550    5.9926
   17.580    5.6767
   17.610    5.5924
   17.640    5.3081
   17.670    6.1295
   17.700    5.2870
   17.730    5.4976
   17.760    5.4660
   17.790    5.4450
   17.820    5.7504
   17.850    5.3607
   17.880    5.7504
   17.910    5.6556
   17.940    5.6661
   17.970    5.4239
   18.000    5.4871
   18.030    5.1080
   18.060    5.4871
   18.090    5.5924
   18.120    5.4555
   18.150    5.4871
   18.180    5.4660
   18.210    5.5924
   18.240    5.6872
   18.270    5.2554
   18.300    5.5819
   18.330    5.2554
   18.360    5.5082
   18.390    5.2554
   18.420    5.4660
   18.450    5.7293
   18.480    5.1817
   18.510    5.5503
   18.540    5.5082
   18.570    5.4660
   18.600    5.3186
   18.630    5.5819
   18.660    5.6977
   18.690    5.5398
   18.720    5.7083
   18.750    5.7504
   18.780    5.2659
   18.810    5.9821
   18.840    5.3607
   18.870    5.6661
   18.900    5.8662
   18.930    6.1085
   18.960    6.9826
   18.990    7.0669
   19.020    7.0353
   19.050    6.1822
   19.080    5.7820
   19.110    6.0242
   19.140    5.7609
   19.170    5.8978
   19.200    5.7399
   19.230    5.6345
   19.260    5.7293
   19.290    5.8768
   19.320    5.8768
   19.350    5.8136
   19.380    5.7925
   19.410    5.7188
   19.440    5.6240
   19.470    6.0874
   19.500    5.6661
   19.530    6.2243
   19.560    5.9505
   19.590    6.1295
   19.620    6.0137
   19.650    5.8978
   19.680    5.8452
   19.710    5.6977
   19.740    6.2243
   19.770    5.9084
   19.800    6.0453
   19.830    5.9821
   19.860    5.8136
   19.890    5.8662
   19.920    6.3296
   19.950    6.5192
   19.980    6.0348
   20.010    6.2559
   20.040    5.9716
   20.070    6.3086
   20.100    6.0769
   20.130    6.2665
   20.160    6.0137
   20.190    6.4139
   20.220    6.4982
   20.250    6.4666
   20.280    5.9400
   20.310    6.1085
   20.340    6.5508
   20.370    5.8873
   20.400    6.3718
   20.430    6.1190
   20.460    6.5298
   20.490    6.2138
   20.520    5.9610
   20.550    6.1295
   20.580    6.1401
   20.610    5.9189
   20.640    5.7820
   20.670    5.6977
   20.700    6.3086
   20.730    6.5403
   20.760    5.7609
   20.790    6.0137
   20.820    5.8662
   20.850    6.2875
   20.880    6.5192
   20.910    6.3402
   20.940    5.9610
   20.970    6.2454
   21.000    6.0979
   21.030    6.1190
   21.060    6.4034
   21.090    6.3086
   21.120    6.0242
   21.150    6.1401
   21.180    6.3191
   21.210    6.0874
   21.240    6.4350
   21.270    6.3191
   21.300    5.6345
   21.330    6.1190
   21.360    6.3086
   21.390    6.1085
   21.420    5.8031
   21.450    5.8136
   21.480    6.2981
   21.510    6.2138
   21.540    6.2138
   21.570    5.7504
   21.600    5.9084
   21.630    6.0137
   21.660    6.1611
   21.690    6.6877
   21.720    6.2033
   21.750    6.5719
   21.780    6.0453
   21.810    5.7504
   21.840    5.8557
   21.870    6.2665
   21.900    6.4244
   21.930    6.0242
   21.960    6.2243
   21.990    6.1295
   22.020    6.3823
   22.050    6.0242
   22.080    6.2243
   22.110    6.0558
   22.140    6.4666
   22.170    6.1611
   22.200    6.1506
   22.230    6.1295
   22.260    6.0242
   22.290    6.2559
   22.320    5.9716
   22.350    5.8873
   22.380    6.0979
   22.410    6.5824
   22.440    6.1611
   22.470    6.1295
   22.500    6.0453
   22.530    5.9400
   22.560    6.2138
   22.590    6.1085
   22.620    6.2665
   22.650    5.8873
   22.680    6.0032
   22.710    6.2454
   22.740    6.0348
   22.770    5.7188
   22.800    5.9505
   22.830    5.9610
   22.860    6.0137
   22.890    5.7715
   22.920    6.3507
   22.950    5.7188
   22.980    5.9294
   23.010    6.4876
   23.040    6.2033
   23.070    6.0348
   23.100    6.5087
   23.130    6.2033
   23.160    6.0453
   23.190    5.8452
   23.220    6.0242
   23.250    6.1401
   23.280    5.8662
   23.310    5.9400
   23.340    5.9716
   23.370    5.6872
   23.400    6.0664
   23.430    5.5187
   23.460    5.8031
   23.490    6.1190
   23.520    5.7820
   23.550    6.2138
   23.580    5.9821
   23.610    5.9610
   23.640    6.0348
   23.670    5.9084
   23.700    6.1190
   23.730    5.7504
   23.760    5.7609
   23.790    5.3502
   23.820    6.0348
   23.850    5.6029
   23.880    5.9610
   23.910    5.9400
   23.940    5.8873
   23.970    5.6977
   24.000    6.0769
   24.030    5.5924
   24.060    5.8136
   24.090    5.5292
   24.120    5.9610
   24.150    5.5292
   24.180    5.9926
   24.210    5.5503
   24.240    5.8452
   24.270    5.8662
   24.300    5.5503
   24.330    5.3712
   24.360    5.2975
   24.390    5.8241
   24.420    5.2975
   24.450    5.4028
   24.480    5.9610
   24.510    5.7083
   24.540    5.3081
   24.570    5.9505
   24.600    5.8031
   24.630    5.9294
   24.660    5.7083
   24.690    5.8136
   24.720    5.7820
   24.750    5.4555
   24.780    5.4766
   24.810    5.7609
   24.840    5.7399
   24.870    5.7609
   24.900    5.8662
   24.930    5.2765
   24.960    5.4660
   24.990    5.2133
   25.020    5.4134
   25.050    5.2870
   25.080    5.7293
   25.110    5.7609
   25.140    5.5503
   25.170    5.3291
   25.200    5.6872
   25.230    5.8031
   25.260    5.8031
   25.290    5.4239
   25.320    5.3607
   25.350    5.6240
   25.380    5.0974
   25.410    5.5608
   25.440    5.4766
   25.470    5.8241
   25.500    5.6977
   25.530    5.3397
   25.560    5.5187
   25.590    5.6556
   25.620    5.4028
   25.650    5.2554
   25.680    5.1501
   25.710    5.4871
   25.740    5.3818
   25.770    5.4555
   25.800    5.7609
   25.830    5.2975
   25.860    4.9921
   25.890    5.2133
   25.920    5.0132
   25.950    5.3923
   25.980    5.4028
   26.010    5.5398
   26.040    5.6977
   26.070    5.1817
   26.100    5.0342
   26.130    5.1711
   26.160    5.3081
   26.190    5.1290
   26.220    4.9500
   26.250    5.1711
   26.280    5.4344
   26.310    5.3291
   26.340    5.1817
   26.370    5.2238
   26.400    5.1080
   26.430    4.9500
   26.460    4.8131
   26.490    5.6345
   26.520    5.2449
   26.550    5.3186
   26.580    5.1711
   26.610    5.2659
   26.640    5.2975
   26.670    5.4239
   26.700    5.3502
   26.730    5.3712
   26.760    5.2238
   26.790    5.2238
   26.820    5.5819
   26.850    5.0448
   26.880    5.2870
   26.910    5.0869
   26.940    5.0132
   26.970    5.3502
   27.000    5.2027
   27.030    5.0658
   27.060    4.9078
   27.090    4.9289
   27.120    5.3923
   27.150    5.1185
   27.180    5.3186
   27.210    5.3502
   27.240    5.2765
   27.270    5.3607
   27.300    5.2449
   27.330    5.1711
   27.360    5.0658
   27.390    4.9289
   27.420    4.9394
   27.450    5.2659
   27.480    5.0448
   27.510    5.0448
   27.540    5.2027
   27.570    5.2238
   27.600    4.9605
   27.630    5.5608
   27.660    5.3186
   27.690    5.0448
   27.720    5.1606
   27.750    4.9500
   27.780    5.1922
   27.810    4.9289
   27.840    5.1922
   27.870    5.3081
   27.900    5.4660
   27.930    5.3081
   27.960    6.0348
   27.990    6.1085
   28.020    6.3296
   28.050    5.7399
   28.080    5.7820
   28.110    5.5187
   28.140    5.2133
   28.170    5.5924
   28.200    5.1185
   28.230    5.4239
   28.260    5.3712
   28.290    5.3818
   28.320    5.5714
   28.350    5.3712
   28.380    5.4344
   28.410    5.0764
   28.440    5.3291
   28.470    5.0869
   28.500    5.1395
   28.530    4.7604
   28.560    4.7920
   28.590    5.0869
   28.620    5.1817
   28.650    4.5603
   28.680    4.9289
   28.710    4.9394
   28.740    4.9816
   28.770    5.2659
   28.800    5.0448
   28.830    5.1817
   28.860    5.3607
   28.890    5.2343
   28.920    5.7083
   28.950    5.7925
   28.980    5.9084
   29.010    5.7715
   29.040    5.5187
   29.070    4.9710
   29.100    4.9289
   29.130    4.6867
   29.160    5.1290
   29.190    5.0448
   29.220    5.2027
   29.250    4.6867
   29.280    4.9078
   29.310    4.7077
   29.340    4.9710
   29.370    4.9500
   29.400    4.9921
   29.430    4.9078
   29.460    4.9184
   29.490    4.8868
   29.520    4.7077
   29.550    4.7815
   29.580    4.7815
   29.610    4.8236
   29.640    5.0342
   29.670    4.7077
   29.700    5.1185
   29.730    4.8552
   29.760    4.7709
   29.790    4.8447
   29.820    4.8763
   29.850    4.9921
   29.880    5.0448
   29.910    5.2027
   29.940    5.0658
   29.970    4.9500
   30.000    4.6972
   30.030    4.7499
   30.060    4.9710
   30.090    4.8341
   30.120    4.7077
   30.150    5.3081
   30.180    5.0237
   30.210    4.5814
   30.240    5.1711
   30.270    4.7709
   30.300    4.9500
   30.330    4.9500
   30.360    5.0026
   30.390    5.0026
   30.420    5.1817
   30.450    4.5076
   30.480    4.8236
   30.510    4.7604
   30.540    4.9078
   30.570    4.6130
   30.600    4.9921
   30.630    4.6972
   30.660    4.6867
   30.690    4.9184
   30.720    5.0448
   30.750    4.7393
   30.780    4.9710
   30.810    4.8973
   30.840    4.8447
   30.870    5.0342
   30.900    4.8236
   30.930    4.7604
   30.960    4.8236
   30.990    4.9710
   31.020    4.9816
   31.050    4.7183
   31.080    4.6761
   31.110    4.8131
   31.140    4.7077
   31.170    4.9078
   31.200    4.5287
   31.230    5.0658
   31.260    4.7499
   31.290    4.8341
   31.320    4.6867
   31.350    4.8025
   31.380    4.9710
   31.410    4.8973
   31.440    4.5287
   31.470    4.6445
   31.500    4.6972
   31.530    4.6445
   31.560    4.8447
   31.590    4.6340
   31.620    4.9500
   31.650    4.9289
   31.680    5.1185
   31.710    4.9605
   31.740    5.3712
   31.770    4.5814
   31.800    4.5392
   31.830    5.2238
   31.860    4.9921
   31.890    5.1395
   31.920    4.7499
   31.950    4.8868
   31.980    5.3502
   32.010    5.4344
   32.040    5.8452
   32.070    6.4666
   32.100    6.7299
   32.130    6.4771
   32.160    5.9400
   32.190    5.6345
   32.220    5.0026
   32.250    4.7920
   32.280    4.6130
   32.310    4.4866
   32.340    4.5287
   32.370    4.8447
   32.400    4.4866
   32.430    4.5919
   32.460    4.5814
   32.490    4.5392
   32.520    4.6130
   32.550    4.6024
   32.580    4.8131
   32.610    4.8868
   32.640    4.5919
   32.670    4.5708
   32.700    4.5814
   32.730    4.7183
   32.760    4.3181
   32.790    4.5182
   32.820    4.4655
   32.850    4.5603
   32.880    4.9289
   32.910    4.3707
   32.940    4.1601
   32.970    4.6024
   33.000    4.3497
   33.030    4.5392
   33.060    4.3391
   33.090    4.3602
   33.120    4.3181
   33.150    4.5919
   33.180    4.7183
   33.210    4.3602
   33.240    4.5498
   33.270    4.6972
   33.300    4.7499
   33.330    4.4339
   33.360    4.3391
   33.390    4.5392
   33.420    4.1917
   33.450    4.4023
   33.480    4.3813
   33.510    4.4128
   33.540    4.8025
   33.570    4.6130
   33.600    4.3813
   33.630    4.4866
   33.660    4.7393
   33.690    4.6340
   33.720    4.5708
   33.750    4.8973
   33.780    5.2870
   33.810    5.2870
   33.840    5.2765
   33.870    4.7920
   33.900    4.8447
   33.930    4.6235
   33.960    4.5392
   33.990    4.5182
   34.020    4.6024
   34.050    4.1074
   34.080    3.8547
   34.110    4.5919
   34.140    4.2759
   34.170    4.2338
   34.200    4.1811
   34.230    4.2970
   34.260    4.2654
   34.290    4.4760
   34.320    4.3286
   34.350    4.5076
   34.380    4.3075
   34.410    4.3391
   34.440    4.2549
   34.470    4.2338
   34.500    4.3286
   34.530    4.4866
   34.560    4.4128
   34.590    4.3286
   34.620    4.5814
   34.650    4.3707
   34.680    4.1601
   34.710    3.9705
   34.740    4.3918
   34.770    4.0548
   34.800    4.4971
   34.830    4.4234
   34.860    4.0442
   34.890    4.3497
   34.920    4.2759
   34.950    4.4550
   34.980    4.2654
   35.010    4.4128
   35.040    4.3918
   35.070    4.0864
   35.100    4.5076
   35.130    4.3918
   35.160    4.1074
   35.190    4.0653
   35.220    4.4444
   35.250    4.1706
   35.280    4.2443
   35.310    4.2865
   35.340    4.5814
   35.370    4.2865
   35.400    4.2759
   35.430    4.1706
   35.460    4.2338
   35.490    4.6235
   35.520    4.3707
   35.550    4.4971
   35.580    4.1074
   35.610    4.6340
   35.640    3.9916
   35.670    4.0548
   35.700    4.2443
   35.730    4.1706
   35.760    4.4760
   35.790    4.3286
   35.820    4.1180
   35.850    4.3075
   35.880    4.3813
   35.910    4.1706
   35.940    4.0548
   35.970    3.9916
   36.000    4.0864
   36.030    4.0337
   36.060    4.4444
   36.090    4.1496
   36.120    4.0337
   36.150    4.3602
   36.180    4.1601
   36.210    4.8657
   36.240    4.2233
   36.270    4.2022
   36.300    4.1811
   36.330    3.9705
   36.360    4.1074
   36.390    4.0126
   36.420    3.8020
   36.450    3.9705
   36.480    3.9705
   36.510    4.1601
   36.540    4.3286
   36.570    4.4655
   36.600    4.3918
   36.630    3.6756
   36.660    3.8863
   36.690    4.0864
   36.720    3.9494
   36.750    4.3286
   36.780    4.3286
   36.810    4.2127
   36.840    3.8125
   36.870    3.9389
   36.900    3.8020
   36.930    3.9389
   36.960    4.1180
   36.990    4.0126
   37.020    4.0442
   37.050    4.2022
   37.080    4.1706
   37.110    3.9389
   37.140    3.9494
   37.170    4.0337
   37.200    4.0758
   37.230    4.1496
   37.260    4.0232
   37.290    4.0969
   37.320    3.9916
   37.350    3.9494
   37.380    3.9810
   37.410    3.9600
   37.440    4.0758
   37.470    4.0653
   37.500    3.8020
   37.530    3.7704
   37.560    3.8757
   37.590    4.0653
   37.620    3.8968
   37.650    4.1811
   37.680    4.1917
   37.710    4.0548
   37.740    4.0548
   37.770    3.9389
   37.800    4.0021
   37.830    3.8968
   37.860    3.7809
   37.890    4.0337
   37.920    3.7072
   37.950    4.0653
   37.980    4.1811
   38.010    4.1390
   38.040    4.2338
   38.070    3.8652
   38.100    4.2654
   38.130    4.0864
   38.160    4.0442
   38.190    4.0758
   38.220    3.8547
   38.250    3.8336
   38.280    4.0337
   38.310    4.1074
   38.340    3.7599
   38.370    3.8863
   38.400    3.9179
   38.430    4.0969
   38.460    4.3497
   38.490    4.3497
   38.520    3.8652
   38.550    4.2338
   38.580    4.4023
   38.610    4.2338
   38.640    4.4550
   38.670    3.7704
   38.700    4.2443
   38.730    4.2022
   38.760    4.4234
   38.790    3.7915
   38.820    3.6967
   38.850    4.0548
   38.880    3.8547
   38.910    3.8020
   38.940    3.8336
   38.970    4.0864
   39.000    4.0442
   39.030    3.9073
   39.060    3.8020
   39.090    4.1917
   39.120    3.9810
   39.150    4.0758
   39.180    3.8441
   39.210    3.9494
   39.240    4.2549
   39.270    4.3602
   39.300    4.1074
   39.330    4.0548
   39.360    4.0548
   39.390    4.2654
   39.420    3.5914
   39.450    4.3707
   39.480    3.8863
   39.510    3.9494
   39.540    3.8863
   39.570    3.9705
   39.600    3.5703
   39.630    4.2127
   39.660    4.0758
   39.690    4.1917
   39.720    3.9810
   39.750    4.2549
   39.780    4.0758
   39.810    4.0442
   39.840    3.7915
   39.870    3.8547
   39.900    4.0548
   39.930    3.4966
   39.960    3.8968
   39.990    4.2759