File: data/PXRD/PXRD_KE-231_Co-Ka1_capillary-1mm_5s-deg.xyd
    1.500   10.5725
    1.530   10.4120
    1.560   10.2194
    1.590   10.0375
    1.620    9.4061
    1.650    9.3205
    1.680    9.0102
    1.710    8.7640
    1.740    8.9995
    1.770    8.7105
    1.800    8.3146
    1.830    8.2611
    1.860    8.2076
    1.890    7.8759
    1.920    8.1434
    1.950    7.6940
    1.980    7.8866
    2.010    7.2017
    2.040    6.8165
    2.070    7.0947
    2.100    7.0091
    2.130    6.9342
    2.160    6.4848
    2.190    6.7844
    2.220    6.6346
    2.250    6.3242
    2.280    6.0032
    2.310    6.0139
    2.340    5.9925
    2.370    5.9497
    2.400    6.2279
    2.430    5.9711
    2.460    5.4468
    2.490    5.6822
    2.520    5.5324
    2.550    5.4789
    2.580    5.7143
    2.610    5.1685
    2.640    5.4789
    2.670    5.0080
    2.700    5.1043
    2.730    5.2755
    2.760    5.4254
    2.790    5.0722
    2.820    4.9973
    2.850    5.2327
    2.880    4.9545
    2.910    4.7940
    2.940    5.1150
    2.970    5.3291
    3.000    4.9224
    3.030    5.1685
    3.060    4.8475
    3.090    4.8475
    3.120    5.1899
    3.150    5.3505
    3.180    5.0080
    3.210    5.3077
    3.240    5.5645
    3.270    5.9283
    3.300    5.8534
    3.330    5.9818
    3.360    5.9925
    3.390    6.1744
    3.420    6.0139
    3.450    6.7951
    3.480    6.6774
    3.510    7.1910
    3.540    7.5655
    3.570    7.6512
    3.600    8.0471
    3.630    8.4537
    3.660    9.4703
    3.690    9.5666
    3.720   10.0910
    3.750   10.3585
    3.780   11.8780
    3.810   12.2632
    3.840   13.4617
    3.870   14.8743
    3.900   15.3665
    3.930   17.4318
    3.960   19.6897
    3.990   22.1295
    4.020   23.0605
    4.050   22.5361
    4.080   21.6372
    4.110   19.9572
    4.140   19.5613
    4.170   20.2782
    4.200   20.7812
    4.230   23.4564
    4.260   24.5479
    4.290   27.5548
    4.320   32.0706
    4.350   34.9171
    4.380   40.6314
    4.410   47.7368
    4.440   57.2606
    4.470   72.3382
    4.500  106.3242
    4.530  136.3724
    4.560   39.7325
    4.590   10.7437
    4.620    8.0578
    4.650    6.1851
    4.680    5.5110
    4.710    4.6014
    4.740    4.2804
    4.770    3.3922
    4.800    3.3387
    4.830    2.6538
    4.860    3.0498
    4.890    2.7929
    4.920    2.3649
    4.950    2.6217
    4.980    2.1937
    5.010    2.0974
    5.040    2.0546
    5.070    1.9262
    5.100    2.2258
    5.130    2.0225
    5.160    2.1295
    5.190    2.0225
    5.220    1.9369
    5.250    1.8941
    5.280    2.0974
    5.310    2.0011
    5.340    2.2686
    5.370    2.0546
    5.400    2.0867
    5.430    2.1509
    5.460    1.8941
    5.490    1.8406
    5.520    2.1509
    5.550    2.1509
    5.580    2.1188
    5.610    2.0867
    5.640    2.3114
    5.670    2.3970
    5.700    2.3970
    5.730    2.3542
    5.760    2.6859
    5.790    2.6217
    5.820    2.5575
    5.850    2.7073
    5.880    3.4136
    5.910    3.2852
    5.940    3.5634
    5.970    3.7881
    6.000    4.2697
    6.030    5.0722
    6.060    5.2541
    6.090    5.9283
    6.120    6.4419
    6.150    7.1482
    6.180    8.6142
    6.210    9.6629
    6.240   10.7972
    6.270   13.0230
    6.300   16.5650
    6.330   20.9845
    6.360   27.7689
    6.390   44.0021
    6.420   44.2269
    6.450    9.4061
    6.480    2.2900
    6.510    1.7335
    6.540    1.3269
    6.570    1.4874
    6.600    1.7442
    6.630    1.3804
    6.660    1.7014
    6.690    1.3269
    6.720    1.4125
    6.750    1.3269
    6.780    1.2092
    6.810    1.2627
    6.840    1.3162
    6.870    1.3911
    6.900    1.3269
    6.930    1.1985
    6.960    1.1878
    6.990    1.3804
    7.020    1.3804
    7.050    1.2413
    7.080    1.2627
    7.110    1.3697
    7.140    1.2520
    7.170    1.3162
    7.200    1.3269
    7.230    1.2948
    7.260    1.2520
    7.290    1.5730
    7.320    1.0594
    7.350    1.5730
    7.380    1.6051
    7.410    1.5837
    7.440    1.7335
    7.470    1.6051
    7.500    1.7764
    7.530    1.7657
    7.560    2.3007
    7.590    2.2686
    7.620    2.4291
    7.650    2.6110
    7.680    3.0391
    7.710    3.7239
    7.740    4.0342
    7.770    5.0722
    7.800    6.4526
    7.830    9.3847
    7.860   11.0005
    7.890    4.6870
    7.920    2.3435
    7.950    2.3649
    7.980    2.3649
    8.010    2.4612
    8.040    3.1140
    8.070    2.9535
    8.100    2.8999
    8.130    2.5682
    8.160    2.3435
    8.190    2.0118
    8.220    1.7442
    8.250    1.4767
    8.280    1.6158
    8.310    1.2841
    8.340    1.2734
    8.370    1.3269
    8.400    1.3483
    8.430    1.3483
    8.460    1.3590
    8.490    1.3162
    8.520    1.3162
    8.550    1.2948
    8.580    1.4446
    8.610    1.4339
    8.640    1.5088
    8.670    1.6586
    8.700    1.7121
    8.730    2.1509
    8.760    2.0225
    8.790    2.3649
    8.820    2.6859
    8.850    2.7501
    8.880    3.3387
    8.910    3.6811
    8.940    4.4516
    8.970    5.5003
    9.000    6.4526
    9.030    8.9888
    9.060   13.3547
    9.090   11.4607
    9.120    4.5051
    9.150    2.2044
    9.180    2.0974
    9.210    1.6800
    9.240    1.6372
    9.270    1.5944
    9.300    1.5516
    9.330    1.2841
    9.360    1.4339
    9.390    1.4125
    9.420    1.3055
    9.450    1.1343
    9.480    1.0701
    9.510    1.0594
    9.540    1.2841
    9.570    1.0915
    9.600    1.1557
    9.630    1.1664
    9.660    1.0915
    9.690    1.0915
    9.720    1.0701
    9.750    1.1022
    9.780    1.1343
    9.810    1.1236
    9.840    1.2306
    9.870    1.1236
    9.900    1.0701
    9.930    1.1664
    9.960    1.0701
    9.990    1.4125
   10.020    1.5302
   10.050    1.3055
   10.080    1.4981
   10.110    1.9369
   10.140    2.5896
   10.170    2.0974
   10.200    1.1450
   10.230    0.8989
   10.260    0.8240
   10.290    0.9845
   10.320    0.9631
   10.350    0.9738
   10.380    1.1236
   10.410    0.9417
   10.440    0.9203
   10.470    1.1236
   10.500    0.9203
   10.530    0.9952
   10.560    0.9952
   10.590    1.1450
   10.620    0.9417
   10.650    1.1343
   10.680    1.1878
   10.710    1.1771
   10.740    1.4660
   10.770    1.3590
   10.800    1.6265
   10.830    1.8192
   10.860    2.2258
   10.890    2.6324
   10.920    2.9749
   10.950    3.7132
   10.980    4.4837
   11.010    5.6715
   11.040    7.6190
   11.070   11.6640
   11.100   19.3258
   11.130   20.1498
   11.160    8.9246
   11.190    1.8941
   11.220    1.0808
   11.250    0.9310
   11.280    0.9417
   11.310    0.8240
   11.340    0.8454
   11.370    0.8882
   11.400    0.8454
   11.430    0.8989
   11.460    0.8882
   11.490    0.9524
   11.520    0.9310
   11.550    0.8561
   11.580    0.8454
   11.610    0.9096
   11.640    0.9203
   11.670    0.9524
   11.700    1.0166
   11.730    0.9738
   11.760    1.0915
   11.790    1.2948
   11.820    1.3804
   11.850    1.5516
   11.880    1.7335
   11.910    1.8834
   11.940    2.5896
   11.970    3.4350
   12.000    5.3612
   12.030    4.7084
   12.060    2.7073
   12.090    0.9845
   12.120    1.0273
   12.150    0.9845
   12.180    0.9845
   12.210    0.9738
   12.240    0.9203
   12.270    0.7812
   12.300    0.7598
   12.330    0.7812
   12.360    1.0487
   12.390    0.8026
   12.420    0.8882
   12.450    0.9310
   12.480    0.8347
   12.510    1.0380
   12.540    1.1664
   12.570    1.0594
   12.600    1.1771
   12.630    1.3269
   12.660    1.4660
   12.690    1.8941
   12.720    2.0332
   12.750    2.5040
   12.780    3.6597
   12.810    5.1043
   12.840    7.2980
   12.870    5.9604
   12.900    2.4933
   12.930    0.8882
   12.960    0.9738
   12.990    0.7705
   13.020    0.9952
   13.050    0.8561
   13.080    0.8989
   13.110    0.8133
   13.140    0.8133
   13.170    0.7063
   13.200    0.8561
   13.230    0.8882
   13.260    0.8561
   13.290    0.9952
   13.320    0.8668
   13.350    0.9524
   13.380    1.0594
   13.410    1.1343
   13.440    1.3804
   13.470    1.7014
   13.500    1.7764
   13.530    2.3756
   13.560    2.7715
   13.590    4.4302
   13.620    6.2386
   13.650    5.7464
   13.680    2.9428
   13.710    1.0701
   13.740    0.9845
   13.770    0.9417
   13.800    0.9310
   13.830    0.9738
   13.860    0.8882
   13.890    0.8775
   13.920    0.9203
   13.950    0.7170
   13.980    0.8989
   14.010    0.7919
   14.040    0.8240
   14.070    0.8668
   14.100    0.7598
   14.130    0.6100
   14.160    0.8882
   14.190    0.8347
   14.220    0.8989
   14.250    0.9524
   14.280    1.0594
   14.310    0.9631
   14.340    1.2734
   14.370    1.3590
   14.400    1.2627
   14.430    1.0059
   14.460    0.8240
   14.490    0.7919
   14.520    0.7491
   14.550    0.7705
   14.580    0.7170
   14.610    0.7277
   14.640    0.8133
   14.670    0.7491
   14.700    0.9845
   14.730    0.8026
   14.760    0.8561
   14.790    0.7491
   14.820    0.9738
   14.850    0.9203
   14.880    0.7491
   14.910    0.9631
   14.940    1.1557
   14.970    1.4232
   15.000    1.6372
   15.030    2.5040
   15.060    3.3601
   15.090    3.2424
   15.120    1.9797
   15.150    1.3055
   15.180    0.8668
   15.210    0.8240
   15.240    0.8561
   15.270    0.6207
   15.300    0.7277
   15.330    0.8026
   15.360    0.7170
   15.390    0.7384
   15.420    0.7063
   15.450    0.8240
   15.480    0.8240
   15.510    0.7705
   15.540    0.8775
   15.570    0.7598
   15.600    0.8775
   15.630    0.8668
   15.660    1.0273
   15.690    1.3590
   15.720    1.4018
   15.750    1.8941
   15.780    1.6051
   15.810    1.3590
   15.840    0.8454
   15.870    0.7598
   15.900    0.7598
   15.930    0.7812
   15.960    0.6528
   15.990    0.6742
   16.020    0.8026
   16.050    0.5993
   16.080    0.7598
   16.110    0.8454
   16.140    0.8240
   16.170    0.8026
   16.200    1.1022
   16.230    0.9952
   16.260    1.1878
   16.290    1.3697
   16.320    1.5730
   16.350    2.2686
   16.380    3.2210
   16.410    3.7988
   16.440    2.6110
   16.470    1.2413
   16.500    0.8989
   16.530    0.7063
   16.560    0.7277
   16.590    0.6421
   16.620    0.6100
   16.650    0.6742
   16.680    0.6742
   16.710    0.6421
   16.740    0.5993
   16.770    0.7277
   16.800    0.6314
   16.830    0.7919
   16.860    0.6100
   16.890    0.8882
   16.920    0.7170
   16.950    0.7384
   16.980    0.7919
   17.010    0.7384
   17.040    0.6207
   17.070    0.7170
   17.100    0.6956
   17.130    0.7812
   17.160    0.7384
   17.190    0.7277
   17.220    0.6421
   17.250    0.8240
   17.280    0.6314
   17.310    0.7170
   17.340    0.7063
   17.370    0.7919
   17.400    0.6635
   17.430    0.7705
   17.460    0.7812
   17.490    0.9096
   17.520    0.9845
   17.550    0.8989
   17.580    1.1129
   17.610    1.4232
   17.640    1.4660
   17.670    1.2413
   17.700    0.8454
   17.730    0.7705
   17.760    0.7170
   17.790    0.6207
   17.820    0.7170
   17.850    0.8133
   17.880    0.6956
   17.910    0.5886
   17.940    0.7491
   17.970    0.7170
   18.000    0.6528
   18.030    0.6421
   18.060    0.6956
   18.090    0.7491
   18.120    0.6849
   18.150    0.7705
   18.180    0.7491
   18.210    0.7812
   18.240    0.8133
   18.270    0.6528
   18.300    0.7705
   18.330    0.8989
   18.360    0.7170
   18.390    0.7384
   18.420    0.6528
   18.450    0.6742
   18.480    0.8026
   18.510    0.7170
   18.540    0.7491
   18.570    0.5993
   18.600    0.8026
   18.630    0.7919
   18.660    1.0166
   18.690    0.9203
   18.720    1.0808
   18.750    1.3269
   18.780    1.2734
   18.810    1.4339
   18.840    0.9738
   18.870    0.8133
   18.900    0.7063
   18.930    0.6742
   18.960    0.6742
   18.990    0.7170
   19.020    0.7919
   19.050    0.6528
   19.080    0.6956
   19.110    0.7598
   19.140    0.8133
   19.170    0.7919
   19.200    0.7491
   19.230    0.9417
   19.260    1.0059
   19.290    1.0915
   19.320    1.0594
   19.350    1.1557
   19.380    0.9952
   19.410    0.7598
   19.440    0.7491
   19.470    0.6100
   19.500    0.8240
   19.530    0.7705
   19.560    0.8026
   19.590    0.8454
   19.620    0.7598
   19.650    0.8347
   19.680    0.7812
   19.710    0.9310
   19.740    1.0808
   19.770    1.5195
   19.800    1.9904
   19.830    3.1675
   19.860    3.4350
   19.890    3.2424
   19.920    2.2472
   19.950    1.0487
   19.980    0.7170
   20.010    0.8454
   20.040    0.7705
   20.070    0.5671
   20.100    0.8347
   20.130    0.7491
   20.160    0.6314
   20.190    0.7384
   20.220    0.6421
   20.250    0.8347
   20.280    0.8989
   20.310    0.8775
   20.340    1.0166
   20.370    1.2520
   20.400    1.1450
   20.430    0.9631
   20.460    0.8668
   20.490    0.5671
   20.520    0.7384
   20.550    0.6849
   20.580    0.5886
   20.610    0.7812
   20.640    0.6635
   20.670    0.7170
   20.700    0.6849
   20.730    0.7705
   20.760    0.7063
   20.790    0.8775
   20.820    0.9096
   20.850    0.9203
   20.880    1.1450
   20.910    1.2092
   20.940    0.9203
   20.970    0.7277
   21.000    0.6849
   21.030    0.6742
   21.060    0.6421
   21.090    0.7812
   21.120    0.7491
   21.150    0.6528
   21.180    0.7812
   21.210    0.7705
   21.240    0.7277
   21.270    0.8026
   21.300    0.7170
   21.330    0.9203
   21.360    1.0273
   21.390    1.3483
   21.420    1.1878
   21.450    1.0059
   21.480    0.9524
   21.510    0.6314
   21.540    0.8026
   21.570    0.6635
   21.600    0.8026
   21.630    0.6635
   21.660    0.7919
   21.690    0.7705
   21.720    0.6635
   21.750    0.7598
   21.780    0.7277
   21.810    0.7705
   21.840    0.9203
   21.870    0.7598
   21.900    0.7812
   21.930    0.7277
   21.960    0.8775
   21.990    0.9203
   22.020    0.9738
   22.050    1.0273
   22.080    1.2092
   22.110    1.1450
   22.140    1.1450
   22.170    0.8561
   22.200    0.7812
   22.230    0.7170
   22.260    0.6100
   22.290    0.8240
   22.320    0.5886
   22.350    0.6956
   22.380    0.6528
   22.410    0.8133
   22.440    0.6207
   22.470    0.6849
   22.500    0.7705
   22.530    0.8133
   22.560    0.5564
   22.590    0.7598
   22.620    0.8347
   22.650    0.6314
   22.680    0.7170
   22.710    0.7384
   22.740    0.8026
   22.770    0.9845
   22.800    1.3376
   22.830    1.4339
   22.860    1.2627
   22.890    1.1343
   22.920    0.7384
   22.950    0.7170
   22.980    0.7705
   23.010    0.8347
   23.040    0.7812
   23.070    0.8347
   23.100    0.6421
   23.130    0.7598
   23.160    0.7812
   23.190    0.7598
   23.220    0.8882
   23.250    0.8561
   23.280    1.0166
   23.310    0.8882
   23.340    0.8026
   23.370    0.8454
   23.400    0.6956
   23.430    0.9417
   23.460    0.6742
   23.490    0.7919
   23.520    0.8347
   23.550    0.8882
   23.580    0.8561
   23.610    0.8775
   23.640    1.0808
   23.670    1.4125
   23.700    1.9797
   23.730    2.1081
   23.760    1.8406
   23.790    1.6907
   23.820    1.1129
   23.850    0.8347
   23.880    0.7919
   23.910    0.7598
   23.940    0.7170
   23.970    0.7705
   24.000    0.8026
   24.030    0.8668
   24.060    0.8026
   24.090    0.8882
   24.120    0.8347
   24.150    0.9417
   24.180    0.7491
   24.210    0.6314
   24.240    0.7919
   24.270    0.9417
   24.300    0.8240
   24.330    0.6421
   24.360    0.5671
   24.390    0.7919
   24.420    0.7919
   24.450    0.7491
   24.480    0.8133
   24.510    0.8668
   24.540    0.8026
   24.570    0.8347
   24.600    0.8240
   24.630    0.7170
   24.660    0.7063
   24.690    0.7491
   24.720    0.7277
   24.750    0.7170
   24.780    0.7063
   24.810    0.8347
   24.840    0.7277
   24.870    0.8989
   24.900    0.8347
   24.930    0.7812
   24.960    0.7063
   24.990    0.7277
   25.020    0.6314
   25.050    0.8026
   25.080    0.6956
   25.110    0.8240
   25.140    0.8882
   25.170    0.7919
   25.200    0.9096
   25.230    0.6849
   25.260    0.8454
   25.290    0.7491
   25.320    0.8454
   25.350    0.8668
   25.380    0.9524
   25.410    0.9417
   25.440    1.1878
   25.470    1.1450
   25.500    1.0915
   25.530    1.0166
   25.560    0.7812
   25.590    0.8668
   25.620    0.6528
   25.650    0.9096
   25.680    0.6849
   25.710    0.8026
   25.740    0.7919
   25.770    0.8026
   25.800    0.8989
   25.830    1.1236
   25.860    1.1343
   25.890    1.2306
   25.920    1.1129
   25.950    0.9952
   25.980    0.8989
   26.010    0.7919
   26.040    0.8561
   26.070    0.7598
   26.100    0.7598
   26.130    0.9845
   26.160    1.1236
   26.190    1.4232
   26.220    1.6693
   26.250    2.3114
   26.280    2.5040
   26.310    2.5468
   26.340    2.0974
   26.370    1.5730
   26.400    1.1236
   26.430    0.8668
   26.460    0.8454
   26.490    0.8989
   26.520    0.9952
   26.550    1.0808
   26.580    1.0487
   26.610    1.6158
   26.640    1.8085
   26.670    2.2686
   26.700    2.3328
   26.730    1.8620
   26.760    1.6693
   26.790    0.9310
   26.820    0.9310
   26.850    0.7919
   26.880    1.0166
   26.910    0.9952
   26.940    1.0273
   26.970    1.0915
   27.000    1.0594
   27.030    1.1022
   27.060    1.2841
   27.090    1.0808
   27.120    1.1771
   27.150    1.0166
   27.180    0.9096
   27.210    0.8454
   27.240    0.5886
   27.270    0.6528
   27.300    0.8026
   27.330    0.6742
   27.360    0.7063
   27.390    0.8240
   27.420    0.9524
   27.450    1.0808
   27.480    1.2092
   27.510    0.8454
   27.540    0.8882
   27.570    0.8133
   27.600    0.8347
   27.630    0.8561
   27.660    0.6528
   27.690    0.7491
   27.720    0.7170
   27.750    0.7384
   27.780    0.9310
   27.810    1.1129
   27.840    1.3376
   27.870    1.1450
   27.900    1.1129
   27.930    1.1022
   27.960    0.8668
   27.990    0.6635
   28.020    0.5993
   28.050    0.7063
   28.080    0.7491
   28.110    0.6635
   28.140    0.8347
   28.170    0.7919
   28.200    0.7919
   28.230    0.8240
   28.260    0.8240
   28.290    0.8347
   28.320    0.9096
   28.350    0.8026
   28.380    0.8347
   28.410    0.7598
   28.440    0.7384
   28.470    0.7598
   28.500    0.7277
   28.530    0.5886
   28.560    0.7705
   28.590    0.9096
   28.620    0.8133
   28.650    0.8668
   28.680    0.8133
   28.710    0.7277
   28.740    0.8133
   28.770    0.7170
   28.800    0.6956
   28.830    0.6421
   28.860    0.7384
   28.890    0.7598
   28.920    0.6421
   28.950    0.8240
   28.980    0.8882
   29.010    0.8347
   29.040    0.8133
   29.070    0.7812
   29.100    0.7705
   29.130    0.7277
   29.160    0.6314
   29.190    0.8026
   29.220    0.8026
   29.250    0.7170
   29.280    0.8347
   29.310    0.8775
   29.340    0.7919
   29.370    1.0273
   29.400    0.7598
   29.430    0.8240
   29.460    0.6421
   29.490    0.7170
   29.520    0.7598
   29.550    0.7598
   29.580    0.6635
   29.610    0.7277
   29.640    0.6956
   29.670    0.8668
   29.700    0.9417
   29.730    0.9096
   29.760    1.0487
   29.790    0.7277
   29.820    0.6742
   29.850    0.6956
   29.880    0.7170
   29.910    0.6635
   29.940    0.8454
   29.970    0.8775
   30.000    1.1878
   30.030    1.2413
   30.060    1.9690
   30.090    1.7014
   30.120    1.7121
   30.150    1.6693
   30.180    1.1129
   30.210    0.9952
   30.240    0.8240
   30.270    0.7705
   30.300    0.7491
   30.330    0.6314
   30.360    0.6207
   30.390    0.6956
   30.420    0.7170
   30.450    0.6100
   30.480    0.6956
   30.510    0.6314
   30.540    0.6207
   30.570    0.6635
   30.600    0.5243
   30.630    0.5778
   30.660    0.6956
   30.690    0.6100
   30.720    0.8347
   30.750    0.9203
   30.780    0.9203
   30.810    0.9203
   30.840    0.8775
   30.870    0.7063
   30.900    0.6528
   30.930    0.5778
   30.960    0.6528
   30.990    0.6742
   31.020    0.6100
   31.050    0.6207
   31.080    0.5993
   31.110    0.6314
   31.140    0.6314
   31.170    0.6528
   31.200    0.6742
   31.230    0.5993
   31.260    0.6314
   31.290    0.6207
   31.320    0.7598
   31.350    0.6100
   31.380    0.6207
   31.410    0.7812
   31.440    1.0059
   31.470    1.0273
   31.500    1.0594
   31.530    1.0059
   31.560    1.1022
   31.590    0.8454
   31.620    0.6421
   31.650    0.7063
   31.680    0.6207
   31.710    0.6528
   31.740    0.7812
   31.770    0.5243
   31.800    0.6742
   31.830    0.6100
   31.860    0.6742
   31.890    0.5136
   31.920    0.6956
   31.950    0.6742
   31.980    0.5993
   32.010    0.6314
   32.040    0.5993
   32.070    0.7812
   32.100    0.5886
   32.130    0.7812
   32.160    0.7384
   32.190    0.7384
   32.220    0.8561
   32.250    0.6849
   32.280    0.6849
   32.310    0.5671
   32.340    0.6742
   32.370    0.5886
   32.400    0.6207
   32.430    0.6421
   32.460    0.6742
   32.490    0.6849
   32.520    0.8668
   32.550    0.9096
   32.580    1.0273
   32.610    0.8882
   32.640    0.9738
   32.670    0.9952
   32.700    0.9203
   32.730    0.7384
   32.760    0.6207
   32.790    0.9845
   32.820    1.1450
   32.850    0.8561
   32.880    1.0594
   32.910    1.0594
   32.940    0.9417
   32.970    0.6207
   33.000    0.5671
   33.030    0.6100
   33.060    0.6314
   33.090    0.6849
   33.120    0.9524
   33.150    0.9845
   33.180    1.0059
   33.210    0.8989
   33.240    0.8347
   33.270    0.8882
   33.300    0.5993
   33.330    0.5564
   33.360    0.4494
   33.390    0.5886
   33.420    0.6635
   33.450    0.5886
   33.480    0.6314
   33.510    0.5993
   33.540    0.6421
   33.570    0.6207
   33.600    0.6100
   33.630    0.5886
   33.660    0.6742
   33.690    0.6742
   33.720    0.9631
   33.750    1.0059
   33.780    0.8347
   33.810    0.8989
   33.840    0.7812
   33.870    0.6635
   33.900    0.5457
   33.930    0.7063
   33.960    0.5243
   33.990    0.5886
   34.020    0.5457
   34.050    0.7063
   34.080    0.6956
   34.110    0.6956
   34.140    0.8347
   34.170    0.8347
   34.200    0.8775
   34.230    1.0059
   34.260    0.6849
   34.290    0.5457
   34.320    0.6421
   34.350    0.5136
   34.380    0.5564
   34.410    0.4922
   34.440    0.4922
   34.470    0.5671
   34.500    0.5671
   34.530    0.5671
   34.560    0.5136
   34.590    0.4815
   34.620    0.5993
   34.650    0.6207
   34.680    0.6100
   34.710    0.4922
   34.740    0.5886
   34.770    0.7063
   34.800    0.6100
   34.830    0.6635
   34.860    0.7277
   34.890    0.5993
   34.920    0.4387
   34.950    0.5243
   34.980    0.5457
   35.010    0.6100
   35.040    0.5457
   35.070    0.6849
   35.100    0.5778
   35.130    0.5671
   35.160    0.6100
   35.190    0.5671
   35.220    0.4494
   35.250    0.4708
   35.280    0.5564
   35.310    0.4815
   35.340    0.6314
   35.370    0.5564
   35.400    0.5564
   35.430    0.4922
   35.460    0.6956
   35.490    0.5993
   35.520    0.5136
   35.550    0.5671
   35.580    0.5993
   35.610    0.4815
   35.640    0.4815
   35.670    0.5564
   35.700    0.7491
   35.730    0.5993
   35.760    0.6849
   35.790    0.5350
   35.820    0.6100
   35.850    0.5671
   35.880    0.3638
   35.910    0.4494
   35.940    0.4494
   35.970    0.5457
   36.000    0.6635
   36.030    0.5457
   36.060    0.4922
   36.090    0.5136
   36.120    0.4494
   36.150    0.4387
   36.180    0.3852
   36.210    0.4922
   36.240    0.5564
   36.270    0.5136
   36.300    0.4387
   36.330    0.4387
   36.360    0.4494
   36.390    0.4708
   36.420    0.3745
   36.450    0.4280
   36.480    0.5886
   36.510    0.5029
   36.540    0.5671
   36.570    0.6849
   36.600    0.6314
   36.630    0.7491
   36.660    0.6314
   36.690    0.6956
   36.720    0.6207
   36.750    0.6421
   36.780    0.5243
   36.810    0.5136
   36.840    0.5778
   36.870    0.4922
   36.900    0.5564
   36.930    0.5350
   36.960    0.5564
   36.990    0.6635
   37.020    0.6314
   37.050    0.6635
   37.080    0.6742
   37.110    0.7384
   37.140    0.8347
   37.170    0.6528
   37.200    0.6742
   37.230    0.7384
   37.260    0.6635
   37.290    0.6956
   37.320    0.7812
   37.350    0.7705
   37.380    0.9203
   37.410    1.2306
   37.440    1.1664
   37.470    1.1022
   37.500    1.2627
   37.530    0.9524
   37.560    0.6956
   37.590    0.6742
   37.620    0.4494
   37.650    0.5029
   37.680    0.4494
   37.710    0.4601
   37.740    0.4173
   37.770    0.5029
   37.800    0.5029
   37.830    0.5350
   37.860    0.4387
   37.890    0.4922
   37.920    0.4066
   37.950    0.3638
   37.980    0.4922
   38.010    0.5457
   38.040    0.5457
   38.070    0.4387
   38.100    0.4601
   38.130    0.3959
   38.160    0.3959
   38.190    0.4815
   38.220    0.4173
   38.250    0.4280
   38.280    0.4601
   38.310    0.5136
   38.340    0.5136
   38.370    0.6742
   38.400    0.5564
   38.430    0.6956
   38.460    0.5671
   38.490    0.4922
   38.520    0.5457
   38.550    0.3959
   38.580    0.4280
   38.610    0.3959
   38.640    0.4494
   38.670    0.4066
   38.700    0.3745
   38.730    0.4387
   38.760    0.4922
   38.790    0.5029
   38.820    0.3317
   38.850    0.3959
   38.880    0.4387
   38.910    0.4280
   38.940    0.4387
   38.970    0.3317
   39.000    0.3531
   39.030    0.4494
   39.060    0.4601
   39.090    0.4494
   39.120    0.3638
   39.150    0.5564
   39.180    0.4601
   39.210    0.4387
   39.240    0.4815
   39.270    0.4173
   39.300    0.4922
   39.330    0.4387
   39.360    0.5029
   39.390    0.5136
   39.420    0.6528
   39.450    0.6421
   39.480    0.7919
   39.510    0.7812
   39.540    0.8347
   39.570    0.7919
   39.600    0.7598
   39.630    0.6849
   39.660    0.6100
   39.690    0.5993
   39.720    0.4494
   39.750    0.5350
   39.780    0.5243
   39.810    0.3959
   39.840    0.4922
   39.870    0.5778
   39.900    0.4387
   39.930    0.4494
   39.960    0.4280
   39.990    0.3852