File: data/PXRD/PXRD_KE-289_Cu-Ka1_film-3mm_3s-deg.xyd
    1.500   33.4211
    1.530   33.0700
    1.560   32.0695
    1.590   30.2264
    1.620   29.6998
    1.650   28.4185
    1.680   27.5584
    1.710   25.9961
    1.740   25.1185
    1.770   25.3116
    1.800   24.9254
    1.830   23.5387
    1.860   24.1531
    1.890   23.0823
    1.920   22.2573
    1.950   21.9589
    1.980   21.4850
    2.010   20.6600
    2.040   20.0105
    2.070   19.3084
    2.100   18.6063
    2.130   17.7637
    2.160   18.6940
    2.190   18.0446
    2.220   16.9914
    2.250   17.7111
    2.280   17.6233
    2.310   16.8510
    2.340   17.2196
    2.370   17.4127
    2.400   16.4121
    2.430   16.9036
    2.460   16.2893
    2.490   15.8329
    2.520   15.9031
    2.550   15.9909
    2.580   15.1308
    2.610   14.7095
    2.640   15.9207
    2.670   15.1834
    2.700   14.7797
    2.730   14.9201
    2.760   13.9196
    2.790   14.2531
    2.820   15.3239
    2.850   14.4286
    2.880   14.1654
    2.910   14.0249
    2.940   14.9552
    2.970   14.3409
    3.000   14.1302
    3.030   14.8148
    3.060   14.7973
    3.090   13.6914
    3.120   13.6914
    3.150   15.6398
    3.180   15.7802
    3.210   15.8504
    3.240   15.9733
    3.270   16.0260
    3.300   17.2196
    3.330   18.2728
    3.360   18.8345
    3.390   21.6781
    3.420   22.0116
    3.450   23.8547
    3.480   26.4525
    3.510   28.3658
    3.540   31.6482
    3.570   35.2115
    3.600   39.7578
    3.630   45.0061
    3.660   50.9742
    3.690   59.2417
    3.720   69.2294
    3.750   83.9038
    3.780  105.1080
    3.810  137.3179
    3.840  182.0607
    3.870  175.1448
    3.900  116.8510
    3.930   51.5008
    3.960   22.1520
    3.990   16.2717
    4.020   13.5334
    4.050   11.8132
    4.080   11.4271
    4.110   11.5850
    4.140   11.6026
    4.170   11.2340
    4.200   11.3217
    4.230   10.4968
    4.260   10.0404
    4.290   10.4616
    4.320    9.7771
    4.350   10.3212
    4.380   10.4090
    4.410   10.3739
    4.440   10.4968
    4.470   10.1457
    4.500   10.3037
    4.530    9.7595
    4.560   10.0053
    4.590    9.5489
    4.620   10.3563
    4.650    9.5840
    4.680    9.9702
    4.710    9.6893
    4.740    9.8122
    4.770    9.9702
    4.800    9.5840
    4.830    9.7595
    4.860    9.5313
    4.890   10.5143
    4.920   10.3914
    4.950   10.1106
    4.980   10.5319
    5.010   10.5494
    5.040   10.7249
    5.070   10.7425
    5.100   10.7952
    5.130   11.6904
    5.160   12.1116
    5.190   12.9015
    5.220   13.5861
    5.250   14.0249
    5.280   14.9377
    5.310   16.0435
    5.340   17.6935
    5.370   21.1690
    5.400   24.0477
    5.430   28.9802
    5.460   35.8434
    5.490   36.8264
    5.520   28.6291
    5.550   19.8701
    5.580   13.2350
    5.610   12.1819
    5.640   11.9888
    5.670   10.8303
    5.700   11.7079
    5.730   10.4441
    5.760   11.1111
    5.790   10.5494
    5.820   10.5319
    5.850   10.1106
    5.880    9.8297
    5.910   10.3037
    5.940   10.1808
    5.970    9.4611
    6.000    9.8999
    6.030    9.0047
    6.060    9.2680
    6.090    9.6367
    6.120    8.8292
    6.150    9.5664
    6.180    9.3909
    6.210    9.2154
    6.240    9.1276
    6.270    8.7765
    6.300    9.5138
    6.330    8.5835
    6.360    9.5138
    6.390    9.1101
    6.420    8.8117
    6.450    8.6537
    6.480    8.6712
    6.510    9.0223
    6.540    8.5133
    6.570    9.0223
    6.600    9.7946
    6.630   10.0579
    6.660   10.2686
    6.690   10.9707
    6.720   12.3925
    6.750   11.7606
    6.780   10.5319
    6.810    9.0750
    6.840    8.2149
    6.870    8.0393
    6.900    8.3026
    6.930    8.0393
    6.960    8.2851
    6.990    7.9691
    7.020    7.6883
    7.050    7.7234
    7.080    7.6883
    7.110    7.1441
    7.140    7.7585
    7.170    6.8808
    7.200    7.7936
    7.230    7.5478
    7.260    7.6356
    7.290    7.3723
    7.320    7.8638
    7.350    7.3547
    7.380    7.3899
    7.410    7.4601
    7.440    7.0563
    7.470    7.4952
    7.500    7.3723
    7.530    7.3196
    7.560    7.7409
    7.590    7.8813
    7.620    8.1797
    7.650    8.7063
    7.680    9.9702
    7.710   11.9712
    7.740   13.3404
    7.770   15.5169
    7.800   13.7792
    7.830   11.6377
    7.860    8.6186
    7.890    7.4601
    7.920    7.0563
    7.950    6.9159
    7.980    6.4244
    8.010    6.6526
    8.040    6.3718
    8.070    6.4595
    8.100    6.4771
    8.130    6.3542
    8.160    6.3893
    8.190    6.5473
    8.220    6.4420
    8.250    6.1611
    8.280    6.5649
    8.310    6.4244
    8.340    6.6351
    8.370    6.7053
    8.400    6.1962
    8.430    6.4069
    8.460    5.8452
    8.490    6.5122
    8.520    6.6175
    8.550    6.2138
    8.580    6.7755
    8.610    6.6000
    8.640    6.8984
    8.670    7.4776
    8.700    8.2324
    8.730    8.3553
    8.760    6.7755
    8.790    6.4420
    8.820    5.9505
    8.850    6.1085
    8.880    6.2665
    8.910    6.0909
    8.940    6.4771
    8.970    5.6521
    9.000    6.0909
    9.030    5.9681
    9.060    5.7925
    9.090    6.3893
    9.120    6.3367
    9.150    6.6877
    9.180    6.5473
    9.210    6.1962
    9.240    6.6000
    9.270    6.6351
    9.300    7.0563
    9.330    6.4420
    9.360    6.9159
    9.390    8.5133
    9.420    8.5133
    9.450   10.2335
    9.480   12.2521
    9.510   17.0792
    9.540   20.6951
    9.570   19.1680
    9.600   13.1824
    9.630    8.4781
    9.660    6.7228
    9.690    5.9329
    9.720    6.9510
    9.750    6.0734
    9.780    6.1260
    9.810    6.3191
    9.840    6.1436
    9.870    6.0207
    9.900    5.8803
    9.930    6.1260
    9.960    6.1436
    9.990    6.4244
   10.020    6.2138
   10.050    6.3893
   10.080    5.7399
   10.110    6.7053
   10.140    6.1611
   10.170    6.2313
   10.200    7.1266
   10.230    7.4250
   10.260    9.0047
   10.290   10.8303
   10.320   11.4973
   10.350    9.9877
   10.380    7.8989
   10.410    6.3016
   10.440    6.9686
   10.470    6.5649
   10.500    6.2665
   10.530    6.0383
   10.560    6.5649
   10.590    6.3016
   10.620    5.8101
   10.650    5.8627
   10.680    5.9856
   10.710    6.3893
   10.740    6.7579
   10.770    6.1085
   10.800    6.5824
   10.830    6.8282
   10.860    6.4771
   10.890    6.3542
   10.920    7.5303
   10.950    8.0920
   10.980    9.5138
   11.010   11.3920
   11.040   11.9186
   11.070   10.3563
   11.100    8.4079
   11.130    7.3196
   11.160    6.2313
   11.190    6.4420
   11.220    6.4946
   11.250    6.1787
   11.280    6.0207
   11.310    6.4069
   11.340    6.0383
   11.370    5.9681
   11.400    6.0032
   11.430    6.3718
   11.460    6.2665
   11.490    6.1962
   11.520    6.3367
   11.550    6.4771
   11.580    7.2319
   11.610    7.2845
   11.640    8.6888
   11.670   10.2159
   11.700   11.9537
   11.730   12.2872
   11.760   10.1106
   11.790    7.0388
   11.820    6.1260
   11.850    5.8978
   11.880    5.6345
   11.910    6.5122
   11.940    6.1260
   11.970    6.1962
   12.000    6.4771
   12.030    5.8627
   12.060    6.0909
   12.090    5.7223
   12.120    6.0207
   12.150    6.1962
   12.180    5.4239
   12.210    5.6872
   12.240    6.0734
   12.270    6.1085
   12.300    6.7404
   12.330    7.3547
   12.360    7.2319
   12.390    6.9686
   12.420    6.3718
   12.450    5.5643
   12.480    5.8452
   12.510    5.8978
   12.540    6.3367
   12.570    5.3186
   12.600    5.5819
   12.630    5.7399
   12.660    6.0558
   12.690    5.7048
   12.720    5.5292
   12.750    6.1436
   12.780    6.0558
   12.810    6.5122
   12.840    6.2840
   12.870    7.1266
   12.900    8.0042
   12.930    9.3909
   12.960    9.7595
   12.990    9.8824
   13.020    7.2143
   13.050    6.4771
   13.080    5.9681
   13.110    5.7574
   13.140    5.9505
   13.170    5.9154
   13.200    6.1260
   13.230    5.6872
   13.260    5.8803
   13.290    5.1606
   13.320    5.2659
   13.350    5.1782
   13.380    6.3542
   13.410    5.3888
   13.440    5.9329
   13.470    6.7053
   13.500    7.2494
   13.530    7.4074
   13.560    7.6883
   13.590    7.3547
   13.620    6.0383
   13.650    5.7048
   13.680    5.5468
   13.710    5.9681
   13.740    5.6345
   13.770    5.5468
   13.800    5.8627
   13.830    5.8978
   13.860    5.7223
   13.890    5.7399
   13.920    6.2313
   13.950    6.0909
   13.980    6.3191
   14.010    6.6877
   14.040    7.0212
   14.070    8.8994
   14.100    9.4962
   14.130    8.9170
   14.160    7.4425
   14.190    6.3191
   14.220    6.1962
   14.250    6.3016
   14.280    5.9856
   14.310    6.6702
   14.340    6.2313
   14.370    6.1611
   14.400    6.3016
   14.430    5.7925
   14.460    6.1085
   14.490    6.2489
   14.520    5.8627
   14.550    6.5473
   14.580    6.1787
   14.610    6.1260
   14.640    5.9681
   14.670    6.3191
   14.700    6.4595
   14.730    5.9856
   14.760    5.9681
   14.790    6.1962
   14.820    5.6872
   14.850    5.5819
   14.880    6.3893
   14.910    5.4766
   14.940    5.4239
   14.970    6.1962
   15.000    5.7399
   15.030    5.9856
   15.060    5.6345
   15.090    6.0383
   15.120    6.4946
   15.150    7.2670
   15.180    6.4595
   15.210    6.2489
   15.240    5.9856
   15.270    5.5117
   15.300    5.8803
   15.330    5.4590
   15.360    5.4766
   15.390    5.7925
   15.420    5.6697
   15.450    5.7223
   15.480    5.4239
   15.510    5.6697
   15.540    5.3888
   15.570    5.4064
   15.600    5.0728
   15.630    5.7399
   15.660    5.7223
   15.690    5.7574
   15.720    5.5468
   15.750    6.0032
   15.780    5.6170
   15.810    5.9681
   15.840    5.3537
   15.870    5.5292
   15.900    5.5643
   15.930    5.6872
   15.960    5.6170
   15.990    6.0207
   16.020    5.8627
   16.050    6.1787
   16.080    5.9505
   16.110    6.5122
   16.140    6.8808
   16.170    6.1260
   16.200    6.0909
   16.230    5.6170
   16.260    5.9856
   16.290    5.6872
   16.320    5.7399
   16.350    5.5994
   16.380    5.7574
   16.410    5.1957
   16.440    5.7048
   16.470    5.5117
   16.500    5.8452
   16.530    5.7750
   16.560    6.5649
   16.590    6.2313
   16.620    7.4425
   16.650    7.0739
   16.680    6.1787
   16.710    5.7223
   16.740    5.9154
   16.770    6.2840
   16.800    5.4590
   16.830    5.4590
   16.860    5.3888
   16.890    5.8101
   16.920    5.5994
   16.950    5.9681
   16.980    6.4595
   17.010    6.3542
   17.040    7.3196
   17.070    8.7063
   17.100    7.8111
   17.130    7.0212
   17.160    6.4420
   17.190    5.9681
   17.220    5.8276
   17.250    6.2840
   17.280    5.5643
   17.310    5.4415
   17.340    5.7048
   17.370    5.7750
   17.400    5.1782
   17.430    5.6521
   17.460    5.9681
   17.490    6.2665
   17.520    5.7399
   17.550    5.8978
   17.580    6.5122
   17.610    5.8452
   17.640    5.5292
   17.670    5.4239
   17.700    5.6170
   17.730    5.8452
   17.760    5.5819
   17.790    5.7925
   17.820    5.3186
   17.850    5.4239
   17.880    5.9329
   17.910    5.5643
   17.940    5.5292
   17.970    6.2840
   18.000    6.4244
   18.030    6.1436
   18.060    5.8978
   18.090    5.5117
   18.120    5.8101
   18.150    5.5994
   18.180    5.8803
   18.210    5.7223
   18.240    5.7750
   18.270    5.8452
   18.300    5.5994
   18.330    6.3367
   18.360    6.4420
   18.390    6.3893
   18.420    6.3016
   18.450    5.7925
   18.480    5.6170
   18.510    5.7399
   18.540    5.7048
   18.570    6.0032
   18.600    5.8978
   18.630    5.7574
   18.660    5.7223
   18.690    5.8627
   18.720    5.3712
   18.750    5.8803
   18.780    5.9505
   18.810    5.4766
   18.840    6.4420
   18.870    6.0207
   18.900    6.1260
   18.930    5.7223
   18.960    5.2835
   18.990    5.6345
   19.020    5.9681
   19.050    5.3712
   19.080    5.5643
   19.110    5.5468
   19.140    5.8978
   19.170    5.3361
   19.200    5.3537
   19.230    6.0207
   19.260    5.6697
   19.290    5.6170
   19.320    5.9329
   19.350    5.9329
   19.380    5.5819
   19.410    5.4415
   19.440    5.6697
   19.470    5.5292
   19.500    5.6521
   19.530    5.5643
   19.560    6.1085
   19.590    6.7228
   19.620    6.7930
   19.650    6.4244
   19.680    5.9154
   19.710    5.3888
   19.740    5.3537
   19.770    5.3010
   19.800    5.7399
   19.830    5.3361
   19.860    5.7048
   19.890    5.4415
   19.920    5.1080
   19.950    5.7750
   19.980    5.7750
   20.010    5.0553
   20.040    5.4941
   20.070    5.5643
   20.100    5.1255
   20.130    5.3010
   20.160    5.2308
   20.190    4.8447
   20.220    5.0728
   20.250    5.4239
   20.280    5.8627
   20.310    5.9154
   20.340    6.3191
   20.370    7.0563
   20.400    7.8462
   20.430    7.8111
   20.460    6.6702
   20.490    6.0558
   20.520    5.4239
   20.550    5.6345
   20.580    5.5994
   20.610    5.1080
   20.640    5.3537
   20.670    5.8101
   20.700    5.0377
   20.730    5.2484
   20.760    5.5117
   20.790    5.2659
   20.820    5.2484
   20.850    5.1255
   20.880    5.4941
   20.910    4.9851
   20.940    5.3361
   20.970    4.7744
   21.000    4.9324
   21.030    4.9851
   21.060    5.0553
   21.090    4.9851
   21.120    5.0904
   21.150    5.5643
   21.180    5.1782
   21.210    5.0377
   21.240    5.4766
   21.270    5.2308
   21.300    5.1606
   21.330    4.9675
   21.360    5.4239
   21.390    4.7920
   21.420    4.9851
   21.450    4.9500
   21.480    4.6165
   21.510    5.4590
   21.540    5.5819
   21.570    5.3361
   21.600    5.1431
   21.630    5.6521
   21.660    5.4415
   21.690    5.0553
   21.720    5.6170
   21.750    5.0026
   21.780    5.1782
   21.810    5.4415
   21.840    5.7399
   21.870    5.9681
   21.900    6.2489
   21.930    5.9681
   21.960    5.8452
   21.990    4.6691
   22.020    5.3712
   22.050    5.4941
   22.080    5.2133
   22.110    5.6697
   22.140    5.0728
   22.170    5.3186
   22.200    5.3888
   22.230    5.8452
   22.260    5.8978
   22.290    5.7925
   22.320    4.7569
   22.350    5.1255
   22.380    4.5814
   22.410    4.8095
   22.440    5.0553
   22.470    5.0377
   22.500    5.0377
   22.530    5.6170
   22.560    6.8282
   22.590    7.9340
   22.620    7.7760
   22.650    6.7053
   22.680    5.5994
   22.710    5.4590
   22.740    4.8973
   22.770    5.2133
   22.800    5.3888
   22.830    5.1606
   22.860    5.8627
   22.890    6.8282
   22.920    7.7058
   22.950    8.3904
   22.980    7.3021
   23.010    6.1260
   23.040    5.1431
   23.070    5.0202
   23.100    4.7569
   23.130    5.3888
   23.160    5.3537
   23.190    5.3888
   23.220    5.5292
   23.250    5.7223
   23.280    6.6351
   23.310    5.6872
   23.340    5.4766
   23.370    4.9851
   23.400    5.2308
   23.430    5.4590
   23.460    4.9149
   23.490    5.0553
   23.520    5.2308
   23.550    5.0728
   23.580    5.0904
   23.610    5.2484
   23.640    5.0728
   23.670    4.6165
   23.700    5.0026
   23.730    4.9149
   23.760    4.6516
   23.790    4.7744
   23.820    4.8798
   23.850    4.5638
   23.880    5.2133
   23.910    5.5819
   23.940    6.4595
   23.970    5.9856
   24.000    5.5292
   24.030    4.8798
   24.060    4.7920
   24.090    5.0904
   24.120    5.0728
   24.150    4.6691
   24.180    4.5638
   24.210    4.4058
   24.240    4.6516
   24.270    5.2484
   24.300    4.8973
   24.330    4.8622
   24.360    5.1255
   24.390    5.0026
   24.420    4.3883
   24.450    4.4409
   24.480    4.7744
   24.510    5.0377
   24.540    4.8973
   24.570    4.9149
   24.600    4.7744
   24.630    4.9324
   24.660    4.5463
   24.690    4.8271
   24.720    4.6867
   24.750    4.7393
   24.780    4.8271
   24.810    5.1606
   24.840    4.7218
   24.870    4.9851
   24.900    4.9675
   24.930    4.7218
   24.960    4.7920
   24.990    4.7569
   25.020    4.7569
   25.050    4.5989
   25.080    4.4058
   25.110    5.0377
   25.140    4.8271
   25.170    4.6516
   25.200    5.1255
   25.230    5.0377
   25.260    4.8798
   25.290    4.7393
   25.320    4.7042
   25.350    4.8622
   25.380    5.1431
   25.410    4.7042
   25.440    4.3181
   25.470    4.7920
   25.500    4.9149
   25.530    5.3186
   25.560    5.3361
   25.590    5.1080
   25.620    4.5287
   25.650    4.8973
   25.680    5.1080
   25.710    4.9324
   25.740    5.1782
   25.770    5.1080
   25.800    5.5292
   25.830    6.4771
   25.860    6.6175
   25.890    5.8803
   25.920    5.4415
   25.950    4.7744
   25.980    4.8271
   26.010    4.8271
   26.040    4.8271
   26.070    4.8447
   26.100    4.5111
   26.130    4.7042
   26.160    4.7042
   26.190    4.8447
   26.220    4.4409
   26.250    4.6165
   26.280    4.2303
   26.310    4.7042
   26.340    4.7744
   26.370    4.6165
   26.400    4.6691
   26.430    4.9500
   26.460    5.0728
   26.490    5.3888
   26.520    4.7393
   26.550    4.1952
   26.580    4.6516
   26.610    4.6516
   26.640    4.5111
   26.670    4.2478
   26.700    4.7218
   26.730    4.2654
   26.760    4.5989
   26.790    4.9500
   26.820    4.5814
   26.850    4.3356
   26.880    4.5814
   26.910    4.2478
   26.940    4.8973
   26.970    4.5287
   27.000    5.2133
   27.030    5.4415
   27.060    5.4590
   27.090    5.0026
   27.120    4.6340
   27.150    4.3356
   27.180    4.0021
   27.210    4.6867
   27.240    4.2830
   27.270    4.4585
   27.300    4.3707
   27.330    4.4409
   27.360    4.0197
   27.390    3.9670
   27.420    4.4234
   27.450    4.4760
   27.480    4.5638
   27.510    4.7393
   27.540    4.7569
   27.570    4.5814
   27.600    4.5638
   27.630    4.8798
   27.660    5.1782
   27.690    4.7393
   27.720    4.3181
   27.750    4.6516
   27.780    4.3005
   27.810    4.2830
   27.840    4.1952
   27.870    4.1601
   27.900    4.3181
   27.930    4.5111
   27.960    4.3883
   27.990    4.3181
   28.020    4.3883
   28.050    4.2478
   28.080    4.7744
   28.110    4.1250
   28.140    4.4234
   28.170    4.9324
   28.200    5.6697
   28.230    5.1782
   28.260    4.9149
   28.290    4.1425
   28.320    4.4409
   28.350    4.1601
   28.380    4.6867
   28.410    4.3532
   28.440    4.3181
   28.470    4.4936
   28.500    5.0728
   28.530    4.5111
   28.560    4.5638
   28.590    4.6165
   28.620    4.4058
   28.650    4.4936
   28.680    3.6510
   28.710    4.0899
   28.740    4.1601
   28.770    4.7393
   28.800    4.0197
   28.830    4.2830
   28.860    4.2127
   28.890    4.0899
   28.920    4.4058
   28.950    4.4409
   28.980    4.7744
   29.010    4.3181
   29.040    4.5463
   29.070    4.5287
   29.100    4.5638
   29.130    4.4760
   29.160    4.0548
   29.190    4.2127
   29.220    4.1601
   29.250    4.1601
   29.280    4.3883
   29.310    5.2133
   29.340    4.6691
   29.370    4.5463
   29.400    4.0548
   29.430    4.1425
   29.460    4.1074
   29.490    4.0372
   29.520    4.0372
   29.550    4.0021
   29.580    4.0197
   29.610    3.8441
   29.640    3.7739
   29.670    3.5984
   29.700    3.9846
   29.730    3.8090
   29.760    3.8090
   29.790    4.3883
   29.820    4.3181
   29.850    4.4409
   29.880    4.0899
   29.910    4.1952
   29.940    4.0723
   29.970    3.9670
   30.000    4.1074
   30.030    3.8968
   30.060    4.0372
   30.090    4.1074
   30.120    4.3005
   30.150    3.8617
   30.180    3.8266
   30.210    3.8792
   30.240    4.2654
   30.270    3.4404
   30.300    4.0548
   30.330    4.0372
   30.360    4.1601
   30.390    3.8792
   30.420    4.0723
   30.450    3.7564
   30.480    4.0372
   30.510    3.5457
   30.540    3.5633
   30.570    3.8968
   30.600    3.7739
   30.630    4.3005
   30.660    4.0548
   30.690    4.4234
   30.720    3.7037
   30.750    4.1074
   30.780    3.8090
   30.810    3.8090
   30.840    3.7213
   30.870    3.5106
   30.900    3.8090
   30.930    3.6159
   30.960    4.1776
   30.990    3.4755
   31.020    3.7739
   31.050    4.0197
   31.080    3.7915
   31.110    3.5633
   31.140    3.4931
   31.170    3.7564
   31.200    3.7564
   31.230    3.7739
   31.260    3.5282
   31.290    3.5633
   31.320    3.4229
   31.350    4.0372
   31.380    4.1952
   31.410    4.1425
   31.440    4.2127
   31.470    4.0723
   31.500    3.8266
   31.530    3.4755
   31.560    3.6686
   31.590    3.5106
   31.620    3.7915
   31.650    4.0197
   31.680    3.7564
   31.710    3.7037
   31.740    3.7739
   31.770    3.2824
   31.800    3.7037
   31.830    3.7037
   31.860    3.3702
   31.890    3.5106
   31.920    4.1776
   31.950    3.6510
   31.980    3.6510
   32.010    3.5808
   32.040    3.5984
   32.070    3.4755
   32.100    3.3877
   32.130    3.5106
   32.160    3.3175
   32.190    3.7213
   32.220    3.6510
   32.250    3.3000
   32.280    3.3526
   32.310    3.4580
   32.340    3.4580
   32.370    3.5282
   32.400    3.6686
   32.430    3.3351
   32.460    3.5106
   32.490    3.6335
   32.520    3.3877
   32.550    3.4404
   32.580    3.5106
   32.610    3.6159
   32.640    3.3526
   32.670    3.4931
   32.700    3.4229
   32.730    3.4755
   32.760    3.5282
   32.790    3.7388
   32.820    3.3000
   32.850    3.0718
   32.880    3.5457
   32.910    3.5633
   32.940    3.6862
   32.970    3.8441
   33.000    3.6686
   33.030    3.3877
   33.060    3.4229
   33.090    3.5633
   33.120    3.5457
   33.150    3.1596
   33.180    2.9665
   33.210    3.5808
   33.240    3.5984
   33.270    3.3877
   33.300    3.6862
   33.330    3.2649
   33.360    3.1245
   33.390    3.8090
   33.420    3.1771
   33.450    3.1771
   33.480    3.2473
   33.510    3.5808
   33.540    3.5282
   33.570    3.1947
   33.600    3.2649
   33.630    3.4580
   33.660    3.7037
   33.690    3.1245
   33.720    3.5457
   33.750    3.5984
   33.780    3.3877
   33.810    3.1947
   33.840    3.6335
   33.870    3.7213
   33.900    3.8266
   33.930    4.0372
   33.960    3.8266
   33.990    3.4580
   34.020    3.2824
   34.050    3.6335
   34.080    3.3175
   34.110    3.1069
   34.140    3.5808
   34.170    3.1947
   34.200    3.2122
   34.230    3.3175
   34.260    3.0893
   34.290    3.2649
   34.320    3.5633
   34.350    3.3351
   34.380    3.2649
   34.410    3.6335
   34.440    3.2649
   34.470    3.3702
   34.500    3.6159
   34.530    3.2122
   34.560    3.3877
   34.590    3.4053
   34.620    3.7388
   34.650    3.5808
   34.680    3.4580
   34.710    3.2473
   34.740    3.2473
   34.770    3.2473
   34.800    3.5457
   34.830    3.2122
   34.860    3.8792
   34.890    3.8617
   34.920    3.7037
   34.950    3.2649
   34.980    3.5808
   35.010    3.4229
   35.040    3.1069
   35.070    3.3351
   35.100    3.3877
   35.130    3.3000
   35.160    3.4931
   35.190    3.1947
   35.220    3.2298
   35.250    3.3702
   35.280    3.4229
   35.310    3.5984
   35.340    3.2649
   35.370    3.7213
   35.400    3.5457
   35.430    3.6686
   35.460    3.4580
   35.490    3.7037
   35.520    3.1596
   35.550    3.3526
   35.580    3.7213
   35.610    3.1069
   35.640    3.3175
   35.670    3.5633
   35.700    3.3000
   35.730    3.1420
   35.760    3.3702
   35.790    3.4053
   35.820    3.3702
   35.850    3.3351
   35.880    3.5984
   35.910    3.1245
   35.940    3.1947
   35.970    3.6159
   36.000    3.6686
   36.030    3.4755
   36.060    3.6510
   36.090    3.1245
   36.120    3.5984
   36.150    3.4229
   36.180    3.7213
   36.210    3.4404
   36.240    3.6510
   36.270    3.6159
   36.300    3.5633
   36.330    3.4229
   36.360    3.5106
   36.390    3.2122
   36.420    2.9665
   36.450    3.3175
   36.480    3.2824
   36.510    3.4755
   36.540    3.0893
   36.570    3.3702
   36.600    3.6335
   36.630    3.3877
   36.660    3.3702
   36.690    3.5457
   36.720    3.7037
   36.750    3.3175
   36.780    3.2649
   36.810    3.1069
   36.840    3.2473
   36.870    3.3526
   36.900    3.2649
   36.930    3.3526
   36.960    3.1771
   36.990    3.1771
   37.020    3.3877
   37.050    3.2298
   37.080    3.7915
   37.110    4.0372
   37.140    3.5808
   37.170    3.4229
   37.200    3.4053
   37.230    3.1596
   37.260    3.5457
   37.290    3.0367
   37.320    3.3351
   37.350    3.6335
   37.380    3.1771
   37.410    3.4580
   37.440    2.9840
   37.470    3.1947
   37.500    3.2473
   37.530    3.1069
   37.560    3.2473
   37.590    3.3351
   37.620    3.0016
   37.650    3.3000
   37.680    3.2122
   37.710    3.4053
   37.740    2.9314
   37.770    3.1420
   37.800    3.0542
   37.830    3.4755
   37.860    3.0718
   37.890    3.3702
   37.920    3.1771
   37.950    3.2824
   37.980    3.5282
   38.010    3.5106
   38.040    3.4580
   38.070    3.4755
   38.100    3.2824
   38.130    3.3526
   38.160    3.5808
   38.190    3.1596
   38.220    3.0718
   38.250    2.9665
   38.280    3.0191
   38.310    3.1771
   38.340    3.4229
   38.370    2.9489
   38.400    3.3000
   38.430    3.1947
   38.460    3.5984
   38.490    3.3702
   38.520    3.5984
   38.550    3.0016
   38.580    3.1420
   38.610    3.3877
   38.640    2.9314
   38.670    3.0367
   38.700    3.6335
   38.730    3.1596
   38.760    3.2824
   38.790    3.1245
   38.820    3.1596
   38.850    3.0542
   38.880    3.0542
   38.910    3.1069
   38.940    2.9840
   38.970    2.9665
   39.000    3.3702
   39.030    3.0542
   39.060    3.2824
   39.090    2.8787
   39.120    3.2122
   39.150    3.2473
   39.180    3.0893
   39.210    2.9840
   39.240    3.0718
   39.270    3.3000
   39.300    2.9665
   39.330    3.1596
   39.360    3.0893
   39.390    3.0893
   39.420    3.0893
   39.450    3.3877
   39.480    3.1069
   39.510    3.2824
   39.540    2.8963
   39.570    3.0367
   39.600    3.2122
   39.630    3.1420
   39.660    3.2473
   39.690    3.4755
   39.720    3.1771
   39.750    3.0367
   39.780    3.1420
   39.810    3.2824
   39.840    3.0016
   39.870    2.9840
   39.900    2.9665
   39.930    2.8787
   39.960    3.3000
   39.990    2.9840