File: data/PXRD/PXRD_KE-078_Cu-Ka1_capillary-1mm_5s-deg.xyd
    1.500   44.8447
    1.530   44.4655
    1.560   45.7820
    1.590   46.4771
    1.620   48.2570
    1.650   48.8784
    1.680   49.4260
    1.710   49.5524
    1.740   51.7220
    1.770   52.5013
    1.800   53.9126
    1.830   56.1769
    1.860   57.1669
    1.890   59.3049
    1.920   60.4318
    1.950   62.4013
    1.980   64.8552
    2.010   67.8462
    2.040   69.6577
    2.070   73.3333
    2.100   75.8399
    2.130   79.6946
    2.160   81.8852
    2.190   87.4882
    2.220   89.9631
    2.250   95.1343
    2.280  102.4223
    2.310  107.0248
    2.340  112.1116
    2.370  120.8742
    2.400  126.9405
    2.430  137.0300
    2.460  143.3491
    2.490  157.3671
    2.520  172.1959
    2.550  183.8125
    2.580  202.2644
    2.610  226.9194
    2.640  253.5861
    2.670  287.8673
    2.700  336.2612
    2.730  392.8068
    2.760  431.8168
    2.790  396.4192
    2.820  301.7272
    2.850  209.1733
    2.880  145.3713
    2.910  104.4971
    2.940   73.5124
    2.970   53.1648
    3.000   40.6951
    3.030   33.2491
    3.060   27.9832
    3.090   23.5914
    3.120   20.6003
    3.150   19.8736
    3.180   16.9352
    3.210   15.4186
    3.240   14.4076
    3.270   13.4702
    3.300   12.4381
    3.330   12.5224
    3.360   11.8483
    3.390   11.3007
    3.420   10.7320
    3.450   10.3949
    3.480   10.1211
    3.510    9.9737
    3.540    9.4260
    3.570    9.1311
    3.600    9.0363
    3.630    9.4155
    3.660    8.6045
    3.690    9.2154
    3.720    8.8994
    3.750    8.7309
    3.780    8.8468
    3.810    7.9726
    3.840    8.9415
    3.870    8.8257
    3.900    8.8889
    3.930    8.8362
    3.960    9.0469
    3.990    9.4787
    4.020    9.4576
    4.050    9.9210
    4.080    9.9737
    4.110   10.2896
    4.140   10.5108
    4.170   10.7952
    4.200   11.6377
    4.230   12.3117
    4.260   12.3117
    4.290   12.5961
    4.320   13.5440
    4.350   14.2180
    4.380   15.3976
    4.410   15.9031
    4.440   17.8410
    4.470   18.0411
    4.500   19.4945
    4.530   20.5161
    4.560   22.4539
    4.590   25.2975
    4.620   28.3518
    4.650   32.0063
    4.680   36.3770
    4.710   41.0532
    4.740   45.8347
    4.770   49.1838
    4.800   49.7630
    4.830   49.1733
    4.860   47.0458
    4.890   44.3286
    4.920   41.3797
    4.950   34.9131
    4.980   27.8357
    5.010   23.1596
    5.040   18.2201
    5.070   14.9552
    5.100   12.5961
    5.130   12.5013
    5.160   11.4165
    5.190   11.4165
    5.220   11.5850
    5.250   11.9221
    5.280   12.3117
    5.310   13.2280
    5.340   13.8073
    5.370   14.6393
    5.400   16.6614
    5.430   18.9047
    5.460   20.8004
    5.490   23.4966
    5.520   27.5092
    5.550   28.9415
    5.580   29.2259
    5.610   25.7188
    5.640   19.9789
    5.670   17.2301
    5.700   14.3655
    5.730   12.5540
    5.760   11.5008
    5.790   10.4265
    5.820    9.0679
    5.850    8.3096
    5.880    7.3091
    5.910    6.2559
    5.940    6.1822
    5.970    5.7609
    6.000    5.3081
    6.030    5.2554
    6.060    4.9078
    6.090    5.2449
    6.120    4.7393
    6.150    4.6972
    6.180    4.4234
    6.210    4.7393
    6.240    4.5708
    6.270    5.0342
    6.300    4.3918
    6.330    4.4234
    6.360    4.6235
    6.390    4.2654
    6.420    4.5603
    6.450    4.7604
    6.480    4.3391
    6.510    4.0442
    6.540    4.5603
    6.570    4.4339
    6.600    4.7393
    6.630    4.8341
    6.660    4.6656
    6.690    4.5182
    6.720    5.1501
    6.750    4.8868
    6.780    5.2554
    6.810    5.3291
    6.840    5.3818
    6.870    5.6345
    6.900    6.0453
    6.930    6.8036
    6.960    6.3402
    6.990    6.8352
    7.020    7.6988
    7.050    7.9621
    7.080    9.3944
    7.110    9.1838
    7.140   10.4792
    7.170   12.0274
    7.200   12.9437
    7.230   15.2923
    7.260   17.3460
    7.290   18.4202
    7.320   19.6209
    7.350   19.1469
    7.380   19.6103
    7.410   18.2096
    7.440   18.7467
    7.470   18.5466
    7.500   18.0200
    7.530   16.1348
    7.560   15.7241
    7.590   14.2707
    7.620   12.3749
    7.650   11.2375
    7.680    9.8262
    7.710    8.0463
    7.740    7.2880
    7.770    6.2454
    7.800    5.6240
    7.830    5.4766
    7.860    5.2343
    7.890    5.1501
    7.920    4.6656
    7.950    4.5182
    7.980    4.0969
    8.010    4.1285
    8.040    4.1074
    8.070    3.8863
    8.100    4.1917
    8.130    4.2970
    8.160    4.0548
    8.190    4.0337
    8.220    3.8441
    8.250    4.4023
    8.280    4.3813
    8.310    4.5498
    8.340    4.6551
    8.370    4.4023
    8.400    4.3813
    8.430    4.4444
    8.460    4.3497
    8.490    4.0232
    8.520    3.8968
    8.550    3.7388
    8.580    3.5282
    8.610    3.8441
    8.640    3.4334
    8.670    3.6440
    8.700    3.7283
    8.730    3.6967
    8.760    3.6335
    8.790    3.5808
    8.820    3.4018
    8.850    3.4334
    8.880    3.8441
    8.910    3.1174
    8.940    3.5071
    8.970    3.5492
    9.000    3.9494
    9.030    3.4544
    9.060    3.4229
    9.090    3.2859
    9.120    3.8441
    9.150    4.0232
    9.180    3.9284
    9.210    3.5914
    9.240    3.7388
    9.270    3.4229
    9.300    4.1390
    9.330    4.1390
    9.360    4.1180
    9.390    4.4234
    9.420    4.9394
    9.450    4.6340
    9.480    5.2238
    9.510    5.2343
    9.540    5.7188
    9.570    5.3607
    9.600    5.7820
    9.630    5.9294
    9.660    5.6556
    9.690    5.9505
    9.720    5.6240
    9.750    5.6556
    9.780    6.1927
    9.810    6.4982
    9.840    6.3086
    9.870    6.1927
    9.900    6.1822
    9.930    6.4139
    9.960    6.1927
    9.990    6.4455
   10.020    6.2033
   10.050    5.9505
   10.080    5.5292
   10.110    5.8452
   10.140    5.4239
   10.170    5.5292
   10.200    5.7715
   10.230    5.5608
   10.260    5.0132
   10.290    4.9394
   10.320    5.2238
   10.350    4.9710
   10.380    4.8131
   10.410    4.7077
   10.440    4.2443
   10.470    4.3918
   10.500    4.1706
   10.530    3.9705
   10.560    4.0653
   10.590    3.6230
   10.620    3.8863
   10.650    3.6862
   10.680    3.6335
   10.710    3.4229
   10.740    3.3807
   10.770    3.5387
   10.800    3.7809
   10.830    3.5387
   10.860    3.3807
   10.890    3.3491
   10.920    3.4123
   10.950    3.6335
   10.980    3.3386
   11.010    3.1701
   11.040    3.3807
   11.070    3.3386
   11.100    3.0437
   11.130    3.2543
   11.160    3.8336
   11.190    3.6756
   11.220    3.4755
   11.250    3.4544
   11.280    3.0753
   11.310    3.5176
   11.340    3.6124
   11.370    3.4334
   11.400    3.5071
   11.430    3.1280
   11.460    3.6335
   11.490    3.4966
   11.520    3.6440
   11.550    3.5176
   11.580    3.5914
   11.610    3.4439
   11.640    3.5598
   11.670    3.3913
   11.700    3.4439
   11.730    3.4966
   11.760    3.8125
   11.790    3.6335
   11.820    3.5703
   11.850    3.4123
   11.880    3.3070
   11.910    3.5598
   11.940    3.4755
   11.970    3.4650
   12.000    3.8231
   12.030    3.8125
   12.060    3.8863
   12.090    3.7915
   12.120    4.0758
   12.150    4.0232
   12.180    3.8757
   12.210    3.6862
   12.240    4.1496
   12.270    4.0126
   12.300    4.2759
   12.330    4.1601
   12.360    4.5603
   12.390    4.3391
   12.420    4.3391
   12.450    4.3707
   12.480    4.4866
   12.510    4.5182
   12.540    3.9494
   12.570    4.0864
   12.600    4.0126
   12.630    4.0232
   12.660    4.0548
   12.690    3.9179
   12.720    3.6756
   12.750    3.8441
   12.780    3.9705
   12.810    3.9705
   12.840    3.5914
   12.870    4.1811
   12.900    3.8231
   12.930    3.6651
   12.960    3.7704
   12.990    3.9810
   13.020    3.8336
   13.050    3.8020
   13.080    3.9073
   13.110    4.0126
   13.140    3.8231
   13.170    3.9389
   13.200    4.0337
   13.230    3.6967
   13.260    3.8757
   13.290    3.8757
   13.320    3.6862
   13.350    3.9073
   13.380    4.1285
   13.410    4.0126
   13.440    3.8547
   13.470    3.7704
   13.500    3.8968
   13.530    3.9810
   13.560    3.8231
   13.590    3.6862
   13.620    3.6862
   13.650    3.8020
   13.680    3.7704
   13.710    3.9916
   13.740    4.2233
   13.770    4.3707
   13.800    4.0442
   13.830    4.1706
   13.860    4.2338
   13.890    3.7704
   13.920    3.9600
   13.950    3.8757
   13.980    4.1074
   14.010    4.0232
   14.040    4.2022
   14.070    4.1706
   14.100    4.3391
   14.130    4.3391
   14.160    4.1074
   14.190    4.1917
   14.220    4.1706
   14.250    4.2127
   14.280    4.3918
   14.310    4.3391
   14.340    4.3602
   14.370    4.2022
   14.400    4.2549
   14.430    4.4550
   14.460    3.9916
   14.490    4.2970
   14.520    4.4023
   14.550    4.2443
   14.580    4.1180
   14.610    4.2549
   14.640    4.4339
   14.670    4.6130
   14.700    4.5498
   14.730    4.5603
   14.760    4.8236
   14.790    4.5814
   14.820    4.4444
   14.850    5.0342
   14.880    4.7393
   14.910    4.5708
   14.940    4.6551
   14.970    4.9289
   15.000    5.0342
   15.030    4.9184
   15.060    4.8973
   15.090    4.7077
   15.120    4.9184
   15.150    4.6867
   15.180    4.5919
   15.210    4.5919
   15.240    4.2443
   15.270    4.5287
   15.300    4.9289
   15.330    4.6340
   15.360    4.8447
   15.390    4.6130
   15.420    4.6340
   15.450    4.5498
   15.480    4.3918
   15.510    4.5814
   15.540    4.4128
   15.570    4.3813
   15.600    4.2338
   15.630    4.4550
   15.660    4.2022
   15.690    4.6972
   15.720    4.3497
   15.750    4.3391
   15.780    4.1180
   15.810    4.3286
   15.840    4.2970
   15.870    4.2443
   15.900    4.2443
   15.930    4.2549
   15.960    4.3707
   15.990    4.1811
   16.020    4.2338
   16.050    4.2022
   16.080    4.4866
   16.110    4.1811
   16.140    4.2443
   16.170    4.0653
   16.200    4.1601
   16.230    4.1811
   16.260    3.9705
   16.290    4.3286
   16.320    4.6656
   16.350    4.0442
   16.380    4.4128
   16.410    4.2865
   16.440    4.2654
   16.470    4.2127
   16.500    4.3602
   16.530    4.1601
   16.560    4.0969
   16.590    4.1917
   16.620    4.4760
   16.650    4.1811
   16.680    4.2127
   16.710    4.3497
   16.740    4.3181
   16.770    4.6445
   16.800    4.4550
   16.830    4.4655
   16.860    4.5498
   16.890    4.4971
   16.920    4.6761
   16.950    4.3391
   16.980    4.5603
   17.010    4.5708
   17.040    4.3075
   17.070    4.8868
   17.100    4.0969
   17.130    4.5287
   17.160    4.4444
   17.190    4.4128
   17.220    4.2127
   17.250    4.3181
   17.280    4.4971
   17.310    4.2759
   17.340    4.8236
   17.370    4.6024
   17.400    4.2759
   17.430    4.2233
   17.460    4.0232
   17.490    4.5392
   17.520    4.3075
   17.550    4.4234
   17.580    4.7499
   17.610    4.2759
   17.640    4.2759
   17.670    3.8441
   17.700    4.4023
   17.730    4.1706
   17.760    4.5603
   17.790    4.1074
   17.820    4.1285
   17.850    4.2233
   17.880    3.7704
   17.910    4.0864
   17.940    4.1390
   17.970    4.3391
   18.000    4.2654
   18.030    4.4444
   18.060    4.3075
   18.090    4.0864
   18.120    4.1601
   18.150    4.3707
   18.180    4.3602
   18.210    4.1811
   18.240    4.0548
   18.270    4.2654
   18.300    4.4023
   18.330    4.2759
   18.360    4.3813
   18.390    4.5708
   18.420    4.0021
   18.450    4.2443
   18.480    4.2759
   18.510    4.3391
   18.540    4.4234
   18.570    4.4023
   18.600    4.3813
   18.630    4.2654
   18.660    4.3602
   18.690    4.6867
   18.720    4.1706
   18.750    4.7077
   18.780    4.4971
   18.810    4.3707
   18.840    4.5182
   18.870    4.5919
   18.900    4.2970
   18.930    4.3181
   18.960    4.3602
   18.990    4.8131
   19.020    4.7077
   19.050    4.2233
   19.080    4.6235
   19.110    4.3181
   19.140    4.6972
   19.170    4.6656
   19.200    4.5287
   19.230    4.1180
   19.260    4.4444
   19.290    4.6235
   19.320    4.2549
   19.350    4.1390
   19.380    4.4444
   19.410    4.4234
   19.440    3.8020
   19.470    4.5392
   19.500    4.4655
   19.530    4.1180
   19.560    4.1811
   19.590    4.4234
   19.620    4.5814
   19.650    4.2022
   19.680    4.1074
   19.710    4.3391
   19.740    4.3497
   19.770    4.2865
   19.800    4.1390
   19.830    4.3813
   19.860    4.1285
   19.890    4.3286
   19.920    4.2865
   19.950    4.3497
   19.980    4.2338
   20.010    4.3181
   20.040    4.4550
   20.070    3.7809
   20.100    4.3602
   20.130    4.1601
   20.160    3.8863
   20.190    3.9810
   20.220    4.2443
   20.250    4.0548
   20.280    4.1706
   20.310    4.4234
   20.340    4.1285
   20.370    4.1074
   20.400    4.2443
   20.430    4.4023
   20.460    4.3075
   20.490    3.9284
   20.520    4.0337
   20.550    4.4023
   20.580    3.9916
   20.610    4.0969
   20.640    4.1285
   20.670    3.8336
   20.700    3.6967
   20.730    4.2443
   20.760    3.9494
   20.790    3.9494
   20.820    4.1917
   20.850    3.8441
   20.880    4.2970
   20.910    3.8652
   20.940    3.9600
   20.970    4.1390
   21.000    4.1390
   21.030    4.0126
   21.060    3.7177
   21.090    4.0653
   21.120    3.8547
   21.150    3.6019
   21.180    3.9073
   21.210    4.2970
   21.240    3.9284
   21.270    4.1496
   21.300    3.9389
   21.330    4.0864
   21.360    4.0758
   21.390    4.0232
   21.420    3.9705
   21.450    3.8441
   21.480    4.0969
   21.510    3.9389
   21.540    4.1601
   21.570    3.9389
   21.600    4.0653
   21.630    4.2759
   21.660    4.0969
   21.690    4.1180
   21.720    4.3075
   21.750    4.1917
   21.780    4.2970
   21.810    3.8231
   21.840    3.9705
   21.870    4.2338
   21.900    3.9179
   21.930    4.1074
   21.960    4.0969
   21.990    4.2549
   22.020    3.9179
   22.050    3.8020
   22.080    4.0021
   22.110    4.0758
   22.140    4.0021
   22.170    3.6546
   22.200    4.1390
   22.230    3.7388
   22.260    3.9179
   22.290    3.7388
   22.320    3.8020
   22.350    3.7283
   22.380    4.2654
   22.410    3.9179
   22.440    4.0969
   22.470    3.9073
   22.500    4.3707
   22.530    3.8652
   22.560    4.1601
   22.590    4.2022
   22.620    4.1917
   22.650    4.2654
   22.680    3.8441
   22.710    4.0126
   22.740    3.9705
   22.770    3.8020
   22.800    3.7599
   22.830    4.0126
   22.860    4.3497
   22.890    4.0653
   22.920    4.0126
   22.950    3.7809
   22.980    3.7493
   23.010    3.7493
   23.040    3.6862
   23.070    4.1601
   23.100    3.8968
   23.130    4.0653
   23.160    3.8125
   23.190    3.8547
   23.220    3.9389
   23.250    3.6862
   23.280    3.9600
   23.310    3.7493
   23.340    3.9284
   23.370    3.7704
   23.400    3.9284
   23.430    3.7599
   23.460    3.8231
   23.490    4.1074
   23.520    4.3707
   23.550    4.0126
   23.580    4.1390
   23.610    3.9916
   23.640    4.0126
   23.670    4.0442
   23.700    3.9073
   23.730    3.8125
   23.760    4.0021
   23.790    3.8441
   23.820    3.8547
   23.850    3.7493
   23.880    3.7704
   23.910    3.8968
   23.940    3.9600
   23.970    3.9916
   24.000    3.7388
   24.030    4.2233
   24.060    3.9916
   24.090    3.8968
   24.120    4.1496
   24.150    4.0337
   24.180    4.2970
   24.210    4.1917
   24.240    3.9179
   24.270    4.1285
   24.300    4.0337
   24.330    4.2970
   24.360    3.9389
   24.390    4.0653
   24.420    4.0021
   24.450    4.1811
   24.480    3.9600
   24.510    4.1285
   24.540    4.2654
   24.570    4.0969
   24.600    4.0969
   24.630    4.3497
   24.660    4.3707
   24.690    4.7288
   24.720    4.3602
   24.750    4.5708
   24.780    4.4550
   24.810    4.8868
   24.840    4.8552
   24.870    4.8973
   24.900    4.7604
   24.930    4.9605
   24.960    4.9921
   24.990    5.3712
   25.020    5.1395
   25.050    5.3502
   25.080    5.3712
   25.110    5.4660
   25.140    5.3081
   25.170    5.5503
   25.200    5.4766
   25.230    5.8347
   25.260    5.3923
   25.290    5.5187
   25.320    5.6872
   25.350    5.8768
   25.380    5.9610
   25.410    5.4660
   25.440    5.1501
   25.470    5.4239
   25.500    5.7399
   25.530    5.4450
   25.560    5.2027
   25.590    5.4134
   25.620    5.0658
   25.650    5.1817
   25.680    4.8657
   25.710    5.2133
   25.740    4.7077
   25.770    4.8973
   25.800    4.9605
   25.830    4.8341
   25.860    4.8341
   25.890    4.7077
   25.920    4.6761
   25.950    4.6867
   25.980    4.9078
   26.010    4.5603
   26.040    4.4444
   26.070    4.3286
   26.100    4.2654
   26.130    4.5603
   26.160    4.3602
   26.190    4.6867
   26.220    4.3181
   26.250    4.4234
   26.280    3.9389
   26.310    4.1917
   26.340    4.1285
   26.370    4.1074
   26.400    3.9600
   26.430    4.1706
   26.460    3.9705
   26.490    4.1811
   26.520    3.8441
   26.550    4.2127
   26.580    3.6967
   26.610    3.7915
   26.640    4.0337
   26.670    3.8968
   26.700    3.6756
   26.730    3.9284
   26.760    3.6019
   26.790    3.6230
   26.820    3.6651
   26.850    3.5703
   26.880    3.6862
   26.910    3.6546
   26.940    3.4650
   26.970    3.9810
   27.000    3.4755
   27.030    3.6124
   27.060    3.6862
   27.090    3.5176
   27.120    3.5914
   27.150    3.6440
   27.180    3.5387
   27.210    3.8547
   27.240    3.3913
   27.270    3.3597
   27.300    3.4229
   27.330    3.3807
   27.360    3.5282
   27.390    3.6651
   27.420    3.4123
   27.450    3.4755
   27.480    3.3491
   27.510    3.5703
   27.540    3.3386
   27.570    3.3386
   27.600    3.3386
   27.630    3.3702
   27.660    3.4860
   27.690    3.5914
   27.720    3.2227
   27.750    3.5703
   27.780    3.2333
   27.810    3.0332
   27.840    3.2859
   27.870    3.2543
   27.900    3.6651
   27.930    3.0858
   27.960    3.3175
   27.990    3.3807
   28.020    3.3807
   28.050    3.3491
   28.080    3.2227
   28.110    3.3070
   28.140    3.3597
   28.170    2.9595
   28.200    2.9910
   28.230    3.2438
   28.260    3.1806
   28.290    3.1806
   28.320    2.9805
   28.350    3.0226
   28.380    3.1174
   28.410    2.9700
   28.440    3.2859
   28.470    3.1385
   28.500    3.0964
   28.530    3.1385
   28.560    3.3070
   28.590    3.2227
   28.620    2.9384
   28.650    2.9384
   28.680    3.1701
   28.710    3.0858
   28.740    2.7383
   28.770    3.0226
   28.800    2.8752
   28.830    2.9384
   28.860    2.8647
   28.890    2.9068
   28.920    3.4229
   28.950    2.7488
   28.980    3.0332
   29.010    3.0121
   29.040    2.7172
   29.070    2.6962
   29.100    2.9173
   29.130    2.8120
   29.160    2.8857
   29.190    2.7804
   29.220    3.0121
   29.250    3.0332
   29.280    2.8225
   29.310    2.7278
   29.340    2.8963
   29.370    2.6119
   29.400    2.7488
   29.430    2.9173
   29.460    2.8015
   29.490    3.0226
   29.520    3.1174
   29.550    3.2333
   29.580    2.6962
   29.610    3.0226
   29.640    2.9489
   29.670    2.6330
   29.700    2.9279
   29.730    2.9700
   29.760    3.1490
   29.790    3.0437
   29.820    2.9173
   29.850    3.0542
   29.880    2.6119
   29.910    2.8857
   29.940    2.8541
   29.970    2.6014
   30.000    2.7699
   30.030    2.6435
   30.060    3.1385
   30.090    2.7278
   30.120    2.7067
   30.150    2.9279
   30.180    2.9279
   30.210    2.5382
   30.240    2.5803
   30.270    2.5908
   30.300    2.7488
   30.330    2.7067
   30.360    2.7278
   30.390    2.7172
   30.420    2.5698
   30.450    2.6751
   30.480    2.6646
   30.510    2.6646
   30.540    2.7804
   30.570    2.7278
   30.600    2.6224
   30.630    2.8120
   30.660    2.7699
   30.690    2.6435
   30.720    2.7383
   30.750    2.6962
   30.780    2.8857
   30.810    2.6014
   30.840    2.1801
   30.870    2.4434
   30.900    2.4855
   30.930    2.5066
   30.960    2.6014
   30.990    2.8331
   31.020    2.7383
   31.050    2.4645
   31.080    2.4013
   31.110    2.5487
   31.140    2.6014
   31.170    2.3170
   31.200    2.6224
   31.230    2.7067
   31.260    2.3275
   31.290    2.5592
   31.320    2.5171
   31.350    2.3381
   31.380    2.5908
   31.410    2.4539
   31.440    2.5803
   31.470    2.5276
   31.500    2.4961
   31.530    2.7067
   31.560    2.6224
   31.590    2.5803
   31.620    2.2222
   31.650    2.4539
   31.680    2.5592
   31.710    2.7699
   31.740    2.9805
   31.770    2.8857
   31.800    3.1806
   31.830    3.2122
   31.860    3.1701
   31.890    3.0121
   31.920    2.7067
   31.950    2.4855
   31.980    2.6224
   32.010    2.2538
   32.040    2.1906
   32.070    2.5276
   32.100    2.4961
   32.130    2.5698
   32.160    2.3381
   32.190    2.4118
   32.220    2.5592
   32.250    2.3907
   32.280    2.3486
   32.310    2.2643
   32.340    2.3802
   32.370    2.1064
   32.400    2.4223
   32.430    2.2012
   32.460    2.3697
   32.490    2.1906
   32.520    2.0011
   32.550    2.3381
   32.580    2.1696
   32.610    2.1169
   32.640    2.3275
   32.670    1.9168
   32.700    2.3275
   32.730    2.1274
   32.760    2.1064
   32.790    2.1169
   32.820    2.2433
   32.850    2.2643
   32.880    2.2012
   32.910    2.2643
   32.940    2.4329
   32.970    1.9168
   33.000    2.1064
   33.030    1.9800
   33.060    2.1274
   33.090    2.1485
   33.120    2.1274
   33.150    2.2643
   33.180    2.1274
   33.210    2.0958
   33.240    1.9273
   33.270    2.1906
   33.300    2.2222
   33.330    1.9063
   33.360    1.9168
   33.390    2.0432
   33.420    2.1169
   33.450    2.0642
   33.480    1.9800
   33.510    2.0221
   33.540    1.9168
   33.570    1.8957
   33.600    1.9905
   33.630    2.1380
   33.660    2.0748
   33.690    2.0221
   33.720    2.0326
   33.750    1.8220
   33.780    2.1801
   33.810    2.1169
   33.840    2.0748
   33.870    2.2117
   33.900    2.3486
   33.930    2.6119
   33.960    2.5698
   33.990    2.3486
   34.020    2.6119
   34.050    2.3065
   34.080    2.1274
   34.110    1.9168
   34.140    1.8115
   34.170    2.0642
   34.200    1.8957
   34.230    1.8009
   34.260    1.9379
   34.290    1.9695
   34.320    1.9695
   34.350    1.7167
   34.380    2.0221
   34.410    1.9905
   34.440    1.8957
   34.470    1.9589
   34.500    1.9168
   34.530    1.8431
   34.560    1.8957
   34.590    1.7799
   34.620    1.9273
   34.650    1.8115
   34.680    1.9905
   34.710    1.8431
   34.740    1.9484
   34.770    1.7062
   34.800    1.8852
   34.830    1.8747
   34.860    1.9379
   34.890    1.6430
   34.920    1.8536
   34.950    1.8325
   34.980    1.9273
   35.010    1.9484
   35.040    1.9800
   35.070    1.8957
   35.100    1.7062
   35.130    1.6535
   35.160    1.8431
   35.190    1.7378
   35.220    1.7694
   35.250    1.7588
   35.280    1.8852
   35.310    1.7904
   35.340    1.7904
   35.370    1.9589
   35.400    1.6219
   35.430    1.8220
   35.460    1.6746
   35.490    1.8536
   35.520    1.6851
   35.550    1.6956
   35.580    1.8325
   35.610    1.7588
   35.640    1.7694
   35.670    1.7588
   35.700    1.3902
   35.730    1.8115
   35.760    1.6746
   35.790    1.6640
   35.820    1.7799
   35.850    1.5798
   35.880    1.7167
   35.910    1.6851
   35.940    1.5377
   35.970    1.6956
   36.000    1.7904
   36.030    1.8747
   36.060    1.6324
   36.090    1.5271
   36.120    1.5692
   36.150    1.5482
   36.180    1.7062
   36.210    1.5377
   36.240    1.4639
   36.270    1.6008
   36.300    1.5798
   36.330    1.6430
   36.360    1.6219
   36.390    1.6114
   36.420    1.8431
   36.450    1.6746
   36.480    1.5061
   36.510    1.7272
   36.540    1.5482
   36.570    1.6114
   36.600    1.5271
   36.630    1.5482
   36.660    1.5271
   36.690    1.6535
   36.720    1.6219
   36.750    1.6430
   36.780    1.6535
   36.810    1.6851
   36.840    1.4534
   36.870    1.5903
   36.900    1.7483
   36.930    1.7167
   36.960    1.5166
   36.990    1.4955
   37.020    1.5166
   37.050    1.5798
   37.080    1.5798
   37.110    1.3586
   37.140    1.7904
   37.170    1.5903
   37.200    1.4850
   37.230    1.6430
   37.260    1.7062
   37.290    1.5377
   37.320    1.5061
   37.350    1.4113
   37.380    1.4429
   37.410    1.5587
   37.440    1.4113
   37.470    1.5903
   37.500    1.4850
   37.530    1.6430
   37.560    1.4429
   37.590    1.5587
   37.620    1.6219
   37.650    1.4639
   37.680    1.4218
   37.710    1.5798
   37.740    1.5271
   37.770    1.5061
   37.800    1.5482
   37.830    1.7167
   37.860    1.7062
   37.890    1.6114
   37.920    1.5903
   37.950    1.5061
   37.980    1.5271
   38.010    1.4745
   38.040    1.6851
   38.070    1.4639
   38.100    1.5377
   38.130    1.6640
   38.160    1.6114
   38.190    1.5798
   38.220    1.4955
   38.250    1.6430
   38.280    1.8009
   38.310    1.4850
   38.340    1.4429
   38.370    1.2112
   38.400    1.3797
   38.430    1.6430
   38.460    1.5166
   38.490    1.4429
   38.520    1.5692
   38.550    1.2744
   38.580    1.3375
   38.610    1.5377
   38.640    1.5166
   38.670    1.5061
   38.700    1.3586
   38.730    1.6324
   38.760    1.5377
   38.790    1.3586
   38.820    1.4850
   38.850    1.3586
   38.880    1.3375
   38.910    1.5061
   38.940    1.5692
   38.970    1.3375
   39.000    1.3060
   39.030    1.5166
   39.060    1.6851
   39.090    1.5692
   39.120    1.4850
   39.150    1.3691
   39.180    1.3586
   39.210    1.4534
   39.240    1.6324
   39.270    1.4429
   39.300    1.4955
   39.330    1.4323
   39.360    1.5061
   39.390    1.4639
   39.420    1.3481
   39.450    1.5061
   39.480    1.5271
   39.510    1.4007
   39.540    1.4639
   39.570    1.6746
   39.600    1.3586
   39.630    1.5903
   39.660    1.5377
   39.690    1.3375
   39.720    1.5798
   39.750    1.4323
   39.780    1.5692
   39.810    1.2638
   39.840    1.5587
   39.870    1.5166
   39.900    1.3797
   39.930    1.5061
   39.960    1.3375
   39.990    1.3797