File: data/PXRD/PXRD_KE-200_Cu-Ka1_capillary-1mm_5s-deg.xyd
    1.500    9.0363
    1.530    8.7098
    1.560    8.8046
    1.590    8.4044
    1.620    8.0042
    1.650    7.6145
    1.680    7.4250
    1.710    7.4671
    1.740    7.0248
    1.770    7.4776
    1.800    6.9616
    1.830    6.9826
    1.860    6.6561
    1.890    6.3402
    1.920    6.5824
    1.950    6.0242
    1.980    6.1717
    2.010    6.0979
    2.040    6.1717
    2.070    5.7399
    2.100    5.9505
    2.130    5.7715
    2.160    5.1711
    2.190    5.7504
    2.220    5.8978
    2.250    5.2238
    2.280    5.5924
    2.310    5.4660
    2.340    5.3186
    2.370    5.7399
    2.400    5.5503
    2.430    5.5503
    2.460    5.8136
    2.490    5.6767
    2.520    5.9716
    2.550    5.7504
    2.580    5.6977
    2.610    6.0137
    2.640    6.1506
    2.670    6.7720
    2.700    7.2143
    2.730    7.3196
    2.760    7.2986
    2.790    7.7830
    2.820    8.0147
    2.850    9.3523
    2.880    9.4365
    2.910   10.2896
    2.940   10.7741
    2.970   12.1011
    3.000   13.3123
    3.030   13.7125
    3.060   15.5766
    3.090   16.3244
    3.120   18.6835
    3.150   20.5477
    3.180   22.9595
    3.210   25.8978
    3.240   28.7309
    3.270   33.3439
    3.300   38.4834
    3.330   45.4239
    3.360   51.7746
    3.390   58.5571
    3.420   63.8441
    3.450   61.7588
    3.480   54.2707
    3.510   43.0753
    3.540   31.3428
    3.570   25.7820
    3.600   21.1374
    3.630   18.7362
    3.660   17.7567
    3.690   16.7667
    3.720   17.6198
    3.750   17.0616
    3.780   18.4834
    3.810   19.1048
    3.840   20.3370
    3.870   21.7062
    3.900   22.0116
    3.930   22.4961
    3.960   23.6546
    3.990   24.7393
    4.020   25.2238
    4.050   24.8552
    4.080   23.9705
    4.110   23.3281
    4.140   21.9589
    4.170   20.7162
    4.200   18.6203
    4.230   17.9463
    4.260   15.4186
    4.290   14.2917
    4.320   12.0274
    4.350   10.4792
    4.380    9.4787
    4.410    8.8468
    4.440    7.5724
    4.470    6.6561
    4.500    6.3191
    4.530    5.9716
    4.560    5.5608
    4.590    5.1395
    4.620    4.8341
    4.650    4.6445
    4.680    3.9073
    4.710    4.0442
    4.740    4.2127
    4.770    3.7599
    4.800    3.8336
    4.830    3.7072
    4.860    3.5598
    4.890    3.5808
    4.920    3.3702
    4.950    3.8441
    4.980    3.2754
    5.010    3.6230
    5.040    3.3913
    5.070    3.2122
    5.100    3.2543
    5.130    3.1806
    5.160    3.0753
    5.190    3.2122
    5.220    3.1701
    5.250    3.2754
    5.280    3.2543
    5.310    3.2859
    5.340    3.0648
    5.370    3.1806
    5.400    2.8963
    5.430    2.8225
    5.460    2.9068
    5.490    2.7488
    5.520    2.8120
    5.550    2.8541
    5.580    2.8647
    5.610    2.6014
    5.640    2.8436
    5.670    3.0332
    5.700    2.6435
    5.730    2.5592
    5.760    2.8541
    5.790    2.5592
    5.820    2.6540
    5.850    2.8963
    5.880    2.7593
    5.910    2.6962
    5.940    2.7067
    5.970    2.7172
    6.000    2.7278
    6.030    2.7172
    6.060    2.8331
    6.090    2.8015
    6.120    2.7067
    6.150    2.7593
    6.180    2.6962
    6.210    2.4645
    6.240    2.7278
    6.270    3.0016
    6.300    2.8331
    6.330    2.8015
    6.360    2.7909
    6.390    2.8857
    6.420    2.9068
    6.450    2.8015
    6.480    2.9595
    6.510    2.9279
    6.540    2.8647
    6.570    3.2227
    6.600    3.0753
    6.630    3.3807
    6.660    3.5387
    6.690    3.5808
    6.720    4.0969
    6.750    4.2654
    6.780    4.5287
    6.810    5.2027
    6.840    6.0874
    6.870    7.0774
    6.900    7.9831
    6.930    8.3307
    6.960    7.8041
    6.990    7.4671
    7.020    6.2875
    7.050    4.6867
    7.080    4.2759
    7.110    3.9494
    7.140    3.4018
    7.170    3.4860
    7.200    2.9805
    7.230    3.2122
    7.260    3.0016
    7.290    2.9805
    7.320    2.9489
    7.350    2.8541
    7.380    2.9384
    7.410    2.7909
    7.440    2.9700
    7.470    2.6751
    7.500    3.0542
    7.530    3.1701
    7.560    2.8541
    7.590    2.9805
    7.620    2.9700
    7.650    2.8541
    7.680    3.0437
    7.710    3.1280
    7.740    3.3491
    7.770    3.1385
    7.800    3.5282
    7.830    3.2438
    7.860    3.3597
    7.890    3.7177
    7.920    3.6230
    7.950    3.3070
    7.980    3.8652
    8.010    4.1496
    8.040    3.9810
    8.070    3.8020
    8.100    3.9179
    8.130    4.1285
    8.160    4.2022
    8.190    4.2127
    8.220    3.9389
    8.250    4.1390
    8.280    4.2443
    8.310    3.9179
    8.340    4.1180
    8.370    4.0232
    8.400    4.3497
    8.430    4.1706
    8.460    3.9494
    8.490    4.0548
    8.520    3.7915
    8.550    3.7915
    8.580    3.6335
    8.610    3.3070
    8.640    3.7072
    8.670    3.4966
    8.700    3.0648
    8.730    3.0753
    8.760    2.9910
    8.790    3.0542
    8.820    2.8752
    8.850    2.8752
    8.880    2.9279
    8.910    2.9068
    8.940    3.0121
    8.970    2.8015
    9.000    2.5487
    9.030    2.7699
    9.060    2.8857
    9.090    2.8857
    9.120    2.6856
    9.150    2.6330
    9.180    2.6330
    9.210    2.5066
    9.240    2.3907
    9.270    2.7909
    9.300    2.2854
    9.330    2.4645
    9.360    2.3591
    9.390    2.4013
    9.420    2.3591
    9.450    2.5698
    9.480    2.5171
    9.510    2.3802
    9.540    2.4750
    9.570    2.5276
    9.600    2.5487
    9.630    2.3591
    9.660    2.2538
    9.690    2.4223
    9.720    2.3802
    9.750    2.6014
    9.780    2.5382
    9.810    2.5382
    9.840    2.5066
    9.870    2.4329
    9.900    2.4961
    9.930    2.2959
    9.960    2.5487
    9.990    2.4223
   10.020    2.4118
   10.050    2.5066
   10.080    2.3697
   10.110    2.5803
   10.140    2.6646
   10.170    2.4118
   10.200    2.2959
   10.230    2.4539
   10.260    2.6540
   10.290    2.4223
   10.320    2.6119
   10.350    2.6646
   10.380    2.7699
   10.410    2.8436
   10.440    2.9489
   10.470    2.7172
   10.500    2.9173
   10.530    2.5276
   10.560    2.5487
   10.590    2.6224
   10.620    2.5171
   10.650    2.4434
   10.680    2.4434
   10.710    2.6330
   10.740    2.5382
   10.770    2.3381
   10.800    2.4013
   10.830    2.5487
   10.860    2.5066
   10.890    2.7278
   10.920    2.3697
   10.950    2.2749
   10.980    2.4645
   11.010    2.4539
   11.040    2.5382
   11.070    2.4118
   11.100    2.4118
   11.130    2.3907
   11.160    2.2959
   11.190    2.2538
   11.220    2.3170
   11.250    2.2117
   11.280    2.3802
   11.310    2.5382
   11.340    2.6014
   11.370    2.1485
   11.400    2.2538
   11.430    2.6224
   11.460    2.1485
   11.490    2.6014
   11.520    2.4013
   11.550    2.3907
   11.580    2.5066
   11.610    2.4539
   11.640    2.4013
   11.670    2.5171
   11.700    2.5382
   11.730    2.3802
   11.760    2.5487
   11.790    2.6330
   11.820    2.4855
   11.850    2.3802
   11.880    2.4434
   11.910    2.4750
   11.940    2.4223
   11.970    2.2117
   12.000    2.6014
   12.030    2.4118
   12.060    2.5592
   12.090    2.7067
   12.120    2.5382
   12.150    2.6014
   12.180    2.8647
   12.210    2.4223
   12.240    2.6962
   12.270    2.4539
   12.300    2.5698
   12.330    2.6646
   12.360    2.7593
   12.390    2.7172
   12.420    2.7699
   12.450    2.7488
   12.480    2.7067
   12.510    2.6856
   12.540    2.6224
   12.570    2.6330
   12.600    2.6646
   12.630    2.5803
   12.660    2.5487
   12.690    2.8963
   12.720    2.8857
   12.750    2.5698
   12.780    2.8120
   12.810    2.6646
   12.840    2.7172
   12.870    2.3170
   12.900    2.8015
   12.930    2.7804
   12.960    2.5592
   12.990    2.5592
   13.020    2.8436
   13.050    2.6540
   13.080    2.6014
   13.110    2.4118
   13.140    2.4855
   13.170    2.5592
   13.200    2.4961
   13.230    2.5908
   13.260    2.4329
   13.290    2.7383
   13.320    2.4118
   13.350    2.7172
   13.380    2.3802
   13.410    2.4539
   13.440    2.9173
   13.470    2.5487
   13.500    2.5908
   13.530    2.7067
   13.560    2.7067
   13.590    2.7593
   13.620    2.4855
   13.650    2.4855
   13.680    2.2012
   13.710    2.5487
   13.740    2.5592
   13.770    2.3907
   13.800    2.5276
   13.830    2.4013
   13.860    2.5276
   13.890    2.3907
   13.920    2.5803
   13.950    2.4539
   13.980    2.6224
   14.010    2.6435
   14.040    2.4329
   14.070    2.3381
   14.100    2.2012
   14.130    2.4118
   14.160    2.4645
   14.190    2.2433
   14.220    2.5066
   14.250    2.2538
   14.280    2.5698
   14.310    2.3170
   14.340    2.2854
   14.370    2.5487
   14.400    2.4223
   14.430    2.5908
   14.460    2.3591
   14.490    2.1696
   14.520    2.2433
   14.550    2.2433
   14.580    2.5066
   14.610    2.4118
   14.640    2.4961
   14.670    2.4539
   14.700    2.3170
   14.730    2.3170
   14.760    2.6540
   14.790    2.4645
   14.820    2.5276
   14.850    2.2328
   14.880    2.4434
   14.910    2.2433
   14.940    2.2749
   14.970    2.3697
   15.000    2.3170
   15.030    2.5382
   15.060    2.5171
   15.090    2.2433
   15.120    2.3065
   15.150    2.1801
   15.180    2.2222
   15.210    2.1801
   15.240    2.1801
   15.270    2.3381
   15.300    2.3802
   15.330    2.4539
   15.360    2.2433
   15.390    2.3907
   15.420    2.5276
   15.450    2.4645
   15.480    2.3802
   15.510    2.1064
   15.540    2.3381
   15.570    2.2222
   15.600    2.5276
   15.630    2.4961
   15.660    2.1906
   15.690    2.4013
   15.720    2.4539
   15.750    2.4223
   15.780    2.4329
   15.810    2.5171
   15.840    2.3802
   15.870    2.2749
   15.900    2.2854
   15.930    2.5698
   15.960    2.5066
   15.990    2.3170
   16.020    2.4329
   16.050    2.4855
   16.080    2.5908
   16.110    2.3486
   16.140    2.3065
   16.170    2.4013
   16.200    2.4539
   16.230    2.1380
   16.260    2.4855
   16.290    2.5066
   16.320    2.4013
   16.350    2.2749
   16.380    2.2538
   16.410    2.2117
   16.440    2.3802
   16.470    2.2749
   16.500    2.2749
   16.530    2.3802
   16.560    2.3170
   16.590    2.3065
   16.620    2.3170
   16.650    2.4013
   16.680    2.3802
   16.710    2.5803
   16.740    2.1801
   16.770    2.4539
   16.800    2.3802
   16.830    2.1380
   16.860    2.2538
   16.890    2.3697
   16.920    2.4013
   16.950    2.2433
   16.980    2.4961
   17.010    2.6014
   17.040    2.4223
   17.070    2.1590
   17.100    2.2328
   17.130    2.2012
   17.160    2.1906
   17.190    2.3907
   17.220    2.3907
   17.250    2.3275
   17.280    2.3275
   17.310    2.4750
   17.340    2.3697
   17.370    2.2643
   17.400    2.3381
   17.430    2.4434
   17.460    2.3907
   17.490    2.4750
   17.520    2.4329
   17.550    2.5487
   17.580    2.2433
   17.610    2.4855
   17.640    2.3907
   17.670    2.3065
   17.700    2.3697
   17.730    2.2643
   17.760    2.2433
   17.790    2.4013
   17.820    2.8120
   17.850    2.1696
   17.880    2.3381
   17.910    2.3275
   17.940    2.4961
   17.970    2.6119
   18.000    2.3065
   18.030    2.2959
   18.060    2.5276
   18.090    2.1906
   18.120    2.2749
   18.150    2.3802
   18.180    2.3802
   18.210    2.1485
   18.240    2.3697
   18.270    2.4961
   18.300    2.2538
   18.330    2.2222
   18.360    2.4961
   18.390    2.4855
   18.420    2.2328
   18.450    2.6856
   18.480    2.4118
   18.510    2.4855
   18.540    2.1590
   18.570    2.4750
   18.600    2.2538
   18.630    2.5382
   18.660    2.4855
   18.690    2.5382
   18.720    2.4434
   18.750    2.6962
   18.780    2.4013
   18.810    2.2538
   18.840    2.5276
   18.870    2.3381
   18.900    2.6751
   18.930    2.3275
   18.960    2.4434
   18.990    2.3486
   19.020    2.3275
   19.050    2.6119
   19.080    2.4750
   19.110    2.5171
   19.140    2.4434
   19.170    2.3381
   19.200    2.6751
   19.230    2.5592
   19.260    2.5171
   19.290    2.5382
   19.320    2.5066
   19.350    2.2538
   19.380    2.4961
   19.410    2.4013
   19.440    2.6119
   19.470    2.6224
   19.500    2.4961
   19.530    2.6224
   19.560    2.4855
   19.590    2.4329
   19.620    2.4539
   19.650    2.6540
   19.680    2.4434
   19.710    2.6540
   19.740    2.7172
   19.770    2.4961
   19.800    2.4855
   19.830    2.4223
   19.860    2.7067
   19.890    2.5698
   19.920    2.9805
   19.950    2.6119
   19.980    2.3591
   20.010    2.5487
   20.040    2.4855
   20.070    2.6119
   20.100    2.5803
   20.130    2.7488
   20.160    2.6119
   20.190    2.5171
   20.220    2.4750
   20.250    2.7804
   20.280    2.6856
   20.310    2.4961
   20.340    2.5382
   20.370    2.5698
   20.400    2.6540
   20.430    2.6435
   20.460    2.8857
   20.490    2.5066
   20.520    2.5908
   20.550    2.6119
   20.580    2.5698
   20.610    2.7172
   20.640    2.7909
   20.670    2.9805
   20.700    2.5487
   20.730    2.5171
   20.760    2.4961
   20.790    2.5066
   20.820    2.6962
   20.850    2.6435
   20.880    2.7804
   20.910    2.8647
   20.940    2.8225
   20.970    2.9384
   21.000    2.6435
   21.030    2.6435
   21.060    2.8120
   21.090    2.8120
   21.120    2.7278
   21.150    2.6856
   21.180    3.0753
   21.210    2.6962
   21.240    2.5803
   21.270    2.6646
   21.300    2.4961
   21.330    2.8963
   21.360    2.8857
   21.390    2.5803
   21.420    2.5908
   21.450    2.6435
   21.480    2.5171
   21.510    2.7909
   21.540    2.4013
   21.570    2.5592
   21.600    2.7593
   21.630    2.5066
   21.660    2.7488
   21.690    2.7067
   21.720    2.6014
   21.750    2.4118
   21.780    2.6435
   21.810    2.4329
   21.840    2.3802
   21.870    2.6119
   21.900    2.9384
   21.930    2.6962
   21.960    2.6856
   21.990    2.7067
   22.020    2.5592
   22.050    2.6435
   22.080    2.7804
   22.110    2.4750
   22.140    2.5803
   22.170    2.9173
   22.200    2.7067
   22.230    2.9173
   22.260    2.7067
   22.290    2.6540
   22.320    2.6646
   22.350    2.5592
   22.380    2.5171
   22.410    2.6435
   22.440    2.5592
   22.470    2.5382
   22.500    2.6119
   22.530    2.3907
   22.560    2.7593
   22.590    2.7383
   22.620    2.6119
   22.650    2.6224
   22.680    2.6646
   22.710    2.3907
   22.740    2.4750
   22.770    2.6646
   22.800    2.5171
   22.830    2.4329
   22.860    2.6856
   22.890    2.8015
   22.920    2.6119
   22.950    2.5276
   22.980    2.6014
   23.010    2.6224
   23.040    2.7593
   23.070    2.6014
   23.100    2.6751
   23.130    2.6962
   23.160    2.5487
   23.190    2.4434
   23.220    2.3065
   23.250    2.4961
   23.280    2.7488
   23.310    2.4013
   23.340    2.3802
   23.370    2.7593
   23.400    2.7172
   23.430    2.4855
   23.460    2.4855
   23.490    2.6119
   23.520    2.4750
   23.550    2.7488
   23.580    2.4539
   23.610    2.6435
   23.640    2.4645
   23.670    2.7067
   23.700    2.6330
   23.730    2.5066
   23.760    2.8647
   23.790    2.3697
   23.820    2.4645
   23.850    2.2117
   23.880    2.6330
   23.910    2.3381
   23.940    2.5487
   23.970    2.6330
   24.000    2.6646
   24.030    2.8120
   24.060    2.5171
   24.090    2.5382
   24.120    2.5487
   24.150    2.4013
   24.180    2.4434
   24.210    2.4961
   24.240    2.3381
   24.270    2.7383
   24.300    2.6014
   24.330    2.6224
   24.360    2.7172
   24.390    2.4855
   24.420    2.4118
   24.450    2.2433
   24.480    2.3170
   24.510    2.5803
   24.540    2.4539
   24.570    2.6435
   24.600    2.4223
   24.630    2.5171
   24.660    2.5803
   24.690    2.4434
   24.720    2.5592
   24.750    2.5382
   24.780    2.3275
   24.810    2.5382
   24.840    2.3486
   24.870    2.6119
   24.900    2.6014
   24.930    2.5487
   24.960    2.4855
   24.990    2.2854
   25.020    2.4223
   25.050    2.5803
   25.080    2.2538
   25.110    2.3381
   25.140    2.3275
   25.170    2.4434
   25.200    2.5066
   25.230    2.3381
   25.260    2.2117
   25.290    2.5803
   25.320    2.4223
   25.350    2.5803
   25.380    2.3907
   25.410    2.6751
   25.440    2.2749
   25.470    2.4539
   25.500    2.4434
   25.530    2.4329
   25.560    2.1380
   25.590    2.2012
   25.620    2.4223
   25.650    2.3170
   25.680    2.6962
   25.710    2.4329
   25.740    2.4118
   25.770    2.4539
   25.800    2.3381
   25.830    2.5171
   25.860    2.2538
   25.890    2.2538
   25.920    2.2012
   25.950    2.2854
   25.980    2.3065
   26.010    2.4961
   26.040    2.2959
   26.070    2.3170
   26.100    2.3591
   26.130    2.2117
   26.160    2.4750
   26.190    2.1801
   26.220    2.2433
   26.250    2.2433
   26.280    2.2959
   26.310    2.3486
   26.340    2.1590
   26.370    2.5276
   26.400    2.3065
   26.430    2.3381
   26.460    2.1380
   26.490    2.3907
   26.520    2.2222
   26.550    2.2328
   26.580    2.3065
   26.610    2.2012
   26.640    2.2643
   26.670    2.1906
   26.700    2.2433
   26.730    2.3170
   26.760    1.9695
   26.790    2.1906
   26.820    2.1696
   26.850    2.2328
   26.880    2.4855
   26.910    2.0011
   26.940    2.2643
   26.970    2.2538
   27.000    2.0748
   27.030    2.3697
   27.060    2.4223
   27.090    2.2012
   27.120    2.0853
   27.150    2.0116
   27.180    2.1380
   27.210    2.3591
   27.240    2.1696
   27.270    2.5487
   27.300    2.1274
   27.330    2.3591
   27.360    2.3697
   27.390    2.2012
   27.420    2.2433
   27.450    2.2538
   27.480    2.0011
   27.510    2.2538
   27.540    2.2012
   27.570    2.2328
   27.600    2.3065
   27.630    2.4434
   27.660    2.3381
   27.690    2.1590
   27.720    2.2117
   27.750    2.3381
   27.780    2.1696
   27.810    2.2643
   27.840    2.3802
   27.870    2.4855
   27.900    2.2749
   27.930    2.2749
   27.960    1.9800
   27.990    2.1590
   28.020    2.2012
   28.050    2.1380
   28.080    2.2222
   28.110    2.1169
   28.140    2.1169
   28.170    2.4013
   28.200    2.2433
   28.230    2.1906
   28.260    2.3697
   28.290    2.6435
   28.320    2.1485
   28.350    2.4645
   28.380    2.3802
   28.410    2.1064
   28.440    2.1906
   28.470    2.3907
   28.500    2.1590
   28.530    2.2854
   28.560    2.1801
   28.590    2.2012
   28.620    2.3170
   28.650    2.3486
   28.680    2.0958
   28.710    2.1274
   28.740    2.2222
   28.770    2.2959
   28.800    2.0853
   28.830    1.9589
   28.860    2.1906
   28.890    2.1380
   28.920    2.2222
   28.950    2.2012
   28.980    2.1064
   29.010    2.0958
   29.040    2.3065
   29.070    2.1274
   29.100    2.2854
   29.130    1.8009
   29.160    2.0642
   29.190    2.0748
   29.220    2.0958
   29.250    2.0326
   29.280    2.1590
   29.310    2.0432
   29.340    2.0853
   29.370    2.2749
   29.400    2.2433
   29.430    2.0116
   29.460    2.1801
   29.490    2.2117
   29.520    2.0011
   29.550    2.2749
   29.580    2.2012
   29.610    2.1169
   29.640    2.0748
   29.670    2.1169
   29.700    2.2117
   29.730    2.2959
   29.760    1.7167
   29.790    2.1274
   29.820    1.9905
   29.850    1.8957
   29.880    2.0642
   29.910    2.0116
   29.940    2.1169
   29.970    1.8641
   30.000    1.9589
   30.030    1.9063
   30.060    2.0221
   30.090    1.9905
   30.120    1.8747
   30.150    2.0537
   30.180    2.0432
   30.210    2.0958
   30.240    2.0326
   30.270    2.1801
   30.300    2.0642
   30.330    1.9695
   30.360    2.2643
   30.390    2.0958
   30.420    2.2012
   30.450    2.1801
   30.480    2.2222
   30.510    2.0432
   30.540    1.8431
   30.570    1.9379
   30.600    2.1696
   30.630    2.0537
   30.660    1.9800
   30.690    2.1380
   30.720    2.2643
   30.750    1.9168
   30.780    1.9695
   30.810    2.1380
   30.840    2.1380
   30.870    2.1274
   30.900    2.0537
   30.930    2.2433
   30.960    2.0011
   30.990    1.9484
   31.020    1.9168
   31.050    2.0853
   31.080    2.1485
   31.110    1.9800
   31.140    1.9589
   31.170    2.0326
   31.200    1.7799
   31.230    2.2117
   31.260    1.7904
   31.290    1.9379
   31.320    1.8957
   31.350    1.8957
   31.380    2.1169
   31.410    2.2328
   31.440    1.8220
   31.470    2.1064
   31.500    1.9905
   31.530    2.0642
   31.560    1.9379
   31.590    2.0537
   31.620    2.1696
   31.650    1.9484
   31.680    1.9379
   31.710    1.8536
   31.740    2.0748
   31.770    2.0642
   31.800    1.9063
   31.830    2.0642
   31.860    1.9063
   31.890    2.0537
   31.920    2.0748
   31.950    2.0326
   31.980    1.9379
   32.010    1.6956
   32.040    2.0748
   32.070    1.8957
   32.100    1.9589
   32.130    1.8431
   32.160    1.9905
   32.190    2.0748
   32.220    2.0748
   32.250    1.8641
   32.280    2.0326
   32.310    2.0326
   32.340    2.0748
   32.370    2.0221
   32.400    1.9168
   32.430    1.9273
   32.460    1.7694
   32.490    2.1696
   32.520    1.8852
   32.550    1.6640
   32.580    1.7167
   32.610    2.0958
   32.640    1.8115
   32.670    2.2538
   32.700    1.9273
   32.730    1.9695
   32.760    1.8747
   32.790    1.8115
   32.820    1.9695
   32.850    1.8747
   32.880    1.8957
   32.910    1.8536
   32.940    1.7694
   32.970    1.8431
   33.000    1.7799
   33.030    1.8852
   33.060    1.6746
   33.090    1.8115
   33.120    1.9695
   33.150    1.6746
   33.180    1.8009
   33.210    1.8641
   33.240    1.8009
   33.270    1.7483
   33.300    1.7799
   33.330    1.7167
   33.360    1.8536
   33.390    1.9589
   33.420    1.8641
   33.450    1.9484
   33.480    2.1274
   33.510    1.7904
   33.540    1.7378
   33.570    1.7062
   33.600    1.8115
   33.630    1.9695
   33.660    1.8115
   33.690    1.7167
   33.720    1.7272
   33.750    2.0853
   33.780    1.9905
   33.810    1.6535
   33.840    1.7483
   33.870    1.8957
   33.900    1.9168
   33.930    1.8325
   33.960    1.7272
   33.990    1.6956
   34.020    1.9695
   34.050    1.9695
   34.080    1.9168
   34.110    1.9800
   34.140    1.7272
   34.170    1.7062
   34.200    1.7588
   34.230    1.8747
   34.260    1.7483
   34.290    1.8115
   34.320    1.7799
   34.350    1.9484
   34.380    1.7904
   34.410    1.9063
   34.440    1.5692
   34.470    1.7694
   34.500    1.7062
   34.530    1.8431
   34.560    1.7588
   34.590    1.7272
   34.620    1.7062
   34.650    1.7062
   34.680    1.6640
   34.710    1.7483
   34.740    1.5587
   34.770    1.6535
   34.800    1.7483
   34.830    1.6746
   34.860    1.5798
   34.890    1.6324
   34.920    1.7272
   34.950    1.7062
   34.980    1.7167
   35.010    1.4323
   35.040    1.7062
   35.070    1.6535
   35.100    1.5798
   35.130    1.6008
   35.160    1.6114
   35.190    1.7904
   35.220    1.5377
   35.250    1.6430
   35.280    1.7062
   35.310    1.6430
   35.340    1.6219
   35.370    1.6430
   35.400    1.6535
   35.430    1.5587
   35.460    1.7694
   35.490    1.7062
   35.520    1.6851
   35.550    1.6851
   35.580    1.7378
   35.610    1.7378
   35.640    1.5903
   35.670    1.5903
   35.700    1.6956
   35.730    1.5692
   35.760    1.6430
   35.790    1.4429
   35.820    1.6956
   35.850    1.5798
   35.880    1.7167
   35.910    1.6956
   35.940    1.6430
   35.970    1.5166
   36.000    1.7588
   36.030    1.7378
   36.060    1.6324
   36.090    1.7272
   36.120    1.6956
   36.150    1.7483
   36.180    1.5692
   36.210    1.6114
   36.240    1.4007
   36.270    1.6535
   36.300    1.9695
   36.330    1.5692
   36.360    1.6324
   36.390    1.6114
   36.420    1.4955
   36.450    1.6535
   36.480    1.6324
   36.510    1.3902
   36.540    1.5271
   36.570    1.5271
   36.600    1.7378
   36.630    1.6008
   36.660    1.7588
   36.690    1.3797
   36.720    1.4955
   36.750    1.6851
   36.780    1.6324
   36.810    1.5692
   36.840    1.6746
   36.870    1.6114
   36.900    1.7588
   36.930    1.6851
   36.960    1.5692
   36.990    1.4850
   37.020    1.6324
   37.050    1.4323
   37.080    1.5903
   37.110    1.5798
   37.140    1.8747
   37.170    1.5798
   37.200    1.5271
   37.230    1.4323
   37.260    1.5271
   37.290    1.6851
   37.320    1.6535
   37.350    1.6008
   37.380    1.5166
   37.410    1.5587
   37.440    1.3797
   37.470    1.5271
   37.500    1.4850
   37.530    1.4955
   37.560    1.6219
   37.590    1.6114
   37.620    1.5271
   37.650    1.6640
   37.680    1.4534
   37.710    1.6008
   37.740    1.5166
   37.770    1.4007
   37.800    1.5166
   37.830    1.4534
   37.860    1.4639
   37.890    1.7483
   37.920    1.4323
   37.950    1.5798
   37.980    1.5061
   38.010    1.4218
   38.040    1.4113
   38.070    1.4429
   38.100    1.5482
   38.130    1.3375
   38.160    1.4850
   38.190    1.6114
   38.220    1.4745
   38.250    1.4745
   38.280    1.5377
   38.310    1.6008
   38.340    1.5271
   38.370    1.7167
   38.400    1.4745
   38.430    1.4850
   38.460    1.4850
   38.490    1.5482
   38.520    1.5903
   38.550    1.4639
   38.580    1.4218
   38.610    1.5587
   38.640    1.6219
   38.670    1.5061
   38.700    1.4218
   38.730    1.5166
   38.760    1.3797
   38.790    1.5166
   38.820    1.5377
   38.850    1.4113
   38.880    1.4745
   38.910    1.4955
   38.940    1.6008
   38.970    1.3165
   39.000    1.3691
   39.030    1.4850
   39.060    1.4850
   39.090    1.5061
   39.120    1.5271
   39.150    1.5798
   39.180    1.4534
   39.210    1.4850
   39.240    1.3902
   39.270    1.4955
   39.300    1.3797
   39.330    1.5587
   39.360    1.6008
   39.390    1.5271
   39.420    1.4534
   39.450    1.4955
   39.480    1.3165
   39.510    1.4429
   39.540    1.5377
   39.570    1.6008
   39.600    1.4850
   39.630    1.6430
   39.660    1.5692
   39.690    1.5482
   39.720    1.4639
   39.750    1.6219
   39.780    1.5377
   39.810    1.5482
   39.840    1.4955
   39.870    1.6114
   39.900    1.4639
   39.930    1.4323
   39.960    1.7799
   39.990    1.5271