File: data/PXRD/PXRD_KE-134_Cu-Ka1_capillary-1mm_5s-deg.xyd
    1.500   70.2370
    1.530   69.5313
    1.560   65.1922
    1.590   62.9173
    1.620   60.4634
    1.650   59.1153
    1.680   57.5461
    1.710   55.0711
    1.740   53.1964
    1.770   52.3644
    1.800   49.9000
    1.830   48.4044
    1.860   47.2986
    1.890   44.3391
    1.920   43.8757
    1.950   42.9384
    1.980   41.8852
    2.010   40.6635
    2.040   40.9584
    2.070   39.5682
    2.100   36.4402
    2.130   36.3033
    2.160   35.2501
    2.190   33.9652
    2.220   34.2180
    2.250   32.4065
    2.280   31.9642
    2.310   30.2686
    2.340   30.3423
    2.370   29.1417
    2.400   29.3839
    2.430   28.0042
    2.460   27.9410
    2.490   27.5092
    2.520   26.1927
    2.550   26.2138
    2.580   25.2975
    2.610   25.6240
    2.640   24.2970
    2.670   23.4439
    2.700   23.2859
    2.730   22.9910
    2.760   22.2117
    2.790   21.8009
    2.820   22.2012
    2.850   20.9163
    2.880   20.9479
    2.910   20.3581
    2.940   20.1369
    2.970   19.5682
    3.000   19.1259
    3.030   18.7046
    3.060   19.2733
    3.090   18.8520
    3.120   18.0411
    3.150   17.8936
    3.180   17.5882
    3.210   17.8199
    3.240   17.0405
    3.270   17.0405
    3.300   17.0511
    3.330   17.1037
    3.360   16.3454
    3.390   15.6925
    3.420   16.1875
    3.450   15.4081
    3.480   16.1559
    3.510   16.2401
    3.540   15.6609
    3.570   15.2291
    3.600   14.3339
    3.630   14.9868
    3.660   14.4708
    3.690   14.9236
    3.720   14.3760
    3.750   13.8073
    3.780   14.3128
    3.810   14.1759
    3.840   14.1232
    3.870   13.6704
    3.900   12.9331
    3.930   13.3544
    3.960   13.1754
    3.990   12.9753
    4.020   13.2280
    4.050   13.3228
    4.080   12.7330
    4.110   12.7646
    4.140   12.3433
    4.170   12.4697
    4.200   12.1854
    4.230   12.4171
    4.260   12.1748
    4.290   12.2064
    4.320   11.4587
    4.350   11.5008
    4.380   12.0695
    4.410   11.7009
    4.440   11.7114
    4.470   11.0269
    4.500   11.2586
    4.530   11.1743
    4.560   11.2480
    4.590   11.0479
    4.620   10.5845
    4.650   10.9321
    4.680   11.2375
    4.710   10.4265
    4.740   10.5740
    4.770   10.5108
    4.800    9.9947
    4.830   10.0790
    4.860    9.9842
    4.890   10.1106
    4.920    9.7630
    4.950   10.3318
    4.980    9.5945
    5.010    9.4892
    5.040    9.9421
    5.070    9.5419
    5.100    9.6788
    5.130    9.8262
    5.160    9.5208
    5.190    8.9205
    5.220    9.2680
    5.250    9.2259
    5.280    9.1101
    5.310    8.6045
    5.340    8.9415
    5.370    8.7836
    5.400    8.6151
    5.430    8.8468
    5.460    9.2891
    5.490    8.7309
    5.520    8.7414
    5.550    8.9205
    5.580    8.8362
    5.610    8.8994
    5.640    8.5940
    5.670    8.5413
    5.700    8.8046
    5.730    8.2886
    5.760    8.7309
    5.790    8.4676
    5.820    9.1943
    5.850    8.6572
    5.880    8.3202
    5.910    8.0253
    5.940    8.0463
    5.970    8.0779
    6.000    8.1095
    6.030    8.2149
    6.060    8.6151
    6.090    8.2675
    6.120    8.0042
    6.150    8.3623
    6.180    7.9410
    6.210    7.9516
    6.240    8.2464
    6.270    7.8989
    6.300    7.5092
    6.330    7.8989
    6.360    8.3834
    6.390    8.2570
    6.420    8.1938
    6.450    7.7620
    6.480    8.3412
    6.510    8.1411
    6.540    7.5829
    6.570    8.1833
    6.600    8.4255
    6.630    8.3202
    6.660    8.2991
    6.690    7.9937
    6.720    8.1517
    6.750    8.1306
    6.780    8.1411
    6.810    8.0885
    6.840    7.8568
    6.870    8.2359
    6.900    7.9516
    6.930    8.3202
    6.960    8.2149
    6.990    8.6045
    7.020    8.3834
    7.050    8.3518
    7.080    8.0779
    7.110    8.5413
    7.140    8.7098
    7.170    8.2254
    7.200    7.8462
    7.230    8.4150
    7.260    7.7830
    7.290    8.5624
    7.320    8.9415
    7.350    8.0358
    7.380    8.3412
    7.410    8.1622
    7.440    8.6783
    7.470    8.6361
    7.500    8.2043
    7.530    8.8362
    7.560    8.7520
    7.590    8.9521
    7.620    8.8784
    7.650    8.4255
    7.680    8.2254
    7.710    8.4150
    7.740    8.9626
    7.770    8.6677
    7.800    8.8889
    7.830    8.8994
    7.860    8.4781
    7.890    8.4992
    7.920    8.3518
    7.950    8.4255
    7.980    8.2886
    8.010    8.3834
    8.040    8.6993
    8.070    8.7520
    8.100    8.6361
    8.130    8.4150
    8.160    7.9200
    8.190    8.6467
    8.220    8.5624
    8.250    8.0358
    8.280    8.1306
    8.310    8.4150
    8.340    8.6888
    8.370    8.2043
    8.400    7.9305
    8.430    7.8146
    8.460    8.3096
    8.490    7.9621
    8.520    7.8568
    8.550    8.4150
    8.580    8.1622
    8.610    7.9410
    8.640    7.9726
    8.670    8.0885
    8.700    8.3728
    8.730    7.6988
    8.760    7.8673
    8.790    8.0674
    8.820    7.7830
    8.850    7.5197
    8.880    7.6883
    8.910    7.4355
    8.940    7.5724
    8.970    7.5935
    9.000    7.5408
    9.030    7.6883
    9.060    7.6883
    9.090    7.5408
    9.120    7.4460
    9.150    7.3196
    9.180    7.4566
    9.210    7.2354
    9.240    7.6251
    9.270    7.1827
    9.300    7.5092
    9.330    7.1722
    9.360    7.3091
    9.390    7.0774
    9.420    7.4039
    9.450    7.0985
    9.480    7.1511
    9.510    6.9721
    9.540    7.1301
    9.570    7.0879
    9.600    6.9405
    9.630    6.9510
    9.660    6.9721
    9.690    6.6772
    9.720    6.5719
    9.750    7.1406
    9.780    6.9194
    9.810    7.2775
    9.840    6.8352
    9.870    6.6772
    9.900    6.8036
    9.930    6.9721
    9.960    6.7825
    9.990    6.6983
   10.020    6.8352
   10.050    7.0037
   10.080    7.0879
   10.110    6.9300
   10.140    7.0458
   10.170    6.7509
   10.200    6.5719
   10.230    6.7404
   10.260    6.7615
   10.290    6.7404
   10.320    6.8246
   10.350    6.2243
   10.380    6.9405
   10.410    6.6351
   10.440    6.9721
   10.470    6.4982
   10.500    6.6351
   10.530    6.9826
   10.560    6.8036
   10.590    6.2033
   10.620    6.7193
   10.650    6.4982
   10.680    6.8352
   10.710    6.7720
   10.740    6.6983
   10.770    6.9510
   10.800    6.5613
   10.830    6.6140
   10.860    6.7825
   10.890    6.8457
   10.920    6.8036
   10.950    6.1717
   10.980    6.5824
   11.010    6.8457
   11.040    6.7193
   11.070    6.2033
   11.100    6.6667
   11.130    6.6772
   11.160    6.3086
   11.190    6.7509
   11.220    6.7404
   11.250    6.3086
   11.280    6.7930
   11.310    6.4244
   11.340    6.6561
   11.370    6.5087
   11.400    6.3823
   11.430    6.4455
   11.460    6.1822
   11.490    6.0558
   11.520    6.3928
   11.550    6.5719
   11.580    6.3823
   11.610    6.3612
   11.640    6.4455
   11.670    6.2981
   11.700    6.1190
   11.730    6.0874
   11.760    6.0874
   11.790    6.1822
   11.820    6.1927
   11.850    6.2875
   11.880    6.0769
   11.910    6.4034
   11.940    5.9821
   11.970    6.3191
   12.000    5.9926
   12.030    6.2349
   12.060    5.8347
   12.090    6.3086
   12.120    6.4666
   12.150    6.0242
   12.180    5.8662
   12.210    5.9716
   12.240    6.0979
   12.270    5.8452
   12.300    5.8768
   12.330    5.8978
   12.360    5.8873
   12.390    5.6977
   12.420    5.8031
   12.450    5.8768
   12.480    5.8452
   12.510    5.6977
   12.540    6.0558
   12.570    5.5503
   12.600    6.0453
   12.630    5.8241
   12.660    5.7504
   12.690    5.6872
   12.720    5.7083
   12.750    5.7083
   12.780    5.3081
   12.810    5.7715
   12.840    5.5714
   12.870    5.7188
   12.900    6.1506
   12.930    5.6345
   12.960    5.4660
   12.990    5.7609
   13.020    5.7925
   13.050    6.1927
   13.080    5.8031
   13.110    5.6135
   13.140    5.5924
   13.170    5.5503
   13.200    5.8136
   13.230    5.7504
   13.260    5.6451
   13.290    5.5292
   13.320    5.8241
   13.350    5.8136
   13.380    5.7399
   13.410    5.8873
   13.440    6.1085
   13.470    5.5082
   13.500    5.9610
   13.530    5.6872
   13.560    5.8347
   13.590    5.2554
   13.620    5.6767
   13.650    5.9294
   13.680    5.9189
   13.710    5.7188
   13.740    5.7399
   13.770    5.7504
   13.800    5.8978
   13.830    5.4134
   13.860    5.6661
   13.890    6.0979
   13.920    5.9505
   13.950    5.7609
   13.980    5.8768
   14.010    6.0558
   14.040    5.4766
   14.070    5.6872
   14.100    5.9084
   14.130    6.3296
   14.160    5.5398
   14.190    5.8241
   14.220    5.8662
   14.250    5.9716
   14.280    5.4871
   14.310    5.8031
   14.340    5.6977
   14.370    5.7715
   14.400    5.6451
   14.430    6.0664
   14.460    5.8662
   14.490    5.4976
   14.520    5.6661
   14.550    6.2559
   14.580    5.9189
   14.610    5.5714
   14.640    6.0453
   14.670    5.6767
   14.700    5.9084
   14.730    5.8031
   14.760    5.5082
   14.790    5.8452
   14.820    5.4976
   14.850    5.8873
   14.880    6.4244
   14.910    5.9400
   14.940    5.6767
   14.970    6.1506
   15.000    6.2665
   15.030    5.7715
   15.060    5.7925
   15.090    5.6661
   15.120    5.6556
   15.150    6.0453
   15.180    6.2454
   15.210    5.8557
   15.240    5.9294
   15.270    5.8873
   15.300    5.9400
   15.330    5.7188
   15.360    5.5608
   15.390    5.8873
   15.420    6.0137
   15.450    5.8768
   15.480    5.8557
   15.510    5.8978
   15.540    5.8978
   15.570    5.8241
   15.600    5.8557
   15.630    6.1401
   15.660    6.0558
   15.690    5.8136
   15.720    6.2138
   15.750    5.7925
   15.780    5.8452
   15.810    5.9610
   15.840    5.8557
   15.870    5.9610
   15.900    6.0453
   15.930    5.8978
   15.960    6.0664
   15.990    5.9084
   16.020    5.9926
   16.050    5.6977
   16.080    6.4244
   16.110    6.0664
   16.140    6.0348
   16.170    6.0137
   16.200    6.0558
   16.230    5.7609
   16.260    6.0664
   16.290    5.9926
   16.320    6.0137
   16.350    5.9400
   16.380    6.1506
   16.410    5.8241
   16.440    6.0242
   16.470    6.1401
   16.500    6.0453
   16.530    6.1717
   16.560    5.7820
   16.590    5.8557
   16.620    5.7609
   16.650    5.8768
   16.680    5.9084
   16.710    6.0558
   16.740    6.1190
   16.770    6.1927
   16.800    6.1717
   16.830    6.2981
   16.860    6.2981
   16.890    6.2981
   16.920    5.9505
   16.950    6.1295
   16.980    6.0032
   17.010    6.0137
   17.040    6.1085
   17.070    6.3402
   17.100    6.1190
   17.130    5.9505
   17.160    6.2559
   17.190    5.8557
   17.220    6.3928
   17.250    6.3612
   17.280    6.2138
   17.310    6.2243
   17.340    5.8452
   17.370    5.9294
   17.400    6.1190
   17.430    6.0558
   17.460    6.1190
   17.490    6.4560
   17.520    5.9610
   17.550    6.3402
   17.580    6.1717
   17.610    6.0558
   17.640    6.4455
   17.670    6.1085
   17.700    6.3823
   17.730    6.3507
   17.760    6.2559
   17.790    6.3086
   17.820    5.8241
   17.850    6.1401
   17.880    6.1611
   17.910    5.9084
   17.940    6.4455
   17.970    5.9505
   18.000    6.1927
   18.030    6.1085
   18.060    6.0453
   18.090    6.4350
   18.120    6.0032
   18.150    6.3928
   18.180    6.3612
   18.210    5.7188
   18.240    6.4876
   18.270    6.0242
   18.300    6.2243
   18.330    6.7615
   18.360    6.5087
   18.390    6.1506
   18.420    6.3086
   18.450    6.0769
   18.480    6.2138
   18.510    6.4350
   18.540    6.1927
   18.570    6.2243
   18.600    6.2559
   18.630    6.3296
   18.660    6.7615
   18.690    6.4350
   18.720    6.4560
   18.750    6.3928
   18.780    6.1190
   18.810    6.8246
   18.840    6.8562
   18.870    6.7930
   18.900    6.6561
   18.930    6.6983
   18.960    7.3407
   18.990    7.2459
   19.020    6.9089
   19.050    6.9089
   19.080    6.3191
   19.110    5.9926
   19.140    6.7088
   19.170    6.5298
   19.200    6.3612
   19.230    6.3507
   19.260    6.4560
   19.290    6.1401
   19.320    6.3928
   19.350    6.7299
   19.380    6.5298
   19.410    6.4666
   19.440    6.5613
   19.470    6.3823
   19.500    6.8246
   19.530    6.4982
   19.560    6.4139
   19.590    5.8978
   19.620    6.5508
   19.650    6.0769
   19.680    6.4350
   19.710    6.0137
   19.740    6.8036
   19.770    6.4350
   19.800    6.3718
   19.830    6.5508
   19.860    6.8773
   19.890    6.2665
   19.920    6.2349
   19.950    6.4034
   19.980    6.6035
   20.010    6.1295
   20.040    6.1506
   20.070    6.2770
   20.100    6.1717
   20.130    6.8562
   20.160    6.5719
   20.190    6.7509
   20.220    6.1717
   20.250    6.2981
   20.280    6.0874
   20.310    6.4455
   20.340    6.2665
   20.370    6.3612
   20.400    6.1401
   20.430    6.5508
   20.460    6.5719
   20.490    6.1085
   20.520    6.7930
   20.550    6.3612
   20.580    6.6140
   20.610    6.6035
   20.640    6.2875
   20.670    6.6456
   20.700    6.3823
   20.730    6.5087
   20.760    6.5192
   20.790    6.7193
   20.820    6.2665
   20.850    6.8036
   20.880    6.0453
   20.910    6.4982
   20.940    6.3612
   20.970    6.6983
   21.000    6.6351
   21.030    6.6983
   21.060    6.6772
   21.090    6.5298
   21.120    6.4244
   21.150    6.3296
   21.180    6.3823
   21.210    6.4560
   21.240    6.4455
   21.270    6.3086
   21.300    6.0979
   21.330    6.1295
   21.360    6.5508
   21.390    6.5298
   21.420    5.9400
   21.450    6.6877
   21.480    6.4771
   21.510    6.2138
   21.540    6.2033
   21.570    6.4666
   21.600    6.4876
   21.630    6.2981
   21.660    6.1295
   21.690    6.3402
   21.720    6.0979
   21.750    6.7404
   21.780    6.5087
   21.810    6.1717
   21.840    6.2770
   21.870    6.0664
   21.900    6.2033
   21.930    5.9505
   21.960    6.3507
   21.990    6.5824
   22.020    6.4350
   22.050    6.2875
   22.080    6.1927
   22.110    6.0453
   22.140    6.4350
   22.170    5.9084
   22.200    5.9926
   22.230    6.3718
   22.260    6.1295
   22.290    6.3612
   22.320    6.2875
   22.350    6.2033
   22.380    5.9821
   22.410    6.1506
   22.440    6.1401
   22.470    6.0979
   22.500    6.3928
   22.530    6.4560
   22.560    6.8668
   22.590    6.4560
   22.620    6.0453
   22.650    6.0032
   22.680    5.9716
   22.710    6.0979
   22.740    5.7715
   22.770    5.9189
   22.800    5.8662
   22.830    6.0453
   22.860    5.7504
   22.890    6.2033
   22.920    6.4771
   22.950    6.1927
   22.980    6.3718
   23.010    5.7399
   23.040    6.3928
   23.070    6.1085
   23.100    6.0032
   23.130    6.2349
   23.160    6.1927
   23.190    6.2454
   23.220    5.7715
   23.250    5.7083
   23.280    5.8662
   23.310    5.4239
   23.340    5.5082
   23.370    5.6029
   23.400    6.0769
   23.430    5.9400
   23.460    5.8241
   23.490    5.5924
   23.520    6.1401
   23.550    5.9505
   23.580    5.8873
   23.610    5.7715
   23.640    5.9505
   23.670    5.8452
   23.700    5.8557
   23.730    5.4976
   23.760    5.5503
   23.790    5.6977
   23.820    5.8031
   23.850    5.9294
   23.880    5.5819
   23.910    5.5819
   23.940    5.5924
   23.970    5.8978
   24.000    5.7188
   24.030    5.5292
   24.060    5.5819
   24.090    5.4450
   24.120    5.2765
   24.150    5.3397
   24.180    5.5082
   24.210    5.7293
   24.240    5.6135
   24.270    5.3502
   24.300    5.5187
   24.330    5.9189
   24.360    5.3186
   24.390    5.7188
   24.420    5.8873
   24.450    5.6029
   24.480    5.6977
   24.510    5.4450
   24.540    5.3818
   24.570    5.9400
   24.600    5.0132
   24.630    5.3923
   24.660    5.4239
   24.690    5.5714
   24.720    5.5082
   24.750    5.2659
   24.780    5.5819
   24.810    5.3818
   24.840    5.0342
   24.870    5.0342
   24.900    5.4871
   24.930    5.5608
   24.960    5.5608
   24.990    5.0974
   25.020    5.2133
   25.050    5.0974
   25.080    5.0448
   25.110    4.8025
   25.140    5.4028
   25.170    5.3923
   25.200    5.1185
   25.230    5.2343
   25.260    4.9078
   25.290    4.9710
   25.320    5.3818
   25.350    4.9921
   25.380    5.2027
   25.410    4.8236
   25.440    5.2133
   25.470    4.8973
   25.500    5.3397
   25.530    5.4239
   25.560    5.3186
   25.590    4.9710
   25.620    5.3291
   25.650    4.9605
   25.680    4.8868
   25.710    5.2975
   25.740    5.3502
   25.770    4.6340
   25.800    4.8236
   25.830    5.0342
   25.860    4.6867
   25.890    4.8657
   25.920    4.4971
   25.950    5.1080
   25.980    5.0132
   26.010    4.9078
   26.040    4.6445
   26.070    4.8763
   26.100    5.0553
   26.130    5.0237
   26.160    4.7393
   26.190    4.6551
   26.220    4.7920
   26.250    4.9605
   26.280    4.8236
   26.310    4.9710
   26.340    4.7499
   26.370    4.9605
   26.400    5.0237
   26.430    4.8236
   26.460    4.7604
   26.490    4.7815
   26.520    4.6024
   26.550    4.7815
   26.580    4.9605
   26.610    4.6761
   26.640    4.5919
   26.670    4.5708
   26.700    4.4234
   26.730    4.3813
   26.760    4.3707
   26.790    4.6024
   26.820    4.7499
   26.850    4.8657
   26.880    4.2443
   26.910    4.4550
   26.940    4.5498
   26.970    4.3391
   27.000    4.8131
   27.030    4.7920
   27.060    4.7499
   27.090    4.4234
   27.120    5.0026
   27.150    4.4655
   27.180    4.4444
   27.210    4.3602
   27.240    4.5076
   27.270    4.4971
   27.300    4.0126
   27.330    4.6551
   27.360    4.2549
   27.390    4.5708
   27.420    4.5392
   27.450    4.3286
   27.480    4.4234
   27.510    4.5814
   27.540    4.6340
   27.570    4.0653
   27.600    4.5814
   27.630    4.3707
   27.660    4.1180
   27.690    4.4023
   27.720    4.3707
   27.750    4.3813
   27.780    4.1180
   27.810    4.4234
   27.840    4.3497
   27.870    4.6024
   27.900    4.4128
   27.930    4.7920
   27.960    4.7815
   27.990    4.8236
   28.020    4.9289
   28.050    4.9816
   28.080    4.6551
   28.110    4.5498
   28.140    4.2549
   28.170    4.1917
   28.200    4.2654
   28.230    4.1706
   28.260    4.4866
   28.290    4.3286
   28.320    4.2654
   28.350    4.1390
   28.380    4.2549
   28.410    4.6445
   28.440    4.1917
   28.470    4.1285
   28.500    4.0232
   28.530    4.2970
   28.560    3.9705
   28.590    4.2127
   28.620    3.8968
   28.650    3.9810
   28.680    4.3602
   28.710    4.2338
   28.740    4.1601
   28.770    4.1285
   28.800    4.3707
   28.830    4.0232
   28.860    4.2338
   28.890    4.4971
   28.920    4.6130
   28.950    4.5919
   28.980    4.4339
   29.010    4.5919
   29.040    4.3813
   29.070    4.3918
   29.100    4.1390
   29.130    4.3181
   29.160    3.8968
   29.190    3.9284
   29.220    3.9073
   29.250    3.9600
   29.280    3.9600
   29.310    3.5598
   29.340    3.8547
   29.370    3.9284
   29.400    3.8020
   29.430    3.8020
   29.460    3.9600
   29.490    3.6124
   29.520    3.8441
   29.550    3.8125
   29.580    3.5914
   29.610    3.6756
   29.640    3.7072
   29.670    3.7704
   29.700    3.7493
   29.730    3.6019
   29.760    3.6546
   29.790    4.0758
   29.820    3.7599
   29.850    3.8441
   29.880    3.7283
   29.910    3.3702
   29.940    3.8020
   29.970    3.8125
   30.000    3.6756
   30.030    3.7283
   30.060    3.6124
   30.090    3.6967
   30.120    3.5914
   30.150    3.5598
   30.180    3.4966
   30.210    3.5598
   30.240    3.6335
   30.270    3.6440
   30.300    3.4755
   30.330    3.4966
   30.360    3.6440
   30.390    3.6124
   30.420    3.2543
   30.450    3.4544
   30.480    3.4755
   30.510    3.5808
   30.540    3.4018
   30.570    3.3702
   30.600    3.6230
   30.630    3.4018
   30.660    3.3807
   30.690    3.4650
   30.720    3.3913
   30.750    3.6335
   30.780    3.5071
   30.810    3.4650
   30.840    3.4439
   30.870    3.4544
   30.900    3.4018
   30.930    3.2017
   30.960    3.2227
   30.990    3.4544
   31.020    3.1069
   31.050    3.7177
   31.080    3.3702
   31.110    3.3070
   31.140    3.1385
   31.170    3.5598
   31.200    3.1280
   31.230    3.5703
   31.260    3.3070
   31.290    3.2754
   31.320    3.3807
   31.350    3.3386
   31.380    3.3913
   31.410    3.4966
   31.440    3.2438
   31.470    3.4229
   31.500    3.4544
   31.530    3.5071
   31.560    3.1806
   31.590    3.4123
   31.620    3.4650
   31.650    3.2754
   31.680    3.7072
   31.710    3.2227
   31.740    3.5492
   31.770    3.9810
   31.800    3.6124
   31.830    3.5492
   31.860    3.7283
   31.890    3.6967
   31.920    3.5387
   31.950    3.3913
   31.980    3.5492
   32.010    3.7809
   32.040    4.1601
   32.070    4.2549
   32.100    4.5076
   32.130    4.3391
   32.160    4.3286
   32.190    3.8441
   32.220    3.2333
   32.250    3.2122
   32.280    3.1806
   32.310    2.9068
   32.340    3.0964
   32.370    3.0648
   32.400    2.7593
   32.430    2.9910
   32.460    3.3281
   32.490    3.1069
   32.520    2.8541
   32.550    3.2649
   32.580    3.1596
   32.610    3.0121
   32.640    3.1806
   32.670    2.8120
   32.700    2.9384
   32.730    2.9910
   32.760    2.9595
   32.790    2.9805
   32.820    2.7909
   32.850    2.8436
   32.880    2.9384
   32.910    2.8225
   32.940    2.7699
   32.970    3.1596
   33.000    2.9910
   33.030    2.8857
   33.060    2.9068
   33.090    2.5698
   33.120    2.5698
   33.150    2.9384
   33.180    3.0437
   33.210    2.9279
   33.240    2.8015
   33.270    2.8015
   33.300    2.8647
   33.330    2.7383
   33.360    3.1280
   33.390    2.8331
   33.420    2.7172
   33.450    2.8963
   33.480    2.6751
   33.510    2.6540
   33.540    2.8752
   33.570    2.9068
   33.600    2.7909
   33.630    2.7172
   33.660    2.9805
   33.690    2.8015
   33.720    3.2122
   33.750    3.2859
   33.780    3.2438
   33.810    3.4439
   33.840    3.5176
   33.870    3.2965
   33.900    3.0542
   33.930    3.0437
   33.960    3.0016
   33.990    3.0964
   34.020    2.8331
   34.050    2.8015
   34.080    2.6751
   34.110    2.6435
   34.140    2.7488
   34.170    2.9910
   34.200    2.7488
   34.230    2.4434
   34.260    2.5171
   34.290    2.6014
   34.320    2.9173
   34.350    2.6224
   34.380    2.8225
   34.410    2.6646
   34.440    2.6435
   34.470    2.8647
   34.500    2.4961
   34.530    2.5171
   34.560    2.5276
   34.590    2.7172
   34.620    2.6646
   34.650    2.7172
   34.680    2.6962
   34.710    2.9384
   34.740    2.8225
   34.770    2.7488
   34.800    2.8331
   34.830    2.6646
   34.860    2.6646
   34.890    2.3065
   34.920    2.7067
   34.950    2.5592
   34.980    2.6119
   35.010    2.6962
   35.040    2.6540
   35.070    2.6435
   35.100    2.6014
   35.130    2.5171
   35.160    2.6540
   35.190    2.5803
   35.220    2.2959
   35.250    2.7172
   35.280    2.6962
   35.310    2.6224
   35.340    2.5698
   35.370    2.5276
   35.400    2.4750
   35.430    2.5698
   35.460    2.4750
   35.490    2.6646
   35.520    2.5698
   35.550    2.4329
   35.580    2.5487
   35.610    2.7383
   35.640    2.5171
   35.670    2.6646
   35.700    2.3486
   35.730    2.2749
   35.760    2.5171
   35.790    2.6540
   35.820    2.4961
   35.850    2.4223
   35.880    2.5908
   35.910    2.7699
   35.940    2.4645
   35.970    2.5066
   36.000    2.5066
   36.030    2.6014
   36.060    2.6962
   36.090    2.3907
   36.120    2.5698
   36.150    2.6435
   36.180    2.5803
   36.210    2.7278
   36.240    2.5487
   36.270    2.3065
   36.300    2.3486
   36.330    2.5382
   36.360    2.5171
   36.390    2.4855
   36.420    2.4223
   36.450    2.4434
   36.480    2.5276
   36.510    2.5066
   36.540    2.4434
   36.570    2.4434
   36.600    2.3697
   36.630    2.6119
   36.660    2.3170
   36.690    2.6224
   36.720    2.3802
   36.750    2.2538
   36.780    2.3802
   36.810    2.5908
   36.840    2.4118
   36.870    2.5171
   36.900    2.2749
   36.930    2.3065
   36.960    2.4539
   36.990    2.2854
   37.020    2.2328
   37.050    2.3065
   37.080    2.5698
   37.110    2.3697
   37.140    2.1380
   37.170    2.1801
   37.200    2.4329
   37.230    2.0853
   37.260    2.2012
   37.290    2.2328
   37.320    2.2538
   37.350    2.5803
   37.380    2.4118
   37.410    2.5803
   37.440    2.2222
   37.470    2.2749
   37.500    2.3170
   37.530    2.4645
   37.560    2.5276
   37.590    2.2538
   37.620    2.2328
   37.650    2.3065
   37.680    2.3275
   37.710    2.4223
   37.740    2.5171
   37.770    2.0642
   37.800    2.6014
   37.830    2.3802
   37.860    2.0748
   37.890    2.4855
   37.920    2.5698
   37.950    2.3802
   37.980    2.2959
   38.010    2.4539
   38.040    2.4223
   38.070    2.3275
   38.100    2.4329
   38.130    2.2959
   38.160    2.2643
   38.190    2.1696
   38.220    2.4855
   38.250    2.3275
   38.280    2.0221
   38.310    2.4118
   38.340    2.4645
   38.370    2.6119
   38.400    2.1169
   38.430    2.5698
   38.460    2.0958
   38.490    2.2012
   38.520    2.6014
   38.550    2.7278
   38.580    2.5487
   38.610    2.5171
   38.640    2.5066
   38.670    2.3381
   38.700    2.3486
   38.730    2.1801
   38.760    2.1696
   38.790    2.3591
   38.820    2.3907
   38.850    2.3802
   38.880    2.2433
   38.910    2.2538
   38.940    2.4434
   38.970    2.4223
   39.000    2.4434
   39.030    2.3381
   39.060    2.0748
   39.090    2.2222
   39.120    2.3381
   39.150    2.1590
   39.180    2.3802
   39.210    2.2749
   39.240    2.4013
   39.270    2.5908
   39.300    2.5908
   39.330    2.3170
   39.360    2.1906
   39.390    2.3381
   39.420    2.2538
   39.450    2.2854
   39.480    2.2538
   39.510    2.3275
   39.540    2.1380
   39.570    2.2433
   39.600    2.1590
   39.630    2.3275
   39.660    2.3170
   39.690    2.3802
   39.720    2.2328
   39.750    2.4750
   39.780    2.3591
   39.810    2.1169
   39.840    2.3170
   39.870    2.4118
   39.900    2.1801
   39.930    2.3486
   39.960    2.4118
   39.990    2.2643