File: data/PXRD/PXRD_KE-187_Cu-Ka1_capillary-1mm_5s-deg.xyd
    1.500   21.6430
    1.530   21.2217
    1.560   21.0111
    1.590   19.5050
    1.620   18.1569
    1.650   18.1780
    1.680   16.6614
    1.710   16.5350
    1.740   15.3870
    1.770   15.1237
    1.800   14.5972
    1.830   13.7019
    1.860   13.5018
    1.890   12.8383
    1.920   12.6277
    1.950   12.4171
    1.980   11.6588
    2.010   11.5008
    2.040   10.3002
    2.070   11.0900
    2.100   10.3423
    2.130   10.5635
    2.160   10.1422
    2.190   10.3318
    2.220    9.5629
    2.250    9.6367
    2.280    9.4471
    2.310    9.0574
    2.340    8.8889
    2.370    8.6572
    2.400    8.7204
    2.430    8.5940
    2.460    7.8462
    2.490    8.4466
    2.520    8.6045
    2.550    8.4676
    2.580    8.4887
    2.610    8.1201
    2.640    8.0885
    2.670    8.6467
    2.700    8.2149
    2.730    8.5203
    2.760    8.8152
    2.790    9.1101
    2.820    9.1627
    2.850   10.1316
    2.880    9.5840
    2.910   10.8689
    2.940   11.0795
    2.970   11.4481
    3.000   12.3328
    3.030   13.4387
    3.060   13.7967
    3.090   14.7657
    3.120   16.1453
    3.150   17.8199
    3.180   19.6103
    3.210   22.0221
    3.240   23.8020
    3.270   26.6456
    3.300   30.4265
    3.330   34.9131
    3.360   40.5477
    3.390   46.3612
    3.420   53.3965
    3.450   56.3560
    3.480   58.2412
    3.510   54.2180
    3.540   45.9189
    3.570   37.3881
    3.600   32.3223
    3.630   29.8157
    3.660   28.7414
    3.690   28.7098
    3.720   30.3107
    3.750   33.3228
    3.780   36.9142
    3.810   43.0437
    3.840   52.4908
    3.870   66.1927
    3.900   68.0674
    3.930   48.0674
    3.960   25.9400
    3.990   22.2012
    4.020   21.8536
    4.050   21.1585
    4.080   20.8847
    4.110   19.5682
    4.140   18.0095
    4.170   16.8510
    4.200   16.6403
    4.230   14.5656
    4.260   13.9758
    4.290   12.4908
    4.320   11.6377
    4.350   10.2896
    4.380    9.1838
    4.410    9.0153
    4.440    8.4044
    4.470    7.8884
    4.500    7.2775
    4.530    6.6140
    4.560    6.0979
    4.590    5.6556
    4.620    5.8031
    4.650    5.5503
    4.680    5.0869
    4.710    4.8025
    4.740    5.2343
    4.770    4.5814
    4.800    4.5814
    4.830    4.4023
    4.860    4.3181
    4.890    4.3391
    4.920    4.6761
    4.950    3.8020
    4.980    4.2654
    5.010    4.1180
    5.040    4.0653
    5.070    4.2233
    5.100    3.9389
    5.130    4.3497
    5.160    4.0337
    5.190    4.8447
    5.220    4.4866
    5.250    4.9394
    5.280    5.0974
    5.310    4.8447
    5.340    5.6977
    5.370    6.0558
    5.400    6.8352
    5.430    8.0463
    5.460    9.8368
    5.490   12.6804
    5.520   13.2491
    5.550    9.7314
    5.580    4.7077
    5.610    3.7072
    5.640    3.4334
    5.670    3.3281
    5.700    3.2754
    5.730    3.2122
    5.760    3.4966
    5.790    3.2333
    5.820    3.4229
    5.850    3.3702
    5.880    3.3070
    5.910    3.3597
    5.940    3.0542
    5.970    3.5703
    6.000    3.3597
    6.030    3.2122
    6.060    3.4650
    6.090    3.2333
    6.120    3.2965
    6.150    3.1806
    6.180    3.2438
    6.210    2.9173
    6.240    3.1490
    6.270    3.0858
    6.300    3.2017
    6.330    3.1385
    6.360    3.0121
    6.390    3.4229
    6.420    3.5914
    6.450    3.4439
    6.480    3.1701
    6.510    3.5808
    6.540    3.6230
    6.570    3.7072
    6.600    3.7915
    6.630    3.6862
    6.660    4.4760
    6.690    4.6867
    6.720    4.7077
    6.750    5.7504
    6.780    5.9505
    6.810    5.5292
    6.840    5.4028
    6.870    6.0032
    6.900    6.8036
    6.930    6.6140
    6.960    7.6040
    6.990    8.0147
    7.020    7.3618
    7.050    6.6140
    7.080    5.4976
    7.110    5.0026
    7.140    4.3602
    7.170    4.0969
    7.200    4.0021
    7.230    3.3597
    7.260    3.6967
    7.290    3.5176
    7.320    3.4229
    7.350    3.7599
    7.380    3.4650
    7.410    3.4123
    7.440    3.5598
    7.470    3.4334
    7.500    3.4860
    7.530    3.2543
    7.560    3.8547
    7.590    3.8336
    7.620    3.8652
    7.650    3.5492
    7.680    4.1074
    7.710    4.4128
    7.740    4.8131
    7.770    4.9394
    7.800    5.8873
    7.830    5.2765
    7.860    4.6130
    7.890    3.7915
    7.920    3.8652
    7.950    3.9600
    7.980    4.1180
    8.010    4.0337
    8.040    3.8441
    8.070    3.8231
    8.100    4.0758
    8.130    3.9705
    8.160    4.3918
    8.190    4.2654
    8.220    3.8968
    8.250    4.3181
    8.280    4.1811
    8.310    3.9705
    8.340    4.0337
    8.370    4.2127
    8.400    4.6024
    8.430    3.8231
    8.460    4.2022
    8.490    4.1917
    8.520    4.0653
    8.550    4.2549
    8.580    3.6651
    8.610    3.8125
    8.640    3.8441
    8.670    3.5176
    8.700    3.9073
    8.730    3.7599
    8.760    3.7177
    8.790    3.4018
    8.820    3.3807
    8.850    3.5808
    8.880    3.3913
    8.910    3.2438
    8.940    3.0964
    8.970    3.1069
    9.000    3.0542
    9.030    3.3070
    9.060    3.0964
    9.090    3.2965
    9.120    3.2438
    9.150    3.2859
    9.180    3.0437
    9.210    2.8015
    9.240    2.9489
    9.270    3.1701
    9.300    3.2859
    9.330    2.9910
    9.360    3.1912
    9.390    3.2859
    9.420    3.3913
    9.450    3.7809
    9.480    4.1390
    9.510    4.8552
    9.540    6.5087
    9.570    6.8036
    9.600    6.1295
    9.630    4.3391
    9.660    3.0648
    9.690    3.0648
    9.720    2.7699
    9.750    2.9489
    9.780    3.0226
    9.810    2.8752
    9.840    2.8857
    9.870    2.9068
    9.900    2.8015
    9.930    2.5908
    9.960    3.0542
    9.990    2.8752
   10.020    2.7172
   10.050    3.2438
   10.080    2.8331
   10.110    3.0016
   10.140    2.7593
   10.170    2.9910
   10.200    3.4439
   10.230    3.2333
   10.260    3.4439
   10.290    3.5282
   10.320    4.0969
   10.350    4.6130
   10.380    3.8757
   10.410    3.1596
   10.440    3.4650
   10.470    3.2122
   10.500    3.0753
   10.530    2.9279
   10.560    2.9805
   10.590    3.0121
   10.620    2.9489
   10.650    3.0437
   10.680    2.8436
   10.710    2.8963
   10.740    2.6751
   10.770    2.8752
   10.800    2.7488
   10.830    2.8647
   10.860    2.9173
   10.890    2.5066
   10.920    2.7804
   10.950    3.0964
   10.980    3.2333
   11.010    3.4860
   11.040    4.0337
   11.070    3.9600
   11.100    3.5598
   11.130    3.0858
   11.160    3.0016
   11.190    2.9173
   11.220    2.8120
   11.250    2.8541
   11.280    2.6540
   11.310    2.7172
   11.340    3.0542
   11.370    2.8015
   11.400    2.5487
   11.430    2.7804
   11.460    2.5803
   11.490    2.8752
   11.520    2.9489
   11.550    2.8647
   11.580    2.6435
   11.610    3.1490
   11.640    3.2333
   11.670    3.4860
   11.700    3.7915
   11.730    4.0021
   11.760    4.1180
   11.790    3.3281
   11.820    2.9489
   11.850    2.8436
   11.880    2.8857
   11.910    2.5171
   11.940    2.8436
   11.970    2.9700
   12.000    2.8436
   12.030    2.6751
   12.060    2.8857
   12.090    2.6435
   12.120    2.8541
   12.150    2.9068
   12.180    2.8120
   12.210    2.7278
   12.240    2.9805
   12.270    3.1174
   12.300    3.0858
   12.330    3.0858
   12.360    3.1280
   12.390    3.1596
   12.420    3.0332
   12.450    3.2333
   12.480    3.0016
   12.510    2.8752
   12.540    2.9595
   12.570    2.5698
   12.600    2.8857
   12.630    2.6224
   12.660    3.0226
   12.690    3.1174
   12.720    2.8015
   12.750    2.9279
   12.780    2.8857
   12.810    2.8647
   12.840    3.0753
   12.870    2.6646
   12.900    3.0648
   12.930    3.4650
   12.960    3.9810
   12.990    3.8863
   13.020    3.6019
   13.050    2.9910
   13.080    2.7593
   13.110    2.8225
   13.140    2.7383
   13.170    2.6856
   13.200    2.9279
   13.230    2.9384
   13.260    2.6962
   13.290    2.7804
   13.320    2.8963
   13.350    2.9595
   13.380    2.5803
   13.410    2.8647
   13.440    2.7909
   13.470    2.8857
   13.500    3.0753
   13.530    2.9173
   13.560    3.1385
   13.590    3.2965
   13.620    2.6540
   13.650    2.7909
   13.680    2.8752
   13.710    2.4539
   13.740    2.7278
   13.770    2.6751
   13.800    2.9595
   13.830    2.7278
   13.860    2.6751
   13.890    2.6751
   13.920    2.6856
   13.950    2.9805
   13.980    2.8541
   14.010    2.8541
   14.040    2.9805
   14.070    2.8963
   14.100    3.2859
   14.130    3.4755
   14.160    3.0964
   14.190    2.8963
   14.220    2.7488
   14.250    2.7699
   14.280    2.5698
   14.310    2.4961
   14.340    2.6119
   14.370    2.8436
   14.400    2.9279
   14.430    2.9805
   14.460    2.5592
   14.490    2.8225
   14.520    2.6856
   14.550    2.9489
   14.580    2.4329
   14.610    2.6540
   14.640    2.5487
   14.670    2.6540
   14.700    2.6856
   14.730    2.6646
   14.760    2.6119
   14.790    2.6330
   14.820    2.6435
   14.850    2.4855
   14.880    2.7067
   14.910    2.4855
   14.940    2.4223
   14.970    2.7383
   15.000    2.5171
   15.030    2.5803
   15.060    2.6962
   15.090    2.7488
   15.120    2.7699
   15.150    2.7172
   15.180    2.9279
   15.210    2.7172
   15.240    2.6646
   15.270    2.6330
   15.300    2.5066
   15.330    2.6751
   15.360    2.7067
   15.390    2.8752
   15.420    2.7909
   15.450    2.7593
   15.480    2.6751
   15.510    2.8857
   15.540    2.5487
   15.570    2.6435
   15.600    2.9279
   15.630    2.4223
   15.660    2.6540
   15.690    2.8225
   15.720    2.6435
   15.750    2.8647
   15.780    2.9173
   15.810    2.7383
   15.840    2.7383
   15.870    2.8436
   15.900    2.9700
   15.930    2.7383
   15.960    2.7488
   15.990    2.8647
   16.020    2.9173
   16.050    2.6751
   16.080    2.9595
   16.110    2.6751
   16.140    2.9805
   16.170    2.9805
   16.200    2.4855
   16.230    2.8857
   16.260    2.8225
   16.290    2.7278
   16.320    2.7909
   16.350    2.5698
   16.380    2.7488
   16.410    2.8225
   16.440    2.4539
   16.470    2.4118
   16.500    2.7383
   16.530    2.7909
   16.560    2.7172
   16.590    2.7909
   16.620    3.2017
   16.650    2.8120
   16.680    3.1280
   16.710    2.8541
   16.740    3.0226
   16.770    2.6330
   16.800    2.4645
   16.830    2.6224
   16.860    2.6962
   16.890    2.4539
   16.920    2.6119
   16.950    2.6856
   16.980    2.6119
   17.010    3.0332
   17.040    3.1806
   17.070    3.1385
   17.100    3.4650
   17.130    3.4123
   17.160    2.5908
   17.190    2.6540
   17.220    2.7383
   17.250    2.6646
   17.280    2.5382
   17.310    2.7909
   17.340    2.5382
   17.370    2.7593
   17.400    2.7172
   17.430    2.8752
   17.460    2.6962
   17.490    2.9068
   17.520    2.6856
   17.550    2.9489
   17.580    2.9700
   17.610    2.9173
   17.640    2.8225
   17.670    2.6330
   17.700    2.8225
   17.730    2.8436
   17.760    2.7593
   17.790    2.6751
   17.820    2.7278
   17.850    2.9068
   17.880    2.8541
   17.910    2.7488
   17.940    3.0121
   17.970    2.8857
   18.000    2.7067
   18.030    3.0753
   18.060    2.6224
   18.090    2.7593
   18.120    2.7067
   18.150    2.8857
   18.180    2.5908
   18.210    2.8015
   18.240    2.8015
   18.270    2.8015
   18.300    2.7278
   18.330    2.6962
   18.360    2.6540
   18.390    2.9489
   18.420    3.0121
   18.450    2.7909
   18.480    2.8647
   18.510    2.5698
   18.540    3.1596
   18.570    2.7488
   18.600    2.8752
   18.630    2.6330
   18.660    2.7172
   18.690    2.7909
   18.720    2.8331
   18.750    2.4645
   18.780    2.8963
   18.810    2.9910
   18.840    2.4013
   18.870    2.9068
   18.900    2.7278
   18.930    2.7383
   18.960    2.7172
   18.990    2.7593
   19.020    3.0648
   19.050    2.6751
   19.080    2.9595
   19.110    2.8752
   19.140    2.8647
   19.170    2.9805
   19.200    2.9384
   19.230    2.7172
   19.260    2.7488
   19.290    2.7278
   19.320    2.7383
   19.350    2.7278
   19.380    2.9489
   19.410    2.4118
   19.440    2.9384
   19.470    3.1280
   19.500    2.5908
   19.530    2.8541
   19.560    3.0121
   19.590    3.0858
   19.620    3.0964
   19.650    3.1596
   19.680    3.1174
   19.710    2.9384
   19.740    2.7699
   19.770    2.9700
   19.800    2.8752
   19.830    2.8331
   19.860    3.0542
   19.890    2.8963
   19.920    2.9279
   19.950    2.8331
   19.980    2.7172
   20.010    2.8225
   20.040    2.9068
   20.070    3.1069
   20.100    3.0121
   20.130    2.7909
   20.160    2.8647
   20.190    3.0648
   20.220    2.8857
   20.250    2.9384
   20.280    2.9068
   20.310    2.9595
   20.340    3.0753
   20.370    3.1174
   20.400    3.4018
   20.430    3.4755
   20.460    3.3070
   20.490    2.9384
   20.520    2.9068
   20.550    3.0753
   20.580    2.8015
   20.610    3.2438
   20.640    2.8647
   20.670    2.6856
   20.700    2.9805
   20.730    3.0964
   20.760    2.9805
   20.790    2.9700
   20.820    2.8541
   20.850    3.0648
   20.880    2.8541
   20.910    2.9384
   20.940    2.8120
   20.970    2.9279
   21.000    2.8436
   21.030    3.0121
   21.060    2.8225
   21.090    3.1280
   21.120    3.0121
   21.150    3.0226
   21.180    3.0437
   21.210    3.2017
   21.240    2.6856
   21.270    2.7593
   21.300    2.9595
   21.330    2.8015
   21.360    3.1280
   21.390    3.0016
   21.420    3.2227
   21.450    2.9805
   21.480    2.9279
   21.510    2.8331
   21.540    2.9173
   21.570    3.0121
   21.600    3.0964
   21.630    2.8857
   21.660    2.7383
   21.690    2.7804
   21.720    2.7593
   21.750    3.0542
   21.780    2.7488
   21.810    3.2017
   21.840    3.0648
   21.870    3.0121
   21.900    3.1280
   21.930    3.0121
   21.960    3.1701
   21.990    3.0964
   22.020    3.1069
   22.050    2.8541
   22.080    3.1806
   22.110    2.9700
   22.140    3.1069
   22.170    2.9805
   22.200    3.0016
   22.230    3.2122
   22.260    2.9384
   22.290    3.3702
   22.320    2.9384
   22.350    2.9068
   22.380    3.0016
   22.410    2.8541
   22.440    2.7909
   22.470    3.0121
   22.500    2.8647
   22.530    3.5282
   22.560    3.1385
   22.590    3.4755
   22.620    3.5703
   22.650    3.4650
   22.680    3.3175
   22.710    3.1174
   22.740    3.2754
   22.770    3.0858
   22.800    2.8120
   22.830    3.1701
   22.860    3.0964
   22.890    3.1490
   22.920    3.4755
   22.950    3.5282
   22.980    3.6019
   23.010    3.3175
   23.040    3.3281
   23.070    3.0016
   23.100    2.7488
   23.130    3.1596
   23.160    2.7172
   23.190    2.7593
   23.220    2.8225
   23.250    3.0858
   23.280    2.8331
   23.310    3.0753
   23.340    2.9173
   23.370    2.9279
   23.400    2.8120
   23.430    2.8541
   23.460    2.8541
   23.490    2.8225
   23.520    2.6751
   23.550    3.0226
   23.580    2.7172
   23.610    2.8963
   23.640    2.8120
   23.670    3.1385
   23.700    2.8225
   23.730    3.1385
   23.760    2.7593
   23.790    2.8541
   23.820    2.6751
   23.850    2.9173
   23.880    2.8963
   23.910    3.1806
   23.940    2.7593
   23.970    3.1069
   24.000    2.9910
   24.030    3.0648
   24.060    2.7909
   24.090    2.8331
   24.120    2.7699
   24.150    2.8225
   24.180    2.6751
   24.210    2.8647
   24.240    2.8647
   24.270    3.1385
   24.300    2.8120
   24.330    2.8647
   24.360    2.6224
   24.390    2.4961
   24.420    2.7909
   24.450    2.6856
   24.480    2.5698
   24.510    2.7593
   24.540    2.9173
   24.570    3.0648
   24.600    2.7593
   24.630    2.5487
   24.660    3.1280
   24.690    2.8120
   24.720    2.9384
   24.750    2.8015
   24.780    2.9805
   24.810    2.8857
   24.840    2.9910
   24.870    2.9700
   24.900    2.5487
   24.930    2.8120
   24.960    2.9279
   24.990    2.6330
   25.020    2.5908
   25.050    2.7699
   25.080    2.9595
   25.110    2.8436
   25.140    2.6224
   25.170    3.0964
   25.200    2.6224
   25.230    2.7488
   25.260    2.7804
   25.290    2.8120
   25.320    2.6224
   25.350    3.0542
   25.380    2.6751
   25.410    2.6540
   25.440    2.6646
   25.470    2.6751
   25.500    2.8120
   25.530    2.5803
   25.560    2.6119
   25.590    2.8963
   25.620    2.7488
   25.650    2.5487
   25.680    2.6751
   25.710    2.8857
   25.740    2.6856
   25.770    2.7383
   25.800    2.8752
   25.830    3.0121
   25.860    3.1490
   25.890    3.0648
   25.920    2.9489
   25.950    2.7593
   25.980    2.7488
   26.010    2.7172
   26.040    2.6646
   26.070    2.5803
   26.100    2.7909
   26.130    2.5066
   26.160    2.7067
   26.190    2.6330
   26.220    2.6751
   26.250    2.6540
   26.280    2.4645
   26.310    2.7699
   26.340    2.7278
   26.370    2.7593
   26.400    2.7593
   26.430    2.8963
   26.460    2.7488
   26.490    2.5382
   26.520    2.5276
   26.550    2.6751
   26.580    2.3275
   26.610    2.5592
   26.640    2.6751
   26.670    2.8120
   26.700    2.4329
   26.730    2.5698
   26.760    2.5066
   26.790    2.5698
   26.820    2.6014
   26.850    2.4329
   26.880    2.8015
   26.910    2.6856
   26.940    2.9279
   26.970    2.6962
   27.000    2.7593
   27.030    2.8331
   27.060    2.8120
   27.090    2.5171
   27.120    2.5487
   27.150    2.5592
   27.180    2.5803
   27.210    2.5592
   27.240    2.2012
   27.270    2.7172
   27.300    2.5171
   27.330    2.4223
   27.360    2.2222
   27.390    2.5487
   27.420    2.5592
   27.450    2.7593
   27.480    2.2117
   27.510    2.5276
   27.540    2.6751
   27.570    2.6540
   27.600    2.5171
   27.630    2.4329
   27.660    2.6751
   27.690    2.3802
   27.720    2.5171
   27.750    2.4013
   27.780    2.6224
   27.810    2.6119
   27.840    2.6435
   27.870    2.6856
   27.900    2.3381
   27.930    2.3697
   27.960    2.7804
   27.990    2.5066
   28.020    2.8541
   28.050    2.6119
   28.080    2.4961
   28.110    2.9910
   28.140    2.7383
   28.170    2.9384
   28.200    2.6435
   28.230    2.8015
   28.260    2.5698
   28.290    2.5908
   28.320    2.7909
   28.350    2.4750
   28.380    2.7593
   28.410    2.6224
   28.440    2.4855
   28.470    2.8436
   28.500    2.7383
   28.530    2.3697
   28.560    2.6330
   28.590    2.3907
   28.620    2.7383
   28.650    2.5592
   28.680    2.5066
   28.710    2.6330
   28.740    2.5171
   28.770    2.4750
   28.800    2.4118
   28.830    2.6646
   28.860    2.5382
   28.890    2.6435
   28.920    2.4013
   28.950    2.5592
   28.980    2.4855
   29.010    2.3907
   29.040    2.7804
   29.070    2.5171
   29.100    2.2117
   29.130    2.5908
   29.160    2.5066
   29.190    2.7699
   29.220    2.4434
   29.250    2.4223
   29.280    2.5908
   29.310    2.6330
   29.340    2.4013
   29.370    2.5908
   29.400    2.5908
   29.430    2.4855
   29.460    2.5276
   29.490    2.6224
   29.520    2.5908
   29.550    2.2222
   29.580    2.4855
   29.610    2.4539
   29.640    2.5487
   29.670    2.4013
   29.700    2.6330
   29.730    2.4961
   29.760    2.3907
   29.790    2.5382
   29.820    2.7278
   29.850    2.6014
   29.880    2.4961
   29.910    2.6962
   29.940    2.4223
   29.970    2.4329
   30.000    2.5276
   30.030    2.3381
   30.060    2.3170
   30.090    2.5382
   30.120    2.3381
   30.150    2.4329
   30.180    2.5908
   30.210    2.3170
   30.240    2.4961
   30.270    2.2959
   30.300    2.3591
   30.330    2.4223
   30.360    2.4645
   30.390    2.6014
   30.420    2.2959
   30.450    2.3591
   30.480    2.5382
   30.510    2.5276
   30.540    2.5487
   30.570    2.5066
   30.600    2.4750
   30.630    2.5908
   30.660    2.7278
   30.690    2.5592
   30.720    2.5908
   30.750    2.4013
   30.780    2.3697
   30.810    2.3065
   30.840    2.4329
   30.870    2.3802
   30.900    2.3802
   30.930    2.4855
   30.960    2.4118
   30.990    2.5487
   31.020    2.2328
   31.050    2.3381
   31.080    2.4539
   31.110    2.3591
   31.140    2.2959
   31.170    2.2749
   31.200    2.3697
   31.230    2.6014
   31.260    2.1169
   31.290    2.2538
   31.320    2.3065
   31.350    2.2433
   31.380    2.3486
   31.410    2.3591
   31.440    2.3802
   31.470    2.1064
   31.500    2.5276
   31.530    2.2854
   31.560    2.2959
   31.590    2.2117
   31.620    2.5487
   31.650    2.4223
   31.680    2.4750
   31.710    2.4329
   31.740    2.2854
   31.770    2.6119
   31.800    2.4750
   31.830    2.3907
   31.860    2.4329
   31.890    2.3591
   31.920    2.4013
   31.950    2.5382
   31.980    2.2854
   32.010    2.5171
   32.040    2.3170
   32.070    2.5592
   32.100    2.5803
   32.130    2.5382
   32.160    2.2117
   32.190    2.2433
   32.220    2.2959
   32.250    2.3486
   32.280    2.0853
   32.310    2.2117
   32.340    2.4750
   32.370    2.3170
   32.400    2.1380
   32.430    2.1169
   32.460    2.2643
   32.490    2.2854
   32.520    2.1274
   32.550    2.1590
   32.580    2.0221
   32.610    2.2538
   32.640    2.2749
   32.670    2.1590
   32.700    2.3065
   32.730    2.1801
   32.760    2.3486
   32.790    2.3697
   32.820    2.2749
   32.850    2.3170
   32.880    2.2854
   32.910    2.1590
   32.940    2.3697
   32.970    2.3802
   33.000    2.5908
   33.030    2.3381
   33.060    2.1906
   33.090    2.1485
   33.120    2.2854
   33.150    2.3802
   33.180    2.2749
   33.210    1.9589
   33.240    2.2643
   33.270    1.9379
   33.300    2.0537
   33.330    2.2433
   33.360    1.9905
   33.390    2.4118
   33.420    2.3275
   33.450    2.1696
   33.480    2.2854
   33.510    2.2959
   33.540    2.3591
   33.570    2.1064
   33.600    2.1801
   33.630    1.9589
   33.660    2.0537
   33.690    2.2012
   33.720    2.2538
   33.750    2.3697
   33.780    2.1801
   33.810    2.1380
   33.840    2.1380
   33.870    2.3591
   33.900    2.2012
   33.930    2.4434
   33.960    2.2749
   33.990    1.9063
   34.020    2.0326
   34.050    2.0537
   34.080    1.9905
   34.110    2.0748
   34.140    2.4329
   34.170    1.9379
   34.200    2.2222
   34.230    2.0116
   34.260    2.0116
   34.290    1.9484
   34.320    1.9273
   34.350    2.0748
   34.380    2.0958
   34.410    2.0642
   34.440    2.0011
   34.470    1.9168
   34.500    1.8957
   34.530    2.0748
   34.560    2.0326
   34.590    2.0748
   34.620    2.0432
   34.650    1.9695
   34.680    2.0011
   34.710    2.1906
   34.740    2.2643
   34.770    2.2749
   34.800    1.9800
   34.830    2.1906
   34.860    2.0537
   34.890    2.0642
   34.920    2.1064
   34.950    2.0537
   34.980    2.1696
   35.010    2.0432
   35.040    1.8115
   35.070    2.0116
   35.100    1.8641
   35.130    2.1906
   35.160    2.2328
   35.190    2.0748
   35.220    2.0221
   35.250    1.9695
   35.280    2.0537
   35.310    1.9589
   35.340    1.9800
   35.370    2.1064
   35.400    2.0853
   35.430    2.3802
   35.460    2.0853
   35.490    1.9589
   35.520    2.0432
   35.550    2.0011
   35.580    2.1064
   35.610    2.1485
   35.640    1.9800
   35.670    1.9695
   35.700    2.0326
   35.730    2.0432
   35.760    1.9800
   35.790    2.0221
   35.820    2.0642
   35.850    1.9905
   35.880    2.0748
   35.910    2.1380
   35.940    1.8852
   35.970    1.9484
   36.000    1.9695
   36.030    2.0432
   36.060    2.0958
   36.090    1.8536
   36.120    2.1801
   36.150    1.9484
   36.180    1.9905
   36.210    1.9379
   36.240    1.8641
   36.270    2.0116
   36.300    1.9168
   36.330    1.8325
   36.360    1.9905
   36.390    2.0958
   36.420    1.8641
   36.450    2.0116
   36.480    1.9063
   36.510    1.8747
   36.540    1.8852
   36.570    1.9168
   36.600    1.9168
   36.630    2.2854
   36.660    1.8431
   36.690    2.1590
   36.720    1.8115
   36.750    1.8431
   36.780    2.0642
   36.810    1.8852
   36.840    1.9589
   36.870    2.0748
   36.900    1.9484
   36.930    1.8115
   36.960    2.0853
   36.990    1.6114
   37.020    1.9063
   37.050    1.9905
   37.080    1.8431
   37.110    1.8957
   37.140    1.9379
   37.170    2.2959
   37.200    1.8536
   37.230    1.9273
   37.260    1.9379
   37.290    1.7588
   37.320    1.9484
   37.350    1.8536
   37.380    1.9168
   37.410    1.7694
   37.440    1.9905
   37.470    2.0116
   37.500    1.8641
   37.530    2.0116
   37.560    1.7483
   37.590    1.9905
   37.620    1.8852
   37.650    1.8325
   37.680    2.0958
   37.710    1.8852
   37.740    1.8325
   37.770    2.1169
   37.800    1.9168
   37.830    1.8641
   37.860    2.0642
   37.890    1.9168
   37.920    1.9484
   37.950    1.8325
   37.980    2.1064
   38.010    1.9168
   38.040    1.9063
   38.070    1.9379
   38.100    1.7272
   38.130    1.8852
   38.160    2.0326
   38.190    1.8536
   38.220    1.6008
   38.250    1.9168
   38.280    2.2012
   38.310    1.7799
   38.340    1.7062
   38.370    1.9379
   38.400    1.4639
   38.430    1.8115
   38.460    1.8852
   38.490    1.8220
   38.520    1.7694
   38.550    1.9589
   38.580    1.9905
   38.610    1.8220
   38.640    1.9168
   38.670    1.8536
   38.700    1.8115
   38.730    2.0537
   38.760    1.6535
   38.790    1.8431
   38.820    2.0116
   38.850    1.8747
   38.880    2.0221
   38.910    1.8431
   38.940    1.8220
   38.970    1.9484
   39.000    1.7062
   39.030    1.6851
   39.060    1.8641
   39.090    1.6219
   39.120    2.0432
   39.150    1.8220
   39.180    1.8641
   39.210    1.9063
   39.240    1.9484
   39.270    1.8641
   39.300    1.9484
   39.330    1.8852
   39.360    1.7378
   39.390    1.8747
   39.420    1.7904
   39.450    1.7062
   39.480    1.8325
   39.510    1.8115
   39.540    1.7483
   39.570    1.8852
   39.600    1.8641
   39.630    1.9800
   39.660    1.7799
   39.690    2.0221
   39.720    1.8115
   39.750    1.8747
   39.780    2.0116
   39.810    1.7799
   39.840    1.6956
   39.870    2.0958
   39.900    1.8957
   39.930    1.9273
   39.960    1.7799
   39.990    1.6851