File: data/PXRD/PXRD_KE-221-2_Co-Ka1_capillary-1mm_5s-deg.xyd
    1.500   10.3585
    1.530   10.3906
    1.560   10.1552
    1.590    9.7699
    1.620    9.0530
    1.650    8.6998
    1.680    8.9995
    1.710    8.4002
    1.740    7.7903
    1.770    7.8438
    1.800    7.2873
    1.830    6.8486
    1.860    7.2445
    1.890    6.6132
    1.920    6.3777
    1.950    6.4741
    1.980    5.7357
    2.010    6.1102
    2.040    5.8427
    2.070    5.7036
    2.100    5.6608
    2.130    5.2970
    2.160    5.2862
    2.190    5.3933
    2.220    4.9331
    2.250    4.9224
    2.280    5.0508
    2.310    4.7512
    2.340    4.6549
    2.370    4.5907
    2.400    4.6014
    2.430    4.1841
    2.460    4.4302
    2.490    4.2376
    2.520    3.9165
    2.550    4.1948
    2.580    3.9807
    2.610    3.8309
    2.640    3.9486
    2.670    4.1520
    2.700    3.8630
    2.730    3.9700
    2.760    3.9593
    2.790    3.8630
    2.820    3.9807
    2.850    3.8202
    2.880    4.1306
    2.910    4.0449
    2.940    3.7239
    2.970    3.9486
    3.000    3.9165
    3.030    3.9058
    3.060    3.9700
    3.090    4.3018
    3.120    3.7667
    3.150    4.3553
    3.180    4.6549
    3.210    4.6977
    3.240    4.5586
    3.270    4.7619
    3.300    5.0187
    3.330    4.7405
    3.360    5.5431
    3.390    5.8106
    3.420    5.6929
    3.450    6.1209
    3.480    6.2065
    3.510    6.8379
    3.540    7.1482
    3.570    7.7047
    3.600    8.2183
    3.630    8.8497
    3.660    8.7747
    3.690    9.5452
    3.720   10.1766
    3.750   11.0326
    3.780   12.2846
    3.810   12.9909
    3.840   14.9171
    3.870   16.2547
    3.900   17.8491
    3.930   20.0535
    3.960   21.9369
    3.990   23.9272
    4.020   25.4789
    4.050   22.8678
    4.080   20.4815
    4.110   16.9074
    4.140   14.2964
    4.170   12.7020
    4.200   12.4987
    4.230   12.0813
    4.260   12.4666
    4.290   13.9326
    4.320   14.3927
    4.350   16.1584
    4.380   18.5019
    4.410   19.9679
    4.440   24.2376
    4.470   29.3205
    4.500   39.8930
    4.530   50.7223
    4.560   25.4361
    4.590   10.5190
    4.620    9.1386
    4.650    8.2718
    4.680    8.3253
    4.710    9.0530
    4.740    8.2932
    4.770    8.7426
    4.800    8.4430
    4.830    8.3146
    4.860    8.4751
    4.890    7.9294
    4.920    8.0685
    4.950    7.0305
    4.980    6.7095
    5.010    5.8855
    5.040    5.6287
    5.070    4.7298
    5.100    4.3874
    5.130    3.7774
    5.160    3.2852
    5.190    2.8357
    5.220    2.6324
    5.250    2.3542
    5.280    2.3221
    5.310    2.0011
    5.340    1.8941
    5.370    1.9476
    5.400    1.8620
    5.430    1.6265
    5.460    1.4767
    5.490    1.5944
    5.520    1.4874
    5.550    1.4018
    5.580    1.3055
    5.610    1.4874
    5.640    1.4553
    5.670    1.4232
    5.700    1.2734
    5.730    1.5623
    5.760    1.4767
    5.790    1.4446
    5.820    1.4018
    5.850    1.4446
    5.880    1.0808
    5.910    1.3162
    5.940    1.2627
    5.970    1.5195
    6.000    1.5730
    6.030    1.6051
    6.060    1.6372
    6.090    1.7549
    6.120    1.7871
    6.150    1.9904
    6.180    2.0974
    6.210    2.0225
    6.240    2.4612
    6.270    2.6217
    6.300    3.1889
    6.330    3.5206
    6.360    4.2804
    6.390    5.9283
    6.420    6.8807
    6.450    3.2638
    6.480    1.5623
    6.510    1.1236
    6.540    1.0915
    6.570    1.0487
    6.600    1.1129
    6.630    1.0273
    6.660    0.9845
    6.690    1.1664
    6.720    1.0166
    6.750    1.0166
    6.780    0.9845
    6.810    0.9738
    6.840    1.0273
    6.870    0.9631
    6.900    1.0166
    6.930    1.0380
    6.960    1.0701
    6.990    1.1557
    7.020    1.0273
    7.050    0.9417
    7.080    0.9952
    7.110    1.1985
    7.140    0.8454
    7.170    1.0380
    7.200    0.9952
    7.230    0.8668
    7.260    0.8775
    7.290    1.0166
    7.320    0.9738
    7.350    0.9631
    7.380    1.0273
    7.410    0.8775
    7.440    0.9845
    7.470    0.9096
    7.500    1.0808
    7.530    1.0273
    7.560    1.0166
    7.590    1.1557
    7.620    1.3483
    7.650    1.2841
    7.680    1.1557
    7.710    1.2199
    7.740    1.3376
    7.770    1.4339
    7.800    1.6158
    7.830    1.7871
    7.860    2.0653
    7.890    1.6158
    7.920    1.9155
    7.950    2.2365
    7.980    2.3649
    8.010    2.6217
    8.040    2.8678
    8.070    2.8678
    8.100    2.9749
    8.130    2.5254
    8.160    2.0225
    8.190    1.7549
    8.220    1.5837
    8.250    1.3697
    8.280    1.3804
    8.310    1.0166
    8.340    1.1343
    8.370    1.1022
    8.400    1.1022
    8.430    1.0380
    8.460    0.8882
    8.490    1.0273
    8.520    1.0166
    8.550    0.9417
    8.580    0.9524
    8.610    1.0915
    8.640    0.9845
    8.670    1.0273
    8.700    1.1022
    8.730    0.9845
    8.760    1.0166
    8.790    1.1343
    8.820    1.1985
    8.850    1.0701
    8.880    1.1771
    8.910    1.2199
    8.940    1.6693
    8.970    1.8085
    9.000    1.7228
    9.030    2.1937
    9.060    2.5575
    9.090    2.8892
    9.120    1.9690
    9.150    1.2092
    9.180    1.1771
    9.210    1.1878
    9.240    1.1343
    9.270    1.2199
    9.300    1.3055
    9.330    1.2413
    9.360    1.2841
    9.390    1.1129
    9.420    1.1878
    9.450    1.2734
    9.480    1.2734
    9.510    1.2627
    9.540    1.3590
    9.570    1.4232
    9.600    1.5730
    9.630    1.4232
    9.660    1.3055
    9.690    1.6158
    9.720    1.3911
    9.750    1.5088
    9.780    1.4553
    9.810    1.4981
    9.840    1.5088
    9.870    1.3055
    9.900    1.4767
    9.930    1.4446
    9.960    1.7549
    9.990    1.3269
   10.020    1.5302
   10.050    1.3804
   10.080    1.5409
   10.110    1.5409
   10.140    1.4339
   10.170    1.4553
   10.200    1.2520
   10.230    1.1985
   10.260    1.1664
   10.290    1.0915
   10.320    1.1664
   10.350    0.9310
   10.380    0.9952
   10.410    0.8775
   10.440    0.8454
   10.470    1.1022
   10.500    0.8775
   10.530    0.8133
   10.560    0.7384
   10.590    1.0059
   10.620    0.9738
   10.650    0.9952
   10.680    0.9203
   10.710    0.9845
   10.740    1.0915
   10.770    0.8775
   10.800    0.8240
   10.830    1.0273
   10.860    1.1450
   10.890    1.0594
   10.920    1.0594
   10.950    1.3483
   10.980    1.4660
   11.010    1.5516
   11.040    1.8727
   11.070    1.9155
   11.100    2.9642
   11.130    4.0128
   11.160    2.6324
   11.190    1.5944
   11.220    1.0273
   11.250    0.7598
   11.280    0.8775
   11.310    0.8668
   11.340    0.9417
   11.370    0.9203
   11.400    0.6314
   11.430    0.7063
   11.460    0.8454
   11.490    0.8454
   11.520    0.8026
   11.550    1.0059
   11.580    0.7063
   11.610    0.8454
   11.640    0.7705
   11.670    0.8882
   11.700    0.9417
   11.730    0.7812
   11.760    0.8347
   11.790    0.8240
   11.820    0.8454
   11.850    1.0273
   11.880    0.8561
   11.910    0.9738
   11.940    1.0915
   11.970    1.1985
   12.000    1.4553
   12.030    1.8513
   12.060    1.5195
   12.090    1.0808
   12.120    0.9952
   12.150    0.8454
   12.180    1.1129
   12.210    0.9631
   12.240    0.7812
   12.270    0.6528
   12.300    0.9310
   12.330    0.8347
   12.360    0.9310
   12.390    0.9096
   12.420    0.8240
   12.450    0.7812
   12.480    0.8026
   12.510    0.9631
   12.540    0.8133
   12.570    0.9524
   12.600    0.7705
   12.630    0.6635
   12.660    0.9096
   12.690    0.7384
   12.720    0.9524
   12.750    0.9524
   12.780    1.1236
   12.810    1.3055
   12.840    1.4125
   12.870    1.7121
   12.900    1.2841
   12.930    0.9952
   12.960    0.8668
   12.990    0.8454
   13.020    0.8347
   13.050    0.8347
   13.080    0.6742
   13.110    0.7705
   13.140    0.8240
   13.170    0.7277
   13.200    0.8347
   13.230    0.7277
   13.260    0.7170
   13.290    0.6742
   13.320    0.8989
   13.350    0.9738
   13.380    0.7170
   13.410    0.8240
   13.440    0.8882
   13.470    0.9845
   13.500    0.9203
   13.530    1.0487
   13.560    1.1022
   13.590    1.0594
   13.620    1.5623
   13.650    1.7657
   13.680    1.4767
   13.710    1.0273
   13.740    0.8347
   13.770    0.7170
   13.800    0.7598
   13.830    0.6100
   13.860    0.6849
   13.890    0.6207
   13.920    0.8347
   13.950    0.8989
   13.980    0.8347
   14.010    0.8133
   14.040    0.8133
   14.070    0.7598
   14.100    0.7170
   14.130    0.8026
   14.160    0.9203
   14.190    0.8775
   14.220    0.8347
   14.250    0.7277
   14.280    0.8668
   14.310    0.7598
   14.340    1.1236
   14.370    1.0380
   14.400    0.9845
   14.430    0.8882
   14.460    0.8882
   14.490    0.7598
   14.520    0.8133
   14.550    0.8668
   14.580    0.9524
   14.610    0.9631
   14.640    0.8775
   14.670    0.8240
   14.700    0.7812
   14.730    0.8454
   14.760    0.8026
   14.790    0.8026
   14.820    0.9417
   14.850    0.8240
   14.880    0.9417
   14.910    0.9738
   14.940    0.9417
   14.970    0.8133
   15.000    1.0380
   15.030    1.0487
   15.060    1.3804
   15.090    1.5623
   15.120    1.5730
   15.150    1.1129
   15.180    0.9952
   15.210    0.7919
   15.240    0.8026
   15.270    0.8989
   15.300    0.7170
   15.330    0.8026
   15.360    0.8133
   15.390    0.8347
   15.420    0.7063
   15.450    0.7919
   15.480    0.6528
   15.510    0.7919
   15.540    0.8240
   15.570    0.7598
   15.600    0.7491
   15.630    0.8026
   15.660    0.8133
   15.690    0.7705
   15.720    1.0059
   15.750    1.2627
   15.780    1.2520
   15.810    0.8668
   15.840    0.7598
   15.870    0.8882
   15.900    0.7598
   15.930    0.7598
   15.960    0.8347
   15.990    0.8347
   16.020    0.7384
   16.050    0.8026
   16.080    0.7277
   16.110    0.8561
   16.140    0.7063
   16.170    0.7919
   16.200    0.7491
   16.230    0.8347
   16.260    0.9203
   16.290    0.8026
   16.320    0.8668
   16.350    0.9631
   16.380    1.0487
   16.410    1.2841
   16.440    1.3804
   16.470    0.9845
   16.500    0.8026
   16.530    0.7812
   16.560    0.8026
   16.590    0.8026
   16.620    0.6421
   16.650    0.6528
   16.680    0.6635
   16.710    0.7919
   16.740    0.6956
   16.770    0.8347
   16.800    0.8026
   16.830    0.7812
   16.860    0.7919
   16.890    0.6100
   16.920    0.6849
   16.950    0.6528
   16.980    0.5350
   17.010    0.6849
   17.040    0.8133
   17.070    0.5993
   17.100    0.8026
   17.130    0.6635
   17.160    0.6849
   17.190    0.7063
   17.220    0.6207
   17.250    0.7063
   17.280    0.5457
   17.310    0.5457
   17.340    0.6742
   17.370    0.5886
   17.400    0.8454
   17.430    0.7277
   17.460    0.6849
   17.490    0.7598
   17.520    0.7705
   17.550    0.8882
   17.580    0.8454
   17.610    0.6421
   17.640    0.8561
   17.670    0.8561
   17.700    0.9203
   17.730    0.7063
   17.760    0.8240
   17.790    0.7491
   17.820    0.7598
   17.850    0.8454
   17.880    0.7919
   17.910    0.6421
   17.940    0.5564
   17.970    0.6742
   18.000    0.6849
   18.030    0.6742
   18.060    0.7384
   18.090    0.6956
   18.120    0.7170
   18.150    0.6421
   18.180    0.7705
   18.210    0.7063
   18.240    0.7277
   18.270    0.6528
   18.300    0.7919
   18.330    0.8240
   18.360    0.5886
   18.390    0.7919
   18.420    0.8026
   18.450    0.7705
   18.480    0.7170
   18.510    0.6314
   18.540    0.5671
   18.570    0.8240
   18.600    0.7598
   18.630    0.7919
   18.660    0.7277
   18.690    0.8775
   18.720    0.8454
   18.750    0.7812
   18.780    0.8989
   18.810    0.8668
   18.840    0.9738
   18.870    0.8989
   18.900    0.7384
   18.930    0.6849
   18.960    0.7170
   18.990    0.8561
   19.020    0.7384
   19.050    0.7919
   19.080    0.7705
   19.110    0.8133
   19.140    0.8882
   19.170    0.7919
   19.200    0.7919
   19.230    0.7384
   19.260    0.8026
   19.290    0.8561
   19.320    0.7812
   19.350    0.9096
   19.380    0.8240
   19.410    0.8133
   19.440    0.7277
   19.470    0.6314
   19.500    0.6314
   19.530    0.7812
   19.560    0.7491
   19.590    0.7598
   19.620    0.8561
   19.650    0.7812
   19.680    0.7705
   19.710    0.8882
   19.740    0.6635
   19.770    0.8240
   19.800    0.7277
   19.830    1.0487
   19.860    1.1557
   19.890    1.2092
   19.920    1.3162
   19.950    0.7919
   19.980    0.8347
   20.010    0.6742
   20.040    0.7170
   20.070    0.7384
   20.100    0.6956
   20.130    0.6207
   20.160    0.6742
   20.190    0.7277
   20.220    0.7384
   20.250    0.8561
   20.280    0.7705
   20.310    0.7170
   20.340    0.8240
   20.370    0.6100
   20.400    0.9310
   20.430    0.7170
   20.460    0.8454
   20.490    0.6635
   20.520    0.6100
   20.550    0.8026
   20.580    0.7277
   20.610    0.7705
   20.640    0.7598
   20.670    0.6100
   20.700    0.7598
   20.730    0.5886
   20.760    0.6956
   20.790    0.6956
   20.820    0.7277
   20.850    0.8133
   20.880    0.6635
   20.910    0.7384
   20.940    0.7170
   20.970    0.8775
   21.000    0.6421
   21.030    0.6528
   21.060    0.6742
   21.090    0.6528
   21.120    0.6742
   21.150    0.7598
   21.180    0.6849
   21.210    0.7705
   21.240    0.6849
   21.270    0.6100
   21.300    0.6207
   21.330    0.8347
   21.360    0.7705
   21.390    0.6742
   21.420    0.9631
   21.450    0.8240
   21.480    0.6742
   21.510    0.7812
   21.540    0.5671
   21.570    0.5993
   21.600    0.6956
   21.630    0.7491
   21.660    0.7598
   21.690    0.6528
   21.720    0.7277
   21.750    0.6314
   21.780    0.7170
   21.810    0.6635
   21.840    0.9203
   21.870    0.6314
   21.900    0.8347
   21.930    0.8133
   21.960    0.7277
   21.990    0.8347
   22.020    0.7705
   22.050    0.6207
   22.080    0.6421
   22.110    0.7598
   22.140    0.6635
   22.170    0.7919
   22.200    0.7277
   22.230    0.6528
   22.260    0.5778
   22.290    0.5993
   22.320    0.9203
   22.350    0.7919
   22.380    0.7170
   22.410    0.7598
   22.440    0.6849
   22.470    0.8775
   22.500    0.9096
   22.530    0.8668
   22.560    0.6956
   22.590    0.7919
   22.620    0.8347
   22.650    0.8668
   22.680    0.6528
   22.710    0.7812
   22.740    0.8561
   22.770    0.8026
   22.800    0.8882
   22.830    0.8347
   22.860    1.1557
   22.890    1.0380
   22.920    0.8989
   22.950    0.8133
   22.980    0.8882
   23.010    0.7919
   23.040    0.8026
   23.070    0.8240
   23.100    0.7919
   23.130    0.7598
   23.160    0.7491
   23.190    0.7384
   23.220    0.8026
   23.250    0.8347
   23.280    0.8133
   23.310    0.7063
   23.340    0.8133
   23.370    0.7170
   23.400    0.7812
   23.430    0.7384
   23.460    0.7919
   23.490    0.6956
   23.520    0.8240
   23.550    0.8561
   23.580    0.8561
   23.610    0.8240
   23.640    0.8882
   23.670    0.9417
   23.700    0.9524
   23.730    1.1664
   23.760    1.2306
   23.790    1.2199
   23.820    0.9310
   23.850    0.8989
   23.880    0.7705
   23.910    0.7705
   23.940    0.5886
   23.970    0.6421
   24.000    0.8347
   24.030    0.9738
   24.060    0.8454
   24.090    0.7491
   24.120    0.9310
   24.150    0.8026
   24.180    0.8775
   24.210    0.7384
   24.240    0.8026
   24.270    0.7384
   24.300    0.8454
   24.330    0.9310
   24.360    0.7919
   24.390    0.8026
   24.420    0.8347
   24.450    0.8882
   24.480    0.7170
   24.510    0.8561
   24.540    0.7705
   24.570    0.9096
   24.600    0.8133
   24.630    0.6528
   24.660    0.6849
   24.690    0.8882
   24.720    0.6207
   24.750    0.8026
   24.780    0.7170
   24.810    0.8240
   24.840    0.8561
   24.870    0.8240
   24.900    0.7170
   24.930    0.8775
   24.960    0.9952
   24.990    0.8240
   25.020    0.8026
   25.050    0.8240
   25.080    0.7919
   25.110    0.7598
   25.140    0.7919
   25.170    0.7491
   25.200    0.8989
   25.230    0.8775
   25.260    0.7170
   25.290    0.8347
   25.320    0.8561
   25.350    0.7384
   25.380    0.7812
   25.410    0.8347
   25.440    0.8775
   25.470    0.9096
   25.500    0.8668
   25.530    0.9203
   25.560    0.8240
   25.590    0.8240
   25.620    0.7063
   25.650    0.6849
   25.680    0.8347
   25.710    0.7277
   25.740    0.8882
   25.770    0.8240
   25.800    0.8133
   25.830    0.7491
   25.860    0.9203
   25.890    0.9631
   25.920    0.7812
   25.950    0.8775
   25.980    0.9845
   26.010    0.7598
   26.040    0.7705
   26.070    0.9310
   26.100    0.8133
   26.130    0.8026
   26.160    0.6956
   26.190    0.9417
   26.220    0.9631
   26.250    0.8347
   26.280    1.1236
   26.310    1.2306
   26.340    1.1664
   26.370    0.9845
   26.400    1.0487
   26.430    1.0166
   26.460    0.7919
   26.490    0.9203
   26.520    0.7277
   26.550    0.8775
   26.580    0.8775
   26.610    0.8133
   26.640    0.9845
   26.670    0.9952
   26.700    1.2413
   26.730    1.2199
   26.760    1.1343
   26.790    0.9952
   26.820    0.9631
   26.850    0.7491
   26.880    0.5886
   26.910    0.8240
   26.940    0.8240
   26.970    0.7919
   27.000    0.8882
   27.030    0.7277
   27.060    0.8561
   27.090    0.8668
   27.120    0.8026
   27.150    0.7919
   27.180    0.8347
   27.210    0.8882
   27.240    0.7277
   27.270    0.7919
   27.300    0.7063
   27.330    0.8347
   27.360    0.7812
   27.390    0.6956
   27.420    0.7491
   27.450    0.8668
   27.480    0.8133
   27.510    0.8454
   27.540    0.7491
   27.570    0.8026
   27.600    0.6421
   27.630    0.7063
   27.660    0.7919
   27.690    0.8240
   27.720    0.6742
   27.750    0.7384
   27.780    0.8775
   27.810    0.8347
   27.840    0.8347
   27.870    0.8989
   27.900    0.9631
   27.930    0.8026
   27.960    0.8668
   27.990    0.8882
   28.020    0.5778
   28.050    0.8133
   28.080    0.7598
   28.110    0.8026
   28.140    0.7277
   28.170    0.7384
   28.200    0.7491
   28.230    0.8775
   28.260    0.6528
   28.290    0.8668
   28.320    0.8026
   28.350    0.7491
   28.380    0.7705
   28.410    0.7491
   28.440    0.7277
   28.470    0.7491
   28.500    0.6421
   28.530    0.7491
   28.560    0.7384
   28.590    0.7705
   28.620    0.8026
   28.650    0.7919
   28.680    0.7063
   28.710    0.8668
   28.740    0.7491
   28.770    0.7812
   28.800    0.8026
   28.830    0.7384
   28.860    0.7812
   28.890    0.6742
   28.920    0.7598
   28.950    0.7919
   28.980    0.6956
   29.010    0.8347
   29.040    0.5564
   29.070    0.7812
   29.100    0.6421
   29.130    0.7170
   29.160    0.7812
   29.190    0.7277
   29.220    0.6849
   29.250    0.7170
   29.280    0.5778
   29.310    0.8240
   29.340    0.8454
   29.370    0.8133
   29.400    0.7812
   29.430    0.6528
   29.460    0.7384
   29.490    0.7063
   29.520    0.7705
   29.550    0.7705
   29.580    0.6314
   29.610    0.7277
   29.640    0.7705
   29.670    0.7491
   29.700    0.6849
   29.730    0.7812
   29.760    0.7705
   29.790    0.6742
   29.820    0.6314
   29.850    0.6635
   29.880    0.6528
   29.910    0.5993
   29.940    0.8240
   29.970    0.6528
   30.000    0.6849
   30.030    0.6742
   30.060    0.8133
   30.090    0.8561
   30.120    0.8882
   30.150    0.8989
   30.180    0.9631
   30.210    0.8347
   30.240    0.8133
   30.270    0.6956
   30.300    0.5886
   30.330    0.6742
   30.360    0.5564
   30.390    0.6635
   30.420    0.6528
   30.450    0.6314
   30.480    0.6635
   30.510    0.5671
   30.540    0.5993
   30.570    0.6635
   30.600    0.5671
   30.630    0.7598
   30.660    0.5671
   30.690    0.5886
   30.720    0.6421
   30.750    0.7491
   30.780    0.7491
   30.810    0.7063
   30.840    0.8454
   30.870    0.7598
   30.900    0.5993
   30.930    0.5136
   30.960    0.6528
   30.990    0.6314
   31.020    0.6207
   31.050    0.6207
   31.080    0.6956
   31.110    0.5886
   31.140    0.5671
   31.170    0.5778
   31.200    0.6528
   31.230    0.7063
   31.260    0.5243
   31.290    0.6742
   31.320    0.6100
   31.350    0.6849
   31.380    0.8133
   31.410    0.6314
   31.440    0.6635
   31.470    0.6528
   31.500    0.7277
   31.530    0.7384
   31.560    0.7812
   31.590    0.8454
   31.620    0.7170
   31.650    0.5778
   31.680    0.7598
   31.710    0.5886
   31.740    0.6849
   31.770    0.6849
   31.800    0.6100
   31.830    0.5564
   31.860    0.5457
   31.890    0.5993
   31.920    0.7277
   31.950    0.5029
   31.980    0.6207
   32.010    0.7063
   32.040    0.5886
   32.070    0.6314
   32.100    0.6207
   32.130    0.6956
   32.160    0.5350
   32.190    0.6635
   32.220    0.6528
   32.250    0.6100
   32.280    0.6100
   32.310    0.6956
   32.340    0.7812
   32.370    0.5671
   32.400    0.6100
   32.430    0.6849
   32.460    0.4815
   32.490    0.5136
   32.520    0.5778
   32.550    0.6100
   32.580    0.6100
   32.610    0.7063
   32.640    0.5993
   32.670    0.5350
   32.700    0.6421
   32.730    0.5778
   32.760    0.5993
   32.790    0.6100
   32.820    0.6635
   32.850    0.6528
   32.880    0.7598
   32.910    0.7598
   32.940    0.7384
   32.970    0.6421
   33.000    0.5886
   33.030    0.6956
   33.060    0.6421
   33.090    0.6528
   33.120    0.6742
   33.150    0.5564
   33.180    0.6956
   33.210    0.7277
   33.240    0.8026
   33.270    0.6100
   33.300    0.6207
   33.330    0.5886
   33.360    0.5671
   33.390    0.5136
   33.420    0.5886
   33.450    0.5993
   33.480    0.5993
   33.510    0.5993
   33.540    0.5671
   33.570    0.5243
   33.600    0.5350
   33.630    0.4601
   33.660    0.4280
   33.690    0.6207
   33.720    0.6421
   33.750    0.5243
   33.780    0.5350
   33.810    0.4601
   33.840    0.5029
   33.870    0.5778
   33.900    0.5564
   33.930    0.5886
   33.960    0.5243
   33.990    0.4066
   34.020    0.5350
   34.050    0.4708
   34.080    0.5671
   34.110    0.6207
   34.140    0.5671
   34.170    0.6849
   34.200    0.7598
   34.230    0.5671
   34.260    0.5457
   34.290    0.6635
   34.320    0.4922
   34.350    0.5243
   34.380    0.6314
   34.410    0.4601
   34.440    0.5029
   34.470    0.4708
   34.500    0.5243
   34.530    0.6207
   34.560    0.5778
   34.590    0.5564
   34.620    0.5136
   34.650    0.6207
   34.680    0.5671
   34.710    0.5029
   34.740    0.6314
   34.770    0.4387
   34.800    0.6314
   34.830    0.5564
   34.860    0.5886
   34.890    0.5350
   34.920    0.5136
   34.950    0.5778
   34.980    0.5136
   35.010    0.5029
   35.040    0.4922
   35.070    0.6207
   35.100    0.3745
   35.130    0.5243
   35.160    0.6207
   35.190    0.6635
   35.220    0.5029
   35.250    0.5671
   35.280    0.5457
   35.310    0.5243
   35.340    0.4815
   35.370    0.4494
   35.400    0.6100
   35.430    0.4922
   35.460    0.5993
   35.490    0.5564
   35.520    0.4280
   35.550    0.6956
   35.580    0.5243
   35.610    0.5350
   35.640    0.4922
   35.670    0.5350
   35.700    0.4815
   35.730    0.5564
   35.760    0.6421
   35.790    0.5029
   35.820    0.5029
   35.850    0.6207
   35.880    0.4815
   35.910    0.5136
   35.940    0.4280
   35.970    0.4601
   36.000    0.4708
   36.030    0.5993
   36.060    0.5350
   36.090    0.4708
   36.120    0.5671
   36.150    0.5136
   36.180    0.5457
   36.210    0.5029
   36.240    0.6207
   36.270    0.4922
   36.300    0.4494
   36.330    0.4708
   36.360    0.4601
   36.390    0.4280
   36.420    0.5029
   36.450    0.4066
   36.480    0.5457
   36.510    0.4387
   36.540    0.5029
   36.570    0.5564
   36.600    0.5029
   36.630    0.6314
   36.660    0.4601
   36.690    0.5029
   36.720    0.7170
   36.750    0.5564
   36.780    0.5564
   36.810    0.5886
   36.840    0.5243
   36.870    0.4280
   36.900    0.6100
   36.930    0.5136
   36.960    0.5136
   36.990    0.4708
   37.020    0.6635
   37.050    0.3852
   37.080    0.5886
   37.110    0.5778
   37.140    0.5350
   37.170    0.5564
   37.200    0.5778
   37.230    0.4815
   37.260    0.5350
   37.290    0.4494
   37.320    0.5457
   37.350    0.4601
   37.380    0.4066
   37.410    0.5350
   37.440    0.4387
   37.470    0.5136
   37.500    0.4708
   37.530    0.4708
   37.560    0.4280
   37.590    0.5136
   37.620    0.4815
   37.650    0.4815
   37.680    0.4708
   37.710    0.4494
   37.740    0.4173
   37.770    0.3745
   37.800    0.2889
   37.830    0.4173
   37.860    0.4494
   37.890    0.4494
   37.920    0.4815
   37.950    0.4066
   37.980    0.3424
   38.010    0.4815
   38.040    0.4280
   38.070    0.4387
   38.100    0.4173
   38.130    0.3852
   38.160    0.4922
   38.190    0.4708
   38.220    0.5350
   38.250    0.4173
   38.280    0.4173
   38.310    0.4922
   38.340    0.3852
   38.370    0.4601
   38.400    0.3959
   38.430    0.5350
   38.460    0.4708
   38.490    0.3959
   38.520    0.5243
   38.550    0.4280
   38.580    0.4280
   38.610    0.5029
   38.640    0.4387
   38.670    0.4494
   38.700    0.4815
   38.730    0.4173
   38.760    0.4922
   38.790    0.4601
   38.820    0.4922
   38.850    0.4173
   38.880    0.4494
   38.910    0.3638
   38.940    0.4815
   38.970    0.4280
   39.000    0.4280
   39.030    0.4494
   39.060    0.4708
   39.090    0.4601
   39.120    0.3959
   39.150    0.3531
   39.180    0.3531
   39.210    0.3424
   39.240    0.3959
   39.270    0.3638
   39.300    0.4066
   39.330    0.5029
   39.360    0.4708
   39.390    0.3210
   39.420    0.3317
   39.450    0.4601
   39.480    0.4066
   39.510    0.3959
   39.540    0.4387
   39.570    0.4280
   39.600    0.4387
   39.630    0.4280
   39.660    0.4387
   39.690    0.4173
   39.720    0.5243
   39.750    0.3531
   39.780    0.4066
   39.810    0.4815
   39.840    0.3210
   39.870    0.3959
   39.900    0.4173
   39.930    0.3745
   39.960    0.4387
   39.990    0.3531