File: data/PXRD/PXRD_KE-075_Cu-Ka1_capillary-1mm_5s-deg.xyd
    1.500   19.7367
    1.530   19.6103
    1.560   19.4839
    1.590   19.0521
    1.620   18.8836
    1.650   17.8304
    1.680   17.7567
    1.710   18.2412
    1.740   18.1359
    1.770   17.1248
    1.800   17.1985
    1.830   16.7351
    1.860   16.8720
    1.890   16.9142
    1.920   16.8194
    1.950   16.3349
    1.980   16.6930
    2.010   16.7246
    2.040   16.8615
    2.070   16.9563
    2.100   16.9668
    2.130   16.5982
    2.160   17.3144
    2.190   16.8615
    2.220   16.9352
    2.250   17.3460
    2.280   17.4724
    2.310   17.2091
    2.340   17.8726
    2.370   17.7251
    2.400   18.8415
    2.430   18.4623
    2.460   18.9468
    2.490   19.0311
    2.520   19.2417
    2.550   19.7472
    2.580   19.7999
    2.610   20.1580
    2.640   21.2322
    2.670   21.4955
    2.700   21.7799
    2.730   23.2859
    2.760   23.3491
    2.790   24.5498
    2.820   24.3707
    2.850   26.4350
    2.880   27.3407
    2.910   28.5308
    2.940   29.9526
    2.970   30.5108
    3.000   32.0590
    3.030   34.6498
    3.060   36.3244
    3.090   38.5782
    3.120   39.8210
    3.150   42.9489
    3.180   45.6661
    3.210   48.8152
    3.240   51.5113
    3.270   56.3981
    3.300   61.6219
    3.330   67.0879
    3.360   71.8273
    3.390   78.7046
    3.420   88.4781
    3.450   91.4060
    3.480   91.0900
    3.510   81.4745
    3.540   73.0384
    3.570   68.6888
    3.600   66.6772
    3.630   69.4576
    3.660   72.4276
    3.690   76.9563
    3.720   83.9705
    3.750   95.1975
    3.780  111.3428
    3.810  132.2591
    3.840  173.8915
    3.870  196.7351
    3.900  158.2412
    3.930   72.1011
    3.960   37.1037
    3.990   34.2707
    4.020   32.0063
    4.050   32.0906
    4.080   28.9521
    4.110   25.8768
    4.140   24.0653
    4.170   22.1274
    4.200   19.2101
    4.230   16.7035
    4.260   15.7451
    4.290   14.1127
    4.320   13.0911
    4.350   12.0484
    4.380   10.9742
    4.410   10.6898
    4.440   10.1422
    4.470   10.4476
    4.500   10.0579
    4.530    9.9105
    4.560    9.8157
    4.590    9.0890
    4.620    9.7630
    4.650    8.9100
    4.680    9.3839
    4.710    9.4365
    4.740   10.0053
    4.770    9.6156
    4.800    9.3839
    4.830   10.0790
    4.860    9.5840
    4.890   10.1316
    4.920   10.4160
    4.950   11.0585
    4.980   11.0479
    5.010   11.0585
    5.040   12.1327
    5.070   12.2064
    5.100   13.5124
    5.130   13.7967
    5.160   14.7762
    5.190   15.7030
    5.220   16.7246
    5.250   18.6625
    5.280   20.5266
    5.310   21.6535
    5.340   24.0337
    5.370   27.3407
    5.400   33.0279
    5.430   41.0321
    5.460   55.1553
    5.490   62.2749
    5.520   51.7114
    5.550   20.8531
    5.580    8.5940
    5.610    7.3828
    5.640    7.2354
    5.670    6.6561
    5.700    6.5929
    5.730    6.8457
    5.760    6.3823
    5.790    6.6035
    5.820    7.1301
    5.850    6.2875
    5.880    6.4244
    5.910    6.9300
    5.940    6.4560
    5.970    6.9721
    6.000    7.0458
    6.030    6.3612
    6.060    6.8352
    6.090    6.5087
    6.120    6.8141
    6.150    6.9510
    6.180    6.9300
    6.210    7.3618
    6.240    7.1406
    6.270    7.9726
    6.300    7.7725
    6.330    7.5829
    6.360    8.1517
    6.390    8.2886
    6.420    8.9731
    6.450    8.6783
    6.480    9.7209
    6.510    9.8789
    6.540   10.2686
    6.570   11.5745
    6.600   12.0695
    6.630   13.8494
    6.660   16.3770
    6.690   18.6625
    6.720   23.4860
    6.750   23.9600
    6.780   16.5245
    6.810   10.7320
    6.840    9.8894
    6.870   10.1632
    6.900   10.9005
    6.930   11.4797
    6.960   11.3112
    6.990   10.9426
    7.020   10.2054
    7.050    8.6361
    7.080    7.8462
    7.110    7.5619
    7.140    7.2459
    7.170    6.9510
    7.200    6.9826
    7.230    6.8773
    7.260    7.3091
    7.290    6.9932
    7.320    6.9510
    7.350    7.1090
    7.380    7.3196
    7.410    7.4671
    7.440    7.6988
    7.470    7.3723
    7.500    7.6461
    7.530    8.0463
    7.560    8.4466
    7.590    9.1522
    7.620    9.4576
    7.650   11.0058
    7.680   11.4481
    7.710   13.0384
    7.740   15.1764
    7.770   16.9984
    7.800   17.4513
    7.830   13.2070
    7.860    9.0679
    7.890    8.4044
    7.920    8.1727
    7.950    8.1517
    7.980    8.3834
    8.010    7.9200
    8.040    7.8146
    8.070    8.4255
    8.100    8.0779
    8.130    8.0253
    8.160    7.5513
    8.190    7.6461
    8.220    7.3828
    8.250    7.4039
    8.280    7.5935
    8.310    7.4987
    8.340    7.6672
    8.370    7.1090
    8.400    6.9510
    8.430    7.0037
    8.460    6.9616
    8.490    6.3402
    8.520    6.9721
    8.550    6.6772
    8.580    6.1927
    8.610    7.1933
    8.640    6.9194
    8.670    7.4882
    8.700    7.6777
    8.730    7.6145
    8.760    6.8668
    8.790    6.2770
    8.820    6.1401
    8.850    6.5087
    8.880    6.2770
    8.910    5.9189
    8.940    6.0348
    8.970    6.0664
    9.000    6.1190
    9.030    6.4350
    9.060    6.4350
    9.090    6.8668
    9.120    6.5087
    9.150    6.9089
    9.180    6.9932
    9.210    7.4355
    9.240    7.5829
    9.270    7.9200
    9.300    8.4887
    9.330    8.6888
    9.360   10.0053
    9.390   11.0585
    9.420   13.1227
    9.450   15.0395
    9.480   18.1675
    9.510   23.5387
    9.540   28.0358
    9.570   25.5187
    9.600   14.7551
    9.630    6.9405
    9.660    5.8768
    9.690    6.0664
    9.720    5.9294
    9.750    5.5398
    9.780    5.7820
    9.810    5.7083
    9.840    6.0558
    9.870    5.4766
    9.900    5.8978
    9.930    6.0032
    9.960    5.7293
    9.990    5.6767
   10.020    6.3718
   10.050    6.5087
   10.080    6.4139
   10.110    6.9721
   10.140    7.1090
   10.170    7.6883
   10.200    7.6040
   10.230    8.5729
   10.260   10.3633
   10.290   12.6066
   10.320   13.0806
   10.350   11.3533
   10.380    7.8357
   10.410    6.2033
   10.440    5.8557
   10.470    6.3612
   10.500    5.7188
   10.530    6.0558
   10.560    5.8557
   10.590    5.6556
   10.620    5.4555
   10.650    6.2665
   10.680    6.1506
   10.710    6.3296
   10.740    6.2349
   10.770    6.1295
   10.800    6.3402
   10.830    6.1822
   10.860    6.8668
   10.890    7.2038
   10.920    7.8357
   10.950    8.9415
   10.980   10.3318
   11.010   11.9221
   11.040   12.1643
   11.070   10.7846
   11.100    7.5197
   11.130    5.9294
   11.160    5.4344
   11.190    5.6977
   11.220    5.1606
   11.250    5.4450
   11.280    5.6556
   11.310    5.8241
   11.340    5.9821
   11.370    5.2975
   11.400    5.7609
   11.430    5.9610
   11.460    6.4560
   11.490    6.7193
   11.520    6.8668
   11.550    7.2986
   11.580    7.4250
   11.610    8.5940
   11.640    9.8157
   11.670   11.9747
   11.700   13.3755
   11.730   12.5540
   11.760    9.2680
   11.790    7.0458
   11.820    6.2243
   11.850    5.5714
   11.880    5.8978
   11.910    5.5819
   11.940    6.0664
   11.970    5.4450
   12.000    5.6767
   12.030    5.7188
   12.060    5.8873
   12.090    5.6767
   12.120    5.7925
   12.150    5.6451
   12.180    6.3718
   12.210    6.0558
   12.240    6.0874
   12.270    6.1717
   12.300    6.3402
   12.330    6.9616
   12.360    6.5508
   12.390    6.4982
   12.420    5.9294
   12.450    5.5924
   12.480    5.3923
   12.510    5.5714
   12.540    5.4766
   12.570    5.6767
   12.600    6.3191
   12.630    5.8241
   12.660    5.6451
   12.690    5.9189
   12.720    5.9821
   12.750    5.9821
   12.780    6.7825
   12.810    6.3612
   12.840    7.1827
   12.870    8.0885
   12.900    8.2359
   12.930    9.8999
   12.960   10.3528
   12.990    9.0574
   13.020    6.6772
   13.050    5.7609
   13.080    5.7399
   13.110    5.5398
   13.140    5.5503
   13.170    5.4871
   13.200    5.7925
   13.230    5.6451
   13.260    5.5503
   13.290    5.8241
   13.320    5.5608
   13.350    5.8557
   13.380    5.9400
   13.410    6.4139
   13.440    6.2454
   13.470    7.2670
   13.500    7.6672
   13.530    8.0990
   13.560    7.5408
   13.590    6.3718
   13.620    5.6556
   13.650    5.4239
   13.680    5.2975
   13.710    5.4660
   13.740    5.3923
   13.770    5.6451
   13.800    5.3186
   13.830    5.2975
   13.860    5.5082
   13.890    5.8768
   13.920    6.1927
   13.950    6.4876
   13.980    6.8141
   14.010    7.3934
   14.040    8.5835
   14.070    9.3312
   14.100    9.4365
   14.130    8.2359
   14.160    6.2033
   14.190    5.6029
   14.220    5.2238
   14.250    5.3397
   14.280    5.2343
   14.310    5.2133
   14.340    5.2659
   14.370    5.8347
   14.400    5.1080
   14.430    5.3923
   14.460    4.8868
   14.490    5.2449
   14.520    5.1185
   14.550    5.2133
   14.580    5.3397
   14.610    4.8657
   14.640    5.4660
   14.670    5.5187
   14.700    4.8657
   14.730    5.2343
   14.760    5.3502
   14.790    5.4660
   14.820    5.3712
   14.850    5.6240
   14.880    5.1922
   14.910    5.2449
   14.940    5.6872
   14.970    5.3712
   15.000    5.6767
   15.030    5.3291
   15.060    5.9294
   15.090    6.1085
   15.120    6.4455
   15.150    6.2454
   15.180    5.8452
   15.210    5.2870
   15.240    5.5924
   15.270    5.3397
   15.300    5.4344
   15.330    5.5187
   15.360    5.0448
   15.390    5.2765
   15.420    5.3397
   15.450    4.9078
   15.480    5.2975
   15.510    5.2449
   15.540    5.2975
   15.570    5.2870
   15.600    5.3818
   15.630    5.5608
   15.660    5.6767
   15.690    5.6345
   15.720    5.1395
   15.750    4.9184
   15.780    5.4344
   15.810    5.2133
   15.840    5.3502
   15.870    5.3712
   15.900    5.5398
   15.930    5.5292
   15.960    5.0764
   15.990    5.6661
   16.020    5.4766
   16.050    5.8347
   16.080    5.9610
   16.110    6.3928
   16.140    6.0032
   16.170    5.6556
   16.200    5.6240
   16.230    5.5714
   16.260    5.1080
   16.290    5.0026
   16.320    5.3502
   16.350    5.2554
   16.380    5.1817
   16.410    5.6240
   16.440    5.4450
   16.470    5.2027
   16.500    5.5608
   16.530    5.4239
   16.560    6.0979
   16.590    6.2559
   16.620    6.1506
   16.650    5.5187
   16.680    5.2554
   16.710    5.2659
   16.740    5.6345
   16.770    5.5503
   16.800    5.4660
   16.830    5.4450
   16.860    5.8241
   16.890    5.8031
   16.920    5.7820
   16.950    6.1717
   16.980    6.6245
   17.010    8.0358
   17.040    8.2675
   17.070    8.2886
   17.100    8.1306
   17.130    6.6772
   17.160    5.6029
   17.190    5.2765
   17.220    4.8131
   17.250    5.0448
   17.280    5.3923
   17.310    5.3186
   17.340    5.3818
   17.370    5.5082
   17.400    6.0137
   17.430    5.6872
   17.460    5.9189
   17.490    6.1611
   17.520    6.1717
   17.550    5.7925
   17.580    5.6240
   17.610    5.5503
   17.640    5.0342
   17.670    5.3186
   17.700    5.2449
   17.730    5.5608
   17.760    5.0974
   17.790    5.0974
   17.820    5.4555
   17.850    5.6451
   17.880    5.4871
   17.910    6.0348
   17.940    5.6240
   17.970    6.0348
   18.000    5.4871
   18.030    5.6872
   18.060    5.4344
   18.090    5.7293
   18.120    5.1501
   18.150    5.4028
   18.180    5.2659
   18.210    5.4766
   18.240    5.4344
   18.270    5.7925
   18.300    6.0137
   18.330    6.1506
   18.360    6.3402
   18.390    6.2033
   18.420    5.7609
   18.450    5.6135
   18.480    5.8136
   18.510    5.7609
   18.540    5.0237
   18.570    5.4134
   18.600    5.4344
   18.630    5.3081
   18.660    5.2870
   18.690    5.7083
   18.720    5.3818
   18.750    5.8873
   18.780    6.1506
   18.810    5.8347
   18.840    5.8347
   18.870    5.9716
   18.900    5.9505
   18.930    6.0137
   18.960    6.7193
   18.990    7.3723
   19.020    7.0458
   19.050    6.0979
   19.080    5.3186
   19.110    5.6977
   19.140    5.6451
   19.170    5.5819
   19.200    5.7925
   19.230    5.6767
   19.260    5.4871
   19.290    4.9605
   19.320    5.2870
   19.350    5.3502
   19.380    5.7715
   19.410    5.7399
   19.440    5.4450
   19.470    5.9505
   19.500    5.8662
   19.530    6.1506
   19.560    6.9510
   19.590    6.2875
   19.620    6.0032
   19.650    5.9189
   19.680    6.0032
   19.710    5.3291
   19.740    5.8452
   19.770    5.5819
   19.800    5.4766
   19.830    5.4239
   19.860    5.4871
   19.890    5.9189
   19.920    5.6872
   19.950    5.6661
   19.980    5.9926
   20.010    5.7504
   20.040    5.8031
   20.070    5.6872
   20.100    5.7188
   20.130    5.5292
   20.160    5.9505
   20.190    5.8347
   20.220    6.3086
   20.250    6.1822
   20.280    6.6140
   20.310    6.8246
   20.340    7.7620
   20.370    8.0885
   20.400    8.0779
   20.430    6.9510
   20.460    6.4876
   20.490    5.9610
   20.520    5.6661
   20.550    5.8978
   20.580    5.5714
   20.610    6.0453
   20.640    5.5292
   20.670    5.7609
   20.700    5.8557
   20.730    5.7504
   20.760    5.9084
   20.790    5.8031
   20.820    5.6556
   20.850    5.4450
   20.880    5.5608
   20.910    5.7820
   20.940    5.6029
   20.970    5.6135
   21.000    5.7083
   21.030    6.0137
   21.060    5.6451
   21.090    6.1190
   21.120    5.9821
   21.150    5.6661
   21.180    5.6767
   21.210    5.9084
   21.240    5.7609
   21.270    5.7399
   21.300    5.7188
   21.330    5.5292
   21.360    6.0032
   21.390    5.6029
   21.420    5.7609
   21.450    5.6029
   21.480    6.0453
   21.510    5.6661
   21.540    5.5608
   21.570    5.5924
   21.600    5.8347
   21.630    6.0979
   21.660    5.7715
   21.690    5.7925
   21.720    6.0664
   21.750    6.0242
   21.780    6.1085
   21.810    6.0979
   21.840    6.3823
   21.870    6.0979
   21.900    6.4876
   21.930    6.4350
   21.960    5.7820
   21.990    5.6661
   22.020    5.5714
   22.050    5.7715
   22.080    5.5714
   22.110    6.0032
   22.140    5.9294
   22.170    6.1506
   22.200    6.5824
   22.230    6.5508
   22.260    6.0453
   22.290    5.9400
   22.320    5.9189
   22.350    6.1295
   22.380    5.8978
   22.410    6.0769
   22.440    6.3718
   22.470    6.8036
   22.500    7.7199
   22.530    8.2780
   22.560    8.3518
   22.590    8.2991
   22.620    7.5935
   22.650    6.5824
   22.680    6.1401
   22.710    5.8662
   22.740    5.6872
   22.770    6.4034
   22.800    6.0348
   22.830    7.0669
   22.860    7.8041
   22.890    8.6783
   22.920    7.9200
   22.950    7.5619
   22.980    6.4876
   23.010    5.9610
   23.040    6.3086
   23.070    6.2559
   23.100    6.3086
   23.130    6.4876
   23.160    6.4350
   23.190    6.4982
   23.220    6.6140
   23.250    6.4560
   23.280    6.3507
   23.310    5.8136
   23.340    5.6977
   23.370    5.6029
   23.400    5.8662
   23.430    5.7399
   23.460    5.7820
   23.490    5.4555
   23.520    5.7399
   23.550    5.7083
   23.580    5.9610
   23.610    5.6345
   23.640    5.8873
   23.670    5.4028
   23.700    5.6135
   23.730    5.5187
   23.760    5.7083
   23.790    5.7715
   23.820    6.0032
   23.850    5.5503
   23.880    6.1401
   23.910    6.2138
   23.940    5.7925
   23.970    5.9084
   24.000    5.6977
   24.030    5.5819
   24.060    5.3923
   24.090    5.6451
   24.120    4.9710
   24.150    5.4555
   24.180    5.6872
   24.210    5.5608
   24.240    5.4239
   24.270    5.6029
   24.300    5.0764
   24.330    5.1290
   24.360    5.4555
   24.390    5.8136
   24.420    5.5608
   24.450    5.5503
   24.480    5.7715
   24.510    5.9716
   24.540    5.6451
   24.570    5.5398
   24.600    5.4450
   24.630    6.1611
   24.660    5.7715
   24.690    5.4766
   24.720    5.1606
   24.750    5.2659
   24.780    5.1922
   24.810    5.2975
   24.840    5.0658
   24.870    5.7820
   24.900    5.6451
   24.930    5.5398
   24.960    5.4976
   24.990    5.5398
   25.020    5.2238
   25.050    5.4555
   25.080    5.5608
   25.110    5.5819
   25.140    5.8873
   25.170    5.5503
   25.200    6.0453
   25.230    6.2033
   25.260    5.3502
   25.290    5.4871
   25.320    5.2238
   25.350    5.3923
   25.380    5.4028
   25.410    5.7609
   25.440    5.5187
   25.470    5.0342
   25.500    5.7083
   25.530    5.9294
   25.560    5.8557
   25.590    5.2238
   25.620    5.6345
   25.650    5.2659
   25.680    5.6451
   25.710    5.7715
   25.740    6.4244
   25.770    7.3302
   25.800    7.6040
   25.830    7.2459
   25.860    7.2038
   25.890    6.1085
   25.920    5.7293
   25.950    5.0974
   25.980    5.4555
   26.010    5.4555
   26.040    5.4028
   26.070    5.2133
   26.100    5.0237
   26.130    5.5924
   26.160    5.5082
   26.190    5.0026
   26.220    4.9605
   26.250    5.0342
   26.280    5.1395
   26.310    5.3818
   26.340    5.3818
   26.370    5.4766
   26.400    5.8452
   26.430    6.1717
   26.460    5.8347
   26.490    5.5819
   26.520    5.1711
   26.550    4.9289
   26.580    4.8868
   26.610    5.2975
   26.640    5.1290
   26.670    5.3186
   26.700    5.3291
   26.730    5.2133
   26.760    5.3712
   26.790    5.2449
   26.820    5.2449
   26.850    5.4239
   26.880    5.8452
   26.910    5.4555
   26.940    5.5924
   26.970    5.8662
   27.000    5.9084
   27.030    6.0979
   27.060    5.7820
   27.090    5.1501
   27.120    5.2870
   27.150    5.1817
   27.180    5.1290
   27.210    5.3397
   27.240    4.9289
   27.270    5.0342
   27.300    5.2133
   27.330    5.1395
   27.360    4.8973
   27.390    4.8763
   27.420    4.8341
   27.450    5.0448
   27.480    5.2027
   27.510    5.4344
   27.540    5.5187
   27.570    5.4976
   27.600    5.4660
   27.630    5.5924
   27.660    5.4028
   27.690    5.2870
   27.720    5.1080
   27.750    5.3818
   27.780    4.9816
   27.810    5.0764
   27.840    5.0448
   27.870    5.6240
   27.900    5.5292
   27.930    5.8031
   27.960    6.3191
   27.990    6.1927
   28.020    6.4034
   28.050    6.1401
   28.080    6.3191
   28.110    6.0137
   28.140    6.0032
   28.170    6.0137
   28.200    5.8662
   28.230    5.6977
   28.260    5.0658
   28.290    5.4660
   28.320    5.1185
   28.350    5.5398
   28.380    5.5187
   28.410    5.8557
   28.440    5.6135
   28.470    5.8873
   28.500    5.9294
   28.530    5.2975
   28.560    4.9500
   28.590    5.3712
   28.620    5.3186
   28.650    5.1290
   28.680    5.3502
   28.710    4.4971
   28.740    5.1185
   28.770    4.7604
   28.800    5.0974
   28.830    4.9605
   28.860    4.8025
   28.890    5.3818
   28.920    6.0558
   28.950    6.2243
   28.980    5.9610
   29.010    6.4455
   29.040    5.6767
   29.070    5.1922
   29.100    4.8657
   29.130    5.0026
   29.160    5.5292
   29.190    5.4344
   29.220    5.3502
   29.250    5.1817
   29.280    5.4239
   29.310    5.4660
   29.340    5.0448
   29.370    5.0974
   29.400    5.2343
   29.430    4.4971
   29.460    5.3502
   29.490    4.7604
   29.520    5.0658
   29.550    5.0553
   29.580    4.8236
   29.610    4.8657
   29.640    4.9710
   29.670    5.0658
   29.700    4.8763
   29.730    4.8447
   29.760    5.0658
   29.790    5.0026
   29.820    5.2765
   29.850    5.5608
   29.880    4.9710
   29.910    4.8763
   29.940    4.5814
   29.970    4.6551
   30.000    5.0448
   30.030    4.8131
   30.060    5.0132
   30.090    4.9184
   30.120    5.4450
   30.150    4.6340
   30.180    4.5603
   30.210    4.9078
   30.240    4.4971
   30.270    4.8973
   30.300    5.1922
   30.330    4.8447
   30.360    4.9921
   30.390    4.8447
   30.420    5.0132
   30.450    4.8025
   30.480    4.6340
   30.510    4.9184
   30.540    4.8657
   30.570    5.0553
   30.600    5.1711
   30.630    5.0658
   30.660    5.0448
   30.690    4.9078
   30.720    4.9184
   30.750    4.6024
   30.780    4.8131
   30.810    4.5603
   30.840    5.2027
   30.870    4.6235
   30.900    4.5708
   30.930    4.7393
   30.960    4.9184
   30.990    4.8236
   31.020    4.6972
   31.050    4.9394
   31.080    4.9710
   31.110    4.3602
   31.140    4.7183
   31.170    4.6867
   31.200    4.6130
   31.230    4.8131
   31.260    4.9078
   31.290    4.7815
   31.320    4.9500
   31.350    5.0974
   31.380    4.9289
   31.410    4.8657
   31.440    4.8131
   31.470    4.6656
   31.500    4.8447
   31.530    4.9394
   31.560    4.4866
   31.590    4.9289
   31.620    4.8657
   31.650    4.6235
   31.680    5.0658
   31.710    4.7288
   31.740    5.4871
   31.770    5.2765
   31.800    5.9084
   31.830    5.6451
   31.860    5.5714
   31.890    5.8136
   31.920    5.3081
   31.950    5.3712
   31.980    5.2027
   32.010    5.4660
   32.040    6.5929
   32.070    6.5719
   32.100    7.8252
   32.130    7.2038
   32.160    6.4666
   32.190    5.5714
   32.220    4.8447
   32.250    4.6130
   32.280    4.7499
   32.310    4.7183
   32.340    4.9078
   32.370    4.7288
   32.400    4.5287
   32.430    4.6235
   32.460    4.5919
   32.490    4.8552
   32.520    4.6130
   32.550    4.2970
   32.580    4.3075
   32.610    4.2233
   32.640    4.3918
   32.670    4.5603
   32.700    4.3075
   32.730    4.5182
   32.760    4.5814
   32.790    4.3497
   32.820    4.6445
   32.850    4.6867
   32.880    4.8973
   32.910    4.9816
   32.940    4.6972
   32.970    4.6024
   33.000    4.9078
   33.030    4.2549
   33.060    4.3181
   33.090    4.3181
   33.120    4.4444
   33.150    4.6867
   33.180    4.2759
   33.210    4.4234
   33.240    4.4128
   33.270    4.4234
   33.300    4.5603
   33.330    4.1706
   33.360    4.5287
   33.390    4.1811
   33.420    4.4866
   33.450    4.4866
   33.480    4.1811
   33.510    4.8763
   33.540    4.4023
   33.570    4.5076
   33.600    4.5708
   33.630    4.7920
   33.660    4.5814
   33.690    4.6972
   33.720    4.8025
   33.750    5.3607
   33.780    5.7609
   33.810    5.8768
   33.840    6.1822
   33.870    5.8136
   33.900    5.7188
   33.930    4.9500
   33.960    5.1606
   33.990    5.1501
   34.020    4.3602
   34.050    4.3075
   34.080    4.5919
   34.110    4.7815
   34.140    4.2443
   34.170    4.0864
   34.200    4.2759
   34.230    4.3918
   34.260    4.3391
   34.290    4.6235
   34.320    4.4444
   34.350    4.2443
   34.380    4.0337
   34.410    4.2127
   34.440    4.4971
   34.470    4.3286
   34.500    4.1917
   34.530    4.6235
   34.560    4.2443
   34.590    4.2233
   34.620    4.2865
   34.650    4.2654
   34.680    3.8441
   34.710    4.2865
   34.740    4.4234
   34.770    4.7288
   34.800    4.6761
   34.830    4.6340
   34.860    4.3286
   34.890    4.4128
   34.920    4.1390
   34.950    3.7599
   34.980    4.2443
   35.010    4.2022
   35.040    4.2654
   35.070    3.8652
   35.100    4.3707
   35.130    3.8968
   35.160    4.3391
   35.190    3.9179
   35.220    4.0864
   35.250    4.2654
   35.280    3.9600
   35.310    4.0126
   35.340    3.9810
   35.370    3.9073
   35.400    4.4234
   35.430    4.0021
   35.460    4.2654
   35.490    3.9389
   35.520    4.2865
   35.550    4.2970
   35.580    4.2654
   35.610    4.1811
   35.640    4.2549
   35.670    4.1706
   35.700    4.6130
   35.730    4.2443
   35.760    4.2865
   35.790    4.1601
   35.820    4.2654
   35.850    4.2338
   35.880    4.3918
   35.910    4.3391
   35.940    3.9284
   35.970    4.1496
   36.000    3.9073
   36.030    4.3602
   36.060    4.2022
   36.090    4.0969
   36.120    4.0969
   36.150    4.0758
   36.180    4.3391
   36.210    4.0337
   36.240    4.5287
   36.270    4.2443
   36.300    4.4339
   36.330    3.9389
   36.360    4.1496
   36.390    3.8863
   36.420    4.1917
   36.450    4.1601
   36.480    3.9389
   36.510    4.0864
   36.540    4.0126
   36.570    4.1917
   36.600    4.4444
   36.630    3.7493
   36.660    4.4339
   36.690    4.4234
   36.720    4.3707
   36.750    4.1811
   36.780    3.9179
   36.810    4.3707
   36.840    3.7809
   36.870    4.2549
   36.900    4.1180
   36.930    4.0653
   36.960    4.3286
   36.990    4.1180
   37.020    4.2549
   37.050    4.4234
   37.080    4.2549
   37.110    4.5603
   37.140    4.3181
   37.170    4.0758
   37.200    4.0864
   37.230    3.8757
   37.260    3.9179
   37.290    4.0337
   37.320    3.9284
   37.350    3.8020
   37.380    3.8020
   37.410    3.9916
   37.440    4.0232
   37.470    4.3075
   37.500    4.2654
   37.530    3.9810
   37.560    3.8125
   37.590    4.2127
   37.620    3.9916
   37.650    4.2865
   37.680    3.9810
   37.710    4.0758
   37.740    4.0758
   37.770    3.9179
   37.800    4.6130
   37.830    4.0021
   37.860    3.9073
   37.890    4.0337
   37.920    4.1706
   37.950    4.2970
   37.980    4.2443
   38.010    4.3075
   38.040    4.2865
   38.070    4.1811
   38.100    3.8863
   38.130    4.0758
   38.160    4.0337
   38.190    3.6230
   38.220    3.9073
   38.250    4.0126
   38.280    4.2865
   38.310    4.2233
   38.340    4.1390
   38.370    4.0126
   38.400    4.0442
   38.430    4.2443
   38.460    3.9389
   38.490    4.0653
   38.520    4.0969
   38.550    4.2338
   38.580    4.4023
   38.610    4.8131
   38.640    4.5498
   38.670    4.4128
   38.700    4.0232
   38.730    3.9284
   38.760    3.7599
   38.790    3.8757
   38.820    3.8968
   38.850    4.0337
   38.880    4.1390
   38.910    3.8020
   38.940    3.9179
   38.970    3.9810
   39.000    3.9810
   39.030    4.0021
   39.060    3.7915
   39.090    3.7493
   39.120    3.7283
   39.150    3.8652
   39.180    3.9705
   39.210    3.7809
   39.240    4.1811
   39.270    3.9389
   39.300    4.0232
   39.330    4.3813
   39.360    4.1390
   39.390    4.0232
   39.420    3.9494
   39.450    3.9600
   39.480    3.6967
   39.510    3.8968
   39.540    4.0548
   39.570    4.0021
   39.600    4.1601
   39.630    4.2549
   39.660    3.7809
   39.690    4.2233
   39.720    4.1496
   39.750    3.8757
   39.780    3.7704
   39.810    3.9073
   39.840    3.7915
   39.870    3.8652
   39.900    4.2654
   39.930    3.8757
   39.960    3.8336
   39.990    4.2865