File: data/PXRD/PXRD_KE-060-2_Cu-Ka1_capillary-1mm_5s-deg.xyd
    1.500    4.4760
    1.530    4.7288
    1.560    4.8973
    1.590    4.2549
    1.620    4.3707
    1.650    4.1496
    1.680    4.2022
    1.710    4.3391
    1.740    3.9494
    1.770    4.1601
    1.800    3.8863
    1.830    4.0758
    1.860    4.2549
    1.890    4.1496
    1.920    3.9600
    1.950    3.6651
    1.980    3.7915
    2.010    3.9600
    2.040    4.1390
    2.070    3.9494
    2.100    3.8968
    2.130    3.7915
    2.160    3.7177
    2.190    3.8125
    2.220    3.5282
    2.250    3.6651
    2.280    3.8547
    2.310    3.6230
    2.340    3.8125
    2.370    3.8020
    2.400    3.6335
    2.430    3.9916
    2.460    3.6230
    2.490    3.6546
    2.520    3.7283
    2.550    3.5598
    2.580    3.6862
    2.610    3.5703
    2.640    3.8125
    2.670    4.0653
    2.700    3.8231
    2.730    3.7072
    2.760    4.0232
    2.790    3.5914
    2.820    3.6967
    2.850    3.6862
    2.880    3.5808
    2.910    3.6862
    2.940    3.6756
    2.970    3.7599
    3.000    3.8652
    3.030    3.6124
    3.060    3.6124
    3.090    3.4966
    3.120    3.8336
    3.150    3.6546
    3.180    3.7915
    3.210    4.0864
    3.240    3.4544
    3.270    3.7072
    3.300    3.6230
    3.330    3.9494
    3.360    3.4860
    3.390    3.5703
    3.420    3.9073
    3.450    3.7177
    3.480    3.5914
    3.510    3.5703
    3.540    3.9073
    3.570    3.7493
    3.600    3.6440
    3.630    3.8020
    3.660    4.2022
    3.690    3.7704
    3.720    3.8757
    3.750    4.0021
    3.780    3.8441
    3.810    4.1917
    3.840    4.2443
    3.870    4.1811
    3.900    4.0126
    3.930    3.4966
    3.960    3.8020
    3.990    3.7915
    4.020    3.8020
    4.050    3.2438
    4.080    3.8125
    4.110    3.4544
    4.140    3.6651
    4.170    3.2649
    4.200    3.4123
    4.230    3.6967
    4.260    3.3491
    4.290    3.5492
    4.320    3.5071
    4.350    3.4018
    4.380    3.6019
    4.410    3.6019
    4.440    3.8125
    4.470    3.7283
    4.500    3.1174
    4.530    3.6651
    4.560    3.7388
    4.590    3.6124
    4.620    3.3386
    4.650    3.1280
    4.680    3.4018
    4.710    3.4334
    4.740    3.3913
    4.770    3.2333
    4.800    3.4755
    4.830    3.4966
    4.860    3.3702
    4.890    3.6756
    4.920    3.2754
    4.950    3.5176
    4.980    3.7809
    5.010    3.4755
    5.040    3.2438
    5.070    3.3913
    5.100    3.2754
    5.130    3.7177
    5.160    3.2754
    5.190    3.6124
    5.220    3.3807
    5.250    3.6124
    5.280    3.5282
    5.310    3.3386
    5.340    3.8652
    5.370    3.4439
    5.400    3.6862
    5.430    3.4018
    5.460    3.5598
    5.490    3.8020
    5.520    3.4544
    5.550    3.7809
    5.580    3.4544
    5.610    3.2859
    5.640    3.5914
    5.670    3.4018
    5.700    3.4544
    5.730    3.5492
    5.760    3.3597
    5.790    3.6546
    5.820    3.3281
    5.850    3.2965
    5.880    3.7493
    5.910    3.4966
    5.940    3.3281
    5.970    3.6124
    6.000    3.2859
    6.030    3.6651
    6.060    3.6651
    6.090    3.4966
    6.120    3.6967
    6.150    3.7809
    6.180    3.5703
    6.210    3.5492
    6.240    3.4544
    6.270    3.6440
    6.300    3.7704
    6.330    3.4860
    6.360    3.5282
    6.390    3.6862
    6.420    3.5176
    6.450    3.6967
    6.480    3.4439
    6.510    3.4966
    6.540    3.7704
    6.570    3.5176
    6.600    3.5808
    6.630    3.6546
    6.660    3.7599
    6.690    3.7177
    6.720    3.8652
    6.750    3.4544
    6.780    3.4755
    6.810    3.7072
    6.840    3.7072
    6.870    3.7388
    6.900    3.6756
    6.930    3.6019
    6.960    3.4544
    6.990    3.6756
    7.020    3.4966
    7.050    3.9179
    7.080    3.2438
    7.110    3.6546
    7.140    3.8336
    7.170    3.3913
    7.200    3.6124
    7.230    3.8547
    7.260    3.4650
    7.290    3.3807
    7.320    3.6651
    7.350    3.5914
    7.380    3.6862
    7.410    3.4860
    7.440    3.7283
    7.470    3.7704
    7.500    3.9705
    7.530    3.9916
    7.560    3.8547
    7.590    3.3702
    7.620    3.5282
    7.650    3.5598
    7.680    3.7704
    7.710    4.1601
    7.740    3.7072
    7.770    3.9705
    7.800    3.6546
    7.830    3.9389
    7.860    3.8968
    7.890    3.5598
    7.920    3.8863
    7.950    3.6019
    7.980    3.7599
    8.010    3.9705
    8.040    3.6756
    8.070    3.9494
    8.100    3.7177
    8.130    3.6546
    8.160    3.5176
    8.190    3.8231
    8.220    3.8652
    8.250    4.1180
    8.280    3.9389
    8.310    3.8020
    8.340    4.0126
    8.370    4.0969
    8.400    3.7493
    8.430    3.9494
    8.460    3.7072
    8.490    4.0021
    8.520    3.9494
    8.550    3.8547
    8.580    3.8441
    8.610    3.9810
    8.640    3.7704
    8.670    3.9389
    8.700    3.9494
    8.730    3.9284
    8.760    3.7704
    8.790    3.9705
    8.820    4.1601
    8.850    3.9284
    8.880    4.0126
    8.910    3.9494
    8.940    3.8757
    8.970    3.8757
    9.000    3.8968
    9.030    4.1285
    9.060    3.8652
    9.090    3.9600
    9.120    3.8652
    9.150    3.9705
    9.180    4.2022
    9.210    3.8231
    9.240    3.9810
    9.270    4.0021
    9.300    4.0021
    9.330    3.9600
    9.360    4.4971
    9.390    3.9073
    9.420    4.2759
    9.450    4.2759
    9.480    4.1074
    9.510    4.3181
    9.540    4.5814
    9.570    4.5814
    9.600    4.2443
    9.630    4.1917
    9.660    4.0969
    9.690    4.0126
    9.720    3.8547
    9.750    4.2338
    9.780    4.1074
    9.810    4.3813
    9.840    4.1496
    9.870    4.1706
    9.900    4.2865
    9.930    4.1180
    9.960    4.3602
    9.990    4.0442
   10.020    4.5603
   10.050    4.3181
   10.080    4.4234
   10.110    4.2233
   10.140    4.2127
   10.170    4.0337
   10.200    4.4128
   10.230    4.6340
   10.260    4.7077
   10.290    4.8131
   10.320    4.2865
   10.350    4.2443
   10.380    4.7183
   10.410    4.3918
   10.440    4.4550
   10.470    4.3918
   10.500    4.5919
   10.530    4.6130
   10.560    4.2443
   10.590    4.3286
   10.620    4.1706
   10.650    4.1496
   10.680    4.1390
   10.710    4.4128
   10.740    4.3813
   10.770    4.6130
   10.800    4.4128
   10.830    4.2443
   10.860    4.6024
   10.890    4.3286
   10.920    4.9605
   10.950    4.5708
   10.980    4.7183
   11.010    4.8236
   11.040    4.6445
   11.070    4.6972
   11.100    4.6656
   11.130    4.7077
   11.160    4.5919
   11.190    4.6340
   11.220    4.4760
   11.250    4.6340
   11.280    4.4444
   11.310    4.6867
   11.340    5.0132
   11.370    4.6024
   11.400    4.7288
   11.430    4.6024
   11.460    4.9078
   11.490    4.9500
   11.520    4.6340
   11.550    4.8131
   11.580    4.9289
   11.610    4.9289
   11.640    5.0553
   11.670    4.8131
   11.700    4.9710
   11.730    4.8131
   11.760    4.6340
   11.790    4.7709
   11.820    5.2343
   11.850    4.7288
   11.880    4.9078
   11.910    4.9500
   11.940    4.6656
   11.970    5.3186
   12.000    4.9394
   12.030    5.1606
   12.060    5.2765
   12.090    4.9921
   12.120    5.0974
   12.150    5.1817
   12.180    4.8973
   12.210    4.8763
   12.240    5.3818
   12.270    5.0448
   12.300    5.2027
   12.330    5.6345
   12.360    4.9289
   12.390    4.8657
   12.420    4.8763
   12.450    5.4450
   12.480    5.0448
   12.510    5.2659
   12.540    5.2554
   12.570    5.3081
   12.600    5.1080
   12.630    5.2238
   12.660    5.4555
   12.690    5.5398
   12.720    5.5398
   12.750    5.3923
   12.780    5.5924
   12.810    5.0658
   12.840    5.7083
   12.870    5.6767
   12.900    5.4660
   12.930    5.5608
   12.960    5.9084
   12.990    5.7083
   13.020    5.8557
   13.050    6.0453
   13.080    5.7293
   13.110    6.1927
   13.140    5.5819
   13.170    5.8978
   13.200    5.8662
   13.230    5.8136
   13.260    5.9505
   13.290    6.2243
   13.320    6.1717
   13.350    6.0664
   13.380    6.1927
   13.410    5.8452
   13.440    5.8662
   13.470    6.0769
   13.500    6.1717
   13.530    5.7399
   13.560    6.1401
   13.590    5.9926
   13.620    5.8241
   13.650    6.1927
   13.680    6.2770
   13.710    6.1717
   13.740    6.2138
   13.770    6.3086
   13.800    6.1295
   13.830    6.2454
   13.860    6.1927
   13.890    6.0242
   13.920    6.8457
   13.950    6.6772
   13.980    6.4666
   14.010    6.4771
   14.040    6.7825
   14.070    6.1822
   14.100    6.7509
   14.130    6.7509
   14.160    7.0142
   14.190    6.7615
   14.220    6.7299
   14.250    6.5192
   14.280    6.7615
   14.310    6.8352
   14.340    7.1090
   14.370    7.0458
   14.400    6.9616
   14.430    7.2986
   14.460    6.8246
   14.490    7.1090
   14.520    7.2775
   14.550    6.8668
   14.580    7.0037
   14.610    7.0142
   14.640    7.5408
   14.670    7.2459
   14.700    7.0985
   14.730    7.2354
   14.760    7.3828
   14.790    7.3723
   14.820    7.4671
   14.850    7.7514
   14.880    7.0774
   14.910    7.8252
   14.940    7.5303
   14.970    7.6883
   15.000    7.5197
   15.030    7.9410
   15.060    7.6567
   15.090    7.4776
   15.120    7.8568
   15.150    7.6883
   15.180    7.8989
   15.210    8.0253
   15.240    8.1411
   15.270    8.3412
   15.300    7.9621
   15.330    8.3939
   15.360    8.1306
   15.390    8.2359
   15.420    8.4150
   15.450    8.2991
   15.480    8.2780
   15.510    8.3412
   15.540    9.1838
   15.570    9.0047
   15.600    8.7204
   15.630    8.5413
   15.660    8.6993
   15.690    8.5624
   15.720    9.5419
   15.750    8.9626
   15.780    8.9731
   15.810    9.2891
   15.840    8.8257
   15.870    9.2680
   15.900    9.1101
   15.930    9.3839
   15.960    9.3102
   15.990    9.4681
   16.020    9.5629
   16.050    9.3207
   16.080    9.6998
   16.110    9.4576
   16.140    9.6472
   16.170    9.2470
   16.200    9.8894
   16.230    9.8368
   16.260   10.1738
   16.290    9.9421
   16.320    9.8473
   16.350   10.0158
   16.380    9.8473
   16.410   10.3212
   16.440   10.1422
   16.470   10.1632
   16.500   10.0474
   16.530   10.4371
   16.560   10.2159
   16.590   10.7636
   16.620   10.5635
   16.650   10.9531
   16.680   10.7425
   16.710   10.4897
   16.740   10.8478
   16.770   11.0163
   16.800   10.8162
   16.830   11.5219
   16.860   11.3849
   16.890   11.1006
   16.920   11.0795
   16.950   11.5850
   16.980   12.0695
   17.010   11.1638
   17.040   11.6693
   17.070   11.6061
   17.100   12.3539
   17.130   12.1116
   17.160   11.6798
   17.190   11.7746
   17.220   11.5324
   17.250   11.8167
   17.280   12.6909
   17.310   11.9431
   17.340   12.8594
   17.370   12.5961
   17.400   12.5645
   17.430   12.6172
   17.460   12.7646
   17.490   12.7541
   17.520   12.9331
   17.550   12.6909
   17.580   12.8067
   17.610   12.7962
   17.640   13.1122
   17.670   12.8173
   17.700   12.5434
   17.730   13.1016
   17.760   12.8594
   17.790   13.1438
   17.820   13.7230
   17.850   13.0279
   17.880   13.8283
   17.910   14.2391
   17.940   13.1648
   17.970   13.8494
   18.000   14.0495
   18.030   13.3439
   18.060   13.9021
   18.090   13.4808
   18.120   13.8494
   18.150   14.0074
   18.180   13.7441
   18.210   14.1443
   18.240   14.3760
   18.270   14.4181
   18.300   14.9552
   18.330   14.6498
   18.360   13.8389
   18.390   14.2075
   18.420   14.6814
   18.450   14.4813
   18.480   14.1654
   18.510   14.7657
   18.540   14.5972
   18.570   14.8394
   18.600   15.0816
   18.630   14.1548
   18.660   15.5977
   18.690   14.2075
   18.720   14.8920
   18.750   14.5972
   18.780   14.9026
   18.810   14.6709
   18.840   14.7341
   18.870   14.5656
   18.900   14.8394
   18.930   15.1343
   18.960   15.0395
   18.990   15.1975
   19.020   14.8078
   19.050   14.9763
   19.080   15.3449
   19.110   15.2396
   19.140   15.1975
   19.170   15.3239
   19.200   14.6603
   19.230   15.3344
   19.260   14.9868
   19.290   14.6814
   19.320   15.2185
   19.350   15.3765
   19.380   14.9026
   19.410   15.3239
   19.440   15.6503
   19.470   15.3870
   19.500   14.9552
   19.530   15.5766
   19.560   15.0816
   19.590   14.1864
   19.620   15.3976
   19.650   14.5445
   19.680   14.6077
   19.710   15.3344
   19.740   15.5661
   19.770   15.4608
   19.800   15.4081
   19.830   15.3028
   19.860   14.6709
   19.890   14.7025
   19.920   15.3765
   19.950   15.2923
   19.980   15.3976
   20.010   15.5345
   20.040   14.7446
   20.070   15.5556
   20.100   15.1659
   20.130   14.7130
   20.160   14.7446
   20.190   14.4286
   20.220   15.1448
   20.250   14.3760
   20.280   14.5972
   20.310   15.1132
   20.340   14.7341
   20.370   14.9026
   20.400   14.6603
   20.430   14.2917
   20.460   14.6814
   20.490   14.7973
   20.520   14.4708
   20.550   14.4708
   20.580   14.4181
   20.610   14.8078
   20.640   14.3339
   20.670   14.3339
   20.700   13.4702
   20.730   14.1443
   20.760   14.2601
   20.790   14.3655
   20.820   14.4181
   20.850   13.5334
   20.880   14.6182
   20.910   13.6914
   20.940   13.9547
   20.970   14.3549
   21.000   13.9968
   21.030   13.9231
   21.060   13.6282
   21.090   13.3439
   21.120   14.4918
   21.150   13.7230
   21.180   13.5440
   21.210   13.9547
   21.240   13.8389
   21.270   13.7230
   21.300   13.2912
   21.330   12.7646
   21.360   13.6177
   21.390   14.0811
   21.420   13.4387
   21.450   13.7335
   21.480   13.5650
   21.510   13.6809
   21.540   13.3439
   21.570   13.4387
   21.600   12.9542
   21.630   13.0700
   21.660   13.0279
   21.690   12.6804
   21.720   13.0806
   21.750   13.3228
   21.780   13.2280
   21.810   13.5018
   21.840   13.1227
   21.870   12.9331
   21.900   12.5856
   21.930   13.1016
   21.960   12.5434
   21.990   12.7962
   22.020   12.5645
   22.050   12.4908
   22.080   12.2801
   22.110   12.1854
   22.140   12.3328
   22.170   12.6172
   22.200   12.4803
   22.230   12.1222
   22.260   12.1748
   22.290   12.7330
   22.320   12.2591
   22.350   12.5224
   22.380   12.2907
   22.410   11.9642
   22.440   12.4803
   22.470   12.5434
   22.500   12.8699
   22.530   12.8383
   22.560   11.6588
   22.590   11.2480
   22.620   11.5113
   22.650   11.8905
   22.680   11.5850
   22.710   11.6061
   22.740   11.7325
   22.770   11.8799
   22.800   11.4903
   22.830   12.0274
   22.860   11.8062
   22.890   11.6166
   22.920   11.6377
   22.950   12.3012
   22.980   11.5219
   23.010   11.8483
   23.040   11.0795
   23.070   11.9221
   23.100   11.9221
   23.130   11.6166
   23.160   11.3533
   23.190   11.4271
   23.220   11.5008
   23.250   11.5956
   23.280   11.7536
   23.310   11.2902
   23.340   10.8162
   23.370   11.2586
   23.400   10.7214
   23.430   11.0690
   23.460   11.1848
   23.490   11.3744
   23.520   10.8689
   23.550   11.1322
   23.580   11.3428
   23.610   10.8057
   23.640   10.9637
   23.670   10.4160
   23.700   10.9321
   23.730   10.6161
   23.760   10.6582
   23.790   11.0374
   23.820   10.6898
   23.850   10.8268
   23.880   10.4265
   23.910   10.3107
   23.940   10.5740
   23.970   11.1427
   24.000   10.3949
   24.030   10.3002
   24.060   10.3633
   24.090   10.3107
   24.120   10.4581
   24.150   10.6372
   24.180   10.3002
   24.210   10.6477
   24.240   10.6688
   24.270   10.4687
   24.300   10.0369
   24.330   10.2896
   24.360   10.0474
   24.390   10.1738
   24.420    9.9526
   24.450    9.8262
   24.480    9.9315
   24.510   10.4792
   24.540   10.2475
   24.570   10.4687
   24.600    9.8894
   24.630    9.6051
   24.660    9.7209
   24.690   10.0369
   24.720   10.6477
   24.750    9.4787
   24.780    9.2891
   24.810    9.6367
   24.840    9.3523
   24.870    9.6682
   24.900    9.8368
   24.930    9.9737
   24.960   10.1316
   24.990    9.6893
   25.020    9.2259
   25.050    9.8789
   25.080    9.7630
   25.110    9.6156
   25.140    9.5103
   25.170    9.0258
   25.200    9.9105
   25.230    9.5945
   25.260    9.8578
   25.290    9.4787
   25.320    9.6051
   25.350    9.5524
   25.380    9.9526
   25.410    9.1627
   25.440    9.3944
   25.470    9.2680
   25.500    9.4365
   25.530    9.8894
   25.560    9.3102
   25.590    9.4260
   25.620    8.7204
   25.650    9.2154
   25.680    8.6151
   25.710    8.9942
   25.740    9.6156
   25.770    9.5103
   25.800    9.3523
   25.830    9.2575
   25.860    9.3312
   25.890    9.1732
   25.920    9.4471
   25.950    9.0995
   25.980    8.7414
   26.010    8.6677
   26.040    8.9415
   26.070    9.0047
   26.100    8.9415
   26.130    8.8573
   26.160    8.9310
   26.190    8.8784
   26.220    8.7520
   26.250    8.7414
   26.280    9.0363
   26.310    9.0890
   26.340    9.0258
   26.370    8.6993
   26.400    8.4887
   26.430    8.9415
   26.460    9.0363
   26.490    8.5940
   26.520    8.1201
   26.550    9.0995
   26.580    8.7098
   26.610    8.4571
   26.640    8.8678
   26.670    8.6361
   26.700    8.4781
   26.730    8.2780
   26.760    8.2359
   26.790    8.2570
   26.820    8.6361
   26.850    8.4571
   26.880    8.5413
   26.910    8.1201
   26.940    8.4044
   26.970    8.1833
   27.000    8.5835
   27.030    8.9415
   27.060    8.7520
   27.090    8.0885
   27.120    8.4150
   27.150    8.4360
   27.180    8.3307
   27.210    8.3939
   27.240    8.5519
   27.270    8.0674
   27.300    8.4992
   27.330    8.3728
   27.360    8.3623
   27.390    8.0358
   27.420    8.4571
   27.450    7.8673
   27.480    8.4150
   27.510    8.0569
   27.540    8.3412
   27.570    8.0569
   27.600    7.6883
   27.630    8.1306
   27.660    8.3202
   27.690    7.9726
   27.720    7.6145
   27.750    7.7725
   27.780    8.2780
   27.810    8.0042
   27.840    8.3834
   27.870    7.9831
   27.900    7.7830
   27.930    7.8673
   27.960    8.0885
   27.990    7.7199
   28.020    7.8357
   28.050    8.5413
   28.080    7.7620
   28.110    8.1201
   28.140    7.9516
   28.170    7.6567
   28.200    7.7830
   28.230    7.6567
   28.260    7.8357
   28.290    7.5724
   28.320    7.4144
   28.350    7.6251
   28.380    7.8884
   28.410    7.4882
   28.440    7.3618
   28.470    7.8989
   28.500    7.6461
   28.530    7.7725
   28.560    7.4776
   28.590    7.3091
   28.620    7.7620
   28.650    7.6672
   28.680    7.8462
   28.710    7.2565
   28.740    7.2249
   28.770    7.3723
   28.800    7.5092
   28.830    7.5303
   28.860    7.5935
   28.890    7.4355
   28.920    7.4460
   28.950    7.5092
   28.980    7.3828
   29.010    7.1195
   29.040    7.3618
   29.070    7.2775
   29.100    7.4250
   29.130    6.8773
   29.160    7.0774
   29.190    7.0563
   29.220    7.0985
   29.250    6.9616
   29.280    7.4355
   29.310    7.1933
   29.340    6.8562
   29.370    7.1827
   29.400    7.4566
   29.430    7.1090
   29.460    7.1301
   29.490    6.6456
   29.520    7.0142
   29.550    6.9826
   29.580    6.9405
   29.610    6.8773
   29.640    6.9932
   29.670    6.4771
   29.700    7.1827
   29.730    6.8457
   29.760    6.9405
   29.790    6.9405
   29.820    6.7615
   29.850    6.6561
   29.880    6.7088
   29.910    7.1195
   29.940    6.9405
   29.970    7.1722
   30.000    6.6983
   30.030    7.0248
   30.060    6.6245
   30.090    6.6772
   30.120    6.6983
   30.150    6.8352
   30.180    6.4244
   30.210    6.6772
   30.240    7.1617
   30.270    6.8036
   30.300    6.6877
   30.330    6.4139
   30.360    6.6877
   30.390    6.7509
   30.420    6.3718
   30.450    6.5298
   30.480    6.7299
   30.510    6.5087
   30.540    6.4982
   30.570    6.2243
   30.600    6.2559
   30.630    6.4560
   30.660    6.4982
   30.690    6.3402
   30.720    6.9194
   30.750    6.1295
   30.780    6.4139
   30.810    6.6667
   30.840    6.4982
   30.870    6.4771
   30.900    6.0874
   30.930    6.4139
   30.960    6.2665
   30.990    6.2033
   31.020    6.4876
   31.050    6.2770
   31.080    6.6667
   31.110    6.3191
   31.140    6.1401
   31.170    6.0453
   31.200    6.3296
   31.230    6.1717
   31.260    6.1085
   31.290    6.1295
   31.320    6.0769
   31.350    6.0664
   31.380    6.3507
   31.410    6.2875
   31.440    6.4139
   31.470    6.2875
   31.500    6.1927
   31.530    6.0137
   31.560    6.2138
   31.590    5.6661
   31.620    5.8978
   31.650    5.6240
   31.680    6.3507
   31.710    5.8347
   31.740    6.0242
   31.770    5.5819
   31.800    5.8241
   31.830    5.8452
   31.860    5.8978
   31.890    5.5924
   31.920    5.9189
   31.950    5.5082
   31.980    6.1822
   32.010    5.7715
   32.040    5.6135
   32.070    5.7504
   32.100    5.4766
   32.130    5.7188
   32.160    5.8241
   32.190    5.7083
   32.220    5.9400
   32.250    5.7715
   32.280    5.3081
   32.310    6.1295
   32.340    5.5819
   32.370    5.5398
   32.400    5.5608
   32.430    5.5503
   32.460    5.4555
   32.490    5.1606
   32.520    5.6767
   32.550    5.7504
   32.580    5.5292
   32.610    5.1080
   32.640    5.6135
   32.670    5.4555
   32.700    5.2449
   32.730    5.5398
   32.760    5.7504
   32.790    5.7399
   32.820    5.4871
   32.850    5.5292
   32.880    5.3818
   32.910    5.5608
   32.940    5.5398
   32.970    5.1711
   33.000    5.4871
   33.030    5.4660
   33.060    5.5503
   33.090    5.1817
   33.120    5.1290
   33.150    5.4450
   33.180    5.4239
   33.210    5.2133
   33.240    4.8025
   33.270    5.0237
   33.300    5.2975
   33.330    5.2870
   33.360    5.2449
   33.390    5.4871
   33.420    5.0448
   33.450    5.0026
   33.480    5.0974
   33.510    5.0658
   33.540    5.1395
   33.570    4.8131
   33.600    4.8973
   33.630    5.0448
   33.660    5.3081
   33.690    4.7499
   33.720    4.8025
   33.750    5.1922
   33.780    4.8447
   33.810    4.7709
   33.840    4.7604
   33.870    4.8763
   33.900    4.8973
   33.930    4.9500
   33.960    4.5603
   33.990    4.9605
   34.020    4.4866
   34.050    4.8236
   34.080    4.5708
   34.110    4.6340
   34.140    4.9289
   34.170    4.9921
   34.200    4.7709
   34.230    4.8236
   34.260    4.3707
   34.290    4.7393
   34.320    4.2865
   34.350    4.6445
   34.380    4.8763
   34.410    4.5919
   34.440    4.4550
   34.470    4.8868
   34.500    4.3391
   34.530    4.7077
   34.560    4.7499
   34.590    4.4550
   34.620    4.6972
   34.650    4.3813
   34.680    4.1496
   34.710    4.7288
   34.740    4.1811
   34.770    4.4866
   34.800    4.6340
   34.830    4.5498
   34.860    4.4760
   34.890    4.3075
   34.920    4.4971
   34.950    4.4234
   34.980    4.1706
   35.010    4.3286
   35.040    4.2338
   35.070    4.4655
   35.100    4.5498
   35.130    4.4760
   35.160    4.6340
   35.190    4.4866
   35.220    4.5076
   35.250    4.3813
   35.280    4.1390
   35.310    4.3286
   35.340    4.1180
   35.370    4.0758
   35.400    4.4128
   35.430    4.4760
   35.460    4.2865
   35.490    4.4971
   35.520    4.4128
   35.550    4.4128
   35.580    4.1180
   35.610    4.2127
   35.640    4.1074
   35.670    4.4866
   35.700    3.8968
   35.730    4.1180
   35.760    4.3602
   35.790    4.1917
   35.820    4.4234
   35.850    4.0232
   35.880    4.3813
   35.910    4.0969
   35.940    4.2233
   35.970    3.9389
   36.000    4.1074
   36.030    3.8757
   36.060    4.0548
   36.090    4.0758
   36.120    4.2233
   36.150    4.0758
   36.180    3.8863
   36.210    3.8020
   36.240    4.0758
   36.270    3.9705
   36.300    4.1074
   36.330    4.0758
   36.360    3.8968
   36.390    4.2338
   36.420    4.1601
   36.450    4.0126
   36.480    3.9916
   36.510    3.9389
   36.540    3.9810
   36.570    4.1180
   36.600    4.1496
   36.630    3.7915
   36.660    4.1074
   36.690    4.1180
   36.720    4.0232
   36.750    3.7599
   36.780    3.8441
   36.810    3.8231
   36.840    4.1285
   36.870    3.9916
   36.900    3.7283
   36.930    3.8757
   36.960    3.9494
   36.990    3.9600
   37.020    3.8441
   37.050    3.9179
   37.080    3.6651
   37.110    3.8547
   37.140    3.9705
   37.170    4.0337
   37.200    3.7283
   37.230    3.8863
   37.260    3.6862
   37.290    3.9179
   37.320    3.9284
   37.350    4.0126
   37.380    4.0548
   37.410    3.6862
   37.440    3.5914
   37.470    3.6335
   37.500    3.6546
   37.530    3.7704
   37.560    3.8547
   37.590    3.7177
   37.620    3.6335
   37.650    3.7915
   37.680    3.6862
   37.710    3.9916
   37.740    3.7809
   37.770    3.8547
   37.800    3.8336
   37.830    3.8547
   37.860    3.8968
   37.890    3.7072
   37.920    3.5492
   37.950    3.7177
   37.980    3.7915
   38.010    3.6862
   38.040    3.8231
   38.070    3.8547
   38.100    3.9284
   38.130    3.5914
   38.160    3.5598
   38.190    3.8863
   38.220    3.7388
   38.250    3.8968
   38.280    3.6546
   38.310    3.6651
   38.340    3.6546
   38.370    3.7177
   38.400    3.8547
   38.430    3.9284
   38.460    4.0232
   38.490    3.6335
   38.520    3.5387
   38.550    3.9600
   38.580    3.7072
   38.610    3.5598
   38.640    3.7915
   38.670    3.6019
   38.700    3.6756
   38.730    3.5598
   38.760    3.8020
   38.790    3.5808
   38.820    3.7283
   38.850    3.8336
   38.880    3.4650
   38.910    3.3913
   38.940    3.2122
   38.970    3.4018
   39.000    3.5914
   39.030    3.4755
   39.060    3.4860
   39.090    3.5703
   39.120    3.6756
   39.150    3.4755
   39.180    3.9073
   39.210    3.6756
   39.240    3.7493
   39.270    3.6335
   39.300    3.3597
   39.330    3.3386
   39.360    3.4755
   39.390    3.6756
   39.420    3.4229
   39.450    3.5703
   39.480    3.4755
   39.510    3.4334
   39.540    3.3913
   39.570    3.4966
   39.600    3.4860
   39.630    3.2122
   39.660    3.2965
   39.690    3.6546
   39.720    3.2859
   39.750    3.6335
   39.780    3.5387
   39.810    3.1912
   39.840    3.2122
   39.870    3.4544
   39.900    3.2017
   39.930    3.2543
   39.960    3.5492
   39.990    3.5808