File: data/PXRD/PXRD_KE-332_Cu-Ka1_capillary-1mm_3s-deg.xyd
    1.500   11.6202
    1.545   11.8659
    1.590   11.6553
    1.635   11.3217
    1.680   10.8478
    1.725   10.7952
    1.770   10.5494
    1.815   10.9356
    1.860   10.6372
    1.905    9.7244
    1.950    9.8473
    1.995    9.4787
    2.040    9.5313
    2.085    9.8473
    2.130   10.0930
    2.175    9.3909
    2.220   10.0404
    2.265    9.3909
    2.310    9.7595
    2.355   10.1983
    2.400   10.5845
    2.445   10.3739
    2.490   10.9882
    2.535   11.2691
    2.580   11.1462
    2.625   11.3393
    2.670   11.6728
    2.715   12.2696
    2.760   12.1994
    2.805   12.6558
    2.850   13.9898
    2.895   14.7270
    2.940   15.4116
    2.985   15.2887
    3.030   16.5701
    3.075   17.0090
    3.120   18.1324
    3.165   20.0456
    3.210   20.5898
    3.255   22.6084
    3.300   24.7499
    3.345   26.0488
    3.390   30.0334
    3.435   32.9296
    3.480   36.2471
    3.525   39.7227
    3.570   46.6386
    3.615   54.2742
    3.660   65.0693
    3.705   79.3049
    3.750   99.4734
    3.795  142.2503
    3.840  195.9277
    3.885   88.5729
    3.930   16.5877
    3.975    7.8989
    4.020    6.7404
    4.065    6.0734
    4.110    5.7750
    4.155    5.7399
    4.200    5.8276
    4.245    5.4415
    4.290    5.4239
    4.335    5.1782
    4.380    5.5643
    4.425    6.3718
    4.470    6.1260
    4.515    5.5643
    4.560    6.4420
    4.605    6.8457
    4.650    6.3016
    4.695    6.8984
    4.740    6.7579
    4.785    7.2670
    4.830    7.9516
    4.875    8.1095
    4.920    8.7941
    4.965    9.7069
    5.010   10.2510
    5.055   11.5324
    5.100   13.4632
    5.145   14.4111
    5.190   17.3425
    5.235   19.0802
    5.280   23.3632
    5.325   27.6988
    5.370   36.3876
    5.415   53.4316
    5.460   69.0714
    5.505   34.1408
    5.550    8.9872
    5.595    5.5117
    5.640    4.7920
    5.685    4.7218
    5.730    4.5463
    5.775    4.6516
    5.820    4.7569
    5.865    4.7744
    5.910    4.8622
    5.955    4.8447
    6.000    5.0728
    6.045    4.9149
    6.090    5.0728
    6.135    5.2659
    6.180    4.9324
    6.225    5.4064
    6.270    5.8276
    6.315    6.2489
    6.360    6.1962
    6.405    6.2313
    6.450    7.1441
    6.495    8.3377
    6.540    8.9696
    6.585    9.9702
    6.630   13.7616
    6.675   19.8350
    6.720   19.7823
    6.765    8.3553
    6.810    4.3532
    6.855    4.5111
    6.900    4.7569
    6.945    4.0372
    6.990    4.3005
    7.035    4.1952
    7.080    4.4058
    7.125    4.8271
    7.170    4.6691
    7.215    4.9149
    7.260    4.6165
    7.305    4.8973
    7.350    4.9851
    7.395    5.8276
    7.440    5.9505
    7.485    6.0909
    7.530    6.5122
    7.575    6.9335
    7.620    8.5133
    7.665   10.7600
    7.710   14.2882
    7.755   17.5707
    7.800   10.4090
    7.845    4.9324
    7.890    3.9670
    7.935    4.1952
    7.980    4.3532
    8.025    4.4058
    8.070    4.3883
    8.115    4.3005
    8.160    4.2127
    8.205    4.2127
    8.250    4.1776
    8.295    4.2654
    8.340    4.1250
    8.385    4.4409
    8.430    3.7037
    8.475    4.5111
    8.520    4.2127
    8.565    4.7569
    8.610    5.0202
    8.655    5.8101
    8.700    5.1431
    8.745    4.1776
    8.790    4.1425
    8.835    4.5638
    8.880    4.0899
    8.925    4.1952
    8.970    4.1074
    9.015    4.6691
    9.060    4.7920
    9.105    5.2133
    9.150    5.1080
    9.195    6.1611
    9.240    6.8282
    9.285    7.4250
    9.330    8.7063
    9.375   11.4095
    9.420   14.6217
    9.465   22.7313
    9.510   29.7174
    9.555   17.2196
    9.600    6.4244
    9.645    4.1601
    9.690    4.0548
    9.735    3.8792
    9.780    4.1952
    9.825    4.0197
    9.870    3.9143
    9.915    4.0723
    9.960    4.3883
   10.005    4.9500
   10.050    5.3186
   10.095    5.5819
   10.140    6.4244
   10.185    7.3899
   10.230    9.5138
   10.275   12.3223
   10.320    9.5313
   10.365    4.9324
   10.410    4.0197
   10.455    4.2303
   10.500    3.7564
   10.545    3.7739
   10.590    4.4760
   10.635    4.1601
   10.680    4.1601
   10.725    5.0728
   10.770    4.7569
   10.815    5.8627
   10.860    5.7925
   10.905    7.3196
   10.950    9.4436
   10.995   11.6377
   11.040    8.2675
   11.085    5.0202
   11.130    3.9670
   11.175    4.0021
   11.220    4.0899
   11.265    4.1776
   11.310    4.3707
   11.355    4.1776
   11.400    4.5638
   11.445    5.4766
   11.490    4.7042
   11.535    6.0207
   11.580    7.3372
   11.625    9.8999
   11.670   12.5505
   11.715    8.8468
   11.760    4.6340
   11.805    3.8266
   11.850    4.0723
   11.895    3.9494
   11.940    3.7564
   11.985    3.7564
   12.030    3.8090
   12.075    3.8266
   12.120    3.7739
   12.165    4.1074
   12.210    4.4234
   12.255    4.1952
   12.300    5.0904
   12.345    4.8798
   12.390    3.8617
   12.435    3.6159
   12.480    3.5633
   12.525    3.4931
   12.570    3.9143
   12.615    4.1250
   12.660    4.3883
   12.705    4.3356
   12.750    4.8798
   12.795    5.8803
   12.840    6.6877
   12.885    8.4430
   12.930    8.5308
   12.975    5.7750
   13.020    3.7564
   13.065    3.8617
   13.110    3.8617
   13.155    4.2830
   13.200    3.6510
   13.245    3.6686
   13.290    3.8441
   13.335    4.2478
   13.380    4.9149
   13.425    4.6867
   13.470    5.8276
   13.515    6.4244
   13.560    4.4234
   13.605    4.1074
   13.650    3.9143
   13.695    3.6686
   13.740    3.9143
   13.785    4.5463
   13.830    3.9494
   13.875    4.0372
   13.920    4.5287
   13.965    5.7750
   14.010    7.1617
   14.055    8.8643
   14.100    5.7048
   14.145    4.0021
   14.190    4.0548
   14.235    3.7564
   14.280    3.8441
   14.325    3.9846
   14.370    4.3181
   14.415    3.6335
   14.460    3.8266
   14.505    3.6335
   14.550    3.5457
   14.595    3.6510
   14.640    3.3175
   14.685    3.7037
   14.730    3.4053
   14.775    3.7037
   14.820    3.9670
   14.865    3.3702
   14.910    4.0372
   14.955    4.1250
   15.000    4.4760
   15.045    4.4760
   15.090    4.8973
   15.135    4.1952
   15.180    3.7388
   15.225    4.0021
   15.270    4.2127
   15.315    3.9143
   15.360    3.3702
   15.405    3.9846
   15.450    3.4755
   15.495    3.4931
   15.540    3.6159
   15.585    3.9846
   15.630    3.7915
   15.675    3.1596
   15.720    3.4404
   15.765    3.7915
   15.810    3.8792
   15.855    3.5633
   15.900    3.9494
   15.945    4.1776
   15.990    3.6335
   16.035    4.5638
   16.080    4.9675
   16.125    4.3181
   16.170    4.0372
   16.215    3.6335
   16.260    3.6335
   16.305    3.3877
   16.350    3.6335
   16.395    3.5984
   16.440    4.3356
   16.485    4.3005
   16.530    5.2835
   16.575    4.9675
   16.620    4.4585
   16.665    3.9494
   16.710    3.7037
   16.755    3.9143
   16.800    4.1776
   16.845    4.2303
   16.890    4.3005
   16.935    5.4766
   16.980    7.4601
   17.025    7.9691
   17.070    5.5468
   17.115    4.2830
   17.160    4.2127
   17.205    3.7915
   17.250    3.6335
   17.295    3.9494
   17.340    3.3526
   17.385    4.2478
   17.430    4.6165
   17.475    4.1425
   17.520    4.4585
   17.565    3.8617
   17.610    3.9494
   17.655    3.3877
   17.700    3.6159
   17.745    3.5984
   17.790    3.7037
   17.835    4.0197
   17.880    4.2654
   17.925    4.0372
   17.970    3.9670
   18.015    3.7388
   18.060    3.6159
   18.105    3.6862
   18.150    3.8968
   18.195    3.8266
   18.240    4.1250
   18.285    4.2127
   18.330    4.4585
   18.375    4.5463
   18.420    4.3005
   18.465    3.4229
   18.510    3.7739
   18.555    3.9846
   18.600    3.5633
   18.645    3.8266
   18.690    4.0899
   18.735    4.3005
   18.780    4.4058
   18.825    3.5984
   18.870    3.3175
   18.915    3.4931
   18.960    3.6862
   19.005    3.7388
   19.050    3.7564
   19.095    3.8266
   19.140    3.8617
   19.185    3.7388
   19.230    3.8617
   19.275    3.8090
   19.320    3.7915
   19.365    3.8968
   19.410    4.0021
   19.455    4.0723
   19.500    4.3883
   19.545    4.9324
   19.590    4.5287
   19.635    3.8968
   19.680    3.8792
   19.725    3.6510
   19.770    3.7037
   19.815    3.8792
   19.860    3.5808
   19.905    3.2298
   19.950    3.6335
   19.995    3.7037
   20.040    3.2824
   20.085    3.7739
   20.130    3.6510
   20.175    4.7744
   20.220    4.7393
   20.265    5.0904
   20.310    6.4420
   20.355    6.3016
   20.400    5.0202
   20.445    3.6159
   20.490    3.8617
   20.535    3.9670
   20.580    3.4755
   20.625    3.6862
   20.670    3.5106
   20.715    3.6862
   20.760    3.6159
   20.805    3.5282
   20.850    3.8617
   20.895    3.7564
   20.940    3.8441
   20.985    3.6510
   21.030    3.7915
   21.075    3.9670
   21.120    3.4580
   21.165    3.5808
   21.210    3.7213
   21.255    3.5457
   21.300    3.8090
   21.345    3.6862
   21.390    3.9143
   21.435    3.6510
   21.480    3.5106
   21.525    3.6159
   21.570    3.4053
   21.615    4.0021
   21.660    3.7564
   21.705    4.1776
   21.750    4.0899
   21.795    4.8447
   21.840    4.9500
   21.885    4.1425
   21.930    3.8441
   21.975    3.7739
   22.020    3.7915
   22.065    4.4058
   22.110    4.0548
   22.155    4.6867
   22.200    4.3356
   22.245    4.1250
   22.290    3.6862
   22.335    4.0372
   22.380    3.8617
   22.425    5.5994
   22.470    6.3893
   22.515    6.7930
   22.560    6.1962
   22.605    4.3707
   22.650    4.5463
   22.695    4.0548
   22.740    4.3532
   22.785    5.4239
   22.830    6.2138
   22.875    7.0563
   22.920    5.4941
   22.965    4.2127
   23.010    4.0899
   23.055    3.8617
   23.100    4.1601
   23.145    5.0202
   23.190    4.8095
   23.235    4.4760
   23.280    4.1250
   23.325    3.5633
   23.370    3.4053
   23.415    3.4931
   23.460    3.6510
   23.505    4.1074
   23.550    3.6686
   23.595    3.7915
   23.640    3.5633
   23.685    3.6862
   23.730    3.7388
   23.775    4.2303
   23.820    4.1425
   23.865    4.4760
   23.910    4.0372
   23.955    3.3175
   24.000    3.7388
   24.045    3.3702
   24.090    4.1074
   24.135    3.4931
   24.180    3.7213
   24.225    3.6862
   24.270    3.8617
   24.315    4.0021
   24.360    3.3175
   24.405    3.7213
   24.450    3.9319
   24.495    3.8617
   24.540    4.0021
   24.585    3.8968
   24.630    3.7388
   24.675    3.3000
   24.720    3.7564
   24.765    3.8090
   24.810    3.5808
   24.855    3.5633
   24.900    3.7739
   24.945    3.7915
   24.990    3.9319
   25.035    3.9494
   25.080    3.6686
   25.125    3.7564
   25.170    3.8617
   25.215    3.5282
   25.260    3.5457
   25.305    3.5808
   25.350    3.7739
   25.395    3.5633
   25.440    4.0548
   25.485    4.0723
   25.530    3.4931
   25.575    3.8266
   25.620    4.0548
   25.665    4.3181
   25.710    5.3888
   25.755    5.8978
   25.800    5.1431
   25.845    4.7569
   25.890    3.6862
   25.935    3.6335
   25.980    3.5457
   26.025    3.4931
   26.070    3.6510
   26.115    3.4931
   26.160    3.4755
   26.205    3.6335
   26.250    3.5282
   26.295    4.1250
   26.340    4.0899
   26.385    4.2654
   26.430    4.0197
   26.475    3.5808
   26.520    3.8090
   26.565    3.3175
   26.610    3.0718
   26.655    3.4404
   26.700    3.2473
   26.745    3.5633
   26.790    3.2473
   26.835    3.5106
   26.880    3.9143
   26.925    4.0197
   26.970    4.3707
   27.015    4.0899
   27.060    3.4053
   27.105    3.2824
   27.150    3.1420
   27.195    3.6510
   27.240    3.2473
   27.285    3.5282
   27.330    3.6335
   27.375    3.4404
   27.420    3.8617
   27.465    4.0021
   27.510    4.3005
   27.555    4.1952
   27.600    3.4404
   27.645    3.4229
   27.690    3.3526
   27.735    3.5106
   27.780    3.4931
   27.825    4.1250
   27.870    3.5984
   27.915    3.7037
   27.960    3.5808
   28.005    3.7739
   28.050    4.5638
   28.095    4.1425
   28.140    4.0197
   28.185    3.9319
   28.230    3.5808
   28.275    3.4755
   28.320    3.7213
   28.365    4.0548
   28.410    4.0372
   28.455    3.8617
   28.500    3.8617
   28.545    3.5633
   28.590    3.4931
   28.635    3.5106
   28.680    3.2473
   28.725    3.5106
   28.770    3.8617
   28.815    3.0191
   28.860    3.7037
   28.905    3.4404
   28.950    3.5633
   28.995    3.7564
   29.040    3.5633
   29.085    3.1596
   29.130    3.6159
   29.175    3.7915
   29.220    3.6510
   29.265    3.9143
   29.310    3.6159
   29.355    3.2649
   29.400    3.2298
   29.445    3.4931
   29.490    3.3175
   29.535    3.0893
   29.580    3.6335
   29.625    3.6510
   29.670    3.6510
   29.715    3.7739
   29.760    3.8968
   29.805    3.3877
   29.850    3.3351
   29.895    3.3526
   29.940    3.5106
   29.985    3.3877
   30.030    3.7388
   30.075    3.3877
   30.120    3.3702
   30.165    3.3702
   30.210    3.3175
   30.255    3.1420
   30.300    3.5984
   30.345    3.9846
   30.390    3.2298
   30.435    3.2122
   30.480    3.8441
   30.525    3.4229
   30.570    4.0197
   30.615    3.3526
   30.660    2.9840
   30.705    3.3526
   30.750    3.5106
   30.795    3.2824
   30.840    3.5282
   30.885    3.3526
   30.930    3.5106
   30.975    3.1245
   31.020    3.0893
   31.065    3.2649
   31.110    3.1947
   31.155    3.1245
   31.200    2.9314
   31.245    3.0542
   31.290    3.6862
   31.335    3.4229
   31.380    3.4931
   31.425    3.1596
   31.470    3.0893
   31.515    3.3000
   31.560    3.2122
   31.605    3.6510
   31.650    3.2298
   31.695    3.4229
   31.740    3.6159
   31.785    3.5808
   31.830    3.3702
   31.875    3.5106
   31.920    3.1947
   31.965    3.1596
   32.010    3.0893
   32.055    3.4931
   32.100    3.3351
   32.145    3.3175
   32.190    3.3000
   32.235    2.8963
   32.280    2.8963
   32.325    3.4053
   32.370    3.5633
   32.415    3.3702
   32.460    2.9138
   32.505    2.9840
   32.550    3.3877
   32.595    3.1771
   32.640    3.2473
   32.685    3.2824
   32.730    3.2824
   32.775    3.4404
   32.820    3.0718
   32.865    3.2298
   32.910    3.0016
   32.955    2.9840
   33.000    2.9840
   33.045    2.7909
   33.090    3.0542
   33.135    3.1771
   33.180    2.8085
   33.225    2.7558
   33.270    2.9489
   33.315    3.1771
   33.360    2.5276
   33.405    3.2473
   33.450    3.2298
   33.495    3.1420
   33.540    3.0367
   33.585    2.7909
   33.630    3.1245
   33.675    3.1947
   33.720    3.1596
   33.765    3.0542
   33.810    3.5633
   33.855    3.5808
   33.900    3.0542
   33.945    3.0016
   33.990    2.7383
   34.035    3.4580
   34.080    2.9314
   34.125    3.0016
   34.170    3.1069
   34.215    3.2824
   34.260    3.4404
   34.305    2.7909
   34.350    2.8085
   34.395    3.2824
   34.440    2.8085
   34.485    3.0893
   34.530    3.1771
   34.575    2.9665
   34.620    3.2298
   34.665    3.1771
   34.710    3.0191
   34.755    2.6681
   34.800    3.0893
   34.845    2.9314
   34.890    2.8260
   34.935    2.9665
   34.980    2.9138
   35.025    2.9138
   35.070    3.0016
   35.115    2.8963
   35.160    3.0893
   35.205    3.0542
   35.250    3.2824
   35.295    3.0191
   35.340    2.6330
   35.385    2.9314
   35.430    2.6154
   35.475    2.8612
   35.520    2.8085
   35.565    3.2298
   35.610    2.9138
   35.655    2.8787
   35.700    2.8787
   35.745    3.0367
   35.790    2.9489
   35.835    2.8612
   35.880    3.1420
   35.925    3.0893
   35.970    3.1596
   36.015    2.4925
   36.060    2.8963
   36.105    2.8963
   36.150    2.8787
   36.195    3.1420
   36.240    2.8963
   36.285    2.8612
   36.330    2.5979
   36.375    2.7909
   36.420    2.8085
   36.465    3.0542
   36.510    3.1069
   36.555    3.3351
   36.600    2.7383
   36.645    2.8787
   36.690    2.8787
   36.735    2.7734
   36.780    2.8260
   36.825    3.0718
   36.870    2.8085
   36.915    3.0542
   36.960    2.7909
   37.005    3.4580
   37.050    3.3351
   37.095    3.2824
   37.140    2.7734
   37.185    2.7383
   37.230    2.7207
   37.275    2.4223
   37.320    2.5979
   37.365    2.9138
   37.410    2.8787
   37.455    2.8436
   37.500    2.9314
   37.545    3.1771
   37.590    2.9489
   37.635    2.8260
   37.680    2.6505
   37.725    2.6154
   37.770    2.6681
   37.815    2.8085
   37.860    2.7558
   37.905    2.6681
   37.950    2.6856
   37.995    2.9665
   38.040    2.5276
   38.085    2.9489
   38.130    2.7032
   38.175    2.8085
   38.220    2.7734
   38.265    2.7383
   38.310    2.7383
   38.355    2.8963
   38.400    2.9665
   38.445    2.7207
   38.490    2.6681
   38.535    2.4574
   38.580    2.8085
   38.625    2.7909
   38.670    3.0191
   38.715    2.9665
   38.760    2.5101
   38.805    2.9314
   38.850    2.4925
   38.895    2.8963
   38.940    2.7734
   38.985    2.8085
   39.030    2.7734
   39.075    2.5628
   39.120    3.0016
   39.165    3.0542
   39.210    2.6330
   39.255    2.7558
   39.300    2.7909
   39.345    2.6856
   39.390    2.4574
   39.435    2.9314
   39.480    2.8612
   39.525    2.7734
   39.570    2.8260
   39.615    2.8085
   39.660    2.2995
   39.705    2.8963
   39.750    2.6681
   39.795    2.9665
   39.840    3.1069
   39.885    2.6330
   39.930    3.2473
   39.975    3.0191
   40.020    2.4925
   40.065    2.6154
   40.110    2.8260
   40.155    2.8436
   40.200    2.8085
   40.245    2.8085
   40.290    2.6856
   40.335    2.8612
   40.380    3.1420
   40.425    3.0542
   40.470    3.0893
   40.515    3.0893
   40.560    2.5628
   40.605    2.6154
   40.650    3.0718
   40.695    2.6330
   40.740    2.8260
   40.785    2.8612
   40.830    2.4223
   40.875    2.5452
   40.920    2.6681
   40.965    2.4574
   41.010    2.7734
   41.055    2.5452
   41.100    2.5979
   41.145    2.8085
   41.190    2.8260
   41.235    2.8085
   41.280    2.7558
   41.325    2.8085
   41.370    2.9665
   41.415    2.6681
   41.460    2.6154
   41.505    2.5452
   41.550    2.8612
   41.595    2.3346
   41.640    2.8963
   41.685    2.4574
   41.730    2.8612
   41.775    2.7383
   41.820    2.5803
   41.865    2.6681
   41.910    2.5101
   41.955    2.6154
   42.000    3.0191
   42.045    2.7383
   42.090    2.6681
   42.135    2.8787
   42.180    2.8085
   42.225    2.7207
   42.270    2.8260
   42.315    2.4750
   42.360    2.6856
   42.405    2.6330
   42.450    2.5276
   42.495    2.9665
   42.540    2.5276
   42.585    2.4048
   42.630    2.5452
   42.675    2.7207
   42.720    2.5628
   42.765    2.7734
   42.810    3.0191
   42.855    2.8085
   42.900    3.0718
   42.945    2.5628
   42.990    2.7032
   43.035    2.6856
   43.080    2.8260
   43.125    2.8963
   43.170    3.1596
   43.215    3.1245
   43.260    2.7734
   43.305    2.7558
   43.350    2.8963
   43.395    2.4925
   43.440    2.8612
   43.485    2.7207
   43.530    2.5979
   43.575    2.9314
   43.620    2.3872
   43.665    2.9665
   43.710    2.9314
   43.755    2.9138
   43.800    2.5628
   43.845    2.9489
   43.890    2.9314
   43.935    2.9489
   43.980    2.7909
   44.025    3.0191
   44.070    2.8963
   44.115    2.7909
   44.160    2.6856
   44.205    2.6856
   44.250    3.0191
   44.295    2.5101
   44.340    2.5628
   44.385    2.7558
   44.430    2.2995
   44.475    3.2298
   44.520    2.8260
   44.565    2.4750
   44.610    2.7558
   44.655    2.8436
   44.700    2.7032
   44.745    2.7207
   44.790    2.8787
   44.835    2.7734
   44.880    2.7909
   44.925    2.5628
   44.970    2.4574
   45.015    2.4750
   45.060    2.9840
   45.105    2.9665
   45.150    2.8787
   45.195    3.0718
   45.240    2.8963
   45.285    2.8260
   45.330    2.8436
   45.375    2.5276
   45.420    2.7734
   45.465    2.9840
   45.510    2.2819
   45.555    2.5276
   45.600    2.5101
   45.645    2.6681
   45.690    2.8612
   45.735    2.8085
   45.780    2.8260
   45.825    2.5452
   45.870    2.1239
   45.915    2.2819
   45.960    2.7207
   46.005    2.6154
   46.050    3.1420
   46.095    2.3872
   46.140    2.6856
   46.185    2.7032
   46.230    2.9665
   46.275    2.6154
   46.320    2.8612
   46.365    2.8787
   46.410    2.7032
   46.455    2.7032
   46.500    2.6505
   46.545    2.6681
   46.590    2.7207
   46.635    2.4925
   46.680    2.6681
   46.725    2.5452
   46.770    2.7207
   46.815    2.5101
   46.860    2.0713
   46.905    2.2292
   46.950    2.2819
   46.995    2.6505
   47.040    2.6856
   47.085    2.5979
   47.130    2.7032
   47.175    2.4223
   47.220    2.6330
   47.265    2.5979
   47.310    2.6154
   47.355    2.7909
   47.400    2.4399
   47.445    2.5101
   47.490    2.1941
   47.535    2.6330
   47.580    2.4223
   47.625    2.6681
   47.670    2.5803
   47.715    2.8260
   47.760    2.8612
   47.805    2.6505
   47.850    2.1590
   47.895    2.6330
   47.940    2.4925
   47.985    2.8260
   48.030    2.6681
   48.075    2.8436
   48.120    2.5276
   48.165    2.3872
   48.210    2.6154
   48.255    2.4925
   48.300    2.5628
   48.345    2.4925
   48.390    2.6154
   48.435    3.0191
   48.480    2.8085
   48.525    2.5628
   48.570    2.5452
   48.615    2.8963
   48.660    2.4750
   48.705    2.4048
   48.750    2.7207
   48.795    2.6154
   48.840    2.2819
   48.885    3.0367
   48.930    2.5803
   48.975    2.4574
   49.020    2.6330
   49.065    2.5452
   49.110    2.5803
   49.155    2.4750
   49.200    2.1766
   49.245    2.4750
   49.290    2.4399
   49.335    2.4048
   49.380    2.4223
   49.425    2.3872
   49.470    2.5628
   49.515    2.4925
   49.560    2.4048
   49.605    2.8612
   49.650    2.2468
   49.695    2.2468
   49.740    2.4574
   49.785    2.7909
   49.830    2.4925
   49.875    2.1064
   49.920    2.5979
   49.965    2.6505
   49.980    2.7909