File: data/PXRD/PXRD_KE-259-2_Cu-Ka1_film-3mm_3s-deg.xyd
    1.500    7.2845
    1.545    7.5303
    1.590    6.7755
    1.635    6.5824
    1.680    6.8457
    1.725    6.3191
    1.770    6.1611
    1.815    6.4244
    1.860    5.4239
    1.905    5.7399
    1.950    5.8978
    1.995    5.7399
    2.040    4.8973
    2.085    5.5117
    2.130    5.2133
    2.175    4.8447
    2.220    4.8973
    2.265    4.7569
    2.310    4.5989
    2.355    5.0377
    2.400    4.4234
    2.445    4.3707
    2.490    4.3707
    2.535    4.1952
    2.580    4.4409
    2.625    4.0548
    2.670    4.3181
    2.715    4.1952
    2.760    3.8617
    2.805    3.9143
    2.850    4.0372
    2.895    4.0372
    2.940    4.2654
    2.985    4.4585
    3.030    3.6510
    3.075    3.6510
    3.120    3.7739
    3.165    3.9846
    3.210    3.9319
    3.255    4.1250
    3.300    3.6159
    3.345    3.4755
    3.390    3.9319
    3.435    3.7564
    3.480    4.0723
    3.525    3.5633
    3.570    4.0548
    3.615    3.6159
    3.660    3.5106
    3.705    3.8266
    3.750    3.6686
    3.795    3.7739
    3.840    3.5457
    3.885    3.4053
    3.930    3.4229
    3.975    3.6159
    4.020    3.8617
    4.065    3.9846
    4.110    3.5633
    4.155    3.6862
    4.200    3.6510
    4.245    3.6862
    4.290    3.5106
    4.335    3.9494
    4.380    3.8617
    4.425    3.5106
    4.470    3.8968
    4.515    3.7037
    4.560    3.7564
    4.605    3.6862
    4.650    4.0197
    4.695    3.7213
    4.740    4.1952
    4.785    3.7915
    4.830    3.8968
    4.875    4.2303
    4.920    4.2830
    4.965    3.8792
    5.010    4.6867
    5.055    3.7388
    5.100    4.1776
    5.145    4.6867
    5.190    4.7569
    5.235    4.4760
    5.280    4.3707
    5.325    5.1606
    5.370    5.0202
    5.415    5.2835
    5.460    4.8622
    5.505    5.2308
    5.550    5.1782
    5.595    5.1957
    5.640    4.7920
    5.685    4.5463
    5.730    5.0904
    5.775    4.3356
    5.820    4.3707
    5.865    4.3005
    5.910    4.0372
    5.955    3.7388
    6.000    4.0723
    6.045    3.8266
    6.090    3.7213
    6.135    4.3181
    6.180    3.7213
    6.225    3.5633
    6.270    4.0723
    6.315    3.0718
    6.360    3.5106
    6.405    3.3526
    6.450    3.3175
    6.495    3.1245
    6.540    3.1596
    6.585    3.3000
    6.630    3.5808
    6.675    3.3351
    6.720    3.4755
    6.765    3.6862
    6.810    3.1596
    6.855    2.9665
    6.900    3.3877
    6.945    3.3175
    6.990    3.3000
    7.035    3.3000
    7.080    3.0542
    7.125    3.0191
    7.170    3.0542
    7.215    2.8612
    7.260    2.9489
    7.305    2.7909
    7.350    2.8436
    7.395    2.8085
    7.440    2.7734
    7.485    2.9314
    7.530    2.7383
    7.575    3.0718
    7.620    2.8787
    7.665    2.6330
    7.710    2.7558
    7.755    2.8260
    7.800    2.6681
    7.845    2.7909
    7.890    2.8085
    7.935    2.7734
    7.980    2.6856
    8.025    2.7207
    8.070    2.5803
    8.115    2.5452
    8.160    2.6154
    8.205    2.2995
    8.250    2.6330
    8.295    2.4399
    8.340    2.7734
    8.385    2.6505
    8.430    2.3521
    8.475    2.5628
    8.520    2.2643
    8.565    2.0537
    8.610    2.5101
    8.655    2.4574
    8.700    2.4048
    8.745    2.4925
    8.790    2.5276
    8.835    2.2995
    8.880    2.5101
    8.925    2.4399
    8.970    2.4048
    9.015    2.3697
    9.060    2.4399
    9.105    2.2643
    9.150    2.4925
    9.195    2.1590
    9.240    2.4574
    9.285    2.6330
    9.330    2.4223
    9.375    2.4750
    9.420    2.4750
    9.465    2.1415
    9.510    2.5803
    9.555    2.4750
    9.600    2.4048
    9.645    2.0362
    9.690    2.2468
    9.735    2.4223
    9.780    2.3872
    9.825    2.2117
    9.870    2.3697
    9.915    2.2468
    9.960    2.5452
   10.005    2.1239
   10.050    2.4925
   10.095    2.4399
   10.140    2.3170
   10.185    2.4574
   10.230    2.2117
   10.275    2.2995
   10.320    2.4399
   10.365    2.2995
   10.410    2.4048
   10.455    2.4574
   10.500    2.3697
   10.545    2.2819
   10.590    2.6856
   10.635    2.4574
   10.680    2.8787
   10.725    2.6330
   10.770    2.1064
   10.815    2.2292
   10.860    2.5803
   10.905    2.7734
   10.950    2.5979
   10.995    2.3697
   11.040    2.5452
   11.085    2.7558
   11.130    2.4750
   11.175    2.5276
   11.220    2.4574
   11.265    2.4750
   11.310    2.4750
   11.355    2.5628
   11.400    2.6681
   11.445    2.4574
   11.490    2.7383
   11.535    2.7383
   11.580    2.5803
   11.625    2.6505
   11.670    2.4048
   11.715    2.1239
   11.760    2.1941
   11.805    2.4925
   11.850    2.3872
   11.895    2.2292
   11.940    2.5276
   11.985    2.2643
   12.030    2.3170
   12.075    2.3697
   12.120    2.3697
   12.165    2.2117
   12.210    2.3346
   12.255    2.4399
   12.300    2.3521
   12.345    2.2995
   12.390    2.0186
   12.435    2.0713
   12.480    2.2292
   12.525    2.0537
   12.570    2.2117
   12.615    2.1941
   12.660    2.3521
   12.705    2.3170
   12.750    2.3170
   12.795    2.3170
   12.840    2.0011
   12.885    2.3170
   12.930    2.3521
   12.975    2.0011
   13.020    2.0362
   13.065    2.1941
   13.110    2.0888
   13.155    2.3170
   13.200    2.2292
   13.245    2.2468
   13.290    2.6330
   13.335    2.1239
   13.380    2.0537
   13.425    2.0713
   13.470    2.2995
   13.515    2.2995
   13.560    2.2468
   13.605    2.1590
   13.650    2.3521
   13.695    1.8957
   13.740    2.0011
   13.785    2.5452
   13.830    2.4750
   13.875    2.1941
   13.920    2.2995
   13.965    2.2819
   14.010    2.4574
   14.055    2.1064
   14.100    2.4399
   14.145    2.3872
   14.190    2.3697
   14.235    2.4925
   14.280    1.8782
   14.325    2.3697
   14.370    2.2117
   14.415    2.4750
   14.460    2.4925
   14.505    2.5101
   14.550    2.4925
   14.595    2.4048
   14.640    2.0888
   14.685    2.1590
   14.730    2.5452
   14.775    2.4750
   14.820    2.1590
   14.865    2.4223
   14.910    2.2117
   14.955    2.1590
   15.000    2.1590
   15.045    2.3346
   15.090    2.4574
   15.135    2.2468
   15.180    2.2819
   15.225    2.1766
   15.270    2.1941
   15.315    2.1239
   15.360    2.3521
   15.405    2.3521
   15.450    2.1941
   15.495    2.2292
   15.540    2.4223
   15.585    2.4750
   15.630    2.1766
   15.675    2.0888
   15.720    2.2819
   15.765    2.5628
   15.810    2.1941
   15.855    2.0888
   15.900    2.2643
   15.945    1.9308
   15.990    2.2468
   16.035    2.3346
   16.080    2.1590
   16.125    2.1766
   16.170    2.0362
   16.215    2.3346
   16.260    1.9659
   16.305    1.7553
   16.350    2.3346
   16.395    2.2117
   16.440    2.1239
   16.485    2.3170
   16.530    2.1941
   16.575    1.9308
   16.620    2.5628
   16.665    2.1941
   16.710    2.3521
   16.755    2.2643
   16.800    1.9835
   16.845    2.0888
   16.890    2.1941
   16.935    2.0713
   16.980    2.2819
   17.025    2.2117
   17.070    2.0713
   17.115    2.2643
   17.160    2.1766
   17.205    2.2292
   17.250    2.3346
   17.295    2.0186
   17.340    2.2117
   17.385    2.2117
   17.430    2.2995
   17.475    1.9835
   17.520    2.1941
   17.565    2.2468
   17.610    2.1766
   17.655    2.1415
   17.700    2.1064
   17.745    2.3521
   17.790    2.2995
   17.835    2.0011
   17.880    2.2292
   17.925    2.3521
   17.970    1.9484
   18.015    2.5979
   18.060    2.1239
   18.105    1.8080
   18.150    2.1590
   18.195    2.2819
   18.240    2.2292
   18.285    1.8255
   18.330    1.9835
   18.375    2.1239
   18.420    2.3697
   18.465    2.2643
   18.510    2.1766
   18.555    1.9308
   18.600    1.9308
   18.645    2.1941
   18.690    2.2819
   18.735    2.2995
   18.780    2.3697
   18.825    2.3170
   18.870    2.2117
   18.915    2.2643
   18.960    2.2995
   19.005    2.1239
   19.050    2.0713
   19.095    2.0537
   19.140    2.4048
   19.185    2.2292
   19.230    1.9659
   19.275    2.2292
   19.320    1.9484
   19.365    2.1064
   19.410    1.9659
   19.455    2.0011
   19.500    1.8782
   19.545    1.9308
   19.590    2.0713
   19.635    2.1064
   19.680    2.1590
   19.725    2.0186
   19.770    2.0888
   19.815    2.2819
   19.860    1.9835
   19.905    1.9484
   19.950    2.0011
   19.995    2.2292
   20.040    1.9308
   20.085    1.9484
   20.130    1.7553
   20.175    2.1064
   20.220    1.9835
   20.265    2.2292
   20.310    2.0186
   20.355    1.7202
   20.400    2.1590
   20.445    2.0537
   20.490    1.9308
   20.535    1.8782
   20.580    2.0888
   20.625    1.9308
   20.670    1.8957
   20.715    2.1941
   20.760    1.9484
   20.805    2.1239
   20.850    1.8957
   20.895    1.9659
   20.940    1.7202
   20.985    1.8782
   21.030    1.8255
   21.075    1.9659
   21.120    2.1766
   21.165    2.0537
   21.210    1.9133
   21.255    1.6851
   21.300    1.7904
   21.345    1.8080
   21.390    1.7904
   21.435    1.9133
   21.480    2.0537
   21.525    2.1415
   21.570    2.0186
   21.615    2.0186
   21.660    1.9835
   21.705    1.9484
   21.750    1.9133
   21.795    1.7202
   21.840    1.8957
   21.885    1.8255
   21.930    2.2117
   21.975    2.0011
   22.020    1.6149
   22.065    1.7729
   22.110    2.1239
   22.155    1.7904
   22.200    1.8606
   22.245    1.8431
   22.290    2.1941
   22.335    1.8431
   22.380    2.0011
   22.425    1.8431
   22.470    1.8255
   22.515    1.7553
   22.560    1.9133
   22.605    1.7378
   22.650    1.9659
   22.695    1.5622
   22.740    1.4920
   22.785    1.5973
   22.830    1.8782
   22.875    1.8255
   22.920    1.7027
   22.965    1.9133
   23.010    1.8255
   23.055    1.9484
   23.100    1.6851
   23.145    1.8431
   23.190    1.7904
   23.235    1.7202
   23.280    1.4920
   23.325    1.6500
   23.370    1.7378
   23.415    1.8431
   23.460    1.5622
   23.505    1.6675
   23.550    1.7904
   23.595    1.7378
   23.640    1.6324
   23.685    1.8957
   23.730    1.8957
   23.775    1.8080
   23.820    1.5973
   23.865    2.0537
   23.910    1.5973
   23.955    1.7553
   24.000    1.6500
   24.045    1.7202
   24.090    1.6149
   24.135    1.4042
   24.180    1.6149
   24.225    1.8255
   24.270    1.6149
   24.315    1.5973
   24.360    1.6500
   24.405    1.4569
   24.450    1.7027
   24.495    1.7553
   24.540    1.8255
   24.585    1.4218
   24.630    1.9133
   24.675    1.5622
   24.720    1.5096
   24.765    1.4745
   24.810    1.5271
   24.855    1.5973
   24.900    1.7553
   24.945    1.7378
   24.990    1.6324
   25.035    1.8606
   25.080    1.6324
   25.125    1.5622
   25.170    1.6851
   25.215    1.3516
   25.260    1.6324
   25.305    1.5447
   25.350    1.1585
   25.395    1.4920
   25.440    1.3340
   25.485    1.3691
   25.530    1.6675
   25.575    1.7378
   25.620    1.6851
   25.665    1.4745
   25.710    1.6324
   25.755    1.4042
   25.800    1.4394
   25.845    1.4218
   25.890    1.7729
   25.935    1.5798
   25.980    1.6324
   26.025    1.5447
   26.070    1.5798
   26.115    1.4920
   26.160    1.6324
   26.205    1.3165
   26.250    1.1410
   26.295    1.4394
   26.340    1.5271
   26.385    1.4218
   26.430    1.4042
   26.475    1.6324
   26.520    1.2814
   26.565    1.4042
   26.610    1.2112
   26.655    1.3867
   26.700    1.4920
   26.745    1.5798
   26.790    1.4218
   26.835    1.3691
   26.880    1.5271
   26.925    1.6149
   26.970    1.3691
   27.015    1.5096
   27.060    1.2287
   27.105    1.5798
   27.150    1.6500
   27.195    1.3165
   27.240    1.3516
   27.285    1.3867
   27.330    1.3516
   27.375    1.2989
   27.420    1.5447
   27.465    1.4920
   27.510    1.3340
   27.555    1.5271
   27.600    1.5096
   27.645    1.1761
   27.690    1.5622
   27.735    1.4569
   27.780    1.2814
   27.825    1.4218
   27.870    1.3691
   27.915    1.3691
   27.960    1.5973
   28.005    1.5622
   28.050    1.4920
   28.095    1.1585
   28.140    1.2989
   28.185    1.5096
   28.230    1.1761
   28.275    1.1410
   28.320    1.2814
   28.365    1.4042
   28.410    1.1585
   28.455    1.1761
   28.500    1.3691
   28.545    1.2814
   28.590    1.3867
   28.635    1.5096
   28.680    1.2638
   28.725    1.2287
   28.770    1.4569
   28.815    1.4218
   28.860    1.4218
   28.905    1.4569
   28.950    1.7553
   28.995    1.4569
   29.040    1.4218
   29.085    1.2112
   29.130    1.2989
   29.175    1.4218
   29.220    1.6500
   29.265    1.2463
   29.310    1.4569
   29.355    1.3516
   29.400    1.1936
   29.445    1.1761
   29.490    1.1585
   29.535    1.1936
   29.580    1.1058
   29.625    1.0532
   29.670    1.2463
   29.715    1.1585
   29.760    1.2989
   29.805    1.2463
   29.850    1.2112
   29.895    1.0356
   29.940    0.9654
   29.985    1.0532
   30.030    1.0883
   30.075    1.1936
   30.120    1.2112
   30.165    1.1761
   30.210    1.1410
   30.255    1.0532
   30.300    1.2463
   30.345    1.0883
   30.390    1.0707
   30.435    1.1234
   30.480    1.1936
   30.525    1.0356
   30.570    0.9479
   30.615    1.2287
   30.660    1.1058
   30.705    1.0356
   30.750    1.1058
   30.795    1.1058
   30.840    1.1936
   30.885    1.1585
   30.930    1.1585
   30.975    1.1058
   31.020    1.0532
   31.065    0.9830
   31.110    1.0883
   31.155    1.0005
   31.200    1.0532
   31.245    1.1234
   31.290    1.1234
   31.335    0.9479
   31.380    0.8952
   31.425    0.9303
   31.470    0.9303
   31.515    0.9830
   31.560    1.0883
   31.605    0.9830
   31.650    1.2287
   31.695    1.1234
   31.740    1.0532
   31.785    1.0707
   31.830    1.0883
   31.875    1.0532
   31.920    1.1936
   31.965    1.2463
   32.010    1.0707
   32.055    1.5973
   32.100    1.5271
   32.145    0.9303
   32.190    1.0356
   32.235    1.0883
   32.280    1.1234
   32.325    0.9128
   32.370    0.9128
   32.415    1.0707
   32.460    1.0532
   32.505    1.0181
   32.550    0.9830
   32.595    1.1410
   32.640    0.8074
   32.685    1.0005
   32.730    0.9479
   32.775    0.9303
   32.820    0.8952
   32.865    0.9654
   32.910    0.8425
   32.955    0.9303
   33.000    0.9479
   33.045    1.1058
   33.090    0.8952
   33.135    0.9654
   33.180    0.9830
   33.225    1.0181
   33.270    0.9830
   33.315    0.8074
   33.360    1.1058
   33.405    0.9128
   33.450    0.9654
   33.495    0.8074
   33.540    1.0532
   33.585    0.8250
   33.630    0.8425
   33.675    0.9128
   33.720    1.1410
   33.765    1.1585
   33.810    1.1234
   33.855    1.0883
   33.900    1.0181
   33.945    0.9830
   33.990    1.0883
   34.035    1.1058
   34.080    0.9479
   34.125    1.0005
   34.170    0.7723
   34.215    1.0532
   34.260    0.9654
   34.305    0.8601
   34.350    0.8250
   34.395    0.9654
   34.440    0.8601
   34.485    1.0181
   34.530    0.8425
   34.575    0.9479
   34.620    1.0883
   34.665    0.8250
   34.710    0.9303
   34.755    0.7548
   34.800    0.9479
   34.845    0.9830
   34.890    0.8250
   34.935    0.9128
   34.980    0.9654
   35.025    0.8952
   35.070    0.9830
   35.115    0.7197
   35.160    0.9303
   35.205    0.7548
   35.250    1.0356
   35.295    0.9303
   35.340    0.9128
   35.385    0.9830
   35.430    0.8777
   35.475    0.8777
   35.520    0.8425
   35.565    0.7548
   35.610    0.9128
   35.655    0.8250
   35.700    0.9830
   35.745    1.0181
   35.790    0.7021
   35.835    0.9479
   35.880    0.6144
   35.925    0.9303
   35.970    1.0532
   36.015    1.0181
   36.060    0.9303
   36.105    0.8074
   36.150    0.9830
   36.195    0.9128
   36.240    0.8074
   36.285    0.8777
   36.330    0.7372
   36.375    0.7899
   36.420    0.7723
   36.465    1.0181
   36.510    0.8777
   36.555    0.9830
   36.600    0.9479
   36.645    0.8074
   36.690    0.6144
   36.735    0.9654
   36.780    0.8601
   36.825    0.8777
   36.870    0.8777
   36.915    0.8425
   36.960    0.9830
   37.005    0.9128
   37.050    0.7899
   37.095    0.8425
   37.140    1.0005
   37.185    0.7372
   37.230    1.0356
   37.275    0.8952
   37.320    0.8074
   37.365    0.8425
   37.410    0.8952
   37.455    0.7899
   37.500    0.7548
   37.545    0.8777
   37.590    0.8601
   37.635    0.9128
   37.680    0.8074
   37.725    0.9654
   37.770    0.9128
   37.815    0.8250
   37.860    0.9303
   37.905    0.9830
   37.950    1.0005
   37.995    0.8777
   38.040    0.8601
   38.085    0.8250
   38.130    0.9303
   38.175    0.7197
   38.220    0.8074
   38.265    0.7548
   38.310    0.8074
   38.355    0.8777
   38.400    0.7197
   38.445    0.7372
   38.490    0.8425
   38.535    0.9128
   38.580    1.0005
   38.625    0.9303
   38.670    0.7021
   38.715    0.7372
   38.760    0.8250
   38.805    0.8425
   38.850    0.9479
   38.895    0.8250
   38.940    0.7372
   38.985    0.8601
   39.030    1.0005
   39.075    0.7723
   39.120    0.7723
   39.165    0.7899
   39.210    0.8952
   39.255    0.8601
   39.300    0.7197
   39.345    0.8952
   39.390    0.6846
   39.435    0.8250
   39.480    0.7372
   39.525    0.8425
   39.570    1.0532
   39.615    0.8074
   39.660    0.7899
   39.705    0.9830
   39.750    0.6670
   39.795    0.9654
   39.840    0.7197
   39.885    0.7548
   39.930    0.8425
   39.975    0.9303
   40.020    0.7021
   40.065    0.8425
   40.110    0.7548
   40.155    0.8601
   40.200    0.7723
   40.245    0.8777
   40.290    0.8425
   40.335    0.8425
   40.380    0.5793
   40.425    0.9128
   40.470    0.8250
   40.515    0.7021
   40.560    0.7372
   40.605    0.7723
   40.650    0.8250
   40.695    0.8952
   40.740    0.8425
   40.785    0.8074
   40.830    0.8074
   40.875    0.8777
   40.920    0.7021
   40.965    0.7548
   41.010    0.8601
   41.055    0.7723
   41.100    0.8425
   41.145    0.7197
   41.190    0.7723
   41.235    0.7372
   41.280    0.7899
   41.325    0.6495
   41.370    0.7723
   41.415    1.0181
   41.460    0.6670
   41.505    0.8074
   41.550    0.8777
   41.595    1.0005
   41.640    0.6670
   41.685    0.6495
   41.730    0.7197
   41.775    0.8250
   41.820    0.8250
   41.865    0.7372
   41.910    0.7372
   41.955    0.6846
   42.000    0.7723
   42.045    0.7372
   42.090    0.9303
   42.135    0.7197
   42.180    0.8601
   42.225    0.7197
   42.270    0.9128
   42.315    0.8777
   42.360    0.8074
   42.405    0.7197
   42.450    0.7723
   42.495    0.6495
   42.540    0.8074
   42.585    0.7021
   42.630    0.6670
   42.675    0.8952
   42.720    0.8952
   42.765    0.8074
   42.810    0.7723
   42.855    0.7021
   42.900    0.7899
   42.945    0.7723
   42.990    0.8250
   43.035    0.8601
   43.080    0.7899
   43.125    0.7723
   43.170    0.6846
   43.215    0.7197
   43.260    0.8425
   43.305    0.6319
   43.350    0.7372
   43.395    0.9830
   43.440    0.8777
   43.485    0.6670
   43.530    0.7723
   43.575    0.8425
   43.620    0.8250
   43.665    0.7723
   43.710    0.7899
   43.755    0.7723
   43.800    0.8074
   43.845    0.7899
   43.890    0.7723
   43.935    0.8425
   43.980    0.9830
   44.025    0.7723
   44.070    0.8074
   44.115    0.7723
   44.160    0.8074
   44.205    0.8777
   44.250    0.8777
   44.295    0.9128
   44.340    0.8777
   44.385    0.7899
   44.430    0.7021
   44.475    0.5968
   44.520    0.7197
   44.565    0.6495
   44.610    0.7197
   44.655    0.8250
   44.700    1.0181
   44.745    0.8074
   44.790    0.9479
   44.835    0.8074
   44.880    0.7899
   44.925    0.9479
   44.970    0.7548
   45.015    0.8425
   45.060    0.6495
   45.105    0.8601
   45.150    0.7723
   45.195    0.6670
   45.240    0.6670
   45.285    0.8425
   45.330    0.7372
   45.375    0.7899
   45.420    0.7723
   45.465    0.7899
   45.510    0.8777
   45.555    0.7021
   45.600    0.7899
   45.645    0.6846
   45.690    0.9479
   45.735    0.7372
   45.780    0.7548
   45.825    0.7021
   45.870    0.7548
   45.915    0.8074
   45.960    0.8777
   46.005    0.8250
   46.050    0.7548
   46.095    0.7021
   46.140    0.7723
   46.185    0.7899
   46.230    0.7021
   46.275    0.8250
   46.320    0.6319
   46.365    0.8952
   46.410    0.8074
   46.455    0.8250
   46.500    0.7372
   46.545    0.7372
   46.590    0.8250
   46.635    0.7548
   46.680    0.8601
   46.725    0.9128
   46.770    0.7197
   46.815    0.6846
   46.860    0.6319
   46.905    0.8425
   46.950    0.6495
   46.995    0.7899
   47.040    0.7197
   47.085    0.6846
   47.130    0.9303
   47.175    0.7197
   47.220    0.7197
   47.265    0.7021
   47.310    0.8777
   47.355    0.7021
   47.400    0.7723
   47.445    0.6670
   47.490    0.6319
   47.535    0.8777
   47.580    0.8250
   47.625    0.5793
   47.670    0.6670
   47.715    0.5441
   47.760    0.7372
   47.805    0.6670
   47.850    0.7723
   47.895    0.5793
   47.940    0.6846
   47.985    0.7021
   48.030    0.8601
   48.075    0.7899
   48.120    0.6319
   48.165    0.5968
   48.210    0.8074
   48.255    0.5266
   48.300    0.5968
   48.345    0.6495
   48.390    0.8425
   48.435    0.8250
   48.480    0.5617
   48.525    0.7197
   48.570    0.7197
   48.615    0.7021
   48.660    0.6144
   48.705    1.0181
   48.750    0.8425
   48.795    0.8250
   48.840    0.6670
   48.885    0.8952
   48.930    0.6670
   48.975    0.5793
   49.020    0.5617
   49.065    0.6670
   49.110    0.6846
   49.155    0.5793
   49.200    0.5793
   49.245    0.5968
   49.290    0.6495
   49.335    0.6670
   49.380    0.8601
   49.425    0.7548
   49.470    0.6846
   49.515    0.6144
   49.560    0.7372
   49.605    0.6846
   49.650    0.7548
   49.695    0.7899
   49.740    0.7372
   49.785    0.7548
   49.830    0.7197
   49.875    0.7372
   49.920    0.6846
   49.965    0.5266
   49.980    0.6670