File: data/PXRD/PXRD_KE-241_Co-Ka1_capillary-1mm_5s-deg.xyd
    1.500    3.5527
    1.530    3.5206
    1.560    3.3280
    1.590    3.0819
    1.620    3.0926
    1.650    2.9106
    1.680    2.7394
    1.710    2.4719
    1.740    2.3863
    1.770    2.5040
    1.800    2.1402
    1.830    2.2365
    1.860    1.9583
    1.890    2.2793
    1.920    1.9155
    1.950    1.8727
    1.980    1.8727
    2.010    1.6158
    2.040    1.7978
    2.070    1.6479
    2.100    1.6158
    2.130    1.7657
    2.160    1.5516
    2.190    1.5516
    2.220    1.4339
    2.250    1.5623
    2.280    1.4018
    2.310    1.4446
    2.340    1.5516
    2.370    1.4446
    2.400    1.4874
    2.430    1.1878
    2.460    1.2199
    2.490    1.2841
    2.520    1.3162
    2.550    1.2092
    2.580    1.2092
    2.610    1.1878
    2.640    1.1985
    2.670    1.0594
    2.700    1.1985
    2.730    1.2092
    2.760    1.1878
    2.790    1.1236
    2.820    1.1557
    2.850    1.2627
    2.880    1.1557
    2.910    1.1129
    2.940    1.0701
    2.970    0.9524
    3.000    1.1236
    3.030    1.0273
    3.060    1.0701
    3.090    1.1236
    3.120    1.1557
    3.150    1.0059
    3.180    1.1343
    3.210    1.1129
    3.240    0.9952
    3.270    0.9096
    3.300    0.8668
    3.330    1.0380
    3.360    1.0701
    3.390    1.0487
    3.420    1.0059
    3.450    0.8668
    3.480    1.0273
    3.510    0.8775
    3.540    0.9738
    3.570    0.9845
    3.600    0.9952
    3.630    1.0808
    3.660    1.1557
    3.690    0.9524
    3.720    1.0273
    3.750    1.0059
    3.780    1.0380
    3.810    1.0059
    3.840    0.9845
    3.870    0.9096
    3.900    0.9524
    3.930    0.9096
    3.960    0.9524
    3.990    0.8347
    4.020    0.9417
    4.050    1.0487
    4.080    1.0487
    4.110    1.1771
    4.140    0.8454
    4.170    0.9096
    4.200    1.0166
    4.230    0.8561
    4.260    1.0059
    4.290    1.0273
    4.320    0.8989
    4.350    0.9203
    4.380    0.9310
    4.410    0.9524
    4.440    0.8133
    4.470    1.0059
    4.500    0.9845
    4.530    1.1878
    4.560    0.9096
    4.590    0.8989
    4.620    1.0701
    4.650    0.8561
    4.680    0.8989
    4.710    1.0380
    4.740    0.9417
    4.770    0.9845
    4.800    1.0487
    4.830    0.9524
    4.860    0.9631
    4.890    1.1129
    4.920    0.9845
    4.950    1.0808
    4.980    1.0808
    5.010    0.9310
    5.040    0.9417
    5.070    0.8668
    5.100    1.0273
    5.130    0.8561
    5.160    0.8240
    5.190    0.9845
    5.220    0.8026
    5.250    0.9845
    5.280    0.9417
    5.310    1.0808
    5.340    0.8026
    5.370    0.8882
    5.400    0.8454
    5.430    0.8561
    5.460    0.9952
    5.490    1.0380
    5.520    0.8882
    5.550    0.9631
    5.580    1.0701
    5.610    0.8882
    5.640    0.8026
    5.670    0.8026
    5.700    0.8347
    5.730    0.9417
    5.760    1.0487
    5.790    1.0166
    5.820    0.7812
    5.850    1.0059
    5.880    1.1664
    5.910    0.9738
    5.940    0.8989
    5.970    0.9524
    6.000    1.0273
    6.030    0.9845
    6.060    0.9203
    6.090    0.9952
    6.120    0.9203
    6.150    0.9203
    6.180    0.8989
    6.210    0.9631
    6.240    1.0166
    6.270    0.7491
    6.300    0.9631
    6.330    0.8775
    6.360    0.9203
    6.390    1.0380
    6.420    0.8882
    6.450    0.8668
    6.480    0.9631
    6.510    0.8775
    6.540    0.9203
    6.570    0.9203
    6.600    1.0808
    6.630    0.9310
    6.660    0.9738
    6.690    0.7598
    6.720    0.9096
    6.750    0.7812
    6.780    1.0059
    6.810    0.9096
    6.840    0.8989
    6.870    0.9845
    6.900    0.7705
    6.930    0.9417
    6.960    0.8668
    6.990    1.0166
    7.020    0.8668
    7.050    0.8775
    7.080    1.0487
    7.110    0.8561
    7.140    0.8882
    7.170    0.9738
    7.200    0.9417
    7.230    0.8561
    7.260    0.8989
    7.290    0.7491
    7.320    1.1557
    7.350    1.0701
    7.380    0.8668
    7.410    0.9310
    7.440    1.0059
    7.470    0.7919
    7.500    0.7598
    7.530    0.9952
    7.560    0.8347
    7.590    1.0273
    7.620    0.8989
    7.650    0.9631
    7.680    0.9631
    7.710    1.0701
    7.740    0.8347
    7.770    0.8133
    7.800    0.8775
    7.830    1.0487
    7.860    0.9631
    7.890    1.2092
    7.920    1.1022
    7.950    0.9310
    7.980    0.9203
    8.010    1.0701
    8.040    0.8240
    8.070    0.9417
    8.100    0.8775
    8.130    1.1236
    8.160    0.9631
    8.190    0.9203
    8.220    0.9845
    8.250    0.8240
    8.280    0.8240
    8.310    0.9738
    8.340    0.7491
    8.370    1.0701
    8.400    0.9203
    8.430    1.0059
    8.460    1.0273
    8.490    0.9203
    8.520    1.0915
    8.550    0.9631
    8.580    0.8775
    8.610    1.0594
    8.640    1.1771
    8.670    0.8882
    8.700    1.0487
    8.730    1.1236
    8.760    0.9524
    8.790    1.0059
    8.820    1.0808
    8.850    1.1022
    8.880    0.9417
    8.910    1.1129
    8.940    1.0273
    8.970    1.0166
    9.000    1.1129
    9.030    0.9310
    9.060    0.9203
    9.090    1.0166
    9.120    1.0701
    9.150    1.1557
    9.180    0.9952
    9.210    0.9310
    9.240    1.1343
    9.270    1.1664
    9.300    1.0059
    9.330    0.9417
    9.360    0.8989
    9.390    0.9631
    9.420    1.1343
    9.450    0.9524
    9.480    1.0701
    9.510    1.0915
    9.540    1.0380
    9.570    1.0059
    9.600    1.1985
    9.630    0.9310
    9.660    1.2948
    9.690    1.0273
    9.720    1.1664
    9.750    1.1664
    9.780    1.2092
    9.810    1.1664
    9.840    1.1343
    9.870    1.0380
    9.900    1.2841
    9.930    0.9845
    9.960    1.1236
    9.990    1.1022
   10.020    1.2841
   10.050    1.2520
   10.080    1.1129
   10.110    1.0166
   10.140    1.2199
   10.170    1.1557
   10.200    1.0808
   10.230    1.1129
   10.260    1.1129
   10.290    1.0166
   10.320    1.2734
   10.350    1.1343
   10.380    1.1236
   10.410    1.0380
   10.440    1.0808
   10.470    1.0166
   10.500    1.2306
   10.530    1.1985
   10.560    1.1557
   10.590    1.2092
   10.620    1.2092
   10.650    1.1557
   10.680    1.1771
   10.710    1.3483
   10.740    1.1985
   10.770    1.2092
   10.800    1.2841
   10.830    1.1343
   10.860    1.1985
   10.890    1.1343
   10.920    1.3590
   10.950    1.1236
   10.980    1.0808
   11.010    1.2520
   11.040    1.1022
   11.070    1.0808
   11.100    1.1557
   11.130    1.1664
   11.160    1.4125
   11.190    1.3697
   11.220    1.2734
   11.250    1.2413
   11.280    1.1450
   11.310    1.1022
   11.340    1.3055
   11.370    1.1771
   11.400    1.1450
   11.430    1.0487
   11.460    1.1878
   11.490    1.0915
   11.520    1.1022
   11.550    1.0594
   11.580    1.2841
   11.610    1.1343
   11.640    1.2841
   11.670    0.9417
   11.700    1.2627
   11.730    1.2306
   11.760    1.1557
   11.790    1.2413
   11.820    1.0594
   11.850    1.1557
   11.880    1.3055
   11.910    1.0701
   11.940    1.3055
   11.970    1.2092
   12.000    1.0273
   12.030    1.1771
   12.060    1.1129
   12.090    1.2306
   12.120    1.0915
   12.150    1.1985
   12.180    1.1022
   12.210    1.1878
   12.240    1.1985
   12.270    1.2948
   12.300    1.1450
   12.330    1.2413
   12.360    1.1878
   12.390    1.1236
   12.420    0.9738
   12.450    1.1664
   12.480    1.1450
   12.510    1.0166
   12.540    1.2520
   12.570    1.1343
   12.600    1.0915
   12.630    1.0594
   12.660    1.1450
   12.690    0.9524
   12.720    1.1664
   12.750    1.0808
   12.780    1.3269
   12.810    1.0273
   12.840    1.1022
   12.870    1.1022
   12.900    1.2306
   12.930    1.1985
   12.960    1.0915
   12.990    0.9952
   13.020    1.1878
   13.050    1.1022
   13.080    1.1557
   13.110    1.0701
   13.140    0.8989
   13.170    1.0594
   13.200    0.9952
   13.230    1.1236
   13.260    1.0273
   13.290    1.1022
   13.320    1.0166
   13.350    1.0059
   13.380    1.1129
   13.410    1.1236
   13.440    0.9845
   13.470    0.9417
   13.500    0.8561
   13.530    1.0380
   13.560    0.9952
   13.590    1.0915
   13.620    0.9738
   13.650    1.0701
   13.680    0.8668
   13.710    1.0380
   13.740    1.0273
   13.770    1.0380
   13.800    0.9845
   13.830    0.8775
   13.860    0.9417
   13.890    1.3269
   13.920    1.1985
   13.950    0.9952
   13.980    1.0059
   14.010    1.0380
   14.040    1.0915
   14.070    0.9417
   14.100    0.8882
   14.130    1.0059
   14.160    0.8454
   14.190    0.9845
   14.220    1.0594
   14.250    1.1236
   14.280    1.0273
   14.310    1.1129
   14.340    1.1450
   14.370    0.9738
   14.400    0.9631
   14.430    0.9524
   14.460    0.8454
   14.490    0.8454
   14.520    1.0166
   14.550    0.9203
   14.580    1.1557
   14.610    0.9096
   14.640    0.9524
   14.670    0.8133
   14.700    1.0166
   14.730    0.9417
   14.760    0.8775
   14.790    0.9524
   14.820    0.8882
   14.850    1.1129
   14.880    0.9631
   14.910    0.8775
   14.940    0.8882
   14.970    0.7170
   15.000    0.8347
   15.030    0.8989
   15.060    0.8775
   15.090    0.7919
   15.120    0.9096
   15.150    0.8775
   15.180    1.0273
   15.210    0.9096
   15.240    0.8775
   15.270    1.0701
   15.300    1.0380
   15.330    0.8561
   15.360    0.8882
   15.390    0.8561
   15.420    0.7919
   15.450    0.8347
   15.480    0.8775
   15.510    0.8989
   15.540    0.7598
   15.570    0.8882
   15.600    0.7491
   15.630    0.8454
   15.660    0.8561
   15.690    0.8347
   15.720    0.9738
   15.750    0.9203
   15.780    0.9203
   15.810    0.8026
   15.840    0.8454
   15.870    0.9417
   15.900    0.8133
   15.930    0.8240
   15.960    0.7277
   15.990    0.9417
   16.020    0.8133
   16.050    0.8347
   16.080    0.7705
   16.110    0.7812
   16.140    0.8347
   16.170    0.9417
   16.200    0.8133
   16.230    0.7919
   16.260    0.8240
   16.290    1.0487
   16.320    0.8454
   16.350    0.8026
   16.380    0.8026
   16.410    0.8454
   16.440    0.8026
   16.470    0.8882
   16.500    0.8989
   16.530    0.8454
   16.560    0.8561
   16.590    0.7705
   16.620    0.7277
   16.650    0.8454
   16.680    1.0487
   16.710    0.7063
   16.740    0.8133
   16.770    0.8668
   16.800    0.8989
   16.830    0.8026
   16.860    0.7919
   16.890    0.8454
   16.920    0.9096
   16.950    0.9096
   16.980    0.8882
   17.010    0.8026
   17.040    0.7598
   17.070    0.8347
   17.100    0.8454
   17.130    0.7705
   17.160    1.0059
   17.190    0.9310
   17.220    0.7812
   17.250    0.7491
   17.280    0.8561
   17.310    0.8240
   17.340    0.7705
   17.370    0.7705
   17.400    0.9310
   17.430    0.8133
   17.460    0.9631
   17.490    0.7812
   17.520    0.6528
   17.550    0.8561
   17.580    0.7705
   17.610    0.8133
   17.640    0.9310
   17.670    0.6956
   17.700    0.7705
   17.730    0.6956
   17.760    0.8989
   17.790    0.8882
   17.820    0.7491
   17.850    0.8240
   17.880    0.8882
   17.910    0.8775
   17.940    1.0059
   17.970    0.8775
   18.000    0.8989
   18.030    0.6742
   18.060    0.8240
   18.090    0.8454
   18.120    0.8026
   18.150    0.7812
   18.180    0.7919
   18.210    0.8026
   18.240    0.8989
   18.270    0.8775
   18.300    0.8347
   18.330    0.8240
   18.360    0.7812
   18.390    0.8989
   18.420    0.8989
   18.450    0.7598
   18.480    0.8133
   18.510    0.8026
   18.540    0.8668
   18.570    0.7384
   18.600    0.7919
   18.630    0.9845
   18.660    0.8347
   18.690    0.7705
   18.720    0.6956
   18.750    0.7491
   18.780    0.7598
   18.810    0.8240
   18.840    0.8668
   18.870    0.7491
   18.900    0.9096
   18.930    0.7063
   18.960    0.8240
   18.990    0.8561
   19.020    0.9524
   19.050    1.0166
   19.080    0.7812
   19.110    0.7705
   19.140    0.8989
   19.170    0.8775
   19.200    0.7170
   19.230    0.9738
   19.260    0.8561
   19.290    0.8668
   19.320    0.7705
   19.350    1.0915
   19.380    0.8454
   19.410    0.8882
   19.440    0.7170
   19.470    0.8775
   19.500    0.8561
   19.530    0.7919
   19.560    0.7277
   19.590    0.8026
   19.620    0.7384
   19.650    0.8989
   19.680    0.7598
   19.710    0.8026
   19.740    0.8026
   19.770    0.7384
   19.800    0.9738
   19.830    0.8775
   19.860    0.7812
   19.890    0.8347
   19.920    0.8668
   19.950    0.9524
   19.980    0.7384
   20.010    0.6528
   20.040    0.8989
   20.070    0.8240
   20.100    0.8882
   20.130    0.8882
   20.160    0.8561
   20.190    0.7812
   20.220    0.7705
   20.250    0.8454
   20.280    0.7277
   20.310    0.8668
   20.340    0.8026
   20.370    0.7812
   20.400    0.8240
   20.430    0.8347
   20.460    0.8454
   20.490    0.9203
   20.520    0.8668
   20.550    0.9631
   20.580    0.8240
   20.610    0.8133
   20.640    0.8240
   20.670    0.8989
   20.700    0.8454
   20.730    0.8989
   20.760    0.7812
   20.790    0.7598
   20.820    0.8454
   20.850    0.7812
   20.880    0.8454
   20.910    0.8775
   20.940    0.8454
   20.970    0.8454
   21.000    0.8882
   21.030    0.7812
   21.060    0.7919
   21.090    0.8882
   21.120    0.8882
   21.150    0.8989
   21.180    0.6849
   21.210    0.8989
   21.240    0.8561
   21.270    0.8133
   21.300    0.6956
   21.330    0.8668
   21.360    0.8775
   21.390    0.7812
   21.420    0.8454
   21.450    0.7491
   21.480    0.9096
   21.510    0.8561
   21.540    0.8240
   21.570    0.7598
   21.600    0.9845
   21.630    0.8668
   21.660    0.7705
   21.690    0.8561
   21.720    0.9631
   21.750    0.9631
   21.780    0.7170
   21.810    0.7384
   21.840    0.7491
   21.870    0.8240
   21.900    1.0487
   21.930    0.9952
   21.960    0.7812
   21.990    1.0059
   22.020    1.1985
   22.050    1.1450
   22.080    1.3483
   22.110    1.3590
   22.140    1.2627
   22.170    1.1450
   22.200    0.8882
   22.230    1.0059
   22.260    0.8133
   22.290    0.9203
   22.320    0.7705
   22.350    0.8240
   22.380    0.8347
   22.410    0.8026
   22.440    0.7277
   22.470    1.0166
   22.500    0.7705
   22.530    0.9417
   22.560    0.8775
   22.590    0.9096
   22.620    0.8882
   22.650    0.8133
   22.680    0.8882
   22.710    0.9096
   22.740    0.9417
   22.770    1.0059
   22.800    0.8454
   22.830    0.8133
   22.860    0.7491
   22.890    0.8668
   22.920    1.0059
   22.950    0.9738
   22.980    0.8882
   23.010    0.9203
   23.040    0.7705
   23.070    0.8454
   23.100    0.8882
   23.130    1.0059
   23.160    0.8561
   23.190    0.8347
   23.220    0.7705
   23.250    0.9845
   23.280    1.0059
   23.310    0.8775
   23.340    0.6956
   23.370    0.8561
   23.400    0.9631
   23.430    0.9203
   23.460    0.8775
   23.490    0.7919
   23.520    0.9096
   23.550    0.9952
   23.580    0.7705
   23.610    0.8989
   23.640    0.9417
   23.670    0.8668
   23.700    0.9203
   23.730    0.8668
   23.760    0.7812
   23.790    1.0808
   23.820    1.0166
   23.850    0.9203
   23.880    0.8454
   23.910    0.9203
   23.940    0.9631
   23.970    0.8775
   24.000    0.9417
   24.030    0.7170
   24.060    0.9631
   24.090    0.9310
   24.120    0.8668
   24.150    0.7170
   24.180    0.9417
   24.210    0.8454
   24.240    0.9524
   24.270    0.8347
   24.300    0.9845
   24.330    0.7919
   24.360    0.9952
   24.390    0.9417
   24.420    0.9631
   24.450    1.0166
   24.480    0.7812
   24.510    0.8882
   24.540    0.8989
   24.570    1.0059
   24.600    0.8133
   24.630    0.8989
   24.660    0.9203
   24.690    0.9310
   24.720    0.9738
   24.750    0.9845
   24.780    0.8561
   24.810    1.0915
   24.840    0.7919
   24.870    0.7170
   24.900    0.8989
   24.930    0.9524
   24.960    0.9310
   24.990    0.9417
   25.020    0.9096
   25.050    0.8775
   25.080    0.8454
   25.110    0.9631
   25.140    0.9524
   25.170    0.7491
   25.200    0.8882
   25.230    0.9631
   25.260    0.8882
   25.290    0.7705
   25.320    0.7705
   25.350    0.7491
   25.380    1.0487
   25.410    0.8454
   25.440    1.0380
   25.470    1.0273
   25.500    0.8668
   25.530    0.9738
   25.560    0.8989
   25.590    0.8133
   25.620    0.9845
   25.650    1.0808
   25.680    0.9738
   25.710    0.8668
   25.740    0.9203
   25.770    0.8989
   25.800    0.8989
   25.830    0.8133
   25.860    0.8561
   25.890    1.0273
   25.920    0.7919
   25.950    0.8561
   25.980    0.9417
   26.010    0.7812
   26.040    0.9203
   26.070    0.7705
   26.100    1.0594
   26.130    1.1236
   26.160    1.0808
   26.190    0.9845
   26.220    1.1129
   26.250    1.0059
   26.280    1.0273
   26.310    0.9631
   26.340    0.9417
   26.370    1.0701
   26.400    0.8882
   26.430    0.9524
   26.460    0.9524
   26.490    0.9738
   26.520    0.8775
   26.550    0.7598
   26.580    1.1450
   26.610    0.9203
   26.640    0.8133
   26.670    0.9738
   26.700    0.8454
   26.730    0.9310
   26.760    0.9524
   26.790    0.8133
   26.820    0.9845
   26.850    1.0273
   26.880    0.9524
   26.910    0.9631
   26.940    1.0059
   26.970    0.9845
   27.000    0.9203
   27.030    0.9524
   27.060    0.9738
   27.090    0.7919
   27.120    0.9631
   27.150    0.9096
   27.180    1.0273
   27.210    0.7598
   27.240    0.8775
   27.270    0.9203
   27.300    0.9310
   27.330    0.8989
   27.360    0.9203
   27.390    0.9310
   27.420    0.9096
   27.450    0.9417
   27.480    0.8454
   27.510    0.9524
   27.540    1.0487
   27.570    0.7919
   27.600    0.8775
   27.630    0.8454
   27.660    0.8989
   27.690    0.9417
   27.720    0.8026
   27.750    0.9417
   27.780    0.7598
   27.810    0.9203
   27.840    0.9524
   27.870    0.7491
   27.900    0.9417
   27.930    1.0487
   27.960    0.9096
   27.990    0.6742
   28.020    0.8775
   28.050    0.6421
   28.080    0.8240
   28.110    0.7919
   28.140    0.9417
   28.170    0.8775
   28.200    0.8026
   28.230    0.8775
   28.260    0.7919
   28.290    0.9524
   28.320    0.8882
   28.350    0.8026
   28.380    0.9096
   28.410    0.8561
   28.440    0.8775
   28.470    0.7170
   28.500    0.8882
   28.530    0.8240
   28.560    0.7705
   28.590    0.7919
   28.620    0.8347
   28.650    0.9203
   28.680    0.8240
   28.710    0.8133
   28.740    0.8989
   28.770    0.6849
   28.800    0.8882
   28.830    0.7170
   28.860    0.6207
   28.890    0.8775
   28.920    0.7705
   28.950    0.8454
   28.980    0.7919
   29.010    0.8240
   29.040    0.6742
   29.070    0.8668
   29.100    1.0166
   29.130    0.7705
   29.160    0.8240
   29.190    0.8989
   29.220    0.8133
   29.250    0.7705
   29.280    0.9310
   29.310    0.7598
   29.340    0.7812
   29.370    0.8240
   29.400    0.7812
   29.430    0.7598
   29.460    0.8347
   29.490    0.7170
   29.520    0.7812
   29.550    0.8240
   29.580    0.8026
   29.610    0.7812
   29.640    0.7705
   29.670    0.8454
   29.700    0.9631
   29.730    0.8668
   29.760    0.8561
   29.790    0.8347
   29.820    0.8882
   29.850    0.7705
   29.880    0.8454
   29.910    0.8240
   29.940    0.7705
   29.970    0.7598
   30.000    0.7705
   30.030    0.7598
   30.060    0.8026
   30.090    0.7063
   30.120    0.7598
   30.150    0.7812
   30.180    0.6742
   30.210    0.8775
   30.240    0.8454
   30.270    0.7919
   30.300    0.7919
   30.330    0.9310
   30.360    0.9631
   30.390    0.8240
   30.420    0.7705
   30.450    0.8347
   30.480    0.7384
   30.510    0.6314
   30.540    0.8240
   30.570    0.6207
   30.600    0.7812
   30.630    0.7812
   30.660    0.8347
   30.690    0.8240
   30.720    0.9203
   30.750    0.7491
   30.780    0.7919
   30.810    0.7598
   30.840    0.8989
   30.870    0.7277
   30.900    0.8026
   30.930    0.7384
   30.960    0.7705
   30.990    0.6849
   31.020    0.7384
   31.050    0.6528
   31.080    0.7812
   31.110    0.6849
   31.140    0.6528
   31.170    0.8561
   31.200    0.7705
   31.230    0.7491
   31.260    0.8454
   31.290    0.6314
   31.320    0.7919
   31.350    0.6956
   31.380    0.6635
   31.410    0.7812
   31.440    0.7170
   31.470    0.8240
   31.500    0.7598
   31.530    0.7384
   31.560    0.7705
   31.590    0.7170
   31.620    0.8133
   31.650    0.7063
   31.680    0.7384
   31.710    0.7384
   31.740    0.6100
   31.770    0.7063
   31.800    0.8561
   31.830    0.8026
   31.860    0.6849
   31.890    0.7598
   31.920    0.6956
   31.950    0.8347
   31.980    0.6421
   32.010    0.6956
   32.040    0.6742
   32.070    0.6528
   32.100    0.6314
   32.130    0.7598
   32.160    0.6100
   32.190    0.6207
   32.220    0.7063
   32.250    0.7063
   32.280    0.6528
   32.310    0.7170
   32.340    0.8240
   32.370    0.6528
   32.400    0.7063
   32.430    0.6742
   32.460    0.7063
   32.490    0.7063
   32.520    0.7705
   32.550    0.8240
   32.580    0.9417
   32.610    1.0166
   32.640    1.1343
   32.670    1.0059
   32.700    1.0487
   32.730    0.8561
   32.760    0.7277
   32.790    0.6207
   32.820    0.6742
   32.850    0.6528
   32.880    0.6635
   32.910    0.6956
   32.940    0.7277
   32.970    0.8347
   33.000    0.7598
   33.030    0.5564
   33.060    0.6849
   33.090    0.8026
   33.120    0.6742
   33.150    0.7170
   33.180    0.6100
   33.210    0.6100
   33.240    0.8133
   33.270    0.5564
   33.300    0.5993
   33.330    0.7063
   33.360    0.5778
   33.390    0.8347
   33.420    0.5671
   33.450    0.5993
   33.480    0.6956
   33.510    0.6956
   33.540    0.6528
   33.570    0.5993
   33.600    0.5993
   33.630    0.5457
   33.660    0.7063
   33.690    0.7812
   33.720    1.0059
   33.750    1.0915
   33.780    1.0059
   33.810    0.8133
   33.840    0.8775
   33.870    0.6956
   33.900    0.6635
   33.930    0.6207
   33.960    0.6956
   33.990    0.7170
   34.020    0.6742
   34.050    0.6421
   34.080    0.5886
   34.110    0.6635
   34.140    0.6207
   34.170    0.5243
   34.200    0.6528
   34.230    0.6635
   34.260    0.6635
   34.290    0.5993
   34.320    0.7277
   34.350    0.6956
   34.380    0.7384
   34.410    0.5564
   34.440    0.5564
   34.470    0.5993
   34.500    0.5350
   34.530    0.5350
   34.560    0.5993
   34.590    0.5243
   34.620    0.6314
   34.650    0.4815
   34.680    0.6421
   34.710    0.7919
   34.740    0.6100
   34.770    0.6207
   34.800    0.4708
   34.830    0.5778
   34.860    0.5350
   34.890    0.6635
   34.920    0.6635
   34.950    0.6635
   34.980    0.5029
   35.010    0.6207
   35.040    0.5457
   35.070    0.6314
   35.100    0.4708
   35.130    0.4494
   35.160    0.6207
   35.190    0.5350
   35.220    0.5564
   35.250    0.5457
   35.280    0.7170
   35.310    0.6207
   35.340    0.5564
   35.370    0.4815
   35.400    0.5564
   35.430    0.4280
   35.460    0.5243
   35.490    0.6528
   35.520    0.5136
   35.550    0.5243
   35.580    0.4494
   35.610    0.5993
   35.640    0.5886
   35.670    0.6528
   35.700    0.4815
   35.730    0.5993
   35.760    0.5243
   35.790    0.5457
   35.820    0.5564
   35.850    0.6100
   35.880    0.4066
   35.910    0.4922
   35.940    0.4922
   35.970    0.6100
   36.000    0.5993
   36.030    0.4922
   36.060    0.5136
   36.090    0.5778
   36.120    0.5564
   36.150    0.5029
   36.180    0.4601
   36.210    0.4494
   36.240    0.4922
   36.270    0.5993
   36.300    0.5350
   36.330    0.4815
   36.360    0.5778
   36.390    0.5886
   36.420    0.5993
   36.450    0.4173
   36.480    0.5350
   36.510    0.4708
   36.540    0.5029
   36.570    0.5564
   36.600    0.4494
   36.630    0.6100
   36.660    0.5136
   36.690    0.5457
   36.720    0.5671
   36.750    0.4601
   36.780    0.5136
   36.810    0.5350
   36.840    0.5993
   36.870    0.5243
   36.900    0.5671
   36.930    0.5136
   36.960    0.4494
   36.990    0.6207
   37.020    0.7919
   37.050    0.6528
   37.080    0.6528
   37.110    0.6849
   37.140    0.5993
   37.170    0.6849
   37.200    0.5136
   37.230    0.5136
   37.260    0.5136
   37.290    0.5350
   37.320    0.7277
   37.350    0.7598
   37.380    1.2520
   37.410    1.3055
   37.440    1.2306
   37.470    1.2841
   37.500    1.3162
   37.530    1.1236
   37.560    1.0701
   37.590    0.5136
   37.620    0.5886
   37.650    0.5243
   37.680    0.5778
   37.710    0.5886
   37.740    0.5564
   37.770    0.5243
   37.800    0.4280
   37.830    0.4494
   37.860    0.5350
   37.890    0.5350
   37.920    0.4815
   37.950    0.5029
   37.980    0.5029
   38.010    0.4922
   38.040    0.5457
   38.070    0.4815
   38.100    0.5350
   38.130    0.4601
   38.160    0.3745
   38.190    0.4601
   38.220    0.5029
   38.250    0.5350
   38.280    0.4708
   38.310    0.3852
   38.340    0.4066
   38.370    0.4173
   38.400    0.5029
   38.430    0.4601
   38.460    0.4815
   38.490    0.4280
   38.520    0.4173
   38.550    0.4494
   38.580    0.5136
   38.610    0.4280
   38.640    0.6421
   38.670    0.4387
   38.700    0.5457
   38.730    0.4066
   38.760    0.3424
   38.790    0.5457
   38.820    0.4922
   38.850    0.4066
   38.880    0.5029
   38.910    0.4494
   38.940    0.3852
   38.970    0.3959
   39.000    0.3424
   39.030    0.4280
   39.060    0.3959
   39.090    0.3210
   39.120    0.4173
   39.150    0.3959
   39.180    0.4494
   39.210    0.3959
   39.240    0.4066
   39.270    0.3959
   39.300    0.4922
   39.330    0.4601
   39.360    0.5993
   39.390    0.6207
   39.420    0.5671
   39.450    0.6314
   39.480    0.6421
   39.510    0.7063
   39.540    0.7063
   39.570    0.7598
   39.600    0.5136
   39.630    0.4922
   39.660    0.5029
   39.690    0.5457
   39.720    0.4922
   39.750    0.5778
   39.780    0.4922
   39.810    0.3852
   39.840    0.6100
   39.870    0.5671
   39.900    0.4922
   39.930    0.3852
   39.960    0.5029
   39.990    0.4494