File: data/PXRD/PXRD_KE-099_Cu-Ka1_capillary-1mm_5s-deg.xyd
    1.500   53.5440
    1.530   52.2275
    1.560   51.1427
    1.590   48.3307
    1.620   46.0874
    1.650   42.8225
    1.680   40.2106
    1.710   38.3992
    1.740   36.4297
    1.770   34.5866
    1.800   32.8805
    1.830   32.4276
    1.860   30.2580
    1.890   29.5840
    1.920   28.3412
    1.950   26.7720
    1.980   25.8662
    2.010   24.1496
    2.040   23.6440
    2.070   22.2222
    2.100   20.9584
    2.130   20.1580
    2.160   19.6314
    2.190   18.6940
    2.220   18.5361
    2.250   18.1148
    2.280   17.3249
    2.310   17.2091
    2.340   15.8294
    2.370   16.4824
    2.400   15.3133
    2.430   14.3128
    2.460   13.9968
    2.490   13.6493
    2.520   13.6282
    2.550   13.0806
    2.580   12.6593
    2.610   12.6277
    2.640   11.6482
    2.670   11.6693
    2.700   10.8583
    2.730   11.0900
    2.760   10.8583
    2.790   10.1738
    2.820    9.8052
    2.850    9.7420
    2.880    9.8473
    2.910    8.7730
    2.940    8.8257
    2.970    9.4997
    3.000    9.0890
    3.030    8.9310
    3.060    8.6045
    3.090    8.7204
    3.120    8.3412
    3.150    8.1727
    3.180    8.3202
    3.210    7.7620
    3.240    7.3302
    3.270    7.2986
    3.300    7.3302
    3.330    7.2459
    3.360    7.2249
    3.390    7.0669
    3.420    7.2565
    3.450    6.5298
    3.480    6.9405
    3.510    6.6772
    3.540    6.5719
    3.570    6.3086
    3.600    6.7930
    3.630    6.2875
    3.660    6.3086
    3.690    6.1295
    3.720    5.6451
    3.750    5.9716
    3.780    5.9400
    3.810    5.8136
    3.840    5.8557
    3.870    5.9821
    3.900    6.0242
    3.930    5.4766
    3.960    5.8873
    3.990    5.8557
    4.020    5.5292
    4.050    5.2554
    4.080    5.7188
    4.110    5.6451
    4.140    5.1395
    4.170    5.3607
    4.200    5.7820
    4.230    5.0764
    4.260    5.3291
    4.290    5.2343
    4.320    5.1711
    4.350    5.1290
    4.380    4.9710
    4.410    4.9394
    4.440    4.9289
    4.470    4.9921
    4.500    4.9816
    4.530    4.8447
    4.560    5.4766
    4.590    4.9921
    4.620    5.0869
    4.650    4.8973
    4.680    4.8447
    4.710    4.9394
    4.740    4.3813
    4.770    4.5814
    4.800    4.7499
    4.830    4.6656
    4.860    4.8973
    4.890    4.7709
    4.920    4.5708
    4.950    4.8236
    4.980    4.4444
    5.010    4.6340
    5.040    4.7288
    5.070    4.8973
    5.100    4.3075
    5.130    4.2759
    5.160    4.5498
    5.190    4.6445
    5.220    4.5498
    5.250    4.3075
    5.280    4.2865
    5.310    4.6340
    5.340    4.3918
    5.370    4.3918
    5.400    4.3707
    5.430    4.5498
    5.460    4.1601
    5.490    4.4234
    5.520    4.5182
    5.550    4.3391
    5.580    4.3497
    5.610    4.7183
    5.640    4.0864
    5.670    4.2443
    5.700    3.8968
    5.730    4.0864
    5.760    4.0021
    5.790    4.3497
    5.820    4.2759
    5.850    4.3181
    5.880    4.2233
    5.910    4.5182
    5.940    4.4866
    5.970    4.3602
    6.000    4.4655
    6.030    4.1074
    6.060    4.0969
    6.090    4.5919
    6.120    4.3181
    6.150    4.4444
    6.180    4.0969
    6.210    4.1811
    6.240    3.9284
    6.270    4.0232
    6.300    4.0653
    6.330    4.3602
    6.360    4.4339
    6.390    4.2443
    6.420    4.1180
    6.450    4.0337
    6.480    3.9810
    6.510    4.0442
    6.540    4.0232
    6.570    3.7599
    6.600    4.1285
    6.630    3.9705
    6.660    3.9284
    6.690    3.9705
    6.720    4.1390
    6.750    4.0021
    6.780    4.0548
    6.810    3.9600
    6.840    4.0337
    6.870    3.5282
    6.900    3.8231
    6.930    4.0548
    6.960    4.1706
    6.990    4.0969
    7.020    4.0653
    7.050    4.1285
    7.080    4.0126
    7.110    4.0548
    7.140    3.8020
    7.170    4.1180
    7.200    3.8757
    7.230    3.9494
    7.260    4.0126
    7.290    4.1180
    7.320    3.9389
    7.350    3.9494
    7.380    4.4760
    7.410    3.9179
    7.440    4.0864
    7.470    4.0758
    7.500    4.0864
    7.530    4.0653
    7.560    4.2022
    7.590    3.9073
    7.620    3.8020
    7.650    4.0232
    7.680    4.1285
    7.710    3.7704
    7.740    4.0653
    7.770    3.9916
    7.800    4.1811
    7.830    4.0126
    7.860    3.8441
    7.890    4.3497
    7.920    4.0021
    7.950    4.1496
    7.980    4.0126
    8.010    3.9810
    8.040    4.4023
    8.070    3.7072
    8.100    3.8441
    8.130    3.6651
    8.160    4.1917
    8.190    3.8441
    8.220    3.8757
    8.250    4.0337
    8.280    4.0758
    8.310    4.3286
    8.340    4.2654
    8.370    4.0337
    8.400    4.2865
    8.430    3.8547
    8.460    4.2127
    8.490    4.0021
    8.520    3.8968
    8.550    4.0969
    8.580    4.2759
    8.610    4.1496
    8.640    4.1601
    8.670    3.9494
    8.700    4.1917
    8.730    4.2443
    8.760    4.1706
    8.790    4.1706
    8.820    4.3075
    8.850    3.9389
    8.880    4.0548
    8.910    4.0653
    8.940    4.2865
    8.970    4.1601
    9.000    4.0021
    9.030    4.1074
    9.060    3.8968
    9.090    4.3286
    9.120    3.9494
    9.150    4.2443
    9.180    4.0653
    9.210    4.3075
    9.240    4.2865
    9.270    4.1601
    9.300    3.8231
    9.330    3.8968
    9.360    4.3075
    9.390    4.0758
    9.420    4.2022
    9.450    4.0442
    9.480    4.1811
    9.510    4.0337
    9.540    4.1180
    9.570    3.8757
    9.600    4.0126
    9.630    4.2759
    9.660    4.4550
    9.690    4.0969
    9.720    4.4444
    9.750    4.2654
    9.780    3.9705
    9.810    4.1917
    9.840    4.2022
    9.870    4.2022
    9.900    4.0969
    9.930    4.2549
    9.960    4.5182
    9.990    4.0232
   10.020    3.9916
   10.050    4.3181
   10.080    4.1285
   10.110    4.1074
   10.140    4.1601
   10.170    4.2127
   10.200    4.2759
   10.230    4.5392
   10.260    4.3602
   10.290    3.9916
   10.320    4.2549
   10.350    4.2865
   10.380    4.0337
   10.410    3.9810
   10.440    4.2022
   10.470    4.0337
   10.500    4.3602
   10.530    4.2865
   10.560    4.5603
   10.590    4.0548
   10.620    4.2970
   10.650    4.0232
   10.680    4.0864
   10.710    4.1601
   10.740    4.0021
   10.770    4.1074
   10.800    4.1917
   10.830    4.2654
   10.860    4.2022
   10.890    3.9179
   10.920    4.3391
   10.950    3.9494
   10.980    4.0442
   11.010    4.1811
   11.040    3.9179
   11.070    4.1811
   11.100    4.2127
   11.130    3.8441
   11.160    4.1706
   11.190    3.8231
   11.220    3.9705
   11.250    3.8336
   11.280    4.0653
   11.310    4.3181
   11.340    3.9705
   11.370    4.1601
   11.400    3.9916
   11.430    3.8652
   11.460    3.9810
   11.490    3.9494
   11.520    3.8547
   11.550    3.8863
   11.580    4.1285
   11.610    3.8125
   11.640    4.0126
   11.670    3.8336
   11.700    3.6019
   11.730    4.0126
   11.760    3.9073
   11.790    3.7493
   11.820    3.7388
   11.850    3.8652
   11.880    3.8231
   11.910    3.8020
   11.940    3.5387
   11.970    3.9073
   12.000    3.5703
   12.030    3.9494
   12.060    3.5808
   12.090    3.8336
   12.120    3.7493
   12.150    3.6440
   12.180    3.6967
   12.210    3.5387
   12.240    3.7177
   12.270    3.5808
   12.300    3.7704
   12.330    3.7704
   12.360    4.0126
   12.390    3.7388
   12.420    4.0442
   12.450    3.9810
   12.480    3.4123
   12.510    3.4650
   12.540    3.7599
   12.570    3.9389
   12.600    3.4966
   12.630    3.6440
   12.660    3.7915
   12.690    3.2227
   12.720    3.7915
   12.750    3.8441
   12.780    3.5387
   12.810    3.6335
   12.840    3.7072
   12.870    3.8441
   12.900    3.3070
   12.930    3.3175
   12.960    3.8231
   12.990    3.4018
   13.020    3.7809
   13.050    3.6124
   13.080    3.6546
   13.110    3.6967
   13.140    3.5071
   13.170    3.6967
   13.200    3.2965
   13.230    3.6546
   13.260    3.4229
   13.290    3.8336
   13.320    3.2965
   13.350    3.5808
   13.380    3.7177
   13.410    3.5808
   13.440    3.5914
   13.470    3.6124
   13.500    3.8020
   13.530    3.6440
   13.560    3.7283
   13.590    3.7072
   13.620    3.3702
   13.650    3.5071
   13.680    3.4860
   13.710    3.4544
   13.740    3.7599
   13.770    3.5808
   13.800    3.6756
   13.830    3.6230
   13.860    3.7177
   13.890    3.6335
   13.920    3.5703
   13.950    3.5492
   13.980    3.7072
   14.010    3.5703
   14.040    3.5387
   14.070    3.5914
   14.100    3.8231
   14.130    3.7599
   14.160    3.7177
   14.190    3.8125
   14.220    3.4755
   14.250    3.6019
   14.280    3.2438
   14.310    3.6335
   14.340    3.4439
   14.370    3.3175
   14.400    3.8652
   14.430    3.6440
   14.460    3.4229
   14.490    3.4018
   14.520    3.6230
   14.550    3.6862
   14.580    3.4018
   14.610    3.4439
   14.640    3.5071
   14.670    3.5282
   14.700    3.5703
   14.730    3.5914
   14.760    3.6440
   14.790    3.5282
   14.820    3.5808
   14.850    3.2017
   14.880    3.4755
   14.910    3.2965
   14.940    3.5176
   14.970    3.4229
   15.000    3.6124
   15.030    3.5282
   15.060    3.1806
   15.090    3.7072
   15.120    3.6230
   15.150    3.7388
   15.180    3.5703
   15.210    3.6440
   15.240    3.4229
   15.270    3.4755
   15.300    3.5703
   15.330    3.2438
   15.360    3.6335
   15.390    3.4650
   15.420    3.8336
   15.450    3.4650
   15.480    3.6651
   15.510    3.4650
   15.540    3.3491
   15.570    3.3807
   15.600    3.8125
   15.630    3.3702
   15.660    3.5808
   15.690    3.5492
   15.720    3.3702
   15.750    3.5176
   15.780    3.5598
   15.810    3.6019
   15.840    3.5387
   15.870    3.4018
   15.900    3.4650
   15.930    3.4018
   15.960    3.3386
   15.990    3.3913
   16.020    3.5492
   16.050    3.4334
   16.080    3.4755
   16.110    3.7915
   16.140    3.8757
   16.170    3.4650
   16.200    3.7493
   16.230    3.3070
   16.260    3.6335
   16.290    3.5176
   16.320    3.6546
   16.350    3.5282
   16.380    3.6335
   16.410    3.5176
   16.440    3.6230
   16.470    3.8020
   16.500    3.7072
   16.530    3.2649
   16.560    3.3702
   16.590    3.5176
   16.620    3.3913
   16.650    3.5071
   16.680    3.3281
   16.710    3.8863
   16.740    3.6019
   16.770    3.6019
   16.800    3.5703
   16.830    3.7704
   16.860    3.5808
   16.890    3.6440
   16.920    3.4229
   16.950    3.9600
   16.980    3.6335
   17.010    3.4755
   17.040    3.3807
   17.070    3.6230
   17.100    3.4439
   17.130    3.6756
   17.160    3.6124
   17.190    3.7915
   17.220    3.8757
   17.250    3.7388
   17.280    3.8020
   17.310    3.5808
   17.340    3.5703
   17.370    3.6230
   17.400    3.6546
   17.430    3.5176
   17.460    3.6546
   17.490    3.5071
   17.520    3.6862
   17.550    3.5176
   17.580    3.6230
   17.610    3.5176
   17.640    3.7599
   17.670    3.8125
   17.700    3.9179
   17.730    3.5071
   17.760    3.6862
   17.790    3.6862
   17.820    3.8652
   17.850    3.6230
   17.880    3.7493
   17.910    3.5492
   17.940    3.7915
   17.970    3.6967
   18.000    4.1390
   18.030    3.6862
   18.060    3.6335
   18.090    3.6124
   18.120    3.4544
   18.150    4.0126
   18.180    3.9179
   18.210    3.7177
   18.240    3.7283
   18.270    3.7915
   18.300    3.7493
   18.330    3.8020
   18.360    3.6862
   18.390    3.8757
   18.420    3.7599
   18.450    3.7072
   18.480    3.8125
   18.510    3.7388
   18.540    3.7809
   18.570    4.0232
   18.600    3.8547
   18.630    3.6967
   18.660    3.9705
   18.690    3.8020
   18.720    3.6230
   18.750    3.4860
   18.780    3.4860
   18.810    3.8441
   18.840    3.9916
   18.870    3.4966
   18.900    3.8863
   18.930    3.7704
   18.960    3.9494
   18.990    3.5598
   19.020    3.4229
   19.050    3.5703
   19.080    3.6335
   19.110    3.7177
   19.140    3.8968
   19.170    3.6651
   19.200    3.6440
   19.230    3.7072
   19.260    4.1390
   19.290    3.7388
   19.320    3.5282
   19.350    3.5387
   19.380    3.8231
   19.410    3.9389
   19.440    3.6440
   19.470    3.5282
   19.500    3.7177
   19.530    3.9389
   19.560    4.0126
   19.590    4.1285
   19.620    3.6019
   19.650    3.9073
   19.680    3.9389
   19.710    3.8336
   19.740    3.9705
   19.770    4.0021
   19.800    3.7915
   19.830    3.7177
   19.860    3.8125
   19.890    3.5598
   19.920    3.6651
   19.950    3.8441
   19.980    3.8652
   20.010    3.8547
   20.040    3.8441
   20.070    3.7915
   20.100    4.0864
   20.130    3.8652
   20.160    3.9916
   20.190    3.8863
   20.220    3.7283
   20.250    3.6756
   20.280    3.9284
   20.310    4.1180
   20.340    3.9705
   20.370    3.8547
   20.400    3.9389
   20.430    3.9600
   20.460    3.6967
   20.490    3.9810
   20.520    3.9494
   20.550    3.9284
   20.580    3.9916
   20.610    3.7704
   20.640    3.7177
   20.670    3.7704
   20.700    3.8968
   20.730    4.3181
   20.760    4.0232
   20.790    3.8863
   20.820    3.9810
   20.850    4.0337
   20.880    3.8441
   20.910    3.7072
   20.940    4.0969
   20.970    4.3813
   21.000    3.9810
   21.030    3.9073
   21.060    4.0969
   21.090    4.1496
   21.120    3.9494
   21.150    4.2022
   21.180    3.9179
   21.210    4.1601
   21.240    3.8757
   21.270    4.0337
   21.300    3.6230
   21.330    4.0126
   21.360    4.0337
   21.390    3.9179
   21.420    3.8757
   21.450    3.9916
   21.480    3.8336
   21.510    4.0969
   21.540    4.0442
   21.570    3.8547
   21.600    4.0969
   21.630    3.8125
   21.660    3.6546
   21.690    3.8863
   21.720    4.3602
   21.750    4.5708
   21.780    4.1601
   21.810    4.0548
   21.840    3.6546
   21.870    4.0232
   21.900    4.0337
   21.930    3.7072
   21.960    3.8125
   21.990    4.2233
   22.020    4.1180
   22.050    4.1496
   22.080    3.9284
   22.110    4.3391
   22.140    3.8757
   22.170    3.7072
   22.200    3.8757
   22.230    4.2127
   22.260    4.1180
   22.290    4.0021
   22.320    4.0758
   22.350    4.2233
   22.380    3.9705
   22.410    4.0758
   22.440    3.7072
   22.470    4.0758
   22.500    4.0232
   22.530    3.8547
   22.560    4.1917
   22.590    4.2233
   22.620    4.0864
   22.650    3.8968
   22.680    4.1074
   22.710    4.0969
   22.740    3.6335
   22.770    4.2233
   22.800    4.2443
   22.830    4.2654
   22.860    3.8231
   22.890    3.8547
   22.920    3.7177
   22.950    4.0442
   22.980    3.9810
   23.010    3.8757
   23.040    3.8968
   23.070    3.9389
   23.100    4.1390
   23.130    4.1074
   23.160    3.8757
   23.190    4.2233
   23.220    4.1917
   23.250    4.4234
   23.280    3.9705
   23.310    3.9284
   23.340    3.9600
   23.370    3.9179
   23.400    3.8336
   23.430    4.0021
   23.460    3.8652
   23.490    4.2233
   23.520    3.7915
   23.550    3.7072
   23.580    3.8231
   23.610    4.3813
   23.640    4.0758
   23.670    4.2338
   23.700    4.1601
   23.730    3.9494
   23.760    4.0337
   23.790    3.8020
   23.820    3.8020
   23.850    3.9073
   23.880    4.2338
   23.910    3.9179
   23.940    4.0126
   23.970    3.8125
   24.000    4.0969
   24.030    3.9494
   24.060    3.8441
   24.090    3.9916
   24.120    3.8968
   24.150    4.1917
   24.180    4.1074
   24.210    3.8231
   24.240    4.0442
   24.270    3.7388
   24.300    3.9073
   24.330    3.8968
   24.360    4.1180
   24.390    3.6756
   24.420    3.7493
   24.450    4.0864
   24.480    4.0864
   24.510    3.7493
   24.540    3.7177
   24.570    3.7177
   24.600    3.9073
   24.630    4.0232
   24.660    4.1496
   24.690    3.7493
   24.720    3.7599
   24.750    4.0126
   24.780    3.7915
   24.810    4.0232
   24.840    4.0442
   24.870    3.7915
   24.900    3.9389
   24.930    3.8757
   24.960    3.9494
   24.990    3.8231
   25.020    4.0653
   25.050    3.7915
   25.080    3.8652
   25.110    3.8652
   25.140    3.9916
   25.170    3.9073
   25.200    3.9073
   25.230    3.8441
   25.260    3.7809
   25.290    4.0232
   25.320    3.6756
   25.350    3.9179
   25.380    3.6440
   25.410    3.7072
   25.440    3.7704
   25.470    3.7915
   25.500    3.7072
   25.530    3.7599
   25.560    3.9600
   25.590    3.8336
   25.620    3.3386
   25.650    3.6862
   25.680    3.9073
   25.710    3.9179
   25.740    4.1706
   25.770    3.8125
   25.800    3.8547
   25.830    3.6019
   25.860    3.8125
   25.890    3.6230
   25.920    3.7493
   25.950    3.8336
   25.980    3.6651
   26.010    3.9494
   26.040    3.7493
   26.070    3.6335
   26.100    3.8441
   26.130    3.8231
   26.160    4.0021
   26.190    3.7809
   26.220    3.9179
   26.250    4.0126
   26.280    3.7388
   26.310    3.6440
   26.340    3.9705
   26.370    3.6651
   26.400    3.6651
   26.430    3.8125
   26.460    4.0021
   26.490    3.6967
   26.520    4.0126
   26.550    3.4966
   26.580    3.6862
   26.610    3.6440
   26.640    3.9705
   26.670    3.7915
   26.700    3.6230
   26.730    3.8336
   26.760    3.7915
   26.790    3.4860
   26.820    3.8652
   26.850    3.7283
   26.880    3.5282
   26.910    3.4439
   26.940    3.6651
   26.970    3.4544
   27.000    3.4755
   27.030    3.6546
   27.060    3.4544
   27.090    3.7177
   27.120    3.3281
   27.150    3.7915
   27.180    3.5914
   27.210    3.7704
   27.240    3.6124
   27.270    3.8547
   27.300    3.7704
   27.330    3.5914
   27.360    3.5387
   27.390    3.8547
   27.420    3.6019
   27.450    3.8652
   27.480    3.7072
   27.510    3.8231
   27.540    3.8336
   27.570    3.6230
   27.600    3.7704
   27.630    3.4860
   27.660    3.6335
   27.690    3.7493
   27.720    3.4018
   27.750    3.6967
   27.780    3.5914
   27.810    3.4334
   27.840    3.6230
   27.870    3.2649
   27.900    3.7072
   27.930    3.4229
   27.960    3.8547
   27.990    3.4439
   28.020    3.6756
   28.050    3.4755
   28.080    3.6124
   28.110    3.8231
   28.140    3.6651
   28.170    3.4966
   28.200    3.6862
   28.230    3.6440
   28.260    3.7915
   28.290    3.4544
   28.320    3.3597
   28.350    3.5176
   28.380    3.6124
   28.410    3.4650
   28.440    3.4544
   28.470    3.3913
   28.500    3.3491
   28.530    3.4334
   28.560    3.4123
   28.590    3.4860
   28.620    3.7704
   28.650    3.5176
   28.680    3.5176
   28.710    3.3175
   28.740    3.6019
   28.770    3.4544
   28.800    3.4650
   28.830    3.1806
   28.860    3.6651
   28.890    3.1912
   28.920    3.6440
   28.950    3.4966
   28.980    3.3702
   29.010    3.3597
   29.040    3.6335
   29.070    3.5282
   29.100    3.4966
   29.130    3.3175
   29.160    3.5492
   29.190    3.4334
   29.220    3.2965
   29.250    3.6756
   29.280    3.5808
   29.310    3.2333
   29.340    3.0121
   29.370    3.2859
   29.400    3.2543
   29.430    3.4018
   29.460    3.5387
   29.490    3.2649
   29.520    3.3702
   29.550    3.4018
   29.580    3.3070
   29.610    3.3281
   29.640    3.3070
   29.670    3.2438
   29.700    3.5492
   29.730    3.4439
   29.760    3.4544
   29.790    3.3807
   29.820    3.2438
   29.850    3.4123
   29.880    3.4439
   29.910    3.0753
   29.940    3.3491
   29.970    3.4860
   30.000    3.5176
   30.030    3.2965
   30.060    3.3175
   30.090    3.3281
   30.120    3.3702
   30.150    3.4334
   30.180    3.7072
   30.210    3.3702
   30.240    3.3070
   30.270    3.3175
   30.300    3.0332
   30.330    3.2965
   30.360    3.4860
   30.390    3.3807
   30.420    3.3491
   30.450    3.1806
   30.480    3.3491
   30.510    2.9173
   30.540    3.2227
   30.570    3.2965
   30.600    3.3175
   30.630    3.1490
   30.660    3.4544
   30.690    2.9489
   30.720    3.2543
   30.750    3.2017
   30.780    2.9384
   30.810    3.1596
   30.840    3.4966
   30.870    3.3913
   30.900    3.0226
   30.930    3.3386
   30.960    3.5282
   30.990    3.0964
   31.020    3.2965
   31.050    2.9595
   31.080    3.3597
   31.110    3.3281
   31.140    2.9805
   31.170    3.2227
   31.200    2.8331
   31.230    3.4439
   31.260    3.2227
   31.290    3.2227
   31.320    2.9384
   31.350    3.0964
   31.380    3.1806
   31.410    3.3491
   31.440    3.0016
   31.470    3.2017
   31.500    3.3175
   31.530    2.8963
   31.560    2.9805
   31.590    2.9384
   31.620    3.1701
   31.650    3.1806
   31.680    3.1701
   31.710    3.1701
   31.740    3.1912
   31.770    3.0858
   31.800    3.0858
   31.830    2.7593
   31.860    3.0016
   31.890    3.0858
   31.920    3.0648
   31.950    3.0016
   31.980    2.8963
   32.010    3.0964
   32.040    3.0016
   32.070    3.0437
   32.100    3.1174
   32.130    2.9279
   32.160    2.7804
   32.190    2.9489
   32.220    3.1174
   32.250    2.8647
   32.280    2.9595
   32.310    3.0437
   32.340    2.9700
   32.370    3.2122
   32.400    3.0858
   32.430    3.2965
   32.460    3.0542
   32.490    2.9805
   32.520    2.7909
   32.550    2.9068
   32.580    2.9279
   32.610    3.0332
   32.640    2.8647
   32.670    2.8015
   32.700    2.7488
   32.730    2.8857
   32.760    2.8647
   32.790    3.0121
   32.820    2.9489
   32.850    2.9595
   32.880    2.8647
   32.910    2.8857
   32.940    3.0016
   32.970    2.9279
   33.000    2.7593
   33.030    2.6856
   33.060    3.0016
   33.090    2.8647
   33.120    2.7909
   33.150    3.0016
   33.180    2.8963
   33.210    2.9173
   33.240    2.6119
   33.270    3.1806
   33.300    2.8752
   33.330    2.5908
   33.360    2.8436
   33.390    2.9068
   33.420    2.9173
   33.450    2.6646
   33.480    2.6435
   33.510    3.2122
   33.540    2.8331
   33.570    2.8963
   33.600    2.7699
   33.630    2.7278
   33.660    2.7699
   33.690    2.8436
   33.720    2.7699
   33.750    2.9595
   33.780    2.9489
   33.810    3.0753
   33.840    2.6856
   33.870    2.9595
   33.900    2.7172
   33.930    2.8015
   33.960    2.7488
   33.990    2.7172
   34.020    3.0332
   34.050    2.7909
   34.080    2.8225
   34.110    2.5908
   34.140    2.7699
   34.170    2.9805
   34.200    2.3486
   34.230    2.3907
   34.260    2.7699
   34.290    2.6646
   34.320    2.4855
   34.350    2.5276
   34.380    2.8015
   34.410    2.6014
   34.440    2.5487
   34.470    2.9279
   34.500    2.5803
   34.530    2.6962
   34.560    3.0858
   34.590    2.7699
   34.620    2.8857
   34.650    2.7593
   34.680    2.4855
   34.710    2.8541
   34.740    2.5171
   34.770    2.6435
   34.800    2.6646
   34.830    2.6330
   34.860    2.6330
   34.890    2.5487
   34.920    2.4645
   34.950    2.5908
   34.980    2.7699
   35.010    2.5803
   35.040    2.4118
   35.070    2.7067
   35.100    2.5382
   35.130    2.8225
   35.160    2.6224
   35.190    2.5276
   35.220    2.5487
   35.250    2.6435
   35.280    2.6435
   35.310    2.5171
   35.340    2.7909
   35.370    2.6014
   35.400    2.4750
   35.430    2.6435
   35.460    2.6330
   35.490    2.5276
   35.520    2.6435
   35.550    2.4750
   35.580    2.5592
   35.610    2.6119
   35.640    2.4013
   35.670    2.5276
   35.700    2.6435
   35.730    2.6435
   35.760    2.5592
   35.790    2.7067
   35.820    2.5382
   35.850    2.6330
   35.880    2.4223
   35.910    2.3802
   35.940    2.4855
   35.970    2.5698
   36.000    2.4855
   36.030    2.4539
   36.060    2.5698
   36.090    2.3275
   36.120    2.6119
   36.150    2.5382
   36.180    2.4961
   36.210    2.4855
   36.240    2.4750
   36.270    2.4750
   36.300    2.5592
   36.330    2.4539
   36.360    2.4855
   36.390    2.4223
   36.420    2.5908
   36.450    2.4855
   36.480    2.2328
   36.510    2.5592
   36.540    2.3697
   36.570    2.5382
   36.600    2.4961
   36.630    2.6224
   36.660    2.4855
   36.690    2.4434
   36.720    2.2749
   36.750    2.4013
   36.780    2.6435
   36.810    2.3697
   36.840    2.3907
   36.870    2.4539
   36.900    2.4118
   36.930    2.7278
   36.960    2.3486
   36.990    2.7278
   37.020    2.3381
   37.050    2.2433
   37.080    2.3802
   37.110    2.5487
   37.140    2.3802
   37.170    2.3907
   37.200    2.0116
   37.230    2.3591
   37.260    2.3802
   37.290    2.2538
   37.320    2.5171
   37.350    2.5803
   37.380    2.3170
   37.410    2.2222
   37.440    2.5066
   37.470    2.2538
   37.500    2.3381
   37.530    2.5066
   37.560    2.4539
   37.590    2.2328
   37.620    2.2328
   37.650    2.3170
   37.680    2.4223
   37.710    2.2959
   37.740    2.4539
   37.770    2.3907
   37.800    2.4539
   37.830    2.3065
   37.860    2.2433
   37.890    2.4118
   37.920    2.2117
   37.950    2.3170
   37.980    2.2538
   38.010    2.4645
   38.040    2.2959
   38.070    2.3486
   38.100    2.3381
   38.130    2.4118
   38.160    2.3802
   38.190    2.3065
   38.220    2.4329
   38.250    2.4223
   38.280    2.5698
   38.310    2.3170
   38.340    2.2328
   38.370    2.5698
   38.400    2.2959
   38.430    2.2433
   38.460    2.3486
   38.490    2.5171
   38.520    2.3275
   38.550    2.2643
   38.580    2.3697
   38.610    2.1485
   38.640    2.5276
   38.670    2.3065
   38.700    2.3697
   38.730    2.3802
   38.760    2.2749
   38.790    2.2959
   38.820    2.1906
   38.850    2.3170
   38.880    2.3170
   38.910    2.3065
   38.940    2.3697
   38.970    2.2643
   39.000    2.4223
   39.030    2.4539
   39.060    2.2959
   39.090    2.2433
   39.120    2.3381
   39.150    2.3170
   39.180    2.0958
   39.210    2.3065
   39.240    2.5592
   39.270    2.2538
   39.300    2.2538
   39.330    2.2117
   39.360    2.3802
   39.390    2.2854
   39.420    2.3802
   39.450    2.2749
   39.480    2.1380
   39.510    2.2854
   39.540    2.3170
   39.570    2.3065
   39.600    2.1485
   39.630    2.2328
   39.660    2.1169
   39.690    2.3275
   39.720    2.1801
   39.750    2.4223
   39.780    1.9905
   39.810    2.5803
   39.840    2.2117
   39.870    2.1169
   39.900    2.3275
   39.930    2.1906
   39.960    2.4961
   39.990    2.3065