File: data/PXRD/PXRD_KE-081-2_Cu-Ka1_capillary-1mm_5s-deg.xyd
    1.500   17.6514
    1.530   17.4934
    1.560   17.4934
    1.590   17.5040
    1.620   17.1037
    1.650   16.3139
    1.680   16.0400
    1.710   15.3239
    1.740   15.2923
    1.770   15.4713
    1.800   14.7446
    1.830   14.8499
    1.860   14.3339
    1.890   14.3971
    1.920   13.6914
    1.950   13.3228
    1.980   13.8178
    2.010   13.5018
    2.040   13.2807
    2.070   12.8910
    2.100   12.6698
    2.130   13.1754
    2.160   12.8489
    2.190   12.0590
    2.220   12.1854
    2.250   11.7325
    2.280   11.9747
    2.310   12.1327
    2.340   11.7009
    2.370   11.2691
    2.400   11.7641
    2.430   11.6798
    2.460   11.2796
    2.490   11.1006
    2.520   11.2164
    2.550   10.8794
    2.580   11.0690
    2.610   11.3639
    2.640   11.5956
    2.670   11.1216
    2.700   11.3744
    2.730   11.1216
    2.760   10.5529
    2.790   10.7320
    2.820   11.3323
    2.850   11.4797
    2.880   11.4903
    2.910   11.5113
    2.940   12.1959
    2.970   11.5640
    3.000   11.0374
    3.030   11.5113
    3.060   12.1011
    3.090   12.4276
    3.120   12.5434
    3.150   12.9015
    3.180   13.0806
    3.210   13.7230
    3.240   13.6704
    3.270   14.5024
    3.300   14.3971
    3.330   15.4292
    3.360   16.1032
    3.390   16.6719
    3.420   17.1985
    3.450   17.1459
    3.480   19.0732
    3.510   19.6419
    3.540   20.1474
    3.570   21.0848
    3.600   22.6330
    3.630   24.9500
    3.660   26.9510
    3.690   29.5419
    3.720   31.9431
    3.750   36.4824
    3.780   41.2006
    3.810   50.6688
    3.840   62.1380
    3.870   70.5740
    3.900   64.2443
    3.930   38.5045
    3.960   17.3670
    3.990   12.4487
    4.020   10.7320
    4.050    9.5629
    4.080    9.3102
    4.110    8.6361
    4.140    8.2675
    4.170    8.2886
    4.200    8.2675
    4.230    7.7936
    4.260    7.6461
    4.290    7.6356
    4.320    7.1933
    4.350    7.8989
    4.380    7.2143
    4.410    7.3828
    4.440    6.9194
    4.470    7.2459
    4.500    7.0669
    4.530    7.2670
    4.560    6.8878
    4.590    7.3723
    4.620    6.9405
    4.650    7.3512
    4.680    7.4987
    4.710    7.4776
    4.740    7.0774
    4.770    7.5197
    4.800    7.4566
    4.830    7.8884
    4.860    7.5619
    4.890    7.1933
    4.920    7.8252
    4.950    7.7199
    4.980    8.0147
    5.010    8.0569
    5.040    8.0147
    5.070    8.6783
    5.100    8.9837
    5.130    9.2048
    5.160   10.0369
    5.190    9.3944
    5.220   10.4897
    5.250   10.8057
    5.280   12.0169
    5.310   12.3433
    5.340   13.3860
    5.370   15.0079
    5.400   17.2407
    5.430   18.9784
    5.460   22.7804
    5.490   26.5824
    5.520   24.7920
    5.550   16.5350
    5.580   10.1422
    5.610    7.8357
    5.640    7.3828
    5.670    6.6772
    5.700    6.7825
    5.730    6.5824
    5.760    6.6351
    5.790    6.8141
    5.820    6.6035
    5.850    6.2454
    5.880    6.3402
    5.910    6.3928
    5.940    6.3612
    5.970    6.2559
    6.000    6.3402
    6.030    6.3191
    6.060    6.5403
    6.090    6.5929
    6.120    6.4034
    6.150    6.5403
    6.180    6.5824
    6.210    6.1401
    6.240    6.5929
    6.270    6.5298
    6.300    6.7193
    6.330    6.6035
    6.360    6.6245
    6.390    7.0774
    6.420    7.2565
    6.450    7.0248
    6.480    6.5403
    6.510    7.3934
    6.540    7.3196
    6.570    8.0463
    6.600    8.4466
    6.630    8.2991
    6.660    9.3207
    6.690   10.3212
    6.720   11.7641
    6.750   12.0169
    6.780   11.1848
    6.810    7.8146
    6.840    6.6245
    6.870    6.4876
    6.900    6.4982
    6.930    6.3928
    6.960    6.2138
    6.990    6.7088
    7.020    6.2033
    7.050    6.1927
    7.080    6.0242
    7.110    6.6140
    7.140    6.2559
    7.170    6.2665
    7.200    6.4244
    7.230    6.1190
    7.260    6.2559
    7.290    6.5192
    7.320    6.3718
    7.350    6.0558
    7.380    6.0874
    7.410    6.7193
    7.440    7.0985
    7.470    6.6561
    7.500    6.3718
    7.530    6.6667
    7.560    6.7615
    7.590    7.0563
    7.620    6.9932
    7.650    7.4882
    7.680    7.4144
    7.710    8.4044
    7.740    8.5203
    7.770    9.9842
    7.800   10.5951
    7.830    9.7104
    7.860    7.9305
    7.890    6.6983
    7.920    6.2243
    7.950    6.4771
    7.980    6.5929
    8.010    6.3296
    8.040    6.3402
    8.070    6.2770
    8.100    6.1295
    8.130    6.5087
    8.160    6.0769
    8.190    6.3402
    8.220    6.8457
    8.250    6.0874
    8.280    6.2033
    8.310    6.3296
    8.340    6.3823
    8.370    6.4034
    8.400    6.2033
    8.430    6.2243
    8.460    6.3612
    8.490    6.4350
    8.520    6.6351
    8.550    6.3612
    8.580    6.3191
    8.610    6.7825
    8.640    6.2665
    8.670    6.5824
    8.700    6.8036
    8.730    6.9826
    8.760    6.6877
    8.790    6.2454
    8.820    6.3086
    8.850    6.3612
    8.880    6.4876
    8.910    6.3612
    8.940    6.2981
    8.970    6.3718
    9.000    6.4350
    9.030    6.5929
    9.060    6.2875
    9.090    6.4244
    9.120    6.4139
    9.150    6.5719
    9.180    6.4455
    9.210    6.8984
    9.240    7.0985
    9.270    7.2670
    9.300    7.4039
    9.330    7.4987
    9.360    7.8989
    9.390    8.1201
    9.420    8.8889
    9.450    9.0890
    9.480   10.2264
    9.510   11.9221
    9.540   12.7120
    9.570   13.7125
    9.600   11.5956
    9.630    8.9100
    9.660    6.9194
    9.690    6.6140
    9.720    6.2665
    9.750    6.3296
    9.780    6.6667
    9.810    6.3612
    9.840    6.5719
    9.870    6.4455
    9.900    6.4139
    9.930    6.2454
    9.960    6.4244
    9.990    6.7404
   10.020    6.6245
   10.050    6.4034
   10.080    7.0248
   10.110    6.6245
   10.140    7.4039
   10.170    6.9616
   10.200    7.0037
   10.230    6.8878
   10.260    7.8884
   10.290    8.0779
   10.320    8.8362
   10.350    8.5519
   10.380    7.4882
   10.410    6.9510
   10.440    6.4982
   10.470    6.1401
   10.500    6.2770
   10.530    6.1190
   10.560    5.9189
   10.590    6.5824
   10.620    6.3928
   10.650    6.1401
   10.680    6.5403
   10.710    6.0137
   10.740    6.4034
   10.770    6.4244
   10.800    6.6140
   10.830    6.5087
   10.860    6.3928
   10.890    6.3718
   10.920    7.1511
   10.950    6.6877
   10.980    7.5829
   11.010    8.3202
   11.040    8.9731
   11.070    8.5097
   11.100    7.4460
   11.130    6.2981
   11.160    6.2138
   11.190    5.9400
   11.220    6.0558
   11.250    5.8873
   11.280    6.3402
   11.310    5.9505
   11.340    6.0874
   11.370    6.5403
   11.400    5.7609
   11.430    6.1401
   11.460    6.2349
   11.490    6.3402
   11.520    6.2770
   11.550    6.4034
   11.580    6.6351
   11.610    6.9932
   11.640    7.1195
   11.670    8.0147
   11.700    8.2780
   11.730    8.6993
   11.760    7.9726
   11.790    7.1827
   11.820    6.4350
   11.850    6.3612
   11.880    5.9400
   11.910    5.6872
   11.940    5.8557
   11.970    5.7715
   12.000    6.0453
   12.030    5.7715
   12.060    6.2243
   12.090    5.7820
   12.120    5.5503
   12.150    5.3607
   12.180    5.6451
   12.210    5.8557
   12.240    5.8241
   12.270    5.6135
   12.300    5.8768
   12.330    5.8662
   12.360    6.0558
   12.390    6.2770
   12.420    5.7820
   12.450    5.5292
   12.480    5.8031
   12.510    5.6345
   12.540    5.4766
   12.570    5.3818
   12.600    5.6135
   12.630    5.7504
   12.660    6.0453
   12.690    5.7083
   12.720    5.4976
   12.750    5.7820
   12.780    5.9084
   12.810    6.0664
   12.840    5.7083
   12.870    6.3823
   12.900    6.4666
   12.930    6.9721
   12.960    7.5724
   12.990    7.6145
   13.020    6.3718
   13.050    6.0032
   13.080    6.1611
   13.110    5.5608
   13.140    5.5187
   13.170    5.3818
   13.200    5.5503
   13.230    5.5819
   13.260    5.6872
   13.290    5.6872
   13.320    6.2033
   13.350    5.9084
   13.380    5.5608
   13.410    6.0032
   13.440    5.2870
   13.470    5.8241
   13.500    6.1927
   13.530    6.1190
   13.560    6.0874
   13.590    5.8873
   13.620    5.5924
   13.650    5.6451
   13.680    5.4134
   13.710    5.6977
   13.740    5.4555
   13.770    5.5714
   13.800    5.2449
   13.830    5.7399
   13.860    5.5292
   13.890    5.8241
   13.920    5.7504
   13.950    6.0348
   13.980    6.2349
   14.010    6.0453
   14.040    6.1506
   14.070    6.7720
   14.100    6.7404
   14.130    6.1401
   14.160    6.2243
   14.190    6.0769
   14.220    5.9505
   14.250    5.2975
   14.280    5.2659
   14.310    5.2554
   14.340    5.4555
   14.370    5.4344
   14.400    5.2870
   14.430    5.4239
   14.460    5.4660
   14.490    5.4871
   14.520    5.4766
   14.550    5.1606
   14.580    5.5398
   14.610    5.7609
   14.640    5.4871
   14.670    5.5398
   14.700    5.4450
   14.730    5.4871
   14.760    5.5608
   14.790    5.4344
   14.820    5.4555
   14.850    5.5714
   14.880    5.6977
   14.910    5.7083
   14.940    5.7925
   14.970    5.4450
   15.000    5.5819
   15.030    5.4450
   15.060    5.4871
   15.090    5.3502
   15.120    5.6872
   15.150    5.7399
   15.180    5.6451
   15.210    5.8978
   15.240    5.1501
   15.270    5.4660
   15.300    5.4239
   15.330    5.7820
   15.360    5.7188
   15.390    5.2870
   15.420    5.1080
   15.450    5.7820
   15.480    5.6029
   15.510    5.3186
   15.540    5.2870
   15.570    5.3291
   15.600    5.4660
   15.630    5.5608
   15.660    5.4660
   15.690    5.5714
   15.720    5.4660
   15.750    5.2975
   15.780    5.2449
   15.810    5.7399
   15.840    5.6872
   15.870    5.4239
   15.900    5.8452
   15.930    5.4239
   15.960    5.5503
   15.990    5.2449
   16.020    5.1817
   16.050    5.8662
   16.080    5.6977
   16.110    5.8347
   16.140    5.5503
   16.170    6.0348
   16.200    5.7293
   16.230    5.6240
   16.260    5.6661
   16.290    5.3502
   16.320    5.3923
   16.350    5.7293
   16.380    5.5819
   16.410    5.5503
   16.440    5.4134
   16.470    5.6556
   16.500    5.5398
   16.530    5.8241
   16.560    5.6135
   16.590    5.6451
   16.620    5.7188
   16.650    5.7715
   16.680    5.6451
   16.710    5.0869
   16.740    5.3502
   16.770    5.6029
   16.800    5.3607
   16.830    5.3923
   16.860    5.6767
   16.890    5.7715
   16.920    5.6029
   16.950    5.4976
   16.980    6.1190
   17.010    6.0558
   17.040    6.8562
   17.070    6.6877
   17.100    6.6667
   17.130    6.3507
   17.160    5.8347
   17.190    5.3607
   17.220    5.3818
   17.250    5.2027
   17.280    5.2765
   17.310    5.7293
   17.340    5.5082
   17.370    5.8452
   17.400    5.6556
   17.430    5.5187
   17.460    5.8136
   17.490    5.5819
   17.520    5.8452
   17.550    5.6767
   17.580    5.3607
   17.610    5.6872
   17.640    5.4766
   17.670    5.5398
   17.700    5.4766
   17.730    5.1185
   17.760    5.7188
   17.790    5.6135
   17.820    5.6872
   17.850    5.6556
   17.880    5.3607
   17.910    5.4976
   17.940    5.6135
   17.970    5.5082
   18.000    5.6240
   18.030    5.6977
   18.060    5.6977
   18.090    5.5819
   18.120    5.6240
   18.150    5.3818
   18.180    5.5819
   18.210    5.6977
   18.240    5.6451
   18.270    5.3397
   18.300    5.9189
   18.330    5.4871
   18.360    5.6240
   18.390    5.7820
   18.420    5.9610
   18.450    5.7715
   18.480    5.5082
   18.510    5.7083
   18.540    5.7293
   18.570    5.2343
   18.600    5.7399
   18.630    5.2449
   18.660    5.5398
   18.690    5.9821
   18.720    5.5714
   18.750    5.9400
   18.780    5.9505
   18.810    5.9926
   18.840    5.5608
   18.870    5.6977
   18.900    5.5924
   18.930    5.6661
   18.960    5.8768
   18.990    6.0348
   19.020    5.8031
   19.050    5.6345
   19.080    5.4450
   19.110    5.5082
   19.140    5.8347
   19.170    5.3397
   19.200    5.6451
   19.230    5.8873
   19.260    5.7188
   19.290    5.5819
   19.320    5.7925
   19.350    5.8662
   19.380    5.3818
   19.410    5.6451
   19.440    5.4450
   19.470    5.7399
   19.500    5.7925
   19.530    5.6556
   19.560    5.6661
   19.590    5.8241
   19.620    6.1822
   19.650    5.8978
   19.680    5.7925
   19.710    5.6556
   19.740    5.7399
   19.770    5.5924
   19.800    5.2133
   19.830    5.5398
   19.860    5.6240
   19.890    5.4134
   19.920    5.3502
   19.950    5.8873
   19.980    5.6345
   20.010    5.5819
   20.040    6.0769
   20.070    5.4028
   20.100    5.4344
   20.130    5.4871
   20.160    5.7188
   20.190    5.8136
   20.220    5.5398
   20.250    5.9400
   20.280    5.6977
   20.310    6.0242
   20.340    6.0558
   20.370    6.2243
   20.400    6.6877
   20.430    5.9294
   20.460    6.2981
   20.490    5.7293
   20.520    5.6451
   20.550    5.6135
   20.580    5.6029
   20.610    5.4239
   20.640    5.7083
   20.670    5.8241
   20.700    5.8768
   20.730    5.4555
   20.760    5.2765
   20.790    5.4555
   20.820    5.7188
   20.850    5.4344
   20.880    5.6977
   20.910    5.4766
   20.940    5.6872
   20.970    5.5503
   21.000    6.1506
   21.030    5.7293
   21.060    5.6767
   21.090    5.8347
   21.120    5.7715
   21.150    6.0242
   21.180    5.7399
   21.210    5.6240
   21.240    5.5082
   21.270    5.7715
   21.300    5.5608
   21.330    5.6977
   21.360    5.2975
   21.390    5.4239
   21.420    5.7715
   21.450    5.7504
   21.480    5.7188
   21.510    5.9400
   21.540    5.6556
   21.570    5.6661
   21.600    6.0348
   21.630    5.7925
   21.660    5.6767
   21.690    5.3923
   21.720    5.5819
   21.750    5.7188
   21.780    5.3397
   21.810    5.7820
   21.840    5.9505
   21.870    5.6451
   21.900    5.9294
   21.930    6.2981
   21.960    5.8241
   21.990    5.7820
   22.020    5.6767
   22.050    5.7609
   22.080    5.3712
   22.110    5.6135
   22.140    5.7925
   22.170    5.7399
   22.200    5.5924
   22.230    5.9610
   22.260    5.7609
   22.290    6.0769
   22.320    5.8978
   22.350    5.5398
   22.380    6.0242
   22.410    5.8452
   22.440    6.0664
   22.470    5.9821
   22.500    6.2454
   22.530    6.3507
   22.560    6.5192
   22.590    6.1190
   22.620    6.2454
   22.650    5.9926
   22.680    6.2665
   22.710    5.4028
   22.740    5.6556
   22.770    5.6977
   22.800    5.8031
   22.830    6.0242
   22.860    6.3191
   22.890    6.7720
   22.920    6.0032
   22.950    6.5929
   22.980    6.4034
   23.010    6.1506
   23.040    6.1822
   23.070    5.7925
   23.100    5.7504
   23.130    5.2765
   23.160    5.6135
   23.190    5.6135
   23.220    5.8136
   23.250    5.8873
   23.280    5.4871
   23.310    5.7609
   23.340    5.5398
   23.370    5.7188
   23.400    5.5924
   23.430    5.4871
   23.460    5.5714
   23.490    5.8768
   23.520    5.6767
   23.550    6.2981
   23.580    5.9505
   23.610    5.7188
   23.640    5.5714
   23.670    5.9926
   23.700    5.6661
   23.730    5.5924
   23.760    5.7399
   23.790    5.9716
   23.820    5.7925
   23.850    5.4344
   23.880    5.7293
   23.910    6.1717
   23.940    5.6240
   23.970    5.9821
   24.000    5.2765
   24.030    5.8662
   24.060    5.9084
   24.090    5.1185
   24.120    5.2449
   24.150    5.6240
   24.180    5.7820
   24.210    5.4134
   24.240    5.6872
   24.270    5.3186
   24.300    5.5187
   24.330    5.4134
   24.360    5.7188
   24.390    5.5082
   24.420    5.6029
   24.450    5.7188
   24.480    5.3923
   24.510    5.2027
   24.540    5.5924
   24.570    5.5082
   24.600    5.7715
   24.630    5.7399
   24.660    5.1817
   24.690    4.9921
   24.720    5.4976
   24.750    5.4976
   24.780    5.1290
   24.810    5.5924
   24.840    5.6240
   24.870    5.8031
   24.900    5.4660
   24.930    5.5608
   24.960    5.4028
   24.990    5.4660
   25.020    5.3186
   25.050    5.4239
   25.080    5.4450
   25.110    5.3081
   25.140    5.4871
   25.170    5.5398
   25.200    5.4450
   25.230    5.7188
   25.260    5.4450
   25.290    5.2765
   25.320    5.4555
   25.350    5.3712
   25.380    5.2870
   25.410    5.5292
   25.440    5.5082
   25.470    5.7715
   25.500    5.6135
   25.530    5.6767
   25.560    5.3186
   25.590    5.2027
   25.620    5.6240
   25.650    5.5292
   25.680    5.6029
   25.710    5.5398
   25.740    5.7188
   25.770    5.9084
   25.800    6.2981
   25.830    5.9084
   25.860    5.6977
   25.890    5.9189
   25.920    5.7399
   25.950    4.9394
   25.980    5.3607
   26.010    5.5292
   26.040    5.4344
   26.070    5.1817
   26.100    5.5082
   26.130    5.0869
   26.160    5.4976
   26.190    4.9816
   26.220    5.6451
   26.250    5.0869
   26.280    5.2975
   26.310    5.2765
   26.340    5.4450
   26.370    5.5292
   26.400    5.4871
   26.430    5.4134
   26.460    5.4555
   26.490    5.4028
   26.520    5.7820
   26.550    5.4344
   26.580    5.3291
   26.610    5.1922
   26.640    5.2554
   26.670    5.2659
   26.700    5.4134
   26.730    5.3502
   26.760    5.3081
   26.790    5.2027
   26.820    5.2238
   26.850    5.0237
   26.880    4.9921
   26.910    5.4871
   26.940    4.9710
   26.970    4.9710
   27.000    5.7820
   27.030    5.4344
   27.060    5.1290
   27.090    5.3186
   27.120    5.2765
   27.150    5.0974
   27.180    5.1501
   27.210    5.0553
   27.240    4.9184
   27.270    5.3502
   27.300    5.0974
   27.330    5.2554
   27.360    4.8341
   27.390    5.0342
   27.420    5.2659
   27.450    5.1817
   27.480    5.0869
   27.510    4.9394
   27.540    5.3818
   27.570    5.0764
   27.600    5.3607
   27.630    5.3502
   27.660    5.2238
   27.690    5.0658
   27.720    5.0553
   27.750    4.9394
   27.780    5.1290
   27.810    5.2133
   27.840    5.0448
   27.870    5.2343
   27.900    5.6872
   27.930    5.0132
   27.960    5.1501
   27.990    5.4028
   28.020    5.3081
   28.050    5.1817
   28.080    5.0553
   28.110    5.0869
   28.140    5.1395
   28.170    5.2765
   28.200    4.9500
   28.230    5.2133
   28.260    5.2659
   28.290    5.0026
   28.320    5.0237
   28.350    5.1606
   28.380    5.0237
   28.410    5.5608
   28.440    5.2238
   28.470    5.4239
   28.500    4.9816
   28.530    5.6029
   28.560    4.9710
   28.590    4.7077
   28.620    4.9184
   28.650    4.9184
   28.680    4.9394
   28.710    4.7604
   28.740    4.9921
   28.770    4.7920
   28.800    4.7183
   28.830    5.0237
   28.860    5.0342
   28.890    4.8341
   28.920    5.0869
   28.950    4.9710
   28.980    5.3502
   29.010    5.0658
   29.040    5.2765
   29.070    5.2343
   29.100    4.9500
   29.130    5.2765
   29.160    5.2765
   29.190    4.4550
   29.220    4.8025
   29.250    5.0658
   29.280    5.0026
   29.310    4.8657
   29.340    5.2238
   29.370    4.7604
   29.400    4.7604
   29.430    4.5603
   29.460    5.0553
   29.490    5.0026
   29.520    4.8552
   29.550    4.9605
   29.580    5.0658
   29.610    5.0132
   29.640    4.6551
   29.670    5.0974
   29.700    4.8341
   29.730    5.0553
   29.760    4.9184
   29.790    4.9078
   29.820    4.7077
   29.850    4.7288
   29.880    4.9921
   29.910    4.6445
   29.940    4.7499
   29.970    4.6867
   30.000    5.1290
   30.030    4.8763
   30.060    4.7288
   30.090    4.6130
   30.120    4.9184
   30.150    4.6340
   30.180    5.2238
   30.210    4.6024
   30.240    4.4339
   30.270    4.6551
   30.300    5.0869
   30.330    4.9710
   30.360    4.8025
   30.390    4.8657
   30.420    4.8447
   30.450    5.0869
   30.480    4.7815
   30.510    4.7709
   30.540    4.5708
   30.570    4.9921
   30.600    4.7288
   30.630    4.8131
   30.660    4.8025
   30.690    4.7815
   30.720    4.6761
   30.750    4.5287
   30.780    4.6761
   30.810    4.6867
   30.840    4.8131
   30.870    4.7920
   30.900    4.7288
   30.930    4.6761
   30.960    4.6972
   30.990    4.9816
   31.020    4.5708
   31.050    4.7499
   31.080    4.4971
   31.110    4.3391
   31.140    4.4444
   31.170    4.4866
   31.200    4.5603
   31.230    5.0658
   31.260    4.5498
   31.290    4.8447
   31.320    4.2127
   31.350    4.7393
   31.380    4.3813
   31.410    4.2865
   31.440    5.1711
   31.470    4.6972
   31.500    4.7815
   31.530    4.6130
   31.560    4.4128
   31.590    4.7288
   31.620    4.4550
   31.650    4.6867
   31.680    4.5498
   31.710    4.8131
   31.740    4.6235
   31.770    5.0026
   31.800    5.3607
   31.830    5.4134
   31.860    4.6340
   31.890    4.6024
   31.920    4.8973
   31.950    4.7709
   31.980    4.8868
   32.010    4.9184
   32.040    5.2870
   32.070    4.9289
   32.100    5.3186
   32.130    4.9289
   32.160    4.6551
   32.190    4.8973
   32.220    4.3602
   32.250    4.4866
   32.280    4.4866
   32.310    4.6340
   32.340    4.3075
   32.370    4.6445
   32.400    4.4655
   32.430    4.5076
   32.460    4.5076
   32.490    4.6445
   32.520    4.6972
   32.550    4.4550
   32.580    4.7288
   32.610    4.5182
   32.640    4.4971
   32.670    4.5287
   32.700    4.2865
   32.730    4.1811
   32.760    4.3181
   32.790    4.5182
   32.820    4.3391
   32.850    4.3602
   32.880    4.6130
   32.910    4.4550
   32.940    4.4023
   32.970    4.1706
   33.000    4.5182
   33.030    4.4444
   33.060    4.2233
   33.090    4.1180
   33.120    4.5182
   33.150    4.3813
   33.180    4.3813
   33.210    4.4971
   33.240    4.4023
   33.270    4.2970
   33.300    4.6235
   33.330    4.3813
   33.360    4.3391
   33.390    4.2233
   33.420    4.3181
   33.450    4.2654
   33.480    4.1601
   33.510    4.5814
   33.540    4.3075
   33.570    4.0232
   33.600    4.4655
   33.630    4.5392
   33.660    4.3707
   33.690    4.0337
   33.720    4.5182
   33.750    4.7709
   33.780    4.5603
   33.810    4.8657
   33.840    4.4866
   33.870    4.7499
   33.900    5.1290
   33.930    4.4866
   33.960    4.2759
   33.990    4.4128
   34.020    4.1390
   34.050    4.5287
   34.080    4.3813
   34.110    3.9284
   34.140    4.3918
   34.170    4.0758
   34.200    4.1180
   34.230    4.2338
   34.260    4.2127
   34.290    4.1601
   34.320    4.4128
   34.350    4.1285
   34.380    4.1601
   34.410    4.1180
   34.440    4.2022
   34.470    4.3075
   34.500    3.9916
   34.530    4.0126
   34.560    4.2654
   34.590    3.9705
   34.620    4.0442
   34.650    4.3918
   34.680    4.0864
   34.710    4.2443
   34.740    3.9916
   34.770    4.1706
   34.800    4.1074
   34.830    4.2338
   34.860    3.9284
   34.890    4.1601
   34.920    4.1601
   34.950    4.1180
   34.980    4.3813
   35.010    4.1285
   35.040    4.2338
   35.070    4.2127
   35.100    3.7599
   35.130    4.1917
   35.160    4.1917
   35.190    4.1496
   35.220    4.3181
   35.250    3.8547
   35.280    3.8125
   35.310    3.8757
   35.340    4.0758
   35.370    4.0548
   35.400    3.9389
   35.430    3.9810
   35.460    4.1285
   35.490    4.0758
   35.520    4.2338
   35.550    4.0126
   35.580    3.9284
   35.610    4.1601
   35.640    4.2127
   35.670    4.1706
   35.700    3.9179
   35.730    4.0021
   35.760    4.2654
   35.790    4.2233
   35.820    4.1917
   35.850    3.8547
   35.880    4.2549
   35.910    4.3497
   35.940    4.1706
   35.970    3.8968
   36.000    4.0864
   36.030    3.8020
   36.060    3.7809
   36.090    4.0548
   36.120    4.0126
   36.150    4.1285
   36.180    3.8231
   36.210    4.1074
   36.240    4.3181
   36.270    4.1601
   36.300    3.8757
   36.330    4.1496
   36.360    4.1285
   36.390    3.8863
   36.420    3.9810
   36.450    3.7493
   36.480    3.8757
   36.510    3.8125
   36.540    3.8231
   36.570    3.9073
   36.600    3.9179
   36.630    3.7283
   36.660    4.2338
   36.690    4.1074
   36.720    3.7177
   36.750    4.1285
   36.780    3.9073
   36.810    3.9284
   36.840    3.8020
   36.870    3.8441
   36.900    3.9389
   36.930    3.9494
   36.960    3.8863
   36.990    3.9179
   37.020    4.0021
   37.050    4.1180
   37.080    4.2233
   37.110    4.2022
   37.140    3.9389
   37.170    4.1285
   37.200    4.0864
   37.230    3.8968
   37.260    4.0126
   37.290    3.8020
   37.320    3.8757
   37.350    4.1706
   37.380    3.7915
   37.410    3.8336
   37.440    3.6756
   37.470    4.2338
   37.500    3.7915
   37.530    3.7283
   37.560    4.0021
   37.590    4.1706
   37.620    4.0442
   37.650    3.9705
   37.680    4.0864
   37.710    3.9600
   37.740    4.0021
   37.770    3.9600
   37.800    3.9284
   37.830    4.0442
   37.860    3.7177
   37.890    3.9494
   37.920    3.5176
   37.950    3.6546
   37.980    3.9284
   38.010    3.7283
   38.040    3.9705
   38.070    3.8863
   38.100    3.9073
   38.130    3.7072
   38.160    3.6967
   38.190    3.9073
   38.220    4.0758
   38.250    3.9705
   38.280    4.0337
   38.310    3.8757
   38.340    3.8652
   38.370    3.9073
   38.400    3.5387
   38.430    3.4439
   38.460    3.7704
   38.490    3.9600
   38.520    3.6967
   38.550    4.0864
   38.580    3.9600
   38.610    4.0021
   38.640    3.8020
   38.670    4.1074
   38.700    3.8968
   38.730    3.4966
   38.760    3.6335
   38.790    4.0021
   38.820    3.6546
   38.850    3.5071
   38.880    3.8336
   38.910    4.2338
   38.940    3.6230
   38.970    3.8020
   39.000    3.9389
   39.030    3.6230
   39.060    4.1180
   39.090    3.8336
   39.120    3.8968
   39.150    3.9494
   39.180    3.6967
   39.210    3.8863
   39.240    3.8441
   39.270    3.8336
   39.300    4.0969
   39.330    3.9073
   39.360    4.0758
   39.390    3.5598
   39.420    3.8652
   39.450    3.9600
   39.480    3.7177
   39.510    3.6335
   39.540    3.7915
   39.570    3.8757
   39.600    3.8652
   39.630    3.8125
   39.660    3.5914
   39.690    3.9179
   39.720    3.8020
   39.750    3.9494
   39.780    3.7388
   39.810    3.9073
   39.840    4.0653
   39.870    3.9494
   39.900    3.8125
   39.930    3.7283
   39.960    3.4966
   39.990    3.6756