File: data/PXRD/PXRD_KE-194_Cu-Ka1_capillary-1mm_5s-deg.xyd
    1.500   28.6783
    1.530   28.4887
    1.560   26.6456
    1.590   25.7188
    1.620   24.8657
    1.650   23.7283
    1.680   22.1801
    1.710   22.0116
    1.740   20.8847
    1.770   20.2212
    1.800   19.5682
    1.830   18.8415
    1.860   17.5671
    1.890   17.8410
    1.920   16.9247
    1.950   16.6403
    1.980   15.3133
    2.010   15.6609
    2.040   14.8710
    2.070   14.6077
    2.100   14.0600
    2.130   13.7125
    2.160   12.8067
    2.190   12.6593
    2.220   12.4381
    2.250   12.2907
    2.280   12.3749
    2.310   11.3849
    2.340   10.7636
    2.370   10.9637
    2.400   10.8794
    2.430   10.6372
    2.460   10.0579
    2.490   10.0474
    2.520    9.8894
    2.550    9.5524
    2.580    9.5208
    2.610    9.4787
    2.640    9.7420
    2.670    8.8257
    2.700    8.5097
    2.730    8.6361
    2.760    8.4676
    2.790    8.3834
    2.820    8.1411
    2.850    8.0358
    2.880    7.8462
    2.910    7.5829
    2.940    7.6567
    2.970    7.7093
    3.000    7.5513
    3.030    7.2670
    3.060    7.3723
    3.090    7.0037
    3.120    6.9826
    3.150    6.9300
    3.180    6.8352
    3.210    7.0142
    3.240    6.5508
    3.270    6.7930
    3.300    6.8141
    3.330    6.7720
    3.360    6.6035
    3.390    5.8768
    3.420    6.5824
    3.450    6.4982
    3.480    5.4660
    3.510    6.6561
    3.540    6.0979
    3.570    5.8978
    3.600    5.9084
    3.630    5.6977
    3.660    5.9716
    3.690    5.8557
    3.720    5.7399
    3.750    6.0874
    3.780    6.3823
    3.810    5.3712
    3.840    5.9084
    3.870    5.6135
    3.900    5.6345
    3.930    5.5714
    3.960    5.4028
    3.990    5.3081
    4.020    5.4239
    4.050    5.2133
    4.080    5.1290
    4.110    5.4555
    4.140    5.1290
    4.170    5.5398
    4.200    4.8447
    4.230    5.0974
    4.260    5.3607
    4.290    5.2343
    4.320    5.2554
    4.350    5.0658
    4.380    5.1711
    4.410    4.8763
    4.440    4.8973
    4.470    5.0342
    4.500    5.1395
    4.530    4.9605
    4.560    4.8131
    4.590    4.2970
    4.620    4.5814
    4.650    4.7815
    4.680    4.7920
    4.710    5.1395
    4.740    4.4971
    4.770    4.5287
    4.800    4.5287
    4.830    4.4760
    4.860    4.2865
    4.890    4.1811
    4.920    4.0864
    4.950    4.3497
    4.980    4.4234
    5.010    4.0758
    5.040    4.5919
    5.070    4.1496
    5.100    3.9916
    5.130    4.5603
    5.160    4.4339
    5.190    4.3075
    5.220    4.1917
    5.250    4.3918
    5.280    3.8441
    5.310    4.1706
    5.340    4.2549
    5.370    4.0969
    5.400    4.1706
    5.430    4.1180
    5.460    4.2654
    5.490    4.3707
    5.520    4.2654
    5.550    4.0969
    5.580    4.0548
    5.610    3.8863
    5.640    4.0969
    5.670    4.0442
    5.700    4.2338
    5.730    4.0232
    5.760    4.0021
    5.790    3.9179
    5.820    3.9916
    5.850    4.1180
    5.880    4.0126
    5.910    3.8757
    5.940    3.9179
    5.970    4.0126
    6.000    3.7072
    6.030    4.2127
    6.060    4.2022
    6.090    3.9600
    6.120    4.5498
    6.150    3.9494
    6.180    3.6124
    6.210    4.2338
    6.240    3.7388
    6.270    3.9073
    6.300    3.7493
    6.330    3.9916
    6.360    4.0758
    6.390    3.7599
    6.420    3.9284
    6.450    3.8125
    6.480    3.8968
    6.510    3.8441
    6.540    3.8125
    6.570    3.9179
    6.600    3.6756
    6.630    4.0864
    6.660    3.8336
    6.690    3.7493
    6.720    4.0864
    6.750    3.7809
    6.780    4.0653
    6.810    4.1285
    6.840    4.2970
    6.870    3.8441
    6.900    3.9073
    6.930    3.9705
    6.960    4.0653
    6.990    4.1496
    7.020    3.6440
    7.050    3.7915
    7.080    3.8020
    7.110    4.2338
    7.140    4.0126
    7.170    4.1601
    7.200    3.9284
    7.230    3.8336
    7.260    3.7915
    7.290    4.2022
    7.320    3.7915
    7.350    3.8547
    7.380    3.8968
    7.410    3.7283
    7.440    3.8652
    7.470    3.6862
    7.500    4.0442
    7.530    3.9600
    7.560    3.7809
    7.590    4.1601
    7.620    3.9284
    7.650    3.6862
    7.680    4.0126
    7.710    4.1917
    7.740    4.1496
    7.770    3.8020
    7.800    3.6756
    7.830    3.7493
    7.860    4.2338
    7.890    4.1601
    7.920    4.1601
    7.950    4.1390
    7.980    3.6546
    8.010    4.4971
    8.040    4.0548
    8.070    4.0232
    8.100    3.7809
    8.130    3.7599
    8.160    3.8968
    8.190    3.9810
    8.220    3.8652
    8.250    3.8336
    8.280    3.8441
    8.310    3.7915
    8.340    3.9284
    8.370    3.7704
    8.400    3.8757
    8.430    4.0337
    8.460    3.9284
    8.490    3.9179
    8.520    4.0548
    8.550    3.7177
    8.580    3.7599
    8.610    3.9389
    8.640    3.7704
    8.670    3.9705
    8.700    3.7493
    8.730    4.1811
    8.760    4.0232
    8.790    3.7177
    8.820    3.4755
    8.850    3.9073
    8.880    3.7915
    8.910    3.7388
    8.940    3.9916
    8.970    3.9916
    9.000    3.7493
    9.030    3.6967
    9.060    3.9705
    9.090    3.7599
    9.120    3.9494
    9.150    3.9494
    9.180    3.6019
    9.210    3.5176
    9.240    3.6967
    9.270    3.7283
    9.300    4.1180
    9.330    3.9284
    9.360    3.6756
    9.390    3.4650
    9.420    3.8652
    9.450    3.9179
    9.480    4.0126
    9.510    3.4860
    9.540    3.6756
    9.570    3.8336
    9.600    3.7388
    9.630    3.6335
    9.660    3.6862
    9.690    4.0021
    9.720    3.7493
    9.750    3.9494
    9.780    3.7915
    9.810    3.8547
    9.840    3.8863
    9.870    3.4229
    9.900    4.0758
    9.930    3.6440
    9.960    3.6335
    9.990    3.9179
   10.020    3.8020
   10.050    3.4860
   10.080    3.6756
   10.110    3.8020
   10.140    3.8336
   10.170    3.6967
   10.200    3.9494
   10.230    3.7704
   10.260    3.8336
   10.290    3.8231
   10.320    3.6862
   10.350    3.7599
   10.380    3.6862
   10.410    3.7915
   10.440    3.6967
   10.470    3.7599
   10.500    3.3702
   10.530    3.8968
   10.560    3.6335
   10.590    3.8231
   10.620    3.5071
   10.650    3.7599
   10.680    3.5808
   10.710    3.6440
   10.740    3.7809
   10.770    3.5176
   10.800    3.8336
   10.830    3.5282
   10.860    3.6230
   10.890    3.4123
   10.920    3.6967
   10.950    3.3175
   10.980    3.4755
   11.010    3.7177
   11.040    3.6967
   11.070    3.5387
   11.100    3.4966
   11.130    3.5071
   11.160    3.3913
   11.190    3.9600
   11.220    3.7704
   11.250    3.6124
   11.280    3.3597
   11.310    3.6862
   11.340    3.6651
   11.370    3.4650
   11.400    3.3070
   11.430    3.5282
   11.460    3.7283
   11.490    3.3386
   11.520    3.4966
   11.550    3.3807
   11.580    3.4229
   11.610    3.4018
   11.640    3.4860
   11.670    3.6651
   11.700    3.8863
   11.730    3.7915
   11.760    3.7072
   11.790    3.3386
   11.820    3.3913
   11.850    3.6230
   11.880    3.3807
   11.910    3.5703
   11.940    3.6124
   11.970    3.3070
   12.000    3.5808
   12.030    3.3913
   12.060    3.5914
   12.090    3.3807
   12.120    3.7283
   12.150    3.5598
   12.180    3.4229
   12.210    3.5808
   12.240    3.6335
   12.270    3.2859
   12.300    3.7072
   12.330    3.5703
   12.360    3.3386
   12.390    3.2543
   12.420    3.4966
   12.450    3.2965
   12.480    3.6124
   12.510    3.2017
   12.540    3.6335
   12.570    3.5808
   12.600    3.6651
   12.630    3.5492
   12.660    3.3702
   12.690    3.6019
   12.720    3.2859
   12.750    3.7283
   12.780    3.4123
   12.810    3.6440
   12.840    3.5492
   12.870    3.4860
   12.900    3.3175
   12.930    3.3281
   12.960    3.6230
   12.990    3.5808
   13.020    3.1701
   13.050    3.3070
   13.080    3.4755
   13.110    3.4123
   13.140    3.4229
   13.170    3.6124
   13.200    3.1174
   13.230    3.4966
   13.260    3.1490
   13.290    3.4334
   13.320    3.7283
   13.350    3.3913
   13.380    3.3913
   13.410    3.2227
   13.440    3.3386
   13.470    3.3807
   13.500    3.5492
   13.530    3.2965
   13.560    3.4755
   13.590    3.3702
   13.620    3.7072
   13.650    3.4860
   13.680    3.2754
   13.710    3.5808
   13.740    3.2859
   13.770    3.4018
   13.800    3.4334
   13.830    3.4123
   13.860    3.3702
   13.890    3.3913
   13.920    3.4123
   13.950    3.4439
   13.980    3.2333
   14.010    3.2227
   14.040    3.3702
   14.070    3.4334
   14.100    3.3281
   14.130    3.3702
   14.160    3.2438
   14.190    3.3175
   14.220    3.7072
   14.250    3.2122
   14.280    3.3386
   14.310    3.3386
   14.340    3.2333
   14.370    3.2754
   14.400    3.4544
   14.430    3.4544
   14.460    3.5598
   14.490    3.2859
   14.520    3.0858
   14.550    3.7072
   14.580    3.3807
   14.610    3.3807
   14.640    3.5703
   14.670    3.2754
   14.700    3.5282
   14.730    3.4650
   14.760    3.2754
   14.790    3.2543
   14.820    3.5808
   14.850    3.3070
   14.880    3.4966
   14.910    3.4966
   14.940    3.2649
   14.970    3.5492
   15.000    3.4018
   15.030    2.9595
   15.060    3.3597
   15.090    3.2965
   15.120    3.1069
   15.150    3.3281
   15.180    3.2227
   15.210    3.5808
   15.240    3.4334
   15.270    3.1701
   15.300    3.3702
   15.330    3.0648
   15.360    3.3807
   15.390    2.9595
   15.420    3.2754
   15.450    3.0121
   15.480    3.4018
   15.510    3.4860
   15.540    3.5808
   15.570    3.2227
   15.600    3.2754
   15.630    3.4123
   15.660    3.3702
   15.690    3.4018
   15.720    3.3175
   15.750    2.9805
   15.780    3.4439
   15.810    3.7072
   15.840    3.5492
   15.870    3.4018
   15.900    3.4334
   15.930    3.4123
   15.960    3.2543
   15.990    3.4544
   16.020    3.2859
   16.050    3.3597
   16.080    3.3281
   16.110    3.5176
   16.140    3.3913
   16.170    3.5176
   16.200    3.3807
   16.230    3.5703
   16.260    3.4650
   16.290    3.4439
   16.320    3.3913
   16.350    3.5176
   16.380    3.3597
   16.410    3.3386
   16.440    3.4966
   16.470    3.4544
   16.500    3.2543
   16.530    3.2965
   16.560    3.2227
   16.590    3.6651
   16.620    3.4334
   16.650    3.3807
   16.680    3.4439
   16.710    3.2017
   16.740    3.2438
   16.770    3.5492
   16.800    3.4755
   16.830    3.4229
   16.860    3.4229
   16.890    3.5176
   16.920    3.6546
   16.950    3.4755
   16.980    3.2965
   17.010    3.3491
   17.040    3.4860
   17.070    3.3386
   17.100    3.4018
   17.130    3.2965
   17.160    3.3070
   17.190    3.0964
   17.220    3.2965
   17.250    3.5492
   17.280    3.3070
   17.310    3.3491
   17.340    3.3807
   17.370    3.2543
   17.400    3.4439
   17.430    3.3281
   17.460    3.2438
   17.490    3.2754
   17.520    3.3702
   17.550    3.2438
   17.580    3.4439
   17.610    3.4229
   17.640    3.4123
   17.670    3.1806
   17.700    3.5598
   17.730    3.3597
   17.760    3.3702
   17.790    3.6230
   17.820    3.3070
   17.850    3.2965
   17.880    3.3807
   17.910    3.5808
   17.940    3.1596
   17.970    3.3281
   18.000    3.7599
   18.030    3.5598
   18.060    3.4650
   18.090    3.5703
   18.120    3.5808
   18.150    3.3281
   18.180    3.2859
   18.210    3.3386
   18.240    3.1701
   18.270    3.1912
   18.300    3.5176
   18.330    3.2122
   18.360    3.2438
   18.390    3.3807
   18.420    3.7704
   18.450    3.2754
   18.480    3.2543
   18.510    3.3386
   18.540    3.1596
   18.570    3.5914
   18.600    3.4334
   18.630    3.2965
   18.660    3.3807
   18.690    3.5808
   18.720    3.3491
   18.750    3.6124
   18.780    3.5176
   18.810    3.2649
   18.840    3.2017
   18.870    3.4966
   18.900    3.7388
   18.930    3.3491
   18.960    3.3491
   18.990    3.2965
   19.020    3.5703
   19.050    3.5176
   19.080    3.2754
   19.110    3.4966
   19.140    3.3807
   19.170    3.7072
   19.200    3.1596
   19.230    3.1174
   19.260    3.4966
   19.290    3.7388
   19.320    3.3175
   19.350    3.3913
   19.380    3.5176
   19.410    3.3386
   19.440    3.3597
   19.470    3.3807
   19.500    3.2754
   19.530    3.5598
   19.560    3.5387
   19.590    3.6440
   19.620    3.4860
   19.650    3.2965
   19.680    3.2227
   19.710    3.6862
   19.740    3.1596
   19.770    3.4018
   19.800    3.6651
   19.830    3.2754
   19.860    3.3807
   19.890    3.3807
   19.920    3.1596
   19.950    3.4439
   19.980    3.3281
   20.010    3.3913
   20.040    3.2859
   20.070    3.7177
   20.100    3.3702
   20.130    3.4018
   20.160    3.4229
   20.190    3.3386
   20.220    3.4860
   20.250    3.4650
   20.280    3.4334
   20.310    3.5282
   20.340    3.4334
   20.370    3.4439
   20.400    3.3386
   20.430    3.3070
   20.460    3.1596
   20.490    3.2649
   20.520    3.4755
   20.550    3.0332
   20.580    3.2754
   20.610    3.5808
   20.640    3.6756
   20.670    3.6756
   20.700    3.7283
   20.730    3.4966
   20.760    3.4439
   20.790    3.5387
   20.820    3.5176
   20.850    3.6335
   20.880    3.2122
   20.910    3.4229
   20.940    3.1596
   20.970    3.2859
   21.000    3.6967
   21.030    3.4544
   21.060    3.7388
   21.090    3.5808
   21.120    3.4544
   21.150    3.4123
   21.180    3.2333
   21.210    3.5492
   21.240    3.5176
   21.270    3.5176
   21.300    3.5071
   21.330    3.2965
   21.360    3.2543
   21.390    3.1806
   21.420    3.4544
   21.450    3.4544
   21.480    3.4123
   21.510    3.4018
   21.540    3.4650
   21.570    3.3807
   21.600    3.4860
   21.630    3.5703
   21.660    3.1069
   21.690    3.4650
   21.720    3.6335
   21.750    3.5071
   21.780    3.3597
   21.810    3.4439
   21.840    3.2122
   21.870    3.5492
   21.900    3.5492
   21.930    3.3281
   21.960    3.4123
   21.990    3.5176
   22.020    3.4439
   22.050    3.7493
   22.080    3.5703
   22.110    3.2649
   22.140    3.4544
   22.170    3.5387
   22.200    3.3702
   22.230    3.5808
   22.260    3.3070
   22.290    3.2543
   22.320    3.4755
   22.350    3.4650
   22.380    3.3281
   22.410    3.5282
   22.440    3.5914
   22.470    3.3175
   22.500    3.4544
   22.530    3.3491
   22.560    3.5598
   22.590    3.3175
   22.620    3.2754
   22.650    3.6124
   22.680    3.3491
   22.710    3.4650
   22.740    3.4860
   22.770    3.2017
   22.800    3.3702
   22.830    3.3281
   22.860    3.5387
   22.890    3.5598
   22.920    3.3491
   22.950    3.4334
   22.980    3.3913
   23.010    3.3807
   23.040    3.4966
   23.070    3.4018
   23.100    3.3807
   23.130    3.5492
   23.160    3.3702
   23.190    3.2122
   23.220    3.2438
   23.250    3.5387
   23.280    3.5387
   23.310    3.5071
   23.340    3.1912
   23.370    3.1701
   23.400    3.3913
   23.430    3.3386
   23.460    3.2122
   23.490    3.3281
   23.520    3.0858
   23.550    3.3491
   23.580    3.1596
   23.610    3.1806
   23.640    3.3175
   23.670    3.3281
   23.700    3.3597
   23.730    3.1385
   23.760    3.4018
   23.790    3.2122
   23.820    3.2438
   23.850    3.2859
   23.880    3.0226
   23.910    3.2859
   23.940    3.3175
   23.970    3.2859
   24.000    3.1701
   24.030    3.3491
   24.060    3.3702
   24.090    3.3386
   24.120    3.4544
   24.150    3.3597
   24.180    3.4334
   24.210    3.0226
   24.240    3.3491
   24.270    3.2965
   24.300    3.2649
   24.330    3.1069
   24.360    3.4334
   24.390    3.1912
   24.420    3.0226
   24.450    3.1280
   24.480    3.1806
   24.510    3.4123
   24.540    3.0753
   24.570    3.2333
   24.600    3.1806
   24.630    3.2017
   24.660    3.0964
   24.690    3.4544
   24.720    3.2649
   24.750    3.1385
   24.780    3.2017
   24.810    3.1701
   24.840    2.9489
   24.870    3.0753
   24.900    2.8436
   24.930    3.3702
   24.960    3.0332
   24.990    3.1806
   25.020    3.0016
   25.050    3.0964
   25.080    3.0858
   25.110    3.1385
   25.140    3.4334
   25.170    3.2227
   25.200    3.0332
   25.230    2.8120
   25.260    3.0858
   25.290    3.0753
   25.320    3.3491
   25.350    3.1174
   25.380    3.1069
   25.410    3.2122
   25.440    3.1806
   25.470    3.1806
   25.500    3.2438
   25.530    3.1490
   25.560    3.0016
   25.590    3.1174
   25.620    3.0753
   25.650    3.2017
   25.680    3.1596
   25.710    3.4229
   25.740    3.0542
   25.770    3.1806
   25.800    3.0437
   25.830    2.8647
   25.860    3.0016
   25.890    3.0753
   25.920    2.9805
   25.950    3.0121
   25.980    3.4018
   26.010    3.0226
   26.040    2.9700
   26.070    3.0437
   26.100    2.9173
   26.130    3.1280
   26.160    3.0964
   26.190    3.1596
   26.220    3.1385
   26.250    2.9805
   26.280    3.1280
   26.310    3.1069
   26.340    2.8436
   26.370    2.9068
   26.400    3.1280
   26.430    3.2438
   26.460    3.0332
   26.490    2.9700
   26.520    2.8647
   26.550    2.8857
   26.580    2.9595
   26.610    3.0858
   26.640    3.0332
   26.670    2.8225
   26.700    3.0332
   26.730    3.0437
   26.760    3.0226
   26.790    2.7699
   26.820    3.0648
   26.850    3.1806
   26.880    3.0121
   26.910    2.9384
   26.940    3.1806
   26.970    2.9910
   27.000    3.1280
   27.030    3.2017
   27.060    2.9700
   27.090    3.1385
   27.120    3.1701
   27.150    2.9489
   27.180    2.7593
   27.210    3.0121
   27.240    3.0226
   27.270    2.9173
   27.300    2.6962
   27.330    3.0226
   27.360    2.9910
   27.390    2.8963
   27.420    3.0226
   27.450    3.1806
   27.480    3.0016
   27.510    2.7172
   27.540    2.9068
   27.570    2.9068
   27.600    2.9173
   27.630    3.0016
   27.660    2.9910
   27.690    2.9595
   27.720    2.8331
   27.750    3.0542
   27.780    3.1596
   27.810    3.1701
   27.840    3.0016
   27.870    2.8331
   27.900    3.0226
   27.930    2.7804
   27.960    3.0542
   27.990    2.9279
   28.020    2.9173
   28.050    3.0121
   28.080    2.8225
   28.110    2.6751
   28.140    3.0648
   28.170    2.8120
   28.200    2.9279
   28.230    2.9700
   28.260    2.9384
   28.290    3.0858
   28.320    2.6435
   28.350    2.7383
   28.380    2.5908
   28.410    2.5382
   28.440    2.7699
   28.470    2.8647
   28.500    2.8857
   28.530    2.8436
   28.560    2.8963
   28.590    2.9700
   28.620    2.9595
   28.650    2.6646
   28.680    2.7593
   28.710    2.7278
   28.740    2.7593
   28.770    2.9173
   28.800    2.7804
   28.830    2.8436
   28.860    2.7593
   28.890    2.8541
   28.920    2.9489
   28.950    2.8436
   28.980    2.7278
   29.010    2.8541
   29.040    2.8120
   29.070    2.8436
   29.100    2.6435
   29.130    2.7067
   29.160    2.9384
   29.190    2.7909
   29.220    2.7488
   29.250    3.1280
   29.280    2.9700
   29.310    2.7699
   29.340    2.7278
   29.370    2.7172
   29.400    2.8963
   29.430    2.6435
   29.460    2.9068
   29.490    2.7278
   29.520    2.7909
   29.550    2.8857
   29.580    2.6435
   29.610    2.5592
   29.640    2.6856
   29.670    2.6014
   29.700    2.7699
   29.730    2.6751
   29.760    2.7172
   29.790    2.7067
   29.820    2.6856
   29.850    2.7383
   29.880    2.8963
   29.910    2.5171
   29.940    2.5592
   29.970    2.5487
   30.000    2.6014
   30.030    2.6856
   30.060    2.9595
   30.090    2.9384
   30.120    2.8436
   30.150    2.5171
   30.180    2.4961
   30.210    2.6751
   30.240    2.7172
   30.270    2.5698
   30.300    2.4118
   30.330    2.5592
   30.360    2.8120
   30.390    2.5487
   30.420    2.5382
   30.450    2.7278
   30.480    2.7278
   30.510    2.5592
   30.540    2.8541
   30.570    3.0016
   30.600    2.8331
   30.630    2.6330
   30.660    2.3275
   30.690    2.9173
   30.720    2.5066
   30.750    2.8331
   30.780    2.4118
   30.810    2.6224
   30.840    2.7278
   30.870    2.5066
   30.900    2.5592
   30.930    2.5698
   30.960    2.3907
   30.990    2.7067
   31.020    2.8120
   31.050    2.7172
   31.080    2.5171
   31.110    2.6224
   31.140    2.9173
   31.170    2.4118
   31.200    2.6330
   31.230    2.5592
   31.260    2.4013
   31.290    2.6962
   31.320    2.5698
   31.350    2.5276
   31.380    2.5487
   31.410    2.6962
   31.440    2.4961
   31.470    2.4434
   31.500    2.5382
   31.530    2.6435
   31.560    2.6751
   31.590    2.2222
   31.620    2.7699
   31.650    2.7804
   31.680    2.4961
   31.710    2.5908
   31.740    2.4855
   31.770    2.6962
   31.800    2.6751
   31.830    2.5592
   31.860    2.6119
   31.890    2.4434
   31.920    2.3486
   31.950    2.6014
   31.980    2.5276
   32.010    2.5171
   32.040    2.6330
   32.070    2.6224
   32.100    2.7699
   32.130    2.4539
   32.160    2.5592
   32.190    2.6856
   32.220    2.7383
   32.250    2.7699
   32.280    2.3275
   32.310    2.3381
   32.340    2.6014
   32.370    2.5803
   32.400    2.6119
   32.430    2.3697
   32.460    2.5066
   32.490    2.6119
   32.520    2.4539
   32.550    2.4118
   32.580    2.5698
   32.610    2.6962
   32.640    2.6751
   32.670    2.5276
   32.700    2.5382
   32.730    2.3697
   32.760    2.3275
   32.790    2.7488
   32.820    2.5066
   32.850    2.4750
   32.880    2.5487
   32.910    2.2749
   32.940    2.5171
   32.970    2.2959
   33.000    2.5487
   33.030    2.6119
   33.060    2.4223
   33.090    2.4855
   33.120    2.6751
   33.150    2.3802
   33.180    2.2433
   33.210    2.5908
   33.240    2.4118
   33.270    2.3907
   33.300    2.6962
   33.330    2.4118
   33.360    2.3802
   33.390    2.2117
   33.420    2.4434
   33.450    2.3170
   33.480    2.5276
   33.510    2.3486
   33.540    2.5276
   33.570    2.5908
   33.600    2.4539
   33.630    2.3486
   33.660    2.3697
   33.690    2.1801
   33.720    2.1696
   33.750    2.4434
   33.780    2.4118
   33.810    2.4434
   33.840    2.4750
   33.870    2.4434
   33.900    2.4013
   33.930    2.3802
   33.960    2.2012
   33.990    2.4118
   34.020    2.4750
   34.050    2.3907
   34.080    2.2538
   34.110    2.1590
   34.140    2.6435
   34.170    2.2222
   34.200    2.3275
   34.230    2.3802
   34.260    2.4645
   34.290    2.3065
   34.320    2.3381
   34.350    2.3907
   34.380    2.3591
   34.410    2.1380
   34.440    2.4645
   34.470    2.4539
   34.500    2.3697
   34.530    2.3591
   34.560    2.2749
   34.590    2.3907
   34.620    2.4855
   34.650    2.1274
   34.680    2.4539
   34.710    2.4223
   34.740    2.2433
   34.770    2.2643
   34.800    2.3065
   34.830    2.4013
   34.860    2.3591
   34.890    2.2749
   34.920    2.1906
   34.950    2.4223
   34.980    2.3907
   35.010    2.4961
   35.040    2.3802
   35.070    2.4539
   35.100    2.0748
   35.130    2.1485
   35.160    2.3170
   35.190    2.1590
   35.220    2.5698
   35.250    2.4223
   35.280    2.2643
   35.310    2.4434
   35.340    2.2117
   35.370    2.2117
   35.400    2.1380
   35.430    2.2433
   35.460    2.0326
   35.490    2.3802
   35.520    2.4223
   35.550    2.2433
   35.580    2.4645
   35.610    2.3275
   35.640    2.2117
   35.670    2.2749
   35.700    2.0326
   35.730    2.4329
   35.760    2.2012
   35.790    2.0958
   35.820    2.1696
   35.850    2.4855
   35.880    2.1485
   35.910    2.1590
   35.940    2.1274
   35.970    2.4855
   36.000    2.0642
   36.030    2.3486
   36.060    2.0853
   36.090    2.2117
   36.120    2.1696
   36.150    1.9905
   36.180    2.2433
   36.210    2.1485
   36.240    2.1801
   36.270    2.3065
   36.300    2.1485
   36.330    2.1696
   36.360    2.3381
   36.390    2.1380
   36.420    2.3381
   36.450    2.2222
   36.480    2.1801
   36.510    2.2643
   36.540    2.0853
   36.570    2.3697
   36.600    2.1801
   36.630    2.0221
   36.660    2.0011
   36.690    2.2012
   36.720    2.0958
   36.750    2.1696
   36.780    2.2959
   36.810    2.3065
   36.840    2.2222
   36.870    2.1801
   36.900    2.0853
   36.930    2.3170
   36.960    2.0221
   36.990    2.2012
   37.020    2.2117
   37.050    2.1696
   37.080    2.1696
   37.110    2.1590
   37.140    2.2433
   37.170    2.0748
   37.200    2.1696
   37.230    2.2012
   37.260    2.3065
   37.290    2.1274
   37.320    2.1064
   37.350    2.2854
   37.380    2.3275
   37.410    2.1696
   37.440    2.1274
   37.470    2.1485
   37.500    2.0537
   37.530    2.2749
   37.560    2.1906
   37.590    2.1169
   37.620    2.0326
   37.650    2.4013
   37.680    2.1590
   37.710    2.0326
   37.740    2.2012
   37.770    2.1485
   37.800    1.9800
   37.830    2.1485
   37.860    2.1064
   37.890    2.0537
   37.920    2.1485
   37.950    2.1590
   37.980    2.3381
   38.010    2.0958
   38.040    2.3591
   38.070    2.2328
   38.100    2.2222
   38.130    2.0116
   38.160    2.0748
   38.190    2.0958
   38.220    2.1590
   38.250    2.0537
   38.280    2.0432
   38.310    1.9695
   38.340    2.1801
   38.370    2.1380
   38.400    2.1906
   38.430    1.9589
   38.460    2.0642
   38.490    2.1906
   38.520    2.0537
   38.550    2.1906
   38.580    2.1590
   38.610    2.1590
   38.640    2.1064
   38.670    2.0326
   38.700    2.0011
   38.730    2.2117
   38.760    2.1169
   38.790    1.9484
   38.820    2.3486
   38.850    2.1380
   38.880    2.1169
   38.910    2.2222
   38.940    1.9168
   38.970    2.1906
   39.000    2.1064
   39.030    1.9695
   39.060    2.0537
   39.090    2.1169
   39.120    2.0221
   39.150    2.0432
   39.180    1.8957
   39.210    1.9484
   39.240    2.2222
   39.270    2.3170
   39.300    2.0748
   39.330    2.0011
   39.360    1.9905
   39.390    2.3170
   39.420    2.1590
   39.450    2.2433
   39.480    1.9063
   39.510    2.2012
   39.540    1.9695
   39.570    2.0116
   39.600    1.9168
   39.630    1.9905
   39.660    2.0432
   39.690    1.9168
   39.720    2.0221
   39.750    2.0432
   39.780    2.2959
   39.810    2.1169
   39.840    2.1380
   39.870    2.2643
   39.900    2.2012
   39.930    2.0853
   39.960    2.2643
   39.990    1.9800