File: data/PXRD/PXRD_KE-305-3H_Cu-Ka1_capillary-1mm_3s-deg.xyd
    1.500   17.3600
    1.530   17.7988
    1.560   17.0090
    1.590   16.3068
    1.620   15.9031
    1.650   16.9914
    1.680   15.5345
    1.710   14.6393
    1.740   14.6919
    1.770   15.4994
    1.800   13.3228
    1.830   13.6739
    1.860   13.6388
    1.890   12.9191
    1.920   13.4106
    1.950   12.9542
    1.980   12.6909
    2.010   13.2877
    2.040   12.4276
    2.070   12.2696
    2.100   13.1824
    2.130   12.7962
    2.160   12.1467
    2.190   12.0239
    2.220   12.3398
    2.250   11.7430
    2.280   12.1643
    2.310   12.6382
    2.340   12.4978
    2.370   12.0941
    2.400   11.4797
    2.430   11.9361
    2.460   12.3749
    2.490   12.6031
    2.520   12.3047
    2.550   12.0414
    2.580   12.2696
    2.610   13.0946
    2.640   12.7611
    2.670   12.6207
    2.700   13.0946
    2.730   13.3228
    2.760   13.0420
    2.790   14.0951
    2.820   14.5515
    2.850   13.7616
    2.880   15.1659
    2.910   14.4989
    2.940   16.0962
    2.970   15.6574
    3.000   16.2015
    3.030   17.6058
    3.060   17.7111
    3.090   17.9042
    3.120   19.0451
    3.150   19.2031
    3.180   21.8185
    3.210   21.0286
    3.240   23.8371
    3.270   23.0999
    3.300   25.5749
    3.330   26.3296
    3.360   27.4706
    3.390   30.7179
    3.420   32.0520
    3.450   34.6498
    3.480   36.7211
    3.510   40.9338
    3.540   42.3381
    3.570   46.2875
    3.600   53.7300
    3.630   57.7672
    3.660   63.8055
    3.690   72.1959
    3.720   83.6405
    3.750   97.6830
    3.780  121.0111
    3.810  158.6449
    3.840  199.8245
    3.870  155.9242
    3.900   79.5857
    3.930   25.3642
    3.960   12.4100
    3.990    9.8648
    4.020    9.3031
    4.050    8.2675
    4.080    7.6180
    4.110    7.6005
    4.140    6.8984
    4.170    6.7930
    4.200    7.1968
    4.230    7.4952
    4.260    7.1792
    4.290    6.5473
    4.320    6.6000
    4.350    6.9686
    4.380    7.0037
    4.410    7.3723
    4.440    6.9159
    4.470    7.3899
    4.500    7.0388
    4.530    7.3547
    4.560    7.6532
    4.590    7.3021
    4.620    7.4776
    4.650    7.2143
    4.680    7.5303
    4.710    7.6883
    4.740    8.1973
    4.770    8.4255
    4.800    7.7760
    4.830    8.4079
    4.860    9.0574
    4.890    9.0398
    4.920    9.8297
    4.950   10.3914
    4.980   10.3914
    5.010   10.9531
    5.040   11.6553
    5.070   12.0414
    5.100   13.1999
    5.130   12.4978
    5.160   14.6568
    5.190   15.7100
    5.220   17.7988
    5.250   18.8345
    5.280   20.3089
    5.310   24.3286
    5.340   27.2951
    5.370   31.4376
    5.400   38.1253
    5.430   52.6066
    5.460   64.9640
    5.490   56.6790
    5.520   32.8418
    5.550   14.1478
    5.580    8.1622
    5.610    6.8633
    5.640    6.9861
    5.670    6.2489
    5.700    5.9329
    5.730    5.8276
    5.760    6.2489
    5.790    5.8803
    5.820    6.1260
    5.850    6.1260
    5.880    5.6872
    5.910    6.0383
    5.940    5.5117
    5.970    5.9154
    6.000    5.8978
    6.030    5.9681
    6.060    5.5819
    6.090    6.0032
    6.120    5.7399
    6.150    6.3893
    6.180    6.5122
    6.210    6.4595
    6.240    6.8633
    6.270    6.4946
    6.300    6.4595
    6.330    6.8633
    6.360    7.1617
    6.390    7.5478
    6.420    8.1622
    6.450    7.8638
    6.480    8.0920
    6.510    8.5133
    6.540    9.3734
    6.570   10.4090
    6.600   10.6723
    6.630   13.0595
    6.660   15.6398
    6.690   21.1690
    6.720   20.3616
    6.750   15.9909
    6.780   10.4265
    6.810    6.3542
    6.840    5.9856
    6.870    5.5292
    6.900    4.9851
    6.930    5.2133
    6.960    5.1957
    6.990    5.4941
    7.020    6.2665
    7.050    5.5292
    7.080    5.2659
    7.110    5.8978
    7.140    5.3537
    7.170    5.5468
    7.200    5.2484
    7.230    5.5994
    7.260    5.4766
    7.290    5.9154
    7.320    6.3367
    7.350    6.0734
    7.380    6.1611
    7.410    5.8627
    7.440    6.1436
    7.470    6.5122
    7.500    7.0563
    7.530    6.9159
    7.560    8.0042
    7.590    8.4079
    7.620    8.8292
    7.650    9.3734
    7.680   10.9180
    7.710   11.9186
    7.740   14.6393
    7.770   15.8856
    7.800   13.9196
    7.830    9.5313
    7.860    6.5298
    7.890    5.5994
    7.920    5.4766
    7.950    5.2133
    7.980    5.1606
    8.010    5.3712
    8.040    5.4064
    8.070    4.9149
    8.100    5.0202
    8.130    5.0026
    8.160    4.8622
    8.190    5.5292
    8.220    4.8973
    8.250    5.1782
    8.280    5.0026
    8.310    5.2659
    8.340    5.3712
    8.370    5.6521
    8.400    5.3010
    8.430    5.5468
    8.460    5.2835
    8.490    5.8627
    8.520    5.3186
    8.550    5.1431
    8.580    5.8803
    8.610    5.5819
    8.640    6.2313
    8.670    6.5824
    8.700    7.1090
    8.730    6.1962
    8.760    5.7574
    8.790    5.2484
    8.820    5.1080
    8.850    5.2308
    8.880    5.5819
    8.910    5.1782
    8.940    5.4415
    8.970    5.0904
    9.000    5.6170
    9.030    5.6697
    9.060    5.4590
    9.090    5.5292
    9.120    5.8276
    9.150    6.0734
    9.180    6.6702
    9.210    6.1085
    9.240    6.8633
    9.270    7.1968
    9.300    7.4601
    9.330    8.3377
    9.360    9.5664
    9.390   10.8654
    9.420   13.3052
    9.450   15.2185
    9.480   18.5887
    9.510   25.2238
    9.540   26.5052
    9.570   21.4323
    9.600   12.5329
    9.630    6.7053
    9.660    6.1787
    9.690    5.1080
    9.720    5.2484
    9.750    5.3186
    9.780    4.8095
    9.810    5.5292
    9.840    4.9675
    9.870    5.5292
    9.900    5.1782
    9.930    5.6697
    9.960    5.2659
    9.990    5.7223
   10.020    5.6697
   10.050    5.2659
   10.080    6.3542
   10.110    6.5298
   10.140    6.5473
   10.170    7.1617
   10.200    8.3728
   10.230    8.7590
   10.260   10.6898
   10.290   13.6739
   10.320   13.5159
   10.350    9.5138
   10.380    7.1090
   10.410    5.4415
   10.440    5.1606
   10.470    4.9851
   10.500    4.9851
   10.530    4.8271
   10.560    4.8095
   10.590    4.8798
   10.620    4.9324
   10.650    5.5117
   10.680    4.8271
   10.710    5.1782
   10.740    5.4941
   10.770    5.3186
   10.800    6.2313
   10.830    5.5994
   10.860    6.1436
   10.890    6.4069
   10.920    7.0212
   10.950    7.8287
   10.980    8.8468
   11.010   10.6547
   11.040    9.8999
   11.070    8.7414
   11.100    5.9505
   11.130    5.1957
   11.160    4.3356
   11.190    4.7393
   11.220    4.7920
   11.250    4.7920
   11.280    5.0377
   11.310    5.2133
   11.340    5.2659
   11.370    4.9851
   11.400    5.0202
   11.430    4.7393
   11.460    5.8627
   11.490    5.7925
   11.520    5.7048
   11.550    5.8101
   11.580    6.8984
   11.610    7.2143
   11.640    8.7941
   11.670   11.0585
   11.700   11.4797
   11.730   10.1106
   11.760    7.3547
   11.790    5.2659
   11.820    4.4234
   11.850    4.1776
   11.880    4.5111
   11.910    4.6867
   11.940    4.5111
   11.970    4.5111
   12.000    5.0377
   12.030    4.1776
   12.060    4.9324
   12.090    4.3883
   12.120    4.5463
   12.150    4.7744
   12.180    4.1601
   12.210    5.2133
   12.240    5.0728
   12.270    5.4590
   12.300    5.1606
   12.330    5.5117
   12.360    5.4064
   12.390    5.4766
   12.420    4.5638
   12.450    4.9149
   12.480    4.8095
   12.510    4.8095
   12.540    4.4760
   12.570    4.5463
   12.600    4.8622
   12.630    4.7920
   12.660    4.6691
   12.690    4.8798
   12.720    4.8271
   12.750    4.4058
   12.780    5.5117
   12.810    5.7750
   12.840    6.0383
   12.870    6.2489
   12.900    7.8638
   12.930    9.2329
   12.960    8.9345
   12.990    7.6532
   13.020    5.8101
   13.050    4.8622
   13.080    4.3883
   13.110    4.4585
   13.140    4.0197
   13.170    4.8622
   13.200    4.4760
   13.230    4.5463
   13.260    4.3883
   13.290    5.4415
   13.320    4.7218
   13.350    4.9500
   13.380    5.2308
   13.410    5.3361
   13.440    5.4415
   13.470    5.7925
   13.500    6.3542
   13.530    6.1962
   13.560    6.0734
   13.590    5.4941
   13.620    4.7042
   13.650    4.6867
   13.680    4.1952
   13.710    4.7569
   13.740    4.6340
   13.770    4.4936
   13.800    4.6340
   13.830    4.5814
   13.860    5.0377
   13.890    4.8095
   13.920    5.3010
   13.950    5.4590
   13.980    6.1085
   14.010    6.1436
   14.040    7.4952
   14.070    8.7590
   14.100    8.6888
   14.130    7.5654
   14.160    6.0032
   14.190    4.6867
   14.220    4.0723
   14.250    4.7218
   14.280    4.8095
   14.310    4.4936
   14.340    4.7744
   14.370    4.0021
   14.400    4.5638
   14.430    4.6516
   14.460    4.3005
   14.490    4.3532
   14.520    4.3005
   14.550    4.3532
   14.580    4.6165
   14.610    4.5111
   14.640    4.4936
   14.670    4.4234
   14.700    4.8973
   14.730    4.5463
   14.760    4.3005
   14.790    4.2830
   14.820    4.5989
   14.850    3.9319
   14.880    4.3005
   14.910    4.6867
   14.940    4.3707
   14.970    4.7218
   15.000    4.7393
   15.030    4.7218
   15.060    4.9149
   15.090    5.3186
   15.120    4.8973
   15.150    4.9500
   15.180    4.8447
   15.210    4.5111
   15.240    4.4409
   15.270    4.7393
   15.300    4.7569
   15.330    4.1425
   15.360    4.2478
   15.390    4.3532
   15.420    4.7744
   15.450    4.7042
   15.480    4.5989
   15.510    4.0372
   15.540    4.0899
   15.570    4.4409
   15.600    3.7564
   15.630    4.4409
   15.660    4.3181
   15.690    4.6691
   15.720    4.4585
   15.750    4.1601
   15.780    4.3356
   15.810    4.5638
   15.840    4.7569
   15.870    4.6516
   15.900    4.6516
   15.930    4.5463
   15.960    4.1952
   15.990    4.3707
   16.020    4.6691
   16.050    4.8798
   16.080    5.0202
   16.110    5.3537
   16.140    5.3361
   16.170    5.2659
   16.200    4.8622
   16.230    4.5814
   16.260    4.4585
   16.290    4.3532
   16.320    4.5463
   16.350    4.2127
   16.380    4.4409
   16.410    4.8622
   16.440    4.7042
   16.470    4.8095
   16.500    4.8095
   16.530    5.2659
   16.560    5.2133
   16.590    5.4415
   16.620    5.3361
   16.650    5.3712
   16.680    4.8622
   16.710    4.6165
   16.740    4.4409
   16.770    4.8447
   16.800    4.4760
   16.830    4.4234
   16.860    4.6165
   16.890    5.2133
   16.920    4.9675
   16.950    5.0026
   16.980    6.3016
   17.010    6.6702
   17.040    7.4601
   17.070    7.5303
   17.100    7.0915
   17.130    5.9681
   17.160    4.8271
   17.190    4.4058
   17.220    4.3532
   17.250    4.7393
   17.280    4.6165
   17.310    4.3883
   17.340    4.6691
   17.370    4.5463
   17.400    4.8973
   17.430    5.0202
   17.460    4.8798
   17.490    5.4415
   17.520    5.2659
   17.550    4.7393
   17.580    4.5638
   17.610    4.8622
   17.640    4.3532
   17.670    4.7744
   17.700    4.4058
   17.730    4.5638
   17.760    4.7744
   17.790    4.6867
   17.820    4.8447
   17.850    4.4058
   17.880    4.8622
   17.910    5.3537
   17.940    5.0202
   17.970    5.3712
   18.000    5.1255
   18.030    4.5287
   18.060    4.2478
   18.090    4.4936
   18.120    4.6340
   18.150    4.6340
   18.180    4.6516
   18.210    4.4936
   18.240    4.4234
   18.270    4.8798
   18.300    4.5463
   18.330    5.1431
   18.360    5.5819
   18.390    4.8798
   18.420    4.8095
   18.450    4.4760
   18.480    4.6516
   18.510    4.5111
   18.540    4.4585
   18.570    4.5638
   18.600    4.1601
   18.630    4.4760
   18.660    4.5287
   18.690    4.4585
   18.720    4.7042
   18.750    4.4409
   18.780    4.7042
   18.810    4.7744
   18.840    4.8798
   18.870    4.6867
   18.900    4.4234
   18.930    4.5287
   18.960    4.4936
   18.990    4.4936
   19.020    4.2654
   19.050    4.4234
   19.080    4.5638
   19.110    4.6165
   19.140    4.6340
   19.170    4.3707
   19.200    4.2478
   19.230    4.3532
   19.260    4.5463
   19.290    4.6691
   19.320    4.1776
   19.350    4.6867
   19.380    4.0723
   19.410    4.4409
   19.440    4.5111
   19.470    4.9149
   19.500    4.7744
   19.530    4.2830
   19.560    5.2484
   19.590    5.5117
   19.620    5.7925
   19.650    5.0553
   19.680    4.7744
   19.710    4.2830
   19.740    4.7569
   19.770    4.2478
   19.800    4.5463
   19.830    4.3181
   19.860    4.5463
   19.890    4.4409
   19.920    4.7042
   19.950    4.7042
   19.980    4.5638
   20.010    4.9149
   20.040    4.5111
   20.070    4.5814
   20.100    4.5111
   20.130    4.4409
   20.160    4.5463
   20.190    5.0728
   20.220    4.7920
   20.250    4.7920
   20.280    5.0202
   20.310    5.7048
   20.340    6.0032
   20.370    6.7579
   20.400    7.1792
   20.430    6.3367
   20.460    5.6872
   20.490    4.7744
   20.520    4.5463
   20.550    4.5638
   20.580    4.4409
   20.610    4.3707
   20.640    4.5989
   20.670    4.5287
   20.700    4.6165
   20.730    4.2127
   20.760    4.3883
   20.790    4.4760
   20.820    4.4234
   20.850    4.4760
   20.880    4.9149
   20.910    4.4234
   20.940    4.6867
   20.970    4.6340
   21.000    4.2654
   21.030    4.3883
   21.060    4.4936
   21.090    4.9149
   21.120    4.2303
   21.150    4.7569
   21.180    4.4409
   21.210    4.3883
   21.240    4.4234
   21.270    4.8798
   21.300    4.5287
   21.330    4.6340
   21.360    4.6867
   21.390    4.6691
   21.420    4.2478
   21.450    4.7920
   21.480    4.7042
   21.510    4.5989
   21.540    4.0899
   21.570    4.4234
   21.600    4.5638
   21.630    4.8798
   21.660    4.5814
   21.690    4.5814
   21.720    4.7218
   21.750    5.0904
   21.780    4.9149
   21.810    5.3537
   21.840    5.3888
   21.870    5.7574
   21.900    5.6521
   21.930    5.2659
   21.960    4.6867
   21.990    4.5989
   22.020    4.4234
   22.050    4.6165
   22.080    4.9149
   22.110    4.7042
   22.140    5.4766
   22.170    5.3712
   22.200    5.1431
   22.230    5.4239
   22.260    4.9324
   22.290    4.7393
   22.320    4.6867
   22.350    4.3532
   22.380    4.4585
   22.410    5.2835
   22.440    5.4590
   22.470    5.2133
   22.500    5.7223
   22.530    7.0037
   22.560    7.5478
   22.590    7.3899
   22.620    6.8457
   22.650    6.0383
   22.680    4.8622
   22.710    4.5287
   22.740    5.0026
   22.770    4.3883
   22.800    5.1255
   22.830    5.6872
   22.860    6.2313
   22.890    7.1441
   22.920    7.0563
   22.950    7.0212
   22.980    6.0909
   23.010    5.7399
   23.040    5.1080
   23.070    5.0026
   23.100    4.6340
   23.130    4.7920
   23.160    4.5814
   23.190    5.0728
   23.220    5.7223
   23.250    5.6170
   23.280    6.3191
   23.310    5.0202
   23.340    4.7042
   23.370    4.8973
   23.400    4.3883
   23.430    4.6340
   23.460    4.7920
   23.490    4.5287
   23.520    4.8095
   23.550    4.7569
   23.580    4.4936
   23.610    4.7218
   23.640    4.4760
   23.670    4.8973
   23.700    4.4058
   23.730    4.8622
   23.760    4.3883
   23.790    4.8447
   23.820    4.7042
   23.850    4.7218
   23.880    5.3712
   23.910    5.2133
   23.940    5.0904
   23.970    5.2835
   24.000    5.1080
   24.030    4.6340
   24.060    4.3356
   24.090    4.4409
   24.120    4.1776
   24.150    4.1074
   24.180    4.5287
   24.210    4.6516
   24.240    4.4760
   24.270    4.5814
   24.300    4.7042
   24.330    4.5463
   24.360    4.5287
   24.390    4.6516
   24.420    4.5814
   24.450    4.5463
   24.480    4.5638
   24.510    4.7042
   24.540    4.3005
   24.570    4.7393
   24.600    4.3883
   24.630    4.6691
   24.660    4.5989
   24.690    4.3707
   24.720    4.6165
   24.750    4.4585
   24.780    4.4585
   24.810    3.8266
   24.840    4.7393
   24.870    4.7569
   24.900    4.4936
   24.930    4.1074
   24.960    4.4585
   24.990    4.7393
   25.020    4.4760
   25.050    4.6691
   25.080    4.0372
   25.110    4.4936
   25.140    4.7744
   25.170    4.8973
   25.200    5.3361
   25.230    5.0553
   25.260    4.4760
   25.290    4.5814
   25.320    4.5638
   25.350    4.1952
   25.380    4.1776
   25.410    4.3883
   25.440    4.7218
   25.470    4.1601
   25.500    4.9675
   25.530    4.8798
   25.560    4.8095
   25.590    4.6691
   25.620    4.5287
   25.650    4.1425
   25.680    4.8622
   25.710    4.6340
   25.740    5.1957
   25.770    5.7750
   25.800    6.4244
   25.830    6.7053
   25.860    6.3367
   25.890    6.1611
   25.920    5.5643
   25.950    4.4409
   25.980    4.1250
   26.010    4.5463
   26.040    4.5638
   26.070    4.5463
   26.100    4.3005
   26.130    4.6691
   26.160    4.6691
   26.190    4.4936
   26.220    4.2654
   26.250    4.0372
   26.280    4.3005
   26.310    4.4234
   26.340    4.5287
   26.370    4.5814
   26.400    4.8622
   26.430    5.3186
   26.460    5.0377
   26.490    5.0728
   26.520    4.4234
   26.550    4.4058
   26.580    4.2654
   26.610    4.3707
   26.640    4.5989
   26.670    3.9670
   26.700    4.6516
   26.730    4.5463
   26.760    4.4409
   26.790    4.2303
   26.820    4.5287
   26.850    4.6867
   26.880    4.2478
   26.910    4.2478
   26.940    4.4409
   26.970    4.4409
   27.000    4.8271
   27.030    4.7744
   27.060    4.7744
   27.090    4.9675
   27.120    4.3883
   27.150    4.4234
   27.180    4.2127
   27.210    4.4058
   27.240    4.3356
   27.270    4.1776
   27.300    4.4234
   27.330    4.3883
   27.360    3.9494
   27.390    4.5814
   27.420    4.3883
   27.450    4.2127
   27.480    4.2830
   27.510    4.5989
   27.540    4.4409
   27.570    4.5989
   27.600    4.7218
   27.630    4.5814
   27.660    4.6340
   27.690    4.4409
   27.720    4.1952
   27.750    4.3707
   27.780    4.3707
   27.810    4.0899
   27.840    4.6867
   27.870    4.5638
   27.900    4.6165
   27.930    4.5287
   27.960    4.3181
   27.990    3.8968
   28.020    4.3707
   28.050    4.3707
   28.080    4.4234
   28.110    4.5463
   28.140    4.5111
   28.170    5.0026
   28.200    5.3186
   28.230    5.1606
   28.260    4.4760
   28.290    4.2127
   28.320    4.0372
   28.350    4.2654
   28.380    4.6165
   28.410    5.1606
   28.440    4.7218
   28.470    4.9675
   28.500    5.3010
   28.530    4.9675
   28.560    4.4234
   28.590    3.9143
   28.620    4.0548
   28.650    4.1074
   28.680    4.1776
   28.710    4.0548
   28.740    4.1776
   28.770    4.5989
   28.800    3.8968
   28.830    4.0197
   28.860    4.0548
   28.890    3.9846
   28.920    3.9846
   28.950    4.2830
   28.980    4.3707
   29.010    4.3883
   29.040    3.9494
   29.070    4.3005
   29.100    4.3005
   29.130    3.9143
   29.160    4.3883
   29.190    4.5463
   29.220    4.3356
   29.250    4.2830
   29.280    4.7042
   29.310    4.2303
   29.340    4.5287
   29.370    4.3181
   29.400    4.2478
   29.430    3.9494
   29.460    4.0021
   29.490    3.9670
   29.520    3.8090
   29.550    4.0372
   29.580    3.9319
   29.610    4.0899
   29.640    3.8441
   29.670    4.2127
   29.700    3.9319
   29.730    4.0021
   29.760    4.0372
   29.790    4.1952
   29.820    4.2478
   29.850    4.0723
   29.880    4.0548
   29.910    4.1952
   29.940    3.7564
   29.970    4.0021
   30.000    4.1074
   30.030    4.1425
   30.060    4.2303
   30.090    3.9846
   30.120    3.8266
   30.150    4.0548
   30.180    4.1952
   30.210    3.7037
   30.240    3.8441
   30.270    3.7388
   30.300    4.3532
   30.330    4.2830
   30.360    4.3707
   30.390    3.6686
   30.420    3.9319
   30.450    4.0197
   30.480    3.8441
   30.510    3.7388
   30.540    3.9846
   30.570    4.1250
   30.600    4.3707
   30.630    4.0723
   30.660    4.1952
   30.690    3.5808
   30.720    4.4234
   30.750    3.9670
   30.780    4.1074
   30.810    4.0723
   30.840    3.9143
   30.870    3.7213
   30.900    4.2654
   30.930    4.0372
   30.960    3.9319
   30.990    3.4755
   31.020    3.9143
   31.050    3.8090
   31.080    3.8792
   31.110    4.2127
   31.140    4.0723
   31.170    3.7388
   31.200    3.7564
   31.230    3.5808
   31.260    3.8090
   31.290    3.4229
   31.320    3.8266
   31.350    4.1952
   31.380    4.4058
   31.410    4.6516
   31.440    4.2303
   31.470    3.7739
   31.500    3.9143
   31.530    3.5984
   31.560    3.5633
   31.590    3.8266
   31.620    3.5984
   31.650    4.2830
   31.680    3.9494
   31.710    4.3532
   31.740    4.4936
   31.770    4.5463
   31.800    4.6867
   31.830    4.2830
   31.860    4.5287
   31.890    4.1952
   31.920    4.0197
   31.950    4.2478
   31.980    4.0197
   32.010    4.0723
   32.040    3.8441
   32.070    3.7037
   32.100    3.9494
   32.130    3.7739
   32.160    3.4404
   32.190    4.0372
   32.220    4.1952
   32.250    3.6159
   32.280    3.8090
   32.310    3.4404
   32.340    3.8090
   32.370    3.7388
   32.400    3.4053
   32.430    3.8617
   32.460    3.2649
   32.490    3.8441
   32.520    3.3000
   32.550    3.4931
   32.580    3.6159
   32.610    3.5633
   32.640    3.5808
   32.670    3.5808
   32.700    3.2824
   32.730    3.6686
   32.760    3.6510
   32.790    3.5282
   32.820    3.9846
   32.850    3.9670
   32.880    3.7037
   32.910    3.9846
   32.940    3.6686
   32.970    4.0548
   33.000    3.5984
   33.030    3.7037
   33.060    3.5808
   33.090    3.6335
   33.120    3.8441
   33.150    3.4931
   33.180    3.6862
   33.210    3.4053
   33.240    3.5282
   33.270    3.7213
   33.300    3.6159
   33.330    3.5808
   33.360    3.5457
   33.390    3.4053
   33.420    3.5106
   33.450    3.4931
   33.480    3.6159
   33.510    3.6159
   33.540    3.5457
   33.570    3.6335
   33.600    3.5282
   33.630    3.5808
   33.660    3.6159
   33.690    3.7915
   33.720    3.3000
   33.750    3.7037
   33.780    3.4755
   33.810    3.9846
   33.840    3.9494
   33.870    4.2303
   33.900    4.3707
   33.930    4.0548
   33.960    4.3181
   33.990    4.0899
   34.020    3.6510
   34.050    3.3351
   34.080    3.9143
   34.110    3.4229
   34.140    3.4404
   34.170    4.0197
   34.200    3.6159
   34.230    3.2824
   34.260    3.1771
   34.290    3.6686
   34.320    3.6686
   34.350    3.2649
   34.380    3.7037
   34.410    3.2122
   34.440    3.4053
   34.470    3.5984
   34.500    3.5457
   34.530    3.2122
   34.560    3.3175
   34.590    3.1245
   34.620    3.3175
   34.650    3.2122
   34.680    3.6862
   34.710    3.5457
   34.740    3.3877
   34.770    3.6335
   34.800    3.5106
   34.830    3.5633
   34.860    3.6510
   34.890    3.6686
   34.920    3.7037
   34.950    2.9489
   34.980    3.7388
   35.010    3.1420
   35.040    3.4580
   35.070    3.4931
   35.100    2.9665
   35.130    3.0718
   35.160    3.2473
   35.190    3.6686
   35.220    3.5808
   35.250    3.2649
   35.280    3.2122
   35.310    3.3351
   35.340    3.0893
   35.370    3.0718
   35.400    3.2122
   35.430    3.2122
   35.460    3.1947
   35.490    3.0542
   35.520    3.7739
   35.550    3.2298
   35.580    3.0718
   35.610    3.2298
   35.640    3.1420
   35.670    3.3526
   35.700    3.1596
   35.730    2.9840
   35.760    3.2649
   35.790    3.2473
   35.820    3.1245
   35.850    3.4404
   35.880    3.3351
   35.910    3.2649
   35.940    3.4053
   35.970    3.0367
   36.000    3.2649
   36.030    3.2649
   36.060    3.4931
   36.090    3.2298
   36.120    3.1771
   36.150    3.2824
   36.180    3.5282
   36.210    3.0191
   36.240    3.5984
   36.270    3.5984
   36.300    2.9489
   36.330    3.4053
   36.360    2.9840
   36.390    3.3175
   36.420    3.0893
   36.450    3.1596
   36.480    3.1069
   36.510    2.8787
   36.540    3.1245
   36.570    3.4053
   36.600    3.5282
   36.630    3.1947
   36.660    3.4755
   36.690    3.1771
   36.720    3.3702
   36.750    3.2122
   36.780    3.3351
   36.810    3.0542
   36.840    2.8612
   36.870    2.7909
   36.900    3.4229
   36.930    3.0367
   36.960    2.9665
   36.990    3.2824
   37.020    3.1596
   37.050    3.3877
   37.080    3.2473
   37.110    3.2473
   37.140    3.4755
   37.170    3.4229
   37.200    3.2122
   37.230    2.8787
   37.260    3.0893
   37.290    3.0893
   37.320    3.0191
   37.350    2.9665
   37.380    2.9840
   37.410    3.0367
   37.440    2.8085
   37.470    2.8787
   37.500    3.6159
   37.530    3.0016
   37.560    2.9314
   37.590    3.6159
   37.620    3.0718
   37.650    3.0016
   37.680    3.2824
   37.710    3.1771
   37.740    3.5106
   37.770    3.5457
   37.800    3.0191
   37.830    3.0367
   37.860    3.2122
   37.890    3.2824
   37.920    2.9665
   37.950    2.8787
   37.980    3.2122
   38.010    3.0893
   38.040    3.4404
   38.070    3.2824
   38.100    2.9489
   38.130    3.0718
   38.160    2.6505
   38.190    2.7734
   38.220    3.1420
   38.250    3.0016
   38.280    2.8436
   38.310    2.7558
   38.340    3.0016
   38.370    3.0016
   38.400    3.1771
   38.430    2.8963
   38.460    3.2298
   38.490    3.0893
   38.520    3.1596
   38.550    2.8963
   38.580    3.1420
   38.610    3.1420
   38.640    2.7734
   38.670    3.1596
   38.700    3.1420
   38.730    3.0016
   38.760    2.5628
   38.790    3.3000
   38.820    3.5633
   38.850    2.9665
   38.880    3.3175
   38.910    3.1069
   38.940    3.1069
   38.970    2.8612
   39.000    3.0367
   39.030    3.0893
   39.060    3.3000
   39.090    2.7734
   39.120    3.3351
   39.150    2.8787
   39.180    3.1596
   39.210    3.0191
   39.240    3.3351
   39.270    3.1420
   39.300    3.1771
   39.330    2.7032
   39.360    3.1947
   39.390    2.7558
   39.420    2.7558
   39.450    3.1245
   39.480    2.9138
   39.510    3.1947
   39.540    2.9840
   39.570    3.0367
   39.600    3.0367
   39.630    2.8787
   39.660    3.1947
   39.690    3.2824
   39.720    3.0718
   39.750    3.0718
   39.780    3.0367
   39.810    3.3351
   39.840    3.3877
   39.870    3.0893
   39.900    2.5803
   39.930    2.7032
   39.960    2.7909
   39.990    2.5979