File: data/PXRD/PXRD_KE-244-2_Co-Ka1_capillary-1mm_5s-deg.xyd
    1.500    1.3376
    1.530    1.2948
    1.560    1.1343
    1.590    1.4981
    1.620    1.2413
    1.650    1.1236
    1.680    1.1557
    1.710    1.0594
    1.740    0.9631
    1.770    0.9738
    1.800    0.8561
    1.830    0.9310
    1.860    0.9631
    1.890    0.9845
    1.920    0.8347
    1.950    0.6742
    1.980    0.7491
    2.010    0.8133
    2.040    0.7812
    2.070    0.8133
    2.100    0.6849
    2.130    0.8989
    2.160    0.7063
    2.190    0.6742
    2.220    0.7705
    2.250    0.6742
    2.280    0.5136
    2.310    0.6207
    2.340    0.7919
    2.370    0.6742
    2.400    0.7170
    2.430    0.6742
    2.460    0.5993
    2.490    0.6314
    2.520    0.5564
    2.550    0.5243
    2.580    0.5564
    2.610    0.6421
    2.640    0.5778
    2.670    0.5886
    2.700    0.5243
    2.730    0.5564
    2.760    0.6742
    2.790    0.5136
    2.820    0.5029
    2.850    0.6100
    2.880    0.5243
    2.910    0.4922
    2.940    0.5564
    2.970    0.5671
    3.000    0.5029
    3.030    0.6742
    3.060    0.6528
    3.090    0.5564
    3.120    0.4066
    3.150    0.5564
    3.180    0.5243
    3.210    0.5993
    3.240    0.6314
    3.270    0.5778
    3.300    0.5350
    3.330    0.5778
    3.360    0.6742
    3.390    0.7063
    3.420    0.9952
    3.450    0.7384
    3.480    0.7812
    3.510    0.8133
    3.540    1.1022
    3.570    1.1022
    3.600    0.7170
    3.630    0.5993
    3.660    0.5564
    3.690    0.6314
    3.720    0.5993
    3.750    0.5457
    3.780    0.4708
    3.810    0.5029
    3.840    0.4280
    3.870    0.5029
    3.900    0.5457
    3.930    0.6314
    3.960    0.4601
    3.990    0.4708
    4.020    0.5136
    4.050    0.4494
    4.080    0.4922
    4.110    0.5136
    4.140    0.6100
    4.170    0.5350
    4.200    0.5886
    4.230    0.5243
    4.260    0.4601
    4.290    0.4922
    4.320    0.5993
    4.350    0.4815
    4.380    0.4280
    4.410    0.4815
    4.440    0.4815
    4.470    0.5564
    4.500    0.4708
    4.530    0.6314
    4.560    0.3745
    4.590    0.6314
    4.620    0.5993
    4.650    0.4815
    4.680    0.4601
    4.710    0.5243
    4.740    0.4494
    4.770    0.4708
    4.800    0.5457
    4.830    0.4387
    4.860    0.5457
    4.890    0.5457
    4.920    0.3745
    4.950    0.5136
    4.980    0.4387
    5.010    0.4280
    5.040    0.3852
    5.070    0.5457
    5.100    0.4601
    5.130    0.4922
    5.160    0.4601
    5.190    0.5029
    5.220    0.5243
    5.250    0.4601
    5.280    0.4601
    5.310    0.4815
    5.340    0.5671
    5.370    0.6314
    5.400    0.4922
    5.430    0.4922
    5.460    0.5350
    5.490    0.4494
    5.520    0.5886
    5.550    0.5243
    5.580    0.5136
    5.610    0.6207
    5.640    0.5671
    5.670    0.6635
    5.700    0.6849
    5.730    0.6742
    5.760    0.6207
    5.790    0.5671
    5.820    0.5671
    5.850    0.6207
    5.880    0.4815
    5.910    0.5993
    5.940    0.4815
    5.970    0.4815
    6.000    0.5564
    6.030    0.5564
    6.060    0.4066
    6.090    0.6207
    6.120    0.5243
    6.150    0.5243
    6.180    0.4280
    6.210    0.5029
    6.240    0.5350
    6.270    0.4922
    6.300    0.5029
    6.330    0.5564
    6.360    0.5564
    6.390    0.4173
    6.420    0.5778
    6.450    0.5243
    6.480    0.5243
    6.510    0.5886
    6.540    0.4922
    6.570    0.5886
    6.600    0.4922
    6.630    0.5671
    6.660    0.5993
    6.690    0.4922
    6.720    0.6100
    6.750    0.6742
    6.780    0.6421
    6.810    0.5886
    6.840    0.5671
    6.870    0.5136
    6.900    0.6421
    6.930    0.5671
    6.960    0.4815
    6.990    0.5564
    7.020    0.5243
    7.050    0.5993
    7.080    0.6421
    7.110    0.5350
    7.140    0.6207
    7.170    0.6956
    7.200    0.5671
    7.230    0.5350
    7.260    0.4280
    7.290    0.4387
    7.320    0.4173
    7.350    0.5029
    7.380    0.4815
    7.410    0.5029
    7.440    0.5136
    7.470    0.5564
    7.500    0.4708
    7.530    0.4280
    7.560    0.4280
    7.590    0.4601
    7.620    0.5993
    7.650    0.4708
    7.680    0.4922
    7.710    0.5671
    7.740    0.4066
    7.770    0.4815
    7.800    0.4922
    7.830    0.4494
    7.860    0.4280
    7.890    0.5029
    7.920    0.5029
    7.950    0.4387
    7.980    0.4494
    8.010    0.4494
    8.040    0.4815
    8.070    0.4708
    8.100    0.5243
    8.130    0.5029
    8.160    0.4708
    8.190    0.5136
    8.220    0.4601
    8.250    0.4922
    8.280    0.3852
    8.310    0.4173
    8.340    0.4066
    8.370    0.3745
    8.400    0.3745
    8.430    0.4708
    8.460    0.3959
    8.490    0.3745
    8.520    0.3852
    8.550    0.5350
    8.580    0.5243
    8.610    0.4922
    8.640    0.4280
    8.670    0.5136
    8.700    0.2996
    8.730    0.4387
    8.760    0.4066
    8.790    0.4280
    8.820    0.3745
    8.850    0.5029
    8.880    0.4280
    8.910    0.4708
    8.940    0.3959
    8.970    0.4708
    9.000    0.4922
    9.030    0.5243
    9.060    0.4494
    9.090    0.5564
    9.120    0.4173
    9.150    0.4280
    9.180    0.4815
    9.210    0.4922
    9.240    0.4601
    9.270    0.4387
    9.300    0.3638
    9.330    0.4280
    9.360    0.5243
    9.390    0.4280
    9.420    0.4066
    9.450    0.4601
    9.480    0.4601
    9.510    0.4280
    9.540    0.4494
    9.570    0.4922
    9.600    0.4280
    9.630    0.4601
    9.660    0.4387
    9.690    0.4601
    9.720    0.4494
    9.750    0.4494
    9.780    0.4173
    9.810    0.4708
    9.840    0.4280
    9.870    0.4494
    9.900    0.5993
    9.930    0.4708
    9.960    0.5029
    9.990    0.5886
   10.020    0.5457
   10.050    0.5564
   10.080    0.5457
   10.110    0.3959
   10.140    0.4066
   10.170    0.3424
   10.200    0.4708
   10.230    0.4815
   10.260    0.5136
   10.290    0.4601
   10.320    0.5136
   10.350    0.5029
   10.380    0.4066
   10.410    0.5564
   10.440    0.3745
   10.470    0.4280
   10.500    0.4815
   10.530    0.6207
   10.560    0.4708
   10.590    0.4494
   10.620    0.4815
   10.650    0.4280
   10.680    0.4815
   10.710    0.4387
   10.740    0.5136
   10.770    0.5136
   10.800    0.4494
   10.830    0.5136
   10.860    0.4066
   10.890    0.4387
   10.920    0.5671
   10.950    0.4387
   10.980    0.5243
   11.010    0.4387
   11.040    0.4708
   11.070    0.3638
   11.100    0.4494
   11.130    0.5457
   11.160    0.4815
   11.190    0.5457
   11.220    0.6421
   11.250    0.5136
   11.280    0.4601
   11.310    0.5243
   11.340    0.4387
   11.370    0.5993
   11.400    0.6207
   11.430    0.6314
   11.460    0.5457
   11.490    0.6849
   11.520    0.5778
   11.550    0.5350
   11.580    0.5243
   11.610    0.4922
   11.640    0.6314
   11.670    0.5029
   11.700    0.5457
   11.730    0.5886
   11.760    0.5243
   11.790    0.6100
   11.820    0.4922
   11.850    0.5136
   11.880    0.5778
   11.910    0.6635
   11.940    0.6100
   11.970    0.6207
   12.000    0.6100
   12.030    0.6207
   12.060    0.6421
   12.090    0.6849
   12.120    0.5993
   12.150    0.6956
   12.180    0.4494
   12.210    0.5993
   12.240    0.4708
   12.270    0.5350
   12.300    0.4601
   12.330    0.5029
   12.360    0.5243
   12.390    0.5136
   12.420    0.5136
   12.450    0.5886
   12.480    0.4494
   12.510    0.5993
   12.540    0.4387
   12.570    0.4815
   12.600    0.5564
   12.630    0.5029
   12.660    0.5993
   12.690    0.4601
   12.720    0.5993
   12.750    0.5029
   12.780    0.5243
   12.810    0.4708
   12.840    0.5243
   12.870    0.4601
   12.900    0.3531
   12.930    0.5993
   12.960    0.4494
   12.990    0.4708
   13.020    0.5564
   13.050    0.4815
   13.080    0.4708
   13.110    0.4066
   13.140    0.5457
   13.170    0.4173
   13.200    0.5243
   13.230    0.4494
   13.260    0.4601
   13.290    0.4601
   13.320    0.4280
   13.350    0.5029
   13.380    0.3959
   13.410    0.4280
   13.440    0.5029
   13.470    0.5564
   13.500    0.5350
   13.530    0.4280
   13.560    0.4601
   13.590    0.4387
   13.620    0.4494
   13.650    0.3638
   13.680    0.4387
   13.710    0.5136
   13.740    0.4173
   13.770    0.4601
   13.800    0.5136
   13.830    0.4173
   13.860    0.4173
   13.890    0.3852
   13.920    0.4922
   13.950    0.4815
   13.980    0.5136
   14.010    0.4708
   14.040    0.4922
   14.070    0.4922
   14.100    0.3852
   14.130    0.4387
   14.160    0.4173
   14.190    0.4494
   14.220    0.4173
   14.250    0.4280
   14.280    0.4066
   14.310    0.4280
   14.340    0.4280
   14.370    0.5136
   14.400    0.4815
   14.430    0.3210
   14.460    0.4280
   14.490    0.5243
   14.520    0.5136
   14.550    0.4173
   14.580    0.4708
   14.610    0.3531
   14.640    0.4173
   14.670    0.4601
   14.700    0.4173
   14.730    0.3317
   14.760    0.4280
   14.790    0.4708
   14.820    0.4387
   14.850    0.3745
   14.880    0.3424
   14.910    0.3424
   14.940    0.3852
   14.970    0.4280
   15.000    0.3745
   15.030    0.4387
   15.060    0.2354
   15.090    0.4066
   15.120    0.3638
   15.150    0.3745
   15.180    0.3317
   15.210    0.4601
   15.240    0.4494
   15.270    0.5243
   15.300    0.3210
   15.330    0.4066
   15.360    0.4173
   15.390    0.3852
   15.420    0.4922
   15.450    0.4922
   15.480    0.4708
   15.510    0.4066
   15.540    0.4815
   15.570    0.4387
   15.600    0.3852
   15.630    0.4601
   15.660    0.3852
   15.690    0.4601
   15.720    0.3531
   15.750    0.3959
   15.780    0.3638
   15.810    0.3852
   15.840    0.3317
   15.870    0.4708
   15.900    0.4280
   15.930    0.3959
   15.960    0.4922
   15.990    0.4280
   16.020    0.3852
   16.050    0.4494
   16.080    0.4066
   16.110    0.4708
   16.140    0.4066
   16.170    0.4387
   16.200    0.3103
   16.230    0.4387
   16.260    0.3317
   16.290    0.4601
   16.320    0.4173
   16.350    0.4280
   16.380    0.4494
   16.410    0.4387
   16.440    0.3852
   16.470    0.3531
   16.500    0.4387
   16.530    0.3531
   16.560    0.3531
   16.590    0.3745
   16.620    0.4173
   16.650    0.4280
   16.680    0.3745
   16.710    0.4815
   16.740    0.4066
   16.770    0.3745
   16.800    0.3531
   16.830    0.4280
   16.860    0.4173
   16.890    0.4173
   16.920    0.2889
   16.950    0.3959
   16.980    0.4280
   17.010    0.3959
   17.040    0.4280
   17.070    0.5243
   17.100    0.3424
   17.130    0.3531
   17.160    0.4387
   17.190    0.4387
   17.220    0.4494
   17.250    0.5029
   17.280    0.4815
   17.310    0.4708
   17.340    0.3745
   17.370    0.3959
   17.400    0.4173
   17.430    0.3745
   17.460    0.4066
   17.490    0.3745
   17.520    0.4387
   17.550    0.3103
   17.580    0.4280
   17.610    0.5029
   17.640    0.5029
   17.670    0.4494
   17.700    0.3210
   17.730    0.3317
   17.760    0.3531
   17.790    0.3959
   17.820    0.4387
   17.850    0.3638
   17.880    0.3424
   17.910    0.3531
   17.940    0.4173
   17.970    0.3852
   18.000    0.4601
   18.030    0.4387
   18.060    0.3959
   18.090    0.4708
   18.120    0.3317
   18.150    0.4280
   18.180    0.4387
   18.210    0.3745
   18.240    0.4066
   18.270    0.3638
   18.300    0.4066
   18.330    0.4173
   18.360    0.4387
   18.390    0.4922
   18.420    0.3745
   18.450    0.3638
   18.480    0.3852
   18.510    0.3745
   18.540    0.4494
   18.570    0.3317
   18.600    0.4708
   18.630    0.5350
   18.660    0.2889
   18.690    0.3959
   18.720    0.3745
   18.750    0.4280
   18.780    0.4066
   18.810    0.4280
   18.840    0.3852
   18.870    0.4387
   18.900    0.4922
   18.930    0.3852
   18.960    0.4494
   18.990    0.4066
   19.020    0.4922
   19.050    0.4280
   19.080    0.4280
   19.110    0.4280
   19.140    0.3424
   19.170    0.4173
   19.200    0.3852
   19.230    0.3638
   19.260    0.4173
   19.290    0.4494
   19.320    0.4494
   19.350    0.3638
   19.380    0.4601
   19.410    0.4815
   19.440    0.3424
   19.470    0.3638
   19.500    0.3638
   19.530    0.4494
   19.560    0.3531
   19.590    0.4173
   19.620    0.6207
   19.650    0.4815
   19.680    0.4280
   19.710    0.3852
   19.740    0.4387
   19.770    0.3638
   19.800    0.3638
   19.830    0.3959
   19.860    0.3852
   19.890    0.4387
   19.920    0.4173
   19.950    0.4173
   19.980    0.3745
   20.010    0.4922
   20.040    0.3745
   20.070    0.3745
   20.100    0.3852
   20.130    0.2568
   20.160    0.4387
   20.190    0.3745
   20.220    0.4280
   20.250    0.3852
   20.280    0.4280
   20.310    0.4494
   20.340    0.3959
   20.370    0.3852
   20.400    0.3531
   20.430    0.4601
   20.460    0.5136
   20.490    0.4280
   20.520    0.4708
   20.550    0.5886
   20.580    0.4708
   20.610    0.4815
   20.640    0.5136
   20.670    0.3638
   20.700    0.3959
   20.730    0.3103
   20.760    0.4494
   20.790    0.4387
   20.820    0.4708
   20.850    0.3959
   20.880    0.3317
   20.910    0.3424
   20.940    0.4173
   20.970    0.3745
   21.000    0.5029
   21.030    0.4173
   21.060    0.4280
   21.090    0.4387
   21.120    0.4815
   21.150    0.3210
   21.180    0.4173
   21.210    0.3638
   21.240    0.3317
   21.270    0.4494
   21.300    0.4708
   21.330    0.4387
   21.360    0.4066
   21.390    0.5350
   21.420    0.5564
   21.450    0.4494
   21.480    0.3852
   21.510    0.4173
   21.540    0.3210
   21.570    0.4708
   21.600    0.5457
   21.630    0.3745
   21.660    0.5564
   21.690    0.4815
   21.720    0.5350
   21.750    0.5457
   21.780    0.4280
   21.810    0.3531
   21.840    0.4708
   21.870    0.4387
   21.900    0.5671
   21.930    0.4601
   21.960    0.3852
   21.990    0.4494
   22.020    0.3852
   22.050    0.5350
   22.080    0.3638
   22.110    0.5778
   22.140    0.4708
   22.170    0.4173
   22.200    0.4066
   22.230    0.3745
   22.260    0.5029
   22.290    0.3745
   22.320    0.5029
   22.350    0.5350
   22.380    0.5029
   22.410    0.4708
   22.440    0.5564
   22.470    0.4922
   22.500    0.5243
   22.530    0.4494
   22.560    0.4066
   22.590    0.4066
   22.620    0.4922
   22.650    0.4387
   22.680    0.4280
   22.710    0.4173
   22.740    0.5029
   22.770    0.3959
   22.800    0.4601
   22.830    0.4815
   22.860    0.4922
   22.890    0.4494
   22.920    0.3852
   22.950    0.4173
   22.980    0.3852
   23.010    0.4173
   23.040    0.3531
   23.070    0.4708
   23.100    0.4066
   23.130    0.4601
   23.160    0.4815
   23.190    0.5029
   23.220    0.4601
   23.250    0.3959
   23.280    0.4494
   23.310    0.4601
   23.340    0.4173
   23.370    0.5671
   23.400    0.4601
   23.430    0.5136
   23.460    0.3852
   23.490    0.3852
   23.520    0.4708
   23.550    0.4066
   23.580    0.5778
   23.610    0.4922
   23.640    0.4494
   23.670    0.4280
   23.700    0.4066
   23.730    0.5029
   23.760    0.5350
   23.790    0.4280
   23.820    0.4387
   23.850    0.4815
   23.880    0.3638
   23.910    0.5136
   23.940    0.4601
   23.970    0.5350
   24.000    0.4815
   24.030    0.5993
   24.060    0.4280
   24.090    0.3638
   24.120    0.4173
   24.150    0.5350
   24.180    0.4280
   24.210    0.5136
   24.240    0.4280
   24.270    0.4815
   24.300    0.4708
   24.330    0.5029
   24.360    0.4815
   24.390    0.4601
   24.420    0.3959
   24.450    0.4922
   24.480    0.5243
   24.510    0.4387
   24.540    0.4815
   24.570    0.3959
   24.600    0.4173
   24.630    0.5136
   24.660    0.4815
   24.690    0.4280
   24.720    0.4922
   24.750    0.4601
   24.780    0.4173
   24.810    0.4922
   24.840    0.4066
   24.870    0.4708
   24.900    0.4815
   24.930    0.4601
   24.960    0.4173
   24.990    0.4815
   25.020    0.3745
   25.050    0.4387
   25.080    0.4494
   25.110    0.5457
   25.140    0.4494
   25.170    0.5029
   25.200    0.4922
   25.230    0.4387
   25.260    0.5136
   25.290    0.4815
   25.320    0.4922
   25.350    0.4280
   25.380    0.4066
   25.410    0.5671
   25.440    0.5350
   25.470    0.5457
   25.500    0.4922
   25.530    0.4815
   25.560    0.4815
   25.590    0.5136
   25.620    0.5671
   25.650    0.4601
   25.680    0.4387
   25.710    0.4387
   25.740    0.5457
   25.770    0.4494
   25.800    0.4280
   25.830    0.3959
   25.860    0.4387
   25.890    0.4601
   25.920    0.4601
   25.950    0.4066
   25.980    0.4494
   26.010    0.5029
   26.040    0.5564
   26.070    0.5350
   26.100    0.4601
   26.130    0.2996
   26.160    0.4494
   26.190    0.4708
   26.220    0.4494
   26.250    0.4815
   26.280    0.4815
   26.310    0.4387
   26.340    0.5671
   26.370    0.4922
   26.400    0.4815
   26.430    0.5136
   26.460    0.4922
   26.490    0.4708
   26.520    0.5136
   26.550    0.4708
   26.580    0.5029
   26.610    0.4387
   26.640    0.4494
   26.670    0.4066
   26.700    0.4173
   26.730    0.4387
   26.760    0.5243
   26.790    0.4387
   26.820    0.4494
   26.850    0.4494
   26.880    0.5243
   26.910    0.6207
   26.940    0.5886
   26.970    0.4173
   27.000    0.5886
   27.030    0.5564
   27.060    0.4280
   27.090    0.4066
   27.120    0.4815
   27.150    0.5671
   27.180    0.5457
   27.210    0.5029
   27.240    0.5136
   27.270    0.5243
   27.300    0.4066
   27.330    0.4494
   27.360    0.5886
   27.390    0.4066
   27.420    0.4708
   27.450    0.4494
   27.480    0.5029
   27.510    0.4922
   27.540    0.3531
   27.570    0.5243
   27.600    0.4494
   27.630    0.5457
   27.660    0.4815
   27.690    0.4601
   27.720    0.4601
   27.750    0.4280
   27.780    0.4922
   27.810    0.5243
   27.840    0.4494
   27.870    0.4601
   27.900    0.4601
   27.930    0.4922
   27.960    0.4387
   27.990    0.5029
   28.020    0.4387
   28.050    0.5243
   28.080    0.3745
   28.110    0.4494
   28.140    0.4494
   28.170    0.4708
   28.200    0.5029
   28.230    0.4387
   28.260    0.4815
   28.290    0.4601
   28.320    0.5029
   28.350    0.5136
   28.380    0.4066
   28.410    0.5778
   28.440    0.4280
   28.470    0.4708
   28.500    0.5886
   28.530    0.3638
   28.560    0.4173
   28.590    0.5136
   28.620    0.5564
   28.650    0.4173
   28.680    0.4066
   28.710    0.4173
   28.740    0.3745
   28.770    0.4601
   28.800    0.4280
   28.830    0.4387
   28.860    0.4280
   28.890    0.5457
   28.920    0.4387
   28.950    0.4601
   28.980    0.4173
   29.010    0.4922
   29.040    0.3852
   29.070    0.4066
   29.100    0.3852
   29.130    0.5564
   29.160    0.5671
   29.190    0.4173
   29.220    0.4708
   29.250    0.3959
   29.280    0.5029
   29.310    0.4601
   29.340    0.4066
   29.370    0.4815
   29.400    0.4815
   29.430    0.4708
   29.460    0.3638
   29.490    0.4601
   29.520    0.4708
   29.550    0.4494
   29.580    0.3424
   29.610    0.5029
   29.640    0.5029
   29.670    0.4066
   29.700    0.5136
   29.730    0.4494
   29.760    0.4280
   29.790    0.4280
   29.820    0.4494
   29.850    0.4173
   29.880    0.5350
   29.910    0.4066
   29.940    0.4494
   29.970    0.3745
   30.000    0.4601
   30.030    0.3745
   30.060    0.4815
   30.090    0.5029
   30.120    0.4922
   30.150    0.4601
   30.180    0.3959
   30.210    0.4922
   30.240    0.3638
   30.270    0.3638
   30.300    0.4494
   30.330    0.4066
   30.360    0.3424
   30.390    0.4494
   30.420    0.3210
   30.450    0.4280
   30.480    0.4494
   30.510    0.4387
   30.540    0.4601
   30.570    0.4066
   30.600    0.4387
   30.630    0.4387
   30.660    0.4815
   30.690    0.4387
   30.720    0.4601
   30.750    0.4387
   30.780    0.5029
   30.810    0.3959
   30.840    0.4280
   30.870    0.5350
   30.900    0.3959
   30.930    0.4280
   30.960    0.4815
   30.990    0.5029
   31.020    0.3959
   31.050    0.5136
   31.080    0.4173
   31.110    0.4708
   31.140    0.5671
   31.170    0.4173
   31.200    0.4387
   31.230    0.3531
   31.260    0.4494
   31.290    0.4173
   31.320    0.3852
   31.350    0.3959
   31.380    0.4387
   31.410    0.4494
   31.440    0.5350
   31.470    0.4280
   31.500    0.5136
   31.530    0.3959
   31.560    0.3745
   31.590    0.4601
   31.620    0.3210
   31.650    0.3745
   31.680    0.4280
   31.710    0.3531
   31.740    0.4601
   31.770    0.3638
   31.800    0.3959
   31.830    0.4601
   31.860    0.3638
   31.890    0.4494
   31.920    0.4173
   31.950    0.3852
   31.980    0.4387
   32.010    0.3638
   32.040    0.5136
   32.070    0.3745
   32.100    0.4494
   32.130    0.2996
   32.160    0.3210
   32.190    0.5243
   32.220    0.4815
   32.250    0.4280
   32.280    0.3852
   32.310    0.2996
   32.340    0.2675
   32.370    0.4815
   32.400    0.4494
   32.430    0.3959
   32.460    0.4280
   32.490    0.3638
   32.520    0.5029
   32.550    0.3959
   32.580    0.4494
   32.610    0.4280
   32.640    0.3638
   32.670    0.4387
   32.700    0.2782
   32.730    0.4173
   32.760    0.4387
   32.790    0.3531
   32.820    0.3531
   32.850    0.3638
   32.880    0.3317
   32.910    0.2782
   32.940    0.3852
   32.970    0.4387
   33.000    0.4815
   33.030    0.3424
   33.060    0.2889
   33.090    0.4280
   33.120    0.3210
   33.150    0.3852
   33.180    0.2889
   33.210    0.2461
   33.240    0.3852
   33.270    0.3959
   33.300    0.3531
   33.330    0.3638
   33.360    0.3531
   33.390    0.3531
   33.420    0.2996
   33.450    0.3638
   33.480    0.2996
   33.510    0.3852
   33.540    0.4066
   33.570    0.3317
   33.600    0.3103
   33.630    0.3852
   33.660    0.3745
   33.690    0.3103
   33.720    0.3317
   33.750    0.3638
   33.780    0.4601
   33.810    0.3317
   33.840    0.4601
   33.870    0.4066
   33.900    0.3638
   33.930    0.3531
   33.960    0.4173
   33.990    0.3424
   34.020    0.3210
   34.050    0.3959
   34.080    0.3424
   34.110    0.2782
   34.140    0.3424
   34.170    0.3424
   34.200    0.3103
   34.230    0.3745
   34.260    0.4066
   34.290    0.2889
   34.320    0.3852
   34.350    0.2996
   34.380    0.2889
   34.410    0.3638
   34.440    0.3531
   34.470    0.3103
   34.500    0.2782
   34.530    0.4066
   34.560    0.4922
   34.590    0.3959
   34.620    0.3317
   34.650    0.3638
   34.680    0.3210
   34.710    0.3745
   34.740    0.3103
   34.770    0.3210
   34.800    0.3852
   34.830    0.2996
   34.860    0.4066
   34.890    0.3638
   34.920    0.3210
   34.950    0.4173
   34.980    0.4280
   35.010    0.2675
   35.040    0.3210
   35.070    0.3210
   35.100    0.2996
   35.130    0.2675
   35.160    0.3745
   35.190    0.3424
   35.220    0.3745
   35.250    0.3103
   35.280    0.4066
   35.310    0.4494
   35.340    0.4066
   35.370    0.2354
   35.400    0.3317
   35.430    0.3103
   35.460    0.3103
   35.490    0.3424
   35.520    0.2568
   35.550    0.3424
   35.580    0.3210
   35.610    0.3210
   35.640    0.2889
   35.670    0.3317
   35.700    0.3424
   35.730    0.2889
   35.760    0.2996
   35.790    0.2568
   35.820    0.3638
   35.850    0.3852
   35.880    0.3745
   35.910    0.2996
   35.940    0.4066
   35.970    0.2782
   36.000    0.3424
   36.030    0.2782
   36.060    0.4173
   36.090    0.3424
   36.120    0.3317
   36.150    0.2782
   36.180    0.3103
   36.210    0.3852
   36.240    0.3531
   36.270    0.2996
   36.300    0.3210
   36.330    0.3531
   36.360    0.2675
   36.390    0.3103
   36.420    0.3852
   36.450    0.4066
   36.480    0.3317
   36.510    0.2782
   36.540    0.2889
   36.570    0.3103
   36.600    0.2996
   36.630    0.3317
   36.660    0.2568
   36.690    0.2889
   36.720    0.2675
   36.750    0.3210
   36.780    0.3745
   36.810    0.3317
   36.840    0.2782
   36.870    0.2354
   36.900    0.3852
   36.930    0.2782
   36.960    0.3959
   36.990    0.2782
   37.020    0.2889
   37.050    0.2568
   37.080    0.2996
   37.110    0.2675
   37.140    0.2782
   37.170    0.2889
   37.200    0.2461
   37.230    0.3103
   37.260    0.3103
   37.290    0.2033
   37.320    0.2996
   37.350    0.2889
   37.380    0.2889
   37.410    0.2996
   37.440    0.2996
   37.470    0.3317
   37.500    0.3638
   37.530    0.2782
   37.560    0.3103
   37.590    0.2461
   37.620    0.2889
   37.650    0.2461
   37.680    0.3210
   37.710    0.2782
   37.740    0.2782
   37.770    0.2247
   37.800    0.3103
   37.830    0.2461
   37.860    0.2782
   37.890    0.2568
   37.920    0.2889
   37.950    0.3103
   37.980    0.2889
   38.010    0.3531
   38.040    0.2461
   38.070    0.2996
   38.100    0.3210
   38.130    0.2675
   38.160    0.2996
   38.190    0.1926
   38.220    0.3317
   38.250    0.2996
   38.280    0.2568
   38.310    0.2140
   38.340    0.3103
   38.370    0.2140
   38.400    0.1712
   38.430    0.2033
   38.460    0.2996
   38.490    0.2568
   38.520    0.2568
   38.550    0.2033
   38.580    0.2889
   38.610    0.3210
   38.640    0.3852
   38.670    0.3103
   38.700    0.2675
   38.730    0.2461
   38.760    0.2996
   38.790    0.2354
   38.820    0.2140
   38.850    0.2675
   38.880    0.1712
   38.910    0.2461
   38.940    0.2782
   38.970    0.1926
   39.000    0.2675
   39.030    0.2140
   39.060    0.2675
   39.090    0.2354
   39.120    0.2461
   39.150    0.2033
   39.180    0.2782
   39.210    0.2354
   39.240    0.2782
   39.270    0.2568
   39.300    0.1819
   39.330    0.2247
   39.360    0.2247
   39.390    0.2675
   39.420    0.2461
   39.450    0.1819
   39.480    0.2033
   39.510    0.2033
   39.540    0.2461
   39.570    0.2889
   39.600    0.1605
   39.630    0.2247
   39.660    0.1712
   39.690    0.2354
   39.720    0.2461
   39.750    0.2568
   39.780    0.2675
   39.810    0.2140
   39.840    0.2461
   39.870    0.2140
   39.900    0.3959
   39.930    0.2782
   39.960    0.2140
   39.990    0.2889