File: data/PXRD/PXRD_KE-209_Co-Ka1_capillary-1mm_5s-deg.xyd
    1.500    9.0851
    1.530    9.2135
    1.560    8.8604
    1.590    7.8759
    1.620    7.1803
    1.650    7.0305
    1.680    6.6988
    1.710    6.4526
    1.740    6.0032
    1.770    5.7464
    1.800    5.8320
    1.830    5.2862
    1.860    4.6763
    1.890    4.8047
    1.920    4.5265
    1.950    4.3446
    1.980    4.2055
    2.010    4.1627
    2.040    4.2483
    2.070    3.5527
    2.100    3.5741
    2.130    3.5313
    2.160    3.1782
    2.190    3.2852
    2.220    3.1996
    2.250    3.0177
    2.280    2.8785
    2.310    3.0712
    2.340    2.6859
    2.370    2.5361
    2.400    2.5147
    2.430    2.5682
    2.460    2.2579
    2.490    2.2793
    2.520    2.2151
    2.550    2.2365
    2.580    2.1295
    2.610    2.1295
    2.640    2.1295
    2.670    1.8513
    2.700    1.7978
    2.730    1.9904
    2.760    1.6479
    2.790    2.0760
    2.820    1.9048
    2.850    1.7014
    2.880    1.7121
    2.910    1.6693
    2.940    1.6693
    2.970    1.5730
    3.000    1.6372
    3.030    1.6586
    3.060    1.7442
    3.090    1.5944
    3.120    1.5516
    3.150    1.4232
    3.180    1.4125
    3.210    1.3911
    3.240    1.3697
    3.270    1.4660
    3.300    1.4767
    3.330    1.4125
    3.360    1.2520
    3.390    1.1985
    3.420    1.2306
    3.450    1.2734
    3.480    1.4125
    3.510    1.2413
    3.540    1.2306
    3.570    1.1236
    3.600    1.1878
    3.630    1.2520
    3.660    1.1557
    3.690    1.2199
    3.720    1.0701
    3.750    1.2199
    3.780    0.9952
    3.810    1.0808
    3.840    1.2413
    3.870    1.1557
    3.900    1.1985
    3.930    1.1664
    3.960    1.0487
    3.990    1.0059
    4.020    0.8454
    4.050    1.0059
    4.080    1.0487
    4.110    0.9845
    4.140    0.9310
    4.170    0.8668
    4.200    1.0166
    4.230    1.0808
    4.260    0.9631
    4.290    0.9310
    4.320    0.9952
    4.350    0.9845
    4.380    1.0594
    4.410    0.9631
    4.440    0.9738
    4.470    1.0166
    4.500    0.9738
    4.530    0.8347
    4.560    0.8882
    4.590    1.0059
    4.620    0.8882
    4.650    0.9310
    4.680    0.8454
    4.710    0.9845
    4.740    0.8454
    4.770    0.9631
    4.800    0.9738
    4.830    0.9417
    4.860    0.9845
    4.890    0.9310
    4.920    0.9631
    4.950    0.8668
    4.980    0.9631
    5.010    1.0273
    5.040    0.8668
    5.070    0.8561
    5.100    0.7277
    5.130    0.8240
    5.160    0.8668
    5.190    0.9310
    5.220    0.9310
    5.250    0.8026
    5.280    1.0166
    5.310    0.7277
    5.340    0.8454
    5.370    0.8989
    5.400    1.0059
    5.430    0.8240
    5.460    0.7705
    5.490    0.9203
    5.520    1.0380
    5.550    0.8347
    5.580    0.9096
    5.610    1.0166
    5.640    0.8775
    5.670    0.7705
    5.700    0.8989
    5.730    0.8561
    5.760    0.8561
    5.790    0.9738
    5.820    0.8561
    5.850    1.0594
    5.880    0.9203
    5.910    0.7170
    5.940    0.9631
    5.970    0.9845
    6.000    0.7705
    6.030    0.9417
    6.060    0.8454
    6.090    0.8561
    6.120    0.9952
    6.150    0.8775
    6.180    0.7170
    6.210    0.8133
    6.240    1.0166
    6.270    0.8775
    6.300    0.8989
    6.330    0.9631
    6.360    0.9096
    6.390    0.9096
    6.420    0.8240
    6.450    0.8133
    6.480    0.8775
    6.510    0.8026
    6.540    0.9417
    6.570    1.0059
    6.600    0.8240
    6.630    0.7812
    6.660    0.8882
    6.690    0.8240
    6.720    0.8775
    6.750    0.9952
    6.780    0.8561
    6.810    0.7812
    6.840    0.9417
    6.870    0.7812
    6.900    0.9310
    6.930    0.9631
    6.960    0.7919
    6.990    0.8882
    7.020    0.8775
    7.050    0.8882
    7.080    0.9952
    7.110    1.0487
    7.140    1.0166
    7.170    0.8882
    7.200    0.8026
    7.230    0.8133
    7.260    0.9524
    7.290    0.8668
    7.320    0.9096
    7.350    0.8240
    7.380    0.8882
    7.410    1.0166
    7.440    0.9310
    7.470    0.8240
    7.500    0.9096
    7.530    0.8454
    7.560    0.9524
    7.590    0.8561
    7.620    0.8347
    7.650    0.8775
    7.680    0.8989
    7.710    0.9524
    7.740    0.7063
    7.770    0.7919
    7.800    0.8561
    7.830    0.8240
    7.860    1.0166
    7.890    0.9524
    7.920    0.9096
    7.950    0.9096
    7.980    0.8882
    8.010    0.9417
    8.040    0.8775
    8.070    0.7705
    8.100    0.9524
    8.130    0.9524
    8.160    0.9524
    8.190    0.7705
    8.220    0.8989
    8.250    0.9524
    8.280    1.0166
    8.310    0.8989
    8.340    0.9524
    8.370    1.0915
    8.400    1.0059
    8.430    0.8775
    8.460    0.9524
    8.490    0.9524
    8.520    0.9417
    8.550    0.9310
    8.580    0.9952
    8.610    0.8561
    8.640    0.8882
    8.670    0.8775
    8.700    0.9310
    8.730    0.8347
    8.760    0.9203
    8.790    0.9310
    8.820    0.8989
    8.850    0.8240
    8.880    1.1129
    8.910    1.0166
    8.940    1.0487
    8.970    0.9845
    9.000    0.9310
    9.030    1.0380
    9.060    1.1236
    9.090    1.0594
    9.120    0.8561
    9.150    0.8989
    9.180    0.9524
    9.210    0.8775
    9.240    0.9845
    9.270    0.9417
    9.300    0.9631
    9.330    1.0166
    9.360    1.0166
    9.390    1.0273
    9.420    0.8454
    9.450    0.9845
    9.480    0.8561
    9.510    0.8347
    9.540    0.9310
    9.570    0.9952
    9.600    1.0059
    9.630    1.0059
    9.660    0.9952
    9.690    1.1236
    9.720    0.9631
    9.750    1.1236
    9.780    1.1557
    9.810    1.0059
    9.840    0.8668
    9.870    0.9952
    9.900    0.9845
    9.930    1.1985
    9.960    1.0808
    9.990    1.2092
   10.020    1.0701
   10.050    0.8989
   10.080    0.9738
   10.110    1.1022
   10.140    1.0594
   10.170    1.1129
   10.200    1.1664
   10.230    1.0808
   10.260    1.1664
   10.290    1.0915
   10.320    1.0166
   10.350    1.0166
   10.380    1.1236
   10.410    0.9524
   10.440    1.0594
   10.470    1.0701
   10.500    1.3590
   10.530    0.9631
   10.560    1.2948
   10.590    1.0166
   10.620    1.0380
   10.650    1.1343
   10.680    0.9310
   10.710    1.0701
   10.740    1.2734
   10.770    1.2306
   10.800    1.1343
   10.830    1.1771
   10.860    1.0380
   10.890    1.2092
   10.920    1.2199
   10.950    0.9738
   10.980    1.2948
   11.010    1.1450
   11.040    1.1878
   11.070    1.0808
   11.100    1.1985
   11.130    1.3697
   11.160    1.3483
   11.190    1.2306
   11.220    1.1022
   11.250    1.1557
   11.280    1.1664
   11.310    1.0273
   11.340    1.1022
   11.370    1.2841
   11.400    1.2413
   11.430    1.3483
   11.460    1.1878
   11.490    1.2734
   11.520    1.3055
   11.550    1.3804
   11.580    1.1771
   11.610    1.3590
   11.640    1.1236
   11.670    1.2627
   11.700    1.2948
   11.730    1.1878
   11.760    1.1878
   11.790    1.2413
   11.820    1.1557
   11.850    1.2199
   11.880    1.0808
   11.910    1.1985
   11.940    1.2841
   11.970    1.1450
   12.000    1.3697
   12.030    1.1022
   12.060    1.2092
   12.090    1.1664
   12.120    1.3911
   12.150    1.1664
   12.180    0.9417
   12.210    1.1343
   12.240    1.1557
   12.270    1.1450
   12.300    1.1557
   12.330    1.1343
   12.360    1.2413
   12.390    1.3269
   12.420    1.1771
   12.450    1.3804
   12.480    1.2306
   12.510    1.2734
   12.540    1.1129
   12.570    1.2520
   12.600    1.2520
   12.630    1.0915
   12.660    1.1878
   12.690    1.1129
   12.720    1.2199
   12.750    1.0808
   12.780    1.1878
   12.810    1.0059
   12.840    1.1450
   12.870    1.1022
   12.900    1.0915
   12.930    1.2627
   12.960    1.2199
   12.990    1.2306
   13.020    0.8668
   13.050    1.1450
   13.080    1.0915
   13.110    1.1557
   13.140    1.1343
   13.170    1.0915
   13.200    1.1236
   13.230    1.1022
   13.260    1.1236
   13.290    1.0594
   13.320    1.1450
   13.350    1.1022
   13.380    0.9524
   13.410    1.1664
   13.440    1.1557
   13.470    1.0380
   13.500    0.9524
   13.530    0.9310
   13.560    0.9524
   13.590    1.0166
   13.620    0.9524
   13.650    1.0915
   13.680    0.9524
   13.710    0.9631
   13.740    0.9096
   13.770    1.0166
   13.800    0.9952
   13.830    1.0380
   13.860    0.9631
   13.890    1.0059
   13.920    0.8989
   13.950    1.0701
   13.980    0.9631
   14.010    0.8347
   14.040    0.9203
   14.070    0.9310
   14.100    1.0166
   14.130    0.8133
   14.160    0.8882
   14.190    0.7812
   14.220    0.9310
   14.250    0.8668
   14.280    0.9845
   14.310    0.7384
   14.340    0.8561
   14.370    0.9845
   14.400    0.8775
   14.430    0.8882
   14.460    0.8026
   14.490    0.8668
   14.520    0.9203
   14.550    1.1450
   14.580    0.9310
   14.610    0.8026
   14.640    0.7491
   14.670    0.9203
   14.700    0.8240
   14.730    0.8240
   14.760    0.8133
   14.790    1.0059
   14.820    0.8561
   14.850    0.8240
   14.880    0.8347
   14.910    0.8775
   14.940    0.7919
   14.970    0.7919
   15.000    0.9096
   15.030    1.0594
   15.060    0.7384
   15.090    0.8882
   15.120    0.8882
   15.150    0.7919
   15.180    0.7919
   15.210    0.7170
   15.240    0.8775
   15.270    0.8026
   15.300    0.7384
   15.330    0.8668
   15.360    0.6956
   15.390    0.8454
   15.420    0.7277
   15.450    0.6849
   15.480    0.8133
   15.510    0.8989
   15.540    0.8775
   15.570    1.0166
   15.600    0.7919
   15.630    0.8347
   15.660    0.8133
   15.690    0.7170
   15.720    0.8775
   15.750    0.9203
   15.780    0.8454
   15.810    0.7812
   15.840    0.7384
   15.870    0.8347
   15.900    0.7491
   15.930    0.8989
   15.960    0.8668
   15.990    0.8133
   16.020    0.6314
   16.050    0.8026
   16.080    0.6635
   16.110    0.7384
   16.140    0.9417
   16.170    0.9310
   16.200    0.7705
   16.230    0.6207
   16.260    0.7705
   16.290    0.7384
   16.320    0.7705
   16.350    0.8347
   16.380    0.8454
   16.410    0.8026
   16.440    0.7812
   16.470    0.6849
   16.500    0.6207
   16.530    0.8026
   16.560    0.7384
   16.590    0.6742
   16.620    0.9310
   16.650    0.8133
   16.680    0.6849
   16.710    0.7277
   16.740    0.6956
   16.770    0.6956
   16.800    0.8347
   16.830    0.7277
   16.860    0.7277
   16.890    0.8989
   16.920    0.7919
   16.950    0.7063
   16.980    0.8668
   17.010    0.8454
   17.040    0.8133
   17.070    0.7919
   17.100    0.6528
   17.130    0.6849
   17.160    0.6849
   17.190    0.7063
   17.220    0.8882
   17.250    0.8454
   17.280    0.7277
   17.310    0.7919
   17.340    0.8347
   17.370    0.7170
   17.400    0.7170
   17.430    0.6421
   17.460    0.9096
   17.490    1.0166
   17.520    0.8668
   17.550    0.8133
   17.580    0.7277
   17.610    0.7170
   17.640    0.7277
   17.670    0.6635
   17.700    0.6742
   17.730    0.8882
   17.760    0.6956
   17.790    0.6421
   17.820    0.5993
   17.850    0.8026
   17.880    0.8240
   17.910    0.6207
   17.940    0.7598
   17.970    0.7598
   18.000    0.7491
   18.030    0.7812
   18.060    0.7063
   18.090    0.9203
   18.120    0.6207
   18.150    0.8989
   18.180    0.8775
   18.210    0.8240
   18.240    0.7812
   18.270    0.6635
   18.300    0.6956
   18.330    0.6849
   18.360    0.8240
   18.390    0.9738
   18.420    0.7705
   18.450    0.7919
   18.480    0.7812
   18.510    0.7919
   18.540    0.7384
   18.570    0.7491
   18.600    0.6956
   18.630    0.7491
   18.660    0.7384
   18.690    0.7170
   18.720    0.8026
   18.750    0.6956
   18.780    0.8989
   18.810    0.7919
   18.840    0.6742
   18.870    0.8989
   18.900    0.8775
   18.930    0.8775
   18.960    0.6100
   18.990    0.6956
   19.020    0.7919
   19.050    0.8561
   19.080    0.7812
   19.110    0.7063
   19.140    0.7384
   19.170    0.6100
   19.200    0.7812
   19.230    0.7170
   19.260    0.7919
   19.290    0.7705
   19.320    0.8026
   19.350    0.8347
   19.380    0.7491
   19.410    0.7170
   19.440    0.8240
   19.470    0.7598
   19.500    0.7063
   19.530    0.7705
   19.560    0.7919
   19.590    0.8561
   19.620    0.7277
   19.650    0.8347
   19.680    0.7277
   19.710    0.7812
   19.740    0.6314
   19.770    0.7491
   19.800    0.7705
   19.830    0.7705
   19.860    0.7277
   19.890    0.8561
   19.920    0.7170
   19.950    0.8026
   19.980    0.6207
   20.010    0.7384
   20.040    0.7812
   20.070    0.6635
   20.100    0.7919
   20.130    0.6207
   20.160    0.7812
   20.190    0.7491
   20.220    0.8240
   20.250    0.9203
   20.280    0.7384
   20.310    0.8775
   20.340    0.7170
   20.370    0.7598
   20.400    0.6849
   20.430    0.8775
   20.460    0.7384
   20.490    0.6956
   20.520    0.8347
   20.550    0.6849
   20.580    0.7384
   20.610    0.8561
   20.640    0.7919
   20.670    0.6100
   20.700    0.6635
   20.730    0.6635
   20.760    0.7812
   20.790    0.7170
   20.820    0.7812
   20.850    0.7277
   20.880    0.6635
   20.910    0.7170
   20.940    0.6421
   20.970    0.7491
   21.000    0.8775
   21.030    0.8347
   21.060    0.7384
   21.090    0.8668
   21.120    0.7919
   21.150    0.8454
   21.180    0.7705
   21.210    0.7812
   21.240    0.7812
   21.270    0.6635
   21.300    0.7705
   21.330    0.7491
   21.360    0.7598
   21.390    0.7598
   21.420    0.7277
   21.450    0.6742
   21.480    0.8882
   21.510    0.8133
   21.540    0.8347
   21.570    0.7919
   21.600    0.9310
   21.630    0.6956
   21.660    0.8454
   21.690    0.8133
   21.720    0.7491
   21.750    0.7063
   21.780    0.6207
   21.810    0.7491
   21.840    0.6956
   21.870    0.7063
   21.900    0.8882
   21.930    0.7812
   21.960    0.7491
   21.990    0.6956
   22.020    0.6421
   22.050    0.7491
   22.080    0.7491
   22.110    0.7063
   22.140    0.9310
   22.170    0.7812
   22.200    0.8026
   22.230    0.7170
   22.260    0.7812
   22.290    0.8561
   22.320    1.0059
   22.350    0.9096
   22.380    0.8240
   22.410    0.9631
   22.440    0.8240
   22.470    0.7705
   22.500    0.7812
   22.530    0.6956
   22.560    0.7491
   22.590    0.8133
   22.620    0.8347
   22.650    1.0059
   22.680    0.8989
   22.710    0.8240
   22.740    0.7491
   22.770    0.6956
   22.800    0.8347
   22.830    0.8561
   22.860    0.6956
   22.890    0.8133
   22.920    0.6849
   22.950    0.7705
   22.980    0.8454
   23.010    0.6207
   23.040    0.9417
   23.070    0.7705
   23.100    0.9524
   23.130    0.9738
   23.160    0.6849
   23.190    0.7812
   23.220    0.8133
   23.250    0.7491
   23.280    0.7063
   23.310    0.7384
   23.340    0.9631
   23.370    0.9203
   23.400    0.8347
   23.430    0.9524
   23.460    0.7491
   23.490    1.0808
   23.520    0.7705
   23.550    0.8775
   23.580    0.9203
   23.610    0.8133
   23.640    0.9096
   23.670    0.9310
   23.700    0.9417
   23.730    0.8668
   23.760    0.8240
   23.790    0.8775
   23.820    0.7705
   23.850    0.9310
   23.880    0.8133
   23.910    0.8775
   23.940    0.7919
   23.970    0.8561
   24.000    0.8775
   24.030    0.9738
   24.060    0.7812
   24.090    1.0059
   24.120    0.8133
   24.150    0.8026
   24.180    0.8668
   24.210    0.7277
   24.240    0.7170
   24.270    0.9203
   24.300    0.8347
   24.330    0.8882
   24.360    0.7491
   24.390    0.8989
   24.420    0.8989
   24.450    0.8775
   24.480    0.7705
   24.510    0.9310
   24.540    0.9096
   24.570    0.8133
   24.600    0.8240
   24.630    0.8454
   24.660    0.8561
   24.690    0.9203
   24.720    0.8026
   24.750    0.7598
   24.780    0.8668
   24.810    0.8240
   24.840    1.0487
   24.870    0.7384
   24.900    0.8882
   24.930    0.9417
   24.960    1.0166
   24.990    0.8026
   25.020    0.9631
   25.050    0.9524
   25.080    0.9417
   25.110    0.7812
   25.140    0.8668
   25.170    0.8347
   25.200    0.9310
   25.230    0.9631
   25.260    0.7919
   25.290    0.8454
   25.320    0.9417
   25.350    0.8668
   25.380    0.7384
   25.410    0.8775
   25.440    0.9738
   25.470    0.7491
   25.500    0.9310
   25.530    0.8561
   25.560    0.9738
   25.590    0.9203
   25.620    0.9417
   25.650    0.9952
   25.680    0.9631
   25.710    0.9096
   25.740    0.9203
   25.770    0.9738
   25.800    0.8668
   25.830    0.7812
   25.860    0.9631
   25.890    1.0594
   25.920    0.9738
   25.950    1.0059
   25.980    0.8668
   26.010    1.0059
   26.040    0.9417
   26.070    0.9524
   26.100    0.9952
   26.130    0.7277
   26.160    0.9524
   26.190    0.9631
   26.220    1.0487
   26.250    0.9203
   26.280    0.8454
   26.310    1.0273
   26.340    0.9096
   26.370    0.9096
   26.400    0.8561
   26.430    0.9096
   26.460    0.7919
   26.490    0.8668
   26.520    0.8882
   26.550    0.8347
   26.580    0.9203
   26.610    0.9952
   26.640    0.9096
   26.670    0.8775
   26.700    0.8668
   26.730    0.8133
   26.760    0.8240
   26.790    0.9952
   26.820    0.9096
   26.850    0.8775
   26.880    0.9524
   26.910    0.8561
   26.940    0.9203
   26.970    0.9738
   27.000    0.8775
   27.030    0.9310
   27.060    0.9631
   27.090    0.8989
   27.120    0.8668
   27.150    0.7919
   27.180    0.9417
   27.210    0.9096
   27.240    0.8775
   27.270    1.0487
   27.300    0.7384
   27.330    0.9631
   27.360    0.8026
   27.390    0.9952
   27.420    0.8668
   27.450    0.8026
   27.480    0.8026
   27.510    0.9952
   27.540    0.7598
   27.570    0.8133
   27.600    0.7919
   27.630    0.8775
   27.660    0.9203
   27.690    0.9203
   27.720    0.8133
   27.750    0.9952
   27.780    0.8240
   27.810    0.7812
   27.840    0.8882
   27.870    1.0166
   27.900    0.7170
   27.930    0.8989
   27.960    0.7491
   27.990    0.8454
   28.020    0.8561
   28.050    0.7277
   28.080    0.8347
   28.110    0.7491
   28.140    0.8775
   28.170    0.8133
   28.200    0.8989
   28.230    0.8026
   28.260    0.8240
   28.290    0.8454
   28.320    0.9417
   28.350    0.8133
   28.380    0.9203
   28.410    0.8347
   28.440    0.8882
   28.470    0.8668
   28.500    1.0915
   28.530    0.8775
   28.560    0.9203
   28.590    0.8668
   28.620    0.8454
   28.650    0.7812
   28.680    0.8454
   28.710    0.9524
   28.740    0.8989
   28.770    0.9203
   28.800    0.8240
   28.830    0.8882
   28.860    0.9096
   28.890    0.8668
   28.920    0.8882
   28.950    0.6849
   28.980    0.8026
   29.010    1.0059
   29.040    0.9738
   29.070    0.7919
   29.100    0.8454
   29.130    0.8240
   29.160    0.8668
   29.190    0.9738
   29.220    0.8133
   29.250    0.8775
   29.280    0.9310
   29.310    0.8347
   29.340    0.6956
   29.370    0.6635
   29.400    0.8454
   29.430    0.8989
   29.460    0.8561
   29.490    0.6956
   29.520    0.8668
   29.550    0.8668
   29.580    0.9631
   29.610    0.7170
   29.640    0.7705
   29.670    0.9203
   29.700    0.6956
   29.730    0.7598
   29.760    0.8561
   29.790    0.9310
   29.820    0.9096
   29.850    0.7919
   29.880    0.8454
   29.910    0.8561
   29.940    0.8133
   29.970    0.8347
   30.000    0.8668
   30.030    0.7384
   30.060    0.7812
   30.090    0.8133
   30.120    0.7063
   30.150    0.7705
   30.180    0.8989
   30.210    0.7384
   30.240    0.8347
   30.270    0.8775
   30.300    0.8026
   30.330    0.7705
   30.360    0.8454
   30.390    0.8240
   30.420    0.8026
   30.450    0.7919
   30.480    0.6635
   30.510    0.7170
   30.540    0.8882
   30.570    0.6956
   30.600    0.8133
   30.630    0.9096
   30.660    0.7491
   30.690    0.7598
   30.720    0.7919
   30.750    0.7705
   30.780    0.9952
   30.810    0.7812
   30.840    0.7598
   30.870    0.8240
   30.900    0.6742
   30.930    0.7491
   30.960    0.8668
   30.990    0.8882
   31.020    0.7705
   31.050    0.7384
   31.080    0.6314
   31.110    0.6207
   31.140    0.8026
   31.170    0.7812
   31.200    0.6956
   31.230    0.6849
   31.260    0.7277
   31.290    0.7491
   31.320    0.8133
   31.350    0.7919
   31.380    0.6207
   31.410    0.6314
   31.440    0.7170
   31.470    0.7598
   31.500    0.7491
   31.530    0.8026
   31.560    0.7598
   31.590    0.8133
   31.620    0.6742
   31.650    0.6421
   31.680    0.8561
   31.710    0.7063
   31.740    0.6207
   31.770    0.7063
   31.800    0.8668
   31.830    0.7919
   31.860    0.5886
   31.890    0.7598
   31.920    0.7063
   31.950    0.7063
   31.980    0.5886
   32.010    0.6635
   32.040    0.7063
   32.070    0.8775
   32.100    0.5886
   32.130    0.9310
   32.160    0.7384
   32.190    0.6849
   32.220    0.6956
   32.250    0.7598
   32.280    0.6849
   32.310    0.7812
   32.340    0.6956
   32.370    0.7170
   32.400    0.6635
   32.430    0.7063
   32.460    0.8026
   32.490    0.5886
   32.520    0.8668
   32.550    0.7170
   32.580    0.7919
   32.610    0.7170
   32.640    0.7919
   32.670    0.7919
   32.700    0.7491
   32.730    0.8240
   32.760    0.7170
   32.790    0.7812
   32.820    0.7491
   32.850    0.6207
   32.880    0.6207
   32.910    0.6742
   32.940    0.7170
   32.970    0.5457
   33.000    0.6849
   33.030    0.7384
   33.060    0.7919
   33.090    0.6421
   33.120    0.6849
   33.150    0.7170
   33.180    0.5778
   33.210    0.6635
   33.240    0.6849
   33.270    0.7919
   33.300    0.6742
   33.330    0.5886
   33.360    0.6956
   33.390    0.6849
   33.420    0.6849
   33.450    0.6421
   33.480    0.6849
   33.510    0.6849
   33.540    0.6207
   33.570    0.6528
   33.600    0.6314
   33.630    0.9524
   33.660    0.7598
   33.690    0.5778
   33.720    0.7170
   33.750    0.6314
   33.780    0.6100
   33.810    0.5886
   33.840    0.6421
   33.870    0.5350
   33.900    0.5671
   33.930    0.5671
   33.960    0.5457
   33.990    0.5350
   34.020    0.6314
   34.050    0.5993
   34.080    0.8026
   34.110    0.6635
   34.140    0.6314
   34.170    0.5671
   34.200    0.5671
   34.230    0.6956
   34.260    0.7063
   34.290    0.7277
   34.320    0.5350
   34.350    0.6100
   34.380    0.6314
   34.410    0.6528
   34.440    0.5993
   34.470    0.6849
   34.500    0.6314
   34.530    0.6207
   34.560    0.5886
   34.590    0.5350
   34.620    0.4922
   34.650    0.5886
   34.680    0.6528
   34.710    0.5886
   34.740    0.5778
   34.770    0.5993
   34.800    0.4066
   34.830    0.6956
   34.860    0.5671
   34.890    0.5243
   34.920    0.5564
   34.950    0.4708
   34.980    0.6100
   35.010    0.6742
   35.040    0.4494
   35.070    0.6528
   35.100    0.5350
   35.130    0.5457
   35.160    0.4815
   35.190    0.4815
   35.220    0.5886
   35.250    0.5671
   35.280    0.5671
   35.310    0.6742
   35.340    0.6849
   35.370    0.6421
   35.400    0.6314
   35.430    0.4387
   35.460    0.4494
   35.490    0.5886
   35.520    0.7170
   35.550    0.4708
   35.580    0.6528
   35.610    0.6100
   35.640    0.5136
   35.670    0.5350
   35.700    0.5993
   35.730    0.5457
   35.760    0.6314
   35.790    0.5671
   35.820    0.6207
   35.850    0.6314
   35.880    0.5457
   35.910    0.4173
   35.940    0.5564
   35.970    0.5671
   36.000    0.7063
   36.030    0.4922
   36.060    0.6635
   36.090    0.6528
   36.120    0.4815
   36.150    0.5564
   36.180    0.6421
   36.210    0.6314
   36.240    0.5457
   36.270    0.4387
   36.300    0.4922
   36.330    0.5886
   36.360    0.6956
   36.390    0.4494
   36.420    0.6849
   36.450    0.6100
   36.480    0.4280
   36.510    0.3852
   36.540    0.5778
   36.570    0.5671
   36.600    0.4601
   36.630    0.5350
   36.660    0.5029
   36.690    0.5671
   36.720    0.6314
   36.750    0.6100
   36.780    0.5993
   36.810    0.5778
   36.840    0.4601
   36.870    0.5778
   36.900    0.4387
   36.930    0.5136
   36.960    0.4387
   36.990    0.5564
   37.020    0.5350
   37.050    0.4922
   37.080    0.3745
   37.110    0.4708
   37.140    0.5243
   37.170    0.5778
   37.200    0.4708
   37.230    0.5136
   37.260    0.5778
   37.290    0.5243
   37.320    0.4708
   37.350    0.5457
   37.380    0.4922
   37.410    0.4601
   37.440    0.4066
   37.470    0.4815
   37.500    0.5243
   37.530    0.5136
   37.560    0.4280
   37.590    0.4601
   37.620    0.5029
   37.650    0.5136
   37.680    0.4922
   37.710    0.5778
   37.740    0.4601
   37.770    0.5243
   37.800    0.4922
   37.830    0.4494
   37.860    0.5457
   37.890    0.5136
   37.920    0.4387
   37.950    0.4280
   37.980    0.4708
   38.010    0.5350
   38.040    0.5243
   38.070    0.4708
   38.100    0.5243
   38.130    0.3745
   38.160    0.3745
   38.190    0.5136
   38.220    0.4494
   38.250    0.3745
   38.280    0.5029
   38.310    0.4280
   38.340    0.3531
   38.370    0.3317
   38.400    0.3959
   38.430    0.3745
   38.460    0.4601
   38.490    0.5671
   38.520    0.4066
   38.550    0.4387
   38.580    0.5136
   38.610    0.4922
   38.640    0.5350
   38.670    0.3852
   38.700    0.5029
   38.730    0.4494
   38.760    0.4815
   38.790    0.4494
   38.820    0.6100
   38.850    0.4280
   38.880    0.3959
   38.910    0.3852
   38.940    0.4280
   38.970    0.3959
   39.000    0.5136
   39.030    0.3852
   39.060    0.5136
   39.090    0.4922
   39.120    0.4601
   39.150    0.5243
   39.180    0.5029
   39.210    0.5029
   39.240    0.4708
   39.270    0.4066
   39.300    0.5136
   39.330    0.4173
   39.360    0.3959
   39.390    0.4387
   39.420    0.4066
   39.450    0.4066
   39.480    0.3852
   39.510    0.3852
   39.540    0.3424
   39.570    0.3745
   39.600    0.4601
   39.630    0.4173
   39.660    0.4494
   39.690    0.3959
   39.720    0.4387
   39.750    0.4922
   39.780    0.4387
   39.810    0.5243
   39.840    0.3103
   39.870    0.4601
   39.900    0.3959
   39.930    0.4708
   39.960    0.3852
   39.990    0.3745