File: data/PXRD/PXRD_KE-326_Cu-Ka1_capillary-1mm_3s-deg_MOCOF-1.xyd
    1.500   10.3739
    1.545   10.0053
    1.590   10.5845
    1.635   10.2686
    1.680    9.6015
    1.725    9.4260
    1.770    9.5664
    1.815    9.4787
    1.860    9.8473
    1.905    9.5313
    1.950    9.3558
    1.995    9.5664
    2.040    9.5313
    2.085    8.7941
    2.130    9.0223
    2.175    9.0223
    2.220   10.6898
    2.265    9.7771
    2.310    9.8824
    2.355    9.7946
    2.400   10.0930
    2.445   10.0053
    2.490   10.8654
    2.535   11.2515
    2.580   11.6553
    2.625   11.8659
    2.670   12.4627
    2.715   12.9366
    2.760   13.4983
    2.805   13.2701
    2.850   14.8148
    2.895   15.3765
    2.940   15.7276
    2.985   16.6228
    3.030   18.3605
    3.075   19.6068
    3.120   21.4148
    3.165   22.7488
    3.210   24.3813
    3.255   26.0312
    3.300   28.4536
    3.345   31.2270
    3.390   34.3690
    3.435   37.5110
    3.480   41.8290
    3.525   47.7444
    3.570   54.6428
    3.615   64.1741
    3.660   75.7592
    3.705   89.6612
    3.750  115.9733
    3.795  160.7162
    3.840  240.4423
    3.885  127.2424
    3.930   25.9259
    3.975    9.6367
    4.020    7.1441
    4.065    6.7930
    4.110    6.4420
    4.155    5.9154
    4.200    5.7048
    4.245    5.8276
    4.290    5.4064
    4.335    6.0909
    4.380    5.8101
    4.425    6.0032
    4.470    6.7228
    4.515    5.8803
    4.560    6.4946
    4.605    7.1090
    4.650    7.6005
    4.695    8.7590
    4.740    8.5659
    4.785    7.3899
    4.830    7.2494
    4.875    7.3547
    4.920    7.3372
    4.965    7.5829
    5.010    8.6888
    5.055    9.3909
    5.100    9.4436
    5.145   11.1813
    5.190   11.5499
    5.235   13.0946
    5.280   15.9733
    5.325   18.5712
    5.370   22.8366
    5.415   32.0520
    5.460   45.2694
    5.505   29.1908
    5.550    9.1276
    5.595    5.4064
    5.640    4.8447
    5.685    4.3883
    5.730    4.9149
    5.775    4.6516
    5.820    5.0553
    5.865    4.3532
    5.910    4.8271
    5.955    4.6340
    6.000    4.6867
    6.045    4.6165
    6.090    4.6165
    6.135    5.0904
    6.180    4.8447
    6.225    4.6165
    6.270    4.8973
    6.315    5.3712
    6.360    5.2835
    6.405    5.4766
    6.450    5.6170
    6.495    6.0909
    6.540    6.8106
    6.585    6.9861
    6.630    8.6537
    6.675   11.6377
    6.720   13.1473
    6.765    7.7058
    6.810    4.6340
    6.855    4.3707
    6.900    4.5111
    6.945    4.4585
    6.990    4.0899
    7.035    4.0548
    7.080    4.5287
    7.125    4.5111
    7.170    4.3532
    7.215    4.7218
    7.260    4.7042
    7.305    4.1425
    7.350    4.9500
    7.395    4.8973
    7.440    5.4239
    7.485    5.2659
    7.530    5.9856
    7.575    6.7053
    7.620    7.3021
    7.665    8.3728
    7.710   11.5675
    7.755   15.5872
    7.800   11.5324
    7.845    5.6345
    7.890    4.2654
    7.935    3.8090
    7.980    4.0197
    8.025    4.3356
    8.070    4.2127
    8.115    4.2654
    8.160    4.4409
    8.205    4.5111
    8.250    4.8271
    8.295    4.3356
    8.340    4.1425
    8.385    4.0723
    8.430    3.9143
    8.475    4.3532
    8.520    4.4058
    8.565    4.2303
    8.610    4.5638
    8.655    4.8798
    8.700    4.7744
    8.745    4.2830
    8.790    4.1601
    8.835    3.9846
    8.880    3.8792
    8.925    3.7739
    8.970    4.3181
    9.015    3.8968
    9.060    4.4585
    9.105    4.5287
    9.150    4.9149
    9.195    5.3537
    9.240    5.7574
    9.285    6.5473
    9.330    7.3372
    9.375    9.0047
    9.420   10.7952
    9.465   14.8850
    9.510   22.4680
    9.555   19.6244
    9.600    8.5835
    9.645    4.4234
    9.690    4.0197
    9.735    4.2127
    9.780    3.9143
    9.825    4.0372
    9.870    4.2478
    9.915    3.8792
    9.960    4.2478
   10.005    4.1601
   10.050    4.5463
   10.095    4.7569
   10.140    4.9851
   10.185    5.4239
   10.230    6.4771
   10.275    9.5313
   10.320    8.5484
   10.365    5.8978
   10.410    3.5457
   10.455    3.4404
   10.500    4.1601
   10.545    3.9670
   10.590    3.7213
   10.635    3.8968
   10.680    3.9846
   10.725    4.2303
   10.770    4.4585
   10.815    4.7393
   10.860    5.2835
   10.905    5.6170
   10.950    6.9861
   10.995   10.1457
   11.040    9.2856
   11.085    5.7048
   11.130    4.2654
   11.175    4.0372
   11.220    3.7388
   11.265    4.1952
   11.310    4.1952
   11.355    4.7042
   11.400    4.2478
   11.445    4.2478
   11.490    4.3005
   11.535    5.3712
   11.580    5.5468
   11.625    7.4952
   11.670   10.1106
   11.715   10.0755
   11.760    5.6345
   11.805    4.0021
   11.850    3.4053
   11.895    3.6510
   11.940    3.7739
   11.985    3.4229
   12.030    3.5457
   12.075    3.9670
   12.120    3.5457
   12.165    3.5808
   12.210    3.8792
   12.255    4.1074
   12.300    3.9143
   12.345    4.3707
   12.390    4.2303
   12.435    3.3175
   12.480    3.5984
   12.525    3.5808
   12.570    3.7037
   12.615    4.0197
   12.660    3.7564
   12.705    4.1601
   12.750    3.8441
   12.795    4.2478
   12.840    4.7920
   12.885    5.9856
   12.930    8.3904
   12.975    6.0734
   13.020    4.3883
   13.065    3.5633
   13.110    3.5282
   13.155    3.4580
   13.200    4.0197
   13.245    3.5808
   13.290    3.6335
   13.335    3.8441
   13.380    4.0723
   13.425    4.3883
   13.470    5.0904
   13.515    6.2313
   13.560    5.2308
   13.605    4.0021
   13.650    3.6159
   13.695    3.6686
   13.740    3.4580
   13.785    3.4053
   13.830    3.8792
   13.875    3.9319
   13.920    4.2303
   13.965    4.7920
   14.010    5.7048
   14.055    7.5303
   14.100    6.9861
   14.145    4.8798
   14.190    3.3526
   14.235    3.3000
   14.280    3.1947
   14.325    3.3877
   14.370    3.3877
   14.415    3.7564
   14.460    3.7037
   14.505    3.1420
   14.550    2.9489
   14.595    3.4755
   14.640    3.5106
   14.685    3.5106
   14.730    3.0016
   14.775    3.5106
   14.820    3.8090
   14.865    3.3000
   14.910    3.7564
   14.955    3.2824
   15.000    3.2473
   15.045    4.0548
   15.090    4.2654
   15.135    4.0723
   15.180    4.1601
   15.225    3.7388
   15.270    3.5457
   15.315    3.3175
   15.360    3.1596
   15.405    3.1596
   15.450    3.0893
   15.495    3.4931
   15.540    3.2824
   15.585    3.4053
   15.630    3.1420
   15.675    3.4580
   15.720    3.5633
   15.765    3.0893
   15.810    3.4404
   15.855    3.4580
   15.900    3.5106
   15.945    3.6862
   15.990    3.7388
   16.035    3.7564
   16.080    4.5463
   16.125    4.7042
   16.170    3.9143
   16.215    3.7388
   16.260    3.5282
   16.305    3.7739
   16.350    3.5633
   16.395    3.5282
   16.440    3.5457
   16.485    3.6862
   16.530    3.5808
   16.575    4.6165
   16.620    4.2830
   16.665    4.0197
   16.710    3.6335
   16.755    3.6335
   16.800    3.4580
   16.845    3.8617
   16.890    4.3005
   16.935    4.5463
   16.980    5.1255
   17.025    6.1085
   17.070    6.3718
   17.115    4.7042
   17.160    3.8090
   17.205    3.7213
   17.250    3.4404
   17.295    3.3526
   17.340    3.0893
   17.385    3.3526
   17.430    3.4053
   17.475    3.8617
   17.520    4.0548
   17.565    3.6686
   17.610    3.3526
   17.655    3.6335
   17.700    3.5808
   17.745    3.3526
   17.790    3.7388
   17.835    3.1420
   17.880    3.7915
   17.925    4.0723
   17.970    4.4936
   18.015    3.6159
   18.060    3.4053
   18.105    3.3526
   18.150    3.1069
   18.195    3.5457
   18.240    4.1425
   18.285    3.6159
   18.330    4.0197
   18.375    4.5989
   18.420    3.7564
   18.465    3.4580
   18.510    3.2122
   18.555    3.5808
   18.600    3.2824
   18.645    3.4755
   18.690    3.5457
   18.735    3.5457
   18.780    3.9670
   18.825    3.6335
   18.870    3.3175
   18.915    3.3351
   18.960    3.5282
   19.005    3.2649
   19.050    3.5106
   19.095    3.4931
   19.140    3.2649
   19.185    3.3526
   19.230    3.3175
   19.275    3.1947
   19.320    3.4229
   19.365    3.5457
   19.410    3.6159
   19.455    3.7037
   19.500    3.8968
   19.545    4.2830
   19.590    4.7393
   19.635    4.1952
   19.680    3.6335
   19.725    3.8266
   19.770    3.6862
   19.815    3.3351
   19.860    3.3000
   19.905    3.6510
   19.950    3.7388
   19.995    3.7213
   20.040    3.5106
   20.085    3.3526
   20.130    3.5282
   20.175    3.5633
   20.220    3.9494
   20.265    3.9494
   20.310    5.1080
   20.355    5.7223
   20.400    6.1787
   20.445    4.7393
   20.490    4.0021
   20.535    3.5633
   20.580    3.4755
   20.625    3.3702
   20.670    3.1771
   20.715    3.3351
   20.760    3.6335
   20.805    3.3000
   20.850    3.7388
   20.895    3.3175
   20.940    3.6862
   20.985    3.5633
   21.030    3.2122
   21.075    3.3877
   21.120    3.5457
   21.165    3.8792
   21.210    3.7564
   21.255    3.4404
   21.300    3.5633
   21.345    3.9846
   21.390    3.4404
   21.435    3.6862
   21.480    3.6686
   21.525    3.5808
   21.570    3.4931
   21.615    3.3000
   21.660    3.7564
   21.705    3.5106
   21.750    3.6686
   21.795    4.4760
   21.840    4.0197
   21.885    4.0372
   21.930    4.1776
   21.975    3.7213
   22.020    3.4580
   22.065    3.5457
   22.110    3.6159
   22.155    4.0021
   22.200    3.9143
   22.245    4.1250
   22.290    3.8968
   22.335    4.1250
   22.380    4.2127
   22.425    4.2303
   22.470    4.8447
   22.515    5.0553
   22.560    6.4771
   22.605    5.1606
   22.650    4.4760
   22.695    3.6335
   22.740    4.0899
   22.785    4.4058
   22.830    5.0728
   22.875    6.7930
   22.920    6.8282
   22.965    5.5643
   23.010    4.1250
   23.055    3.7915
   23.100    4.3181
   23.145    3.8617
   23.190    4.1074
   23.235    3.9494
   23.280    4.0197
   23.325    4.0899
   23.370    3.5984
   23.415    2.9138
   23.460    3.6686
   23.505    3.5106
   23.550    3.8617
   23.595    3.5282
   23.640    3.6335
   23.685    3.6686
   23.730    3.6335
   23.775    3.5984
   23.820    3.6159
   23.865    4.2127
   23.910    4.6165
   23.955    3.8441
   24.000    3.8617
   24.045    3.5808
   24.090    3.4229
   24.135    3.4580
   24.180    3.5808
   24.225    3.7213
   24.270    3.4931
   24.315    3.1245
   24.360    3.3351
   24.405    3.2824
   24.450    3.5457
   24.495    4.0723
   24.540    3.2649
   24.585    3.7037
   24.630    3.7564
   24.675    3.3877
   24.720    3.5457
   24.765    3.6335
   24.810    3.4931
   24.855    3.7037
   24.900    3.7915
   24.945    3.4053
   24.990    3.2824
   25.035    3.3877
   25.080    3.5633
   25.125    3.2824
   25.170    3.6510
   25.215    4.0548
   25.260    3.4404
   25.305    3.5282
   25.350    3.3877
   25.395    3.4755
   25.440    3.6159
   25.485    3.8266
   25.530    3.9846
   25.575    3.6335
   25.620    3.3877
   25.665    3.4580
   25.710    3.9846
   25.755    4.5989
   25.800    5.4766
   25.845    5.0553
   25.890    4.5989
   25.935    3.5282
   25.980    3.7037
   26.025    3.0367
   26.070    3.4755
   26.115    3.5106
   26.160    3.5984
   26.205    3.8266
   26.250    3.3351
   26.295    3.6510
   26.340    3.5633
   26.385    3.6686
   26.430    3.7564
   26.475    3.8617
   26.520    3.5984
   26.565    3.3877
   26.610    3.4755
   26.655    3.2298
   26.700    3.1596
   26.745    3.3702
   26.790    3.2473
   26.835    3.4404
   26.880    3.2824
   26.925    3.6686
   26.970    3.9319
   27.015    4.2830
   27.060    3.8792
   27.105    3.4755
   27.150    3.6159
   27.195    3.3526
   27.240    3.2298
   27.285    3.5808
   27.330    3.2298
   27.375    3.8441
   27.420    3.4931
   27.465    3.3877
   27.510    3.4053
   27.555    3.8441
   27.600    3.8266
   27.645    3.6335
   27.690    3.8968
   27.735    3.7037
   27.780    3.2298
   27.825    3.3877
   27.870    3.3526
   27.915    3.8617
   27.960    4.0723
   28.005    3.5633
   28.050    3.7213
   28.095    4.2654
   28.140    3.4931
   28.185    4.0197
   28.230    4.0899
   28.275    3.7739
   28.320    3.3351
   28.365    3.5808
   28.410    3.8266
   28.455    3.7739
   28.500    3.4755
   28.545    3.6510
   28.590    3.7388
   28.635    3.6335
   28.680    3.3351
   28.725    3.2122
   28.770    3.5106
   28.815    3.3526
   28.860    3.0191
   28.905    3.5984
   28.950    3.5106
   28.995    3.4580
   29.040    3.1596
   29.085    3.3702
   29.130    3.3526
   29.175    3.5106
   29.220    3.8266
   29.265    3.7564
   29.310    3.6862
   29.355    3.4931
   29.400    2.7383
   29.445    3.1420
   29.490    3.3702
   29.535    3.3000
   29.580    2.8963
   29.625    3.1069
   29.670    3.3877
   29.715    3.2298
   29.760    3.6335
   29.805    3.6686
   29.850    3.3175
   29.895    3.1771
   29.940    2.9314
   29.985    3.0542
   30.030    3.1596
   30.075    2.7909
   30.120    3.3175
   30.165    3.0893
   30.210    3.3877
   30.255    3.4404
   30.300    2.9840
   30.345    3.3000
   30.390    3.2649
   30.435    3.3175
   30.480    3.2649
   30.525    3.1771
   30.570    3.3526
   30.615    3.4931
   30.660    3.5984
   30.705    3.5633
   30.750    2.9138
   30.795    3.5106
   30.840    3.0016
   30.885    3.2122
   30.930    3.3526
   30.975    3.3000
   31.020    3.0718
   31.065    3.2649
   31.110    3.0542
   31.155    3.2824
   31.200    3.0718
   31.245    2.8963
   31.290    2.9840
   31.335    3.4053
   31.380    3.4229
   31.425    3.4053
   31.470    3.5106
   31.515    3.4580
   31.560    3.0367
   31.605    3.3526
   31.650    3.0191
   31.695    2.8612
   31.740    3.2122
   31.785    2.9489
   31.830    2.9314
   31.875    3.1420
   31.920    3.2824
   31.965    3.3526
   32.010    3.0016
   32.055    2.9314
   32.100    3.3877
   32.145    2.9138
   32.190    3.1771
   32.235    3.0191
   32.280    2.9840
   32.325    3.4580
   32.370    3.1069
   32.415    3.2298
   32.460    2.9138
   32.505    2.9138
   32.550    3.0191
   32.595    2.9665
   32.640    2.7909
   32.685    3.1947
   32.730    2.8612
   32.775    3.1245
   32.820    3.0191
   32.865    2.9665
   32.910    3.1245
   32.955    3.2473
   33.000    2.8612
   33.045    2.7909
   33.090    3.1069
   33.135    2.8085
   33.180    2.8612
   33.225    2.9314
   33.270    3.0016
   33.315    3.0893
   33.360    2.8436
   33.405    2.9840
   33.450    2.7383
   33.495    3.1245
   33.540    3.3000
   33.585    3.6159
   33.630    2.9840
   33.675    3.2298
   33.720    3.0016
   33.765    3.2298
   33.810    3.4053
   33.855    3.5106
   33.900    3.2473
   33.945    3.3351
   33.990    2.8612
   34.035    2.9840
   34.080    3.1069
   34.125    3.1245
   34.170    3.3000
   34.215    2.9138
   34.260    2.6154
   34.305    2.8085
   34.350    2.9840
   34.395    3.1245
   34.440    2.9840
   34.485    2.7558
   34.530    2.7909
   34.575    2.7383
   34.620    3.0542
   34.665    2.7383
   34.710    3.2298
   34.755    2.9840
   34.800    3.2298
   34.845    3.1947
   34.890    3.0191
   34.935    2.8963
   34.980    2.5803
   35.025    2.7207
   35.070    2.8612
   35.115    2.5276
   35.160    2.7207
   35.205    2.9840
   35.250    2.7734
   35.295    2.8085
   35.340    2.8963
   35.385    2.6681
   35.430    2.7909
   35.475    2.8963
   35.520    2.7734
   35.565    2.6856
   35.610    2.6330
   35.655    2.5628
   35.700    2.8436
   35.745    2.8260
   35.790    2.5101
   35.835    2.8085
   35.880    2.5979
   35.925    3.1420
   35.970    2.8612
   36.015    3.1069
   36.060    2.7558
   36.105    2.9489
   36.150    2.8963
   36.195    3.0893
   36.240    2.6681
   36.285    2.5979
   36.330    2.7909
   36.375    2.6681
   36.420    2.7032
   36.465    2.4750
   36.510    2.6856
   36.555    2.6505
   36.600    2.6154
   36.645    2.8436
   36.690    2.7558
   36.735    2.7207
   36.780    2.6505
   36.825    2.7558
   36.870    3.0542
   36.915    2.4925
   36.960    2.7734
   37.005    2.5628
   37.050    2.8085
   37.095    2.9840
   37.140    2.6505
   37.185    2.7734
   37.230    2.5628
   37.275    2.3346
   37.320    2.4574
   37.365    2.7909
   37.410    2.6681
   37.455    2.6330
   37.500    2.8612
   37.545    2.8436
   37.590    2.6681
   37.635    3.1420
   37.680    2.6681
   37.725    2.8260
   37.770    2.5452
   37.815    2.6154
   37.860    2.5979
   37.905    2.5628
   37.950    2.9665
   37.995    2.7909
   38.040    2.4574
   38.085    2.3521
   38.130    2.4750
   38.175    2.7383
   38.220    2.4750
   38.265    2.1766
   38.310    2.5452
   38.355    2.7734
   38.400    2.6154
   38.445    2.7909
   38.490    2.7558
   38.535    2.6154
   38.580    2.6856
   38.625    2.7383
   38.670    2.8963
   38.715    2.6856
   38.760    2.4399
   38.805    2.4925
   38.850    2.5101
   38.895    2.5628
   38.940    2.3521
   38.985    2.6505
   39.030    2.4223
   39.075    2.7558
   39.120    2.3521
   39.165    2.4750
   39.210    2.7383
   39.255    2.6154
   39.300    2.6330
   39.345    2.3872
   39.390    2.6154
   39.435    2.7032
   39.480    2.7032
   39.525    2.6505
   39.570    2.7383
   39.615    2.6681
   39.660    2.8085
   39.705    2.4223
   39.750    2.6681
   39.795    2.7909
   39.840    2.9314
   39.885    2.5452
   39.930    2.8085
   39.975    2.6330
   40.020    2.7558
   40.065    2.7909
   40.110    2.3697
   40.155    2.7207
   40.200    2.8787
   40.245    2.5803
   40.290    2.7207
   40.335    2.5979
   40.380    2.7558
   40.425    3.0893
   40.470    3.0893
   40.515    3.4229
   40.560    3.1245
   40.605    2.8963
   40.650    2.3170
   40.695    2.6330
   40.740    2.6681
   40.785    2.5979
   40.830    2.7032
   40.875    2.6154
   40.920    2.7383
   40.965    2.7032
   41.010    2.3170
   41.055    2.2468
   41.100    2.5276
   41.145    2.6856
   41.190    2.4925
   41.235    2.8085
   41.280    2.7558
   41.325    2.6856
   41.370    2.6330
   41.415    2.3521
   41.460    2.6681
   41.505    2.6681
   41.550    2.5276
   41.595    2.7032
   41.640    2.5979
   41.685    2.6330
   41.730    2.9138
   41.775    2.5452
   41.820    2.3170
   41.865    2.5101
   41.910    2.4574
   41.955    2.8963
   42.000    2.6681
   42.045    2.8260
   42.090    3.0367
   42.135    2.8436
   42.180    2.9138
   42.225    2.7032
   42.270    2.6330
   42.315    2.6505
   42.360    2.8260
   42.405    2.4750
   42.450    2.1941
   42.495    2.8260
   42.540    2.7558
   42.585    2.5628
   42.630    2.7558
   42.675    2.8612
   42.720    2.8085
   42.765    2.6154
   42.810    2.7032
   42.855    2.6154
   42.900    2.9138
   42.945    2.6154
   42.990    2.4925
   43.035    2.5628
   43.080    2.9314
   43.125    2.4399
   43.170    2.8963
   43.215    2.8612
   43.260    2.2643
   43.305    2.8612
   43.350    2.9138
   43.395    2.7734
   43.440    2.7383
   43.485    2.5628
   43.530    2.6154
   43.575    2.3697
   43.620    2.4399
   43.665    2.6681
   43.710    2.5276
   43.755    2.5803
   43.800    2.6330
   43.845    2.5979
   43.890    2.3346
   43.935    2.4750
   43.980    2.4925
   44.025    2.5276
   44.070    2.9138
   44.115    2.5979
   44.160    2.8963
   44.205    2.9314
   44.250    2.9489
   44.295    2.7383
   44.340    2.7909
   44.385    2.5628
   44.430    2.5803
   44.475    2.5979
   44.520    2.5452
   44.565    2.3346
   44.610    2.6505
   44.655    2.2643
   44.700    2.3521
   44.745    2.6505
   44.790    2.5979
   44.835    2.6330
   44.880    2.5452
   44.925    2.5979
   44.970    2.7734
   45.015    2.7383
   45.060    2.5276
   45.105    2.4399
   45.150    2.5628
   45.195    2.6681
   45.240    2.8963
   45.285    2.6856
   45.330    2.7558
   45.375    2.4399
   45.420    2.4574
   45.465    2.4399
   45.510    2.8260
   45.555    2.4750
   45.600    2.3170
   45.645    2.4750
   45.690    2.6505
   45.735    2.3697
   45.780    2.2643
   45.825    2.5979
   45.870    2.3697
   45.915    2.6505
   45.960    2.6330
   46.005    2.4574
   46.050    2.6154
   46.095    2.4574
   46.140    2.4750
   46.185    2.5628
   46.230    2.5101
   46.275    2.6505
   46.320    2.4750
   46.365    2.4048
   46.410    2.4048
   46.455    2.7909
   46.500    2.2643
   46.545    2.6330
   46.590    2.1415
   46.635    2.5276
   46.680    2.5628
   46.725    2.5452
   46.770    2.4574
   46.815    2.1064
   46.860    2.6681
   46.905    2.0888
   46.950    2.3346
   46.995    2.4399
   47.040    2.4574
   47.085    2.5979
   47.130    2.2117
   47.175    2.7032
   47.220    2.3697
   47.265    2.4399
   47.310    2.5101
   47.355    2.4574
   47.400    2.4574
   47.445    2.6856
   47.490    2.5979
   47.535    2.1941
   47.580    2.3697
   47.625    2.7734
   47.670    2.7558
   47.715    2.4399
   47.760    2.4925
   47.805    2.6330
   47.850    2.4399
   47.895    2.5979
   47.940    2.4574
   47.985    2.6330
   48.030    2.2468
   48.075    2.4925
   48.120    2.5101
   48.165    2.3872
   48.210    2.1941
   48.255    2.4750
   48.300    2.3872
   48.345    2.3346
   48.390    2.3697
   48.435    2.5276
   48.480    2.5276
   48.525    2.6330
   48.570    2.7909
   48.615    2.4223
   48.660    2.5979
   48.705    2.6505
   48.750    2.7734
   48.795    2.4399
   48.840    2.6330
   48.885    2.3697
   48.930    2.5803
   48.975    2.7207
   49.020    2.5276
   49.065    2.2995
   49.110    2.3521
   49.155    2.6681
   49.200    2.6154
   49.245    2.4223
   49.290    2.4048
   49.335    2.4399
   49.380    2.4574
   49.425    2.2643
   49.470    2.3872
   49.515    2.4048
   49.560    2.8260
   49.605    2.2643
   49.650    2.1415
   49.695    1.9835
   49.740    2.3521
   49.785    2.1941
   49.830    2.1064
   49.875    2.7558
   49.920    2.6330
   49.965    2.4223
   49.980    2.6856