File: data/PXRD/PXRD_KE-285B_Cu-Ka1_capillary-1mm_3s-deg.xyd
    1.500   64.1917
    1.530   63.1912
    1.560   58.6625
    1.590   57.1353
    1.620   55.3625
    1.650   54.1162
    1.680   51.0269
    1.710   49.3067
    1.740   45.1992
    1.770   45.8838
    1.800   45.0939
    1.830   41.3902
    1.860   41.1445
    1.890   39.5120
    1.920   39.0205
    1.950   36.1067
    1.980   36.6684
    2.010   34.2461
    2.040   35.3344
    2.070   32.4908
    2.100   31.7887
    2.130   32.3504
    2.160   30.4897
    2.190   29.0328
    2.220   29.1030
    2.250   28.1025
    2.280   27.9621
    2.310   26.5578
    2.340   25.3467
    2.370   26.6280
    2.400   24.8201
    2.430   24.6446
    2.460   24.1355
    2.490   23.6265
    2.520   23.7669
    2.550   23.1876
    2.580   21.6956
    2.610   22.8892
    2.640   22.7664
    2.670   21.3797
    2.700   21.8185
    2.730   21.0988
    2.760   20.6951
    2.790   21.0111
    2.820   20.6600
    2.850   21.3972
    2.880   21.8887
    2.910   21.8185
    2.940   20.2914
    2.970   21.1339
    3.000   21.8009
    3.030   21.8361
    3.060   22.0642
    3.090   22.5031
    3.120   22.0818
    3.150   22.6962
    3.180   23.5738
    3.210   24.5041
    3.240   24.8552
    3.270   26.0664
    3.300   25.7855
    3.330   28.2605
    3.360   29.0153
    3.390   29.8929
    3.420   32.3153
    3.450   31.6833
    3.480   34.1759
    3.510   37.0370
    3.540   38.6168
    3.570   42.3030
    3.600   46.2524
    3.630   49.9561
    3.660   53.4316
    3.690   58.3465
    3.720   69.2645
    3.750   77.6374
    3.780   92.2591
    3.810  119.3611
    3.840  151.1848
    3.870  137.3881
    3.900   90.0649
    3.930   42.9524
    3.960   24.9605
    3.990   20.5020
    4.020   17.8515
    4.050   17.1318
    4.080   16.7106
    4.110   15.2185
    4.140   15.1308
    4.170   15.5520
    4.200   14.6568
    4.230   14.4813
    4.260   14.2356
    4.290   13.5334
    4.320   13.6914
    4.350   13.1297
    4.380   12.8840
    4.410   13.0420
    4.440   13.3228
    4.470   12.9717
    4.500   12.7260
    4.530   12.7962
    4.560   13.7616
    4.590   13.5334
    4.620   13.7616
    4.650   12.6382
    4.680   12.7787
    4.710   12.7787
    4.740   12.7787
    4.770   13.1824
    4.800   14.1654
    4.830   12.6207
    4.860   14.3584
    4.890   13.2526
    4.920   13.9021
    4.950   13.6914
    4.980   14.3233
    5.010   14.6568
    5.040   15.8856
    5.070   15.6574
    5.100   16.1840
    5.130   16.7106
    5.160   17.6058
    5.190   18.8169
    5.220   18.8871
    5.250   20.9233
    5.280   21.7132
    5.310   24.4339
    5.340   27.3653
    5.370   30.9988
    5.400   35.8785
    5.430   43.8652
    5.460   55.8891
    5.490   52.8699
    5.520   37.7567
    5.550   22.6259
    5.580   15.7978
    5.610   13.8318
    5.640   13.2350
    5.670   12.1819
    5.700   11.0233
    5.730   11.9010
    5.760   10.7074
    5.790   11.6904
    5.820   12.1994
    5.850   11.2340
    5.880   11.5324
    5.910   10.6021
    5.940   11.5675
    5.970   11.7957
    6.000   11.4271
    6.030   10.8654
    6.060   11.1813
    6.090   10.8829
    6.120   11.1462
    6.150   11.3920
    6.180   11.4271
    6.210   11.7781
    6.240   11.3920
    6.270   11.4271
    6.300   11.9888
    6.330   12.0590
    6.360   12.5680
    6.390   12.6382
    6.420   12.2872
    6.450   12.7611
    6.480   13.7090
    6.510   14.0074
    6.540   14.9026
    6.570   15.4467
    6.600   17.3776
    6.630   18.2552
    6.660   20.4845
    6.690   26.1015
    6.720   28.0323
    6.750   24.9430
    6.780   18.6414
    6.810   14.5340
    6.840   12.3047
    6.870   12.2345
    6.900   11.0409
    6.930   11.4095
    6.960   11.0233
    6.990   11.3393
    7.020   11.4797
    7.050   10.4968
    7.080   10.9882
    7.110   11.0760
    7.140   10.2510
    7.170   10.7600
    7.200   10.7776
    7.230   11.4446
    7.260   10.9531
    7.290   11.4095
    7.320   11.1989
    7.350   11.2340
    7.380   10.7249
    7.410   11.3042
    7.440   11.3920
    7.470   11.2340
    7.500   11.6377
    7.530   11.8308
    7.560   11.3042
    7.590   11.6377
    7.620   12.7787
    7.650   13.0244
    7.680   14.0074
    7.710   14.3760
    7.740   16.2366
    7.770   17.5355
    7.800   16.1313
    7.830   14.2707
    7.860   12.1116
    7.890   11.3393
    7.920   11.7781
    7.950   10.9356
    7.980   10.8303
    8.010   11.0233
    8.040   10.7952
    8.070   11.4622
    8.100   11.5850
    8.130   11.1989
    8.160   10.3739
    8.190   10.0930
    8.220   10.4265
    8.250   10.8127
    8.280   11.1462
    8.310   10.2686
    8.340   11.4095
    8.370   10.4792
    8.400   11.0760
    8.430   11.4622
    8.460   10.3914
    8.490   10.7776
    8.520   11.0409
    8.550   11.0585
    8.580   11.0058
    8.610   10.8303
    8.640   11.4095
    8.670   11.7606
    8.700   11.3744
    8.730   11.5675
    8.760   11.5675
    8.790   11.2691
    8.820   10.8127
    8.850   11.4622
    8.880   10.3388
    8.910   10.9005
    8.940   11.1813
    8.970   10.6547
    9.000   11.4622
    9.030   10.7425
    9.060   11.3217
    9.090   11.3042
    9.120   11.3042
    9.150   11.1287
    9.180   11.1989
    9.210   11.1813
    9.240   11.9712
    9.270   12.3223
    9.300   12.7787
    9.330   12.1467
    9.360   13.8845
    9.390   14.6042
    9.420   15.8680
    9.450   16.5526
    9.480   19.2031
    9.510   23.8371
    9.540   24.3461
    9.570   21.4323
    9.600   17.6584
    9.630   14.3935
    9.660   12.4978
    9.690   11.0058
    9.720   11.3393
    9.750   11.0409
    9.780   10.6547
    9.810   11.1462
    9.840   11.9361
    9.870   11.3569
    9.900   10.9707
    9.930   10.9005
    9.960   10.9356
    9.990   10.7600
   10.020   11.5675
   10.050   11.0233
   10.080   11.5675
   10.110   11.3569
   10.140   12.7260
   10.170   11.9186
   10.200   12.9542
   10.230   13.5159
   10.260   13.9547
   10.290   15.3765
   10.320   15.9558
   10.350   14.2005
   10.380   12.8840
   10.410   11.1989
   10.440   10.9356
   10.470   11.3744
   10.500   10.8478
   10.530   10.5670
   10.560   10.7952
   10.590    9.9877
   10.620   10.6723
   10.650   10.7952
   10.680   10.8478
   10.710   11.3042
   10.740   10.5670
   10.770   10.5143
   10.800   11.6728
   10.830   10.9707
   10.860   11.6553
   10.890   11.8308
   10.920   12.0590
   10.950   12.2170
   10.980   13.9372
   11.010   15.3239
   11.040   14.8675
   11.070   14.0951
   11.100   12.4100
   11.130   10.6723
   11.160   10.3739
   11.190   10.4441
   11.220   10.4968
   11.250   10.9531
   11.280   10.7776
   11.310   10.7249
   11.340   10.5143
   11.370   10.0755
   11.400   11.2866
   11.430   10.6372
   11.460   10.3739
   11.490   10.9531
   11.520   10.3563
   11.550   12.1292
   11.580   11.7606
   11.610   12.6382
   11.640   13.8143
   11.670   15.3941
   11.700   16.2893
   11.730   14.9026
   11.760   13.5685
   11.790   12.3925
   11.820   10.7249
   11.850   10.4441
   11.880   10.1983
   11.910    9.6542
   11.940    9.6367
   11.970    9.7420
   12.000    9.8648
   12.030    9.3734
   12.060   10.0579
   12.090    9.4085
   12.120   10.4090
   12.150    9.7595
   12.180    9.7244
   12.210   10.0053
   12.240    9.9702
   12.270   10.0579
   12.300   10.9707
   12.330   10.4968
   12.360   10.0579
   12.390   10.1632
   12.420    9.3734
   12.450    9.7244
   12.480    9.6893
   12.510   10.0053
   12.540    9.7595
   12.570    9.8473
   12.600   10.0404
   12.630    9.3207
   12.660    9.4962
   12.690    9.7420
   12.720    9.7420
   12.750    9.9351
   12.780   10.2861
   12.810    9.8999
   12.840   10.0930
   12.870   11.3920
   12.900   11.5675
   12.930   12.5680
   12.960   13.0420
   12.990   11.6377
   13.020   11.9888
   13.050   10.1808
   13.080    9.8297
   13.110    9.9526
   13.140    9.0925
   13.170    9.6893
   13.200    8.8468
   13.230    9.2329
   13.260    9.6718
   13.290    9.2856
   13.320    9.3207
   13.350   10.2686
   13.380    9.1276
   13.410   10.1281
   13.440   10.5319
   13.470    9.7946
   13.500   10.0053
   13.530   10.9180
   13.560   10.3037
   13.590   10.5319
   13.620    9.2856
   13.650    9.7946
   13.680    8.3904
   13.710    9.6367
   13.740    9.3909
   13.770   10.1106
   13.800    9.0925
   13.830    9.1276
   13.860    9.3909
   13.890    9.5489
   13.920    9.9526
   13.950    9.5664
   13.980   10.0930
   14.010   11.1111
   14.040   11.6026
   14.070   12.0765
   14.100   11.5148
   14.130   11.3744
   14.160   10.8303
   14.190   10.4792
   14.220    9.8297
   14.250    9.6893
   14.280   10.1983
   14.310    9.3382
   14.340    9.1978
   14.370    9.6718
   14.400    9.7771
   14.430    9.6015
   14.460    9.2856
   14.490    9.4260
   14.520    9.3207
   14.550    9.8824
   14.580    9.0223
   14.610    9.4787
   14.640    9.1276
   14.670    9.1978
   14.700    9.3207
   14.730    9.3031
   14.760    9.6191
   14.790    9.7595
   14.820    9.3031
   14.850    9.7771
   14.880    8.8994
   14.910    9.5840
   14.940    9.5840
   14.970    9.3909
   15.000    9.2505
   15.030   10.1983
   15.060    9.3734
   15.090    9.7946
   15.120    9.9702
   15.150   10.0930
   15.180    9.4962
   15.210    9.1276
   15.240    9.4260
   15.270    9.6191
   15.300    9.4787
   15.330    9.0574
   15.360    9.3207
   15.390    9.5489
   15.420    9.5840
   15.450    9.5313
   15.480    9.5664
   15.510    9.2154
   15.540    8.5308
   15.570    9.6367
   15.600    9.2505
   15.630    9.3207
   15.660    9.6542
   15.690    9.4611
   15.720    9.3207
   15.750    9.3734
   15.780    9.2680
   15.810    9.4085
   15.840    9.2680
   15.870    9.9526
   15.900    9.8648
   15.930   10.0579
   15.960    9.2505
   15.990    9.4611
   16.020    9.6015
   16.050    9.7771
   16.080    9.4260
   16.110   10.3563
   16.140    9.8648
   16.170    9.7420
   16.200    9.5138
   16.230    9.6893
   16.260    9.8473
   16.290   10.1106
   16.320    9.9877
   16.350    9.3734
   16.380   10.0228
   16.410    9.1452
   16.440    8.8994
   16.470   10.1106
   16.500    9.7069
   16.530    9.9175
   16.560   10.4090
   16.590   10.0228
   16.620   10.0228
   16.650   10.3739
   16.680    9.8122
   16.710    9.8824
   16.740   10.3212
   16.770    9.4436
   16.800    9.4962
   16.830    9.8122
   16.860    9.6191
   16.890    9.3558
   16.920    9.6542
   16.950   10.0755
   16.980   10.6898
   17.010   11.5148
   17.040   12.0590
   17.070   12.0063
   17.100   11.2866
   17.130   11.3042
   17.160   10.9882
   17.190   10.9356
   17.220    9.7244
   17.250   10.6372
   17.280    9.6191
   17.310    9.7595
   17.340   10.3914
   17.370   10.6547
   17.400   10.1281
   17.430    9.9175
   17.460    9.4085
   17.490   10.6723
   17.520   10.7776
   17.550   10.2861
   17.580   10.0930
   17.610    9.7244
   17.640    9.7946
   17.670    9.7595
   17.700    9.7244
   17.730    9.5840
   17.760    9.6718
   17.790    9.2329
   17.820    9.9351
   17.850    9.9877
   17.880   10.4090
   17.910   10.1106
   17.940   10.6898
   17.970    9.9702
   18.000   10.1457
   18.030   10.1808
   18.060    9.7946
   18.090   10.6723
   18.120   10.3212
   18.150   10.0755
   18.180    9.6718
   18.210    9.9877
   18.240    9.6015
   18.270    9.5840
   18.300   10.2686
   18.330   10.0053
   18.360   10.3914
   18.390   10.1106
   18.420   10.3037
   18.450   10.3037
   18.480    9.8297
   18.510    9.9526
   18.540    9.4962
   18.570    9.8648
   18.600   10.1281
   18.630    9.8297
   18.660    9.6015
   18.690    9.9702
   18.720   10.1983
   18.750    9.8473
   18.780    9.8297
   18.810   10.1457
   18.840   10.4968
   18.870    9.5313
   18.900    9.6893
   18.930    9.6718
   18.960   10.2335
   18.990    9.8122
   19.020   10.0053
   19.050    9.8122
   19.080    9.9351
   19.110    9.7420
   19.140   10.4616
   19.170   10.1632
   19.200   10.5319
   19.230   10.0053
   19.260    9.4611
   19.290   10.2159
   19.320   10.1808
   19.350    9.7244
   19.380    9.7420
   19.410    9.6015
   19.440   10.7952
   19.470   10.9180
   19.500    9.9175
   19.530   10.2159
   19.560   10.5670
   19.590   10.6898
   19.620    9.8824
   19.650   10.1808
   19.680   10.2861
   19.710   10.2159
   19.740    9.8122
   19.770    9.9702
   19.800   10.4090
   19.830   10.0404
   19.860   10.3914
   19.890    9.3031
   19.920    9.7069
   19.950    9.7244
   19.980    9.9702
   20.010   10.6021
   20.040   10.1281
   20.070    9.8824
   20.100    9.8122
   20.130    9.8824
   20.160   10.3563
   20.190    9.9526
   20.220   10.5494
   20.250   10.6723
   20.280    9.9351
   20.310   11.3569
   20.340   11.3744
   20.370   10.9356
   20.400   10.9707
   20.430   11.1813
   20.460   11.3217
   20.490   10.7952
   20.520   10.3739
   20.550   10.6021
   20.580   10.6547
   20.610   10.4090
   20.640   10.8127
   20.670   10.6372
   20.700   11.0233
   20.730   10.5494
   20.760   10.8127
   20.790   11.0233
   20.820   11.3920
   20.850   10.7074
   20.880   11.6904
   20.910   12.0765
   20.940   12.7611
   20.970   13.4632
   21.000   14.6568
   21.030   15.6749
   21.060   16.4297
   21.090   17.1494
   21.120   20.0632
   21.150   20.0105
   21.180   21.5552
   21.210   22.1345
   21.240   23.9249
   21.270   25.1711
   21.300   26.1015
   21.330   25.5573
   21.360   27.2249
   21.390   27.9796
   21.420   27.2600
   21.450   26.7685
   21.480   23.0823
   21.510   20.0281
   21.540   18.5010
   21.570   15.1483
   21.600   14.4813
   21.630   12.2696
   21.660   11.4797
   21.690   11.4622
   21.720   10.7600
   21.750   10.9005
   21.780   10.9356
   21.810   11.4797
   21.840   10.8303
   21.870   11.4446
   21.900   10.7776
   21.930   10.4265
   21.960    9.4962
   21.990   10.6021
   22.020   10.6898
   22.050   10.2861
   22.080   10.1983
   22.110    9.7244
   22.140   10.3563
   22.170   10.3212
   22.200    9.9351
   22.230   10.3914
   22.260   10.1457
   22.290   10.0755
   22.320   10.1632
   22.350   10.5670
   22.380   10.1983
   22.410   10.3388
   22.440   10.4441
   22.470   10.3914
   22.500   11.1638
   22.530   11.0233
   22.560   11.4973
   22.590   11.2340
   22.620   10.9531
   22.650   10.9531
   22.680   10.9882
   22.710   10.8127
   22.740   10.1808
   22.770   10.3212
   22.800   10.5845
   22.830   10.4090
   22.860   10.6898
   22.890   11.1989
   22.920   10.7600
   22.950   11.4797
   22.980   10.2335
   23.010   10.7952
   23.040   10.3037
   23.070   10.0404
   23.100   10.0930
   23.130    9.7946
   23.160   10.5494
   23.190   10.5494
   23.220    9.9175
   23.250   10.6898
   23.280   10.1808
   23.310   10.3914
   23.340   10.4090
   23.370   11.3920
   23.400   10.7776
   23.430   11.1989
   23.460   11.9361
   23.490   11.2691
   23.520   11.8483
   23.550   13.4106
   23.580   13.8143
   23.610   12.8313
   23.640   13.4106
   23.670   13.7967
   23.700   14.0074
   23.730   14.3935
   23.760   14.7622
   23.790   16.3244
   23.820   15.2887
   23.850   14.4286
   23.880   14.0776
   23.910   12.7962
   23.940   11.9361
   23.970   11.3042
   24.000    9.7771
   24.030    9.7946
   24.060    9.6015
   24.090    9.9351
   24.120    9.1978
   24.150    9.1627
   24.180    9.3909
   24.210    9.5489
   24.240    9.4436
   24.270    9.5489
   24.300    9.3207
   24.330    9.3382
   24.360    9.5138
   24.390    9.4436
   24.420    9.6893
   24.450    9.4085
   24.480    9.3207
   24.510    9.2856
   24.540    8.9872
   24.570    8.8292
   24.600    9.5489
   24.630    9.1452
   24.660    8.9345
   24.690    9.6191
   24.720    9.6542
   24.750    9.3031
   24.780    9.4787
   24.810    8.6010
   24.840    8.7765
   24.870    9.1276
   24.900    9.1452
   24.930    9.0925
   24.960    9.3558
   24.990    8.7941
   25.020    8.8819
   25.050    9.1452
   25.080    8.7941
   25.110    8.8643
   25.140    9.1803
   25.170    9.1627
   25.200    9.1627
   25.230    9.2680
   25.260    9.3382
   25.290    9.2154
   25.320    8.9521
   25.350    8.8643
   25.380    9.4085
   25.410    8.5484
   25.440    9.6191
   25.470    8.6712
   25.500    9.4962
   25.530    9.2856
   25.560    9.3909
   25.590    9.3031
   25.620    8.9696
   25.650    9.6718
   25.680    8.8117
   25.710    9.0398
   25.740    9.2329
   25.770    8.9872
   25.800    9.4962
   25.830    9.7595
   25.860    9.5840
   25.890    9.4787
   25.920    9.2329
   25.950    8.5659
   25.980    9.5313
   26.010    8.6010
   26.040    9.0398
   26.070    9.6191
   26.100    9.3031
   26.130    8.8468
   26.160    8.5133
   26.190    9.2680
   26.220    8.9696
   26.250    9.0047
   26.280    8.8117
   26.310    8.8292
   26.340    9.0750
   26.370    8.6186
   26.400    8.6712
   26.430    8.7765
   26.460    9.3382
   26.490    9.0047
   26.520    9.2505
   26.550    8.8117
   26.580    8.6010
   26.610    8.8468
   26.640    8.7765
   26.670    9.0047
   26.700    8.3026
   26.730    8.8292
   26.760    8.3904
   26.790    8.5835
   26.820    9.0223
   26.850    8.5133
   26.880    8.1797
   26.910    8.5484
   26.940    8.9696
   26.970    9.1978
   27.000    9.6893
   27.030    8.8819
   27.060    8.1622
   27.090    9.3382
   27.120    8.7590
   27.150    8.1271
   27.180    8.2324
   27.210    8.4430
   27.240    8.4430
   27.270    8.9696
   27.300    8.5484
   27.330    8.6010
   27.360    8.4957
   27.390    8.3377
   27.420    8.6712
   27.450    8.3377
   27.480    8.4079
   27.510    8.8468
   27.540    8.0393
   27.570    8.5835
   27.600    8.7239
   27.630    8.9170
   27.660    8.9345
   27.690    8.3553
   27.720    8.5484
   27.750    8.2149
   27.780    8.2324
   27.810    8.6712
   27.840    8.3377
   27.870    8.3728
   27.900    8.3904
   27.930    8.1271
   27.960    8.1095
   27.990    8.4079
   28.020    8.0218
   28.050    8.7414
   28.080    8.6712
   28.110    9.0223
   28.140    8.7239
   28.170    8.2149
   28.200    8.3377
   28.230    8.4079
   28.260    9.2154
   28.290    8.5308
   28.320    8.3553
   28.350    8.6537
   28.380    8.5835
   28.410    8.7941
   28.440    8.3377
   28.470    8.3728
   28.500    8.7590
   28.530    8.7765
   28.560    8.1797
   28.590    8.0218
   28.620    8.1973
   28.650    7.9164
   28.680    8.0920
   28.710    8.1095
   28.740    8.2675
   28.770    8.3553
   28.800    8.2324
   28.830    8.1271
   28.860    8.2851
   28.890    8.2149
   28.920    8.2324
   28.950    8.0218
   28.980    8.1797
   29.010    7.9867
   29.040    8.0393
   29.070    7.6883
   29.100    8.1797
   29.130    8.8292
   29.160    8.4606
   29.190    8.2500
   29.220    8.3202
   29.250    8.2324
   29.280    8.1095
   29.310    8.5659
   29.340    7.6356
   29.370    8.1973
   29.400    8.5659
   29.430    8.0569
   29.460    8.5133
   29.490    8.3904
   29.520    8.7414
   29.550    8.7239
   29.580    8.4957
   29.610    8.1622
   29.640    8.6186
   29.670    8.1622
   29.700    8.8292
   29.730    9.1276
   29.760    7.8813
   29.790    8.5835
   29.820    8.7941
   29.850    8.6712
   29.880    8.4079
   29.910    8.0042
   29.940    8.6010
   29.970    8.5835
   30.000    8.1271
   30.030    8.2324
   30.060    8.1797
   30.090    7.6180
   30.120    8.5835
   30.150    8.5484
   30.180    7.8989
   30.210    8.0218
   30.240    7.8287
   30.270    8.0042
   30.300    8.0744
   30.330    8.3026
   30.360    8.2149
   30.390    8.0042
   30.420    7.5654
   30.450    9.0750
   30.480    8.0569
   30.510    7.8638
   30.540    7.9516
   30.570    7.2845
   30.600    8.2324
   30.630    7.6707
   30.660    7.7760
   30.690    7.7234
   30.720    7.6707
   30.750    7.2494
   30.780    7.7760
   30.810    7.7409
   30.840    8.0042
   30.870    8.3728
   30.900    8.0920
   30.930    7.6005
   30.960    7.7409
   30.990    7.6180
   31.020    7.6707
   31.050    8.0744
   31.080    8.0218
   31.110    7.6707
   31.140    7.2845
   31.170    7.7760
   31.200    8.6361
   31.230    7.7058
   31.260    7.9516
   31.290    7.7760
   31.320    8.1446
   31.350    8.1797
   31.380    8.6361
   31.410    7.8989
   31.440    7.5127
   31.470    8.0218
   31.500    7.8989
   31.530    7.8638
   31.560    8.2149
   31.590    7.7936
   31.620    8.0744
   31.650    8.0042
   31.680    7.9867
   31.710    7.3547
   31.740    7.7936
   31.770    7.6707
   31.800    7.7936
   31.830    7.6005
   31.860    8.1797
   31.890    7.5303
   31.920    8.0920
   31.950    8.0744
   31.980    7.7936
   32.010    8.0218
   32.040    7.7585
   32.070    7.8989
   32.100    7.7936
   32.130    7.7058
   32.160    7.3021
   32.190    7.6180
   32.220    7.7936
   32.250    7.5127
   32.280    7.6180
   32.310    7.8462
   32.340    7.5829
   32.370    7.7760
   32.400    7.8111
   32.430    8.1622
   32.460    8.0920
   32.490    6.9861
   32.520    7.3021
   32.550    7.1792
   32.580    7.0915
   32.610    7.4074
   32.640    7.9867
   32.670    6.6877
   32.700    6.7579
   32.730    7.0563
   32.760    7.5127
   32.790    6.8282
   32.820    7.5829
   32.850    7.7409
   32.880    7.1617
   32.910    7.6883
   32.940    7.3899
   32.970    7.2494
   33.000    7.5303
   33.030    7.7936
   33.060    7.3723
   33.090    7.3372
   33.120    7.4952
   33.150    8.0042
   33.180    7.1617
   33.210    7.1968
   33.240    7.3899
   33.270    7.2494
   33.300    7.3021
   33.330    7.3899
   33.360    7.6005
   33.390    7.2143
   33.420    7.3196
   33.450    7.6180
   33.480    7.4776
   33.510    7.4952
   33.540    7.7585
   33.570    7.1090
   33.600    7.0212
   33.630    7.3899
   33.660    7.4425
   33.690    7.4250
   33.720    7.0915
   33.750    7.5654
   33.780    7.5303
   33.810    7.1441
   33.840    7.8287
   33.870    7.7760
   33.900    7.8638
   33.930    6.9861
   33.960    7.5829
   33.990    6.8633
   34.020    6.7404
   34.050    7.4776
   34.080    7.2143
   34.110    7.2845
   34.140    7.0388
   34.170    7.0388
   34.200    7.1266
   34.230    7.0739
   34.260    6.5824
   34.290    7.7585
   34.320    7.3547
   34.350    7.4425
   34.380    7.3547
   34.410    7.3372
   34.440    7.1792
   34.470    7.4601
   34.500    7.1968
   34.530    7.1441
   34.560    7.5303
   34.590    7.3021
   34.620    7.5478
   34.650    7.2143
   34.680    7.7058
   34.710    7.2494
   34.740    7.8287
   34.770    7.4601
   34.800    7.4425
   34.830    7.4250
   34.860    7.3723
   34.890    7.0388
   34.920    7.2670
   34.950    7.4952
   34.980    6.7579
   35.010    7.3021
   35.040    7.0037
   35.070    7.6532
   35.100    7.1792
   35.130    7.1792
   35.160    7.3899
   35.190    7.3021
   35.220    7.1792
   35.250    7.6883
   35.280    6.8282
   35.310    7.1617
   35.340    7.5654
   35.370    6.8633
   35.400    7.2319
   35.430    7.3547
   35.460    7.9164
   35.490    7.3021
   35.520    7.0915
   35.550    7.3899
   35.580    7.5303
   35.610    7.6005
   35.640    7.1792
   35.670    6.8282
   35.700    7.7409
   35.730    7.4952
   35.760    7.4776
   35.790    7.6005
   35.820    7.3723
   35.850    7.7760
   35.880    7.8462
   35.910    7.7234
   35.940    7.9516
   35.970    7.9164
   36.000    8.0042
   36.030    7.7760
   36.060    7.9867
   36.090    7.9516
   36.120    7.7409
   36.150    8.4957
   36.180    8.1446
   36.210    7.2143
   36.240    7.5654
   36.270    7.7058
   36.300    7.5478
   36.330    7.4074
   36.360    7.2319
   36.390    6.8808
   36.420    7.0212
   36.450    7.0739
   36.480    6.6702
   36.510    7.3899
   36.540    7.4074
   36.570    6.4946
   36.600    7.2143
   36.630    6.5473
   36.660    6.9510
   36.690    7.1617
   36.720    6.8984
   36.750    6.2840
   36.780    7.3021
   36.810    7.0388
   36.840    6.9510
   36.870    6.4069
   36.900    6.6877
   36.930    7.3196
   36.960    7.0212
   36.990    6.6351
   37.020    7.2143
   37.050    6.9335
   37.080    7.0037
   37.110    7.4952
   37.140    6.9335
   37.170    7.1090
   37.200    7.5303
   37.230    6.8457
   37.260    6.8106
   37.290    6.7228
   37.320    7.3547
   37.350    6.8106
   37.380    7.2319
   37.410    6.6175
   37.440    6.8808
   37.470    6.9510
   37.500    7.2143
   37.530    7.3723
   37.560    6.6526
   37.590    6.9510
   37.620    6.7755
   37.650    6.9861
   37.680    7.3021
   37.710    7.1968
   37.740    7.3723
   37.770    6.7930
   37.800    7.2670
   37.830    7.4601
   37.860    6.7228
   37.890    7.0212
   37.920    7.2845
   37.950    7.3723
   37.980    7.0739
   38.010    7.0212
   38.040    7.0388
   38.070    7.4952
   38.100    6.9686
   38.130    7.6707
   38.160    6.9510
   38.190    7.1266
   38.220    7.3196
   38.250    7.1441
   38.280    6.6175
   38.310    7.0563
   38.340    7.0388
   38.370    6.3893
   38.400    7.1441
   38.430    6.8106
   38.460    6.9510
   38.490    6.8282
   38.520    6.3191
   38.550    6.6351
   38.580    6.6351
   38.610    6.8984
   38.640    6.7755
   38.670    6.8633
   38.700    6.4595
   38.730    6.7228
   38.760    6.9686
   38.790    6.8457
   38.820    6.8808
   38.850    7.2143
   38.880    7.2670
   38.910    7.1792
   38.940    7.1968
   38.970    6.9335
   39.000    6.8633
   39.030    6.8106
   39.060    7.0739
   39.090    6.6175
   39.120    6.9159
   39.150    7.0915
   39.180    6.6702
   39.210    6.6351
   39.240    6.8633
   39.270    6.9159
   39.300    7.3196
   39.330    6.6000
   39.360    6.6702
   39.390    7.3196
   39.420    7.0915
   39.450    7.0037
   39.480    6.9159
   39.510    6.5824
   39.540    6.9159
   39.570    7.1090
   39.600    6.8808
   39.630    6.7579
   39.660    7.1266
   39.690    6.9159
   39.720    6.6526
   39.750    7.1617
   39.780    6.7579
   39.810    7.2319
   39.840    7.3723
   39.870    7.0915
   39.900    7.1968
   39.930    6.8106
   39.960    6.7404
   39.990    6.8808