File: data/PXRD/PXRD_KE-285A_Cu-Ka1_capillary-1mm_3s-deg.xyd
    1.500   38.0902
    1.530   37.0546
    1.560   35.1589
    1.590   33.4913
    1.620   32.1397
    1.650   30.0509
    1.680   26.9265
    1.710   26.5403
    1.740   26.0839
    1.770   24.7499
    1.800   23.0472
    1.830   23.0999
    1.860   21.2744
    1.890   21.6956
    1.920   20.9057
    1.950   18.6238
    1.980   19.1680
    2.010   18.3430
    2.040   17.4829
    2.070   17.2196
    2.100   16.7457
    2.130   16.3244
    2.160   16.2542
    2.190   15.0430
    2.220   15.4643
    2.250   14.4111
    2.280   13.5510
    2.310   13.3755
    2.340   13.8494
    2.370   12.9366
    2.400   13.5334
    2.430   13.0771
    2.460   11.2691
    2.490   12.0941
    2.520   11.1989
    2.550   11.6904
    2.580   11.4622
    2.610   11.5148
    2.640   11.0760
    2.670   11.2340
    2.700   11.3042
    2.730   10.1808
    2.760    9.7420
    2.790   10.4792
    2.820    9.3031
    2.850   10.1281
    2.880    9.9526
    2.910    9.6015
    2.940    9.9175
    2.970    9.4611
    3.000    9.4436
    3.030   10.1808
    3.060    9.5489
    3.090    9.0574
    3.120    9.1978
    3.150    9.0574
    3.180    9.5664
    3.210   10.0053
    3.240    9.7946
    3.270    9.4260
    3.300    9.6893
    3.330    8.9521
    3.360   10.1632
    3.390   10.6547
    3.420    9.8999
    3.450   11.0760
    3.480   10.6372
    3.510   11.3393
    3.540   11.8483
    3.570   11.6026
    3.600   12.9015
    3.630   13.7792
    3.660   15.1483
    3.690   15.9733
    3.720   17.2722
    3.750   19.1504
    3.780   22.4855
    3.810   27.5759
    3.840   30.6653
    3.870   28.8924
    3.900   21.6781
    3.930   13.8845
    3.960   10.7425
    3.990    9.8297
    4.020    9.0398
    4.050    9.5138
    4.080    8.3377
    4.110    8.6537
    4.140    8.0393
    4.170    8.9521
    4.200    7.9516
    4.230    7.1090
    4.260    7.8989
    4.290    7.6180
    4.320    7.9516
    4.350    7.5303
    4.380    7.1617
    4.410    7.8638
    4.440    6.7404
    4.470    7.3899
    4.500    6.6877
    4.530    7.0037
    4.560    6.8282
    4.590    7.7936
    4.620    6.7579
    4.650    7.1968
    4.680    7.3547
    4.710    7.2143
    4.740    7.2494
    4.770    6.7053
    4.800    7.3899
    4.830    7.5654
    4.860    6.5649
    4.890    6.8808
    4.920    7.0563
    4.950    7.3372
    4.980    7.3372
    5.010    6.6351
    5.040    7.0212
    5.070    7.0388
    5.100    7.4425
    5.130    7.6180
    5.160    8.2851
    5.190    7.4425
    5.220    7.7760
    5.250    7.9164
    5.280    8.0744
    5.310    8.4957
    5.340    9.3382
    5.370   10.4616
    5.400   10.6196
    5.430   12.4803
    5.460   13.8845
    5.490   13.5159
    5.520   11.4446
    5.550    9.1452
    5.580    7.0739
    5.610    7.0915
    5.640    6.9861
    5.670    6.9159
    5.700    6.7579
    5.730    7.1441
    5.760    6.9510
    5.790    6.6175
    5.820    6.3893
    5.850    6.4946
    5.880    6.9335
    5.910    6.8457
    5.940    7.3372
    5.970    6.9861
    6.000    6.6877
    6.030    6.5649
    6.060    6.6702
    6.090    7.2319
    6.120    7.2670
    6.150    7.4425
    6.180    6.4420
    6.210    6.8808
    6.240    6.7755
    6.270    6.2489
    6.300    6.4244
    6.330    6.9159
    6.360    6.8984
    6.390    6.5298
    6.420    6.6526
    6.450    7.0212
    6.480    6.7755
    6.510    6.8808
    6.540    7.3372
    6.570    7.2143
    6.600    7.5478
    6.630    7.4250
    6.660    8.3377
    6.690    8.6712
    6.720    8.9521
    6.750    8.6888
    6.780    8.2851
    6.810    7.5829
    6.840    6.9686
    6.870    6.8633
    6.900    6.7053
    6.930    6.8808
    6.960    6.5122
    6.990    7.0915
    7.020    6.4946
    7.050    7.1090
    7.080    7.0388
    7.110    6.4244
    7.140    6.7755
    7.170    6.3893
    7.200    6.6351
    7.230    6.7930
    7.260    6.8633
    7.290    7.0037
    7.320    6.5473
    7.350    6.6702
    7.380    7.0037
    7.410    7.0563
    7.440    6.6877
    7.470    6.7053
    7.500    6.6175
    7.530    7.1792
    7.560    6.5122
    7.590    7.2670
    7.620    8.0920
    7.650    7.9867
    7.680    7.2494
    7.710    7.4425
    7.740    7.4425
    7.770    8.3202
    7.800    8.2324
    7.830    7.4601
    7.860    6.9861
    7.890    6.8808
    7.920    6.9861
    7.950    7.3547
    7.980    7.3723
    8.010    7.0739
    8.040    6.0032
    8.070    6.7930
    8.100    6.8984
    8.130    7.6707
    8.160    7.0739
    8.190    7.2319
    8.220    7.3723
    8.250    6.9335
    8.280    6.6526
    8.310    7.2143
    8.340    6.9335
    8.370    7.6707
    8.400    7.0037
    8.430    6.8282
    8.460    6.5473
    8.490    7.2319
    8.520    7.4250
    8.550    7.1266
    8.580    7.3196
    8.610    7.5303
    8.640    7.6707
    8.670    7.6532
    8.700    7.8462
    8.730    7.3372
    8.760    7.2845
    8.790    7.2143
    8.820    7.4250
    8.850    7.4250
    8.880    7.1441
    8.910    7.2494
    8.940    6.9159
    8.970    7.8287
    9.000    7.3196
    9.030    7.3899
    9.060    7.4074
    9.090    7.2845
    9.120    7.2319
    9.150    7.6005
    9.180    7.9516
    9.210    7.4776
    9.240    8.0042
    9.270    7.1266
    9.300    6.8282
    9.330    7.3196
    9.360    7.6005
    9.390    7.8111
    9.420    8.4430
    9.450    7.9867
    9.480    9.0574
    9.510    9.3382
    9.540    9.7420
    9.570    9.9702
    9.600    9.0047
    9.630    8.1271
    9.660    8.1095
    9.690    7.5654
    9.720    7.9516
    9.750    7.9164
    9.780    7.4776
    9.810    7.0915
    9.840    7.4074
    9.870    7.0563
    9.900    7.3899
    9.930    8.2500
    9.960    7.9516
    9.990    7.5303
   10.020    7.4074
   10.050    7.7585
   10.080    7.2845
   10.110    7.2143
   10.140    7.3547
   10.170    8.4255
   10.200    7.7058
   10.230    7.9340
   10.260    8.0569
   10.290    8.2851
   10.320    8.7063
   10.350    8.2500
   10.380    7.3723
   10.410    7.3547
   10.440    7.5303
   10.470    7.7234
   10.500    7.2319
   10.530    7.0563
   10.560    7.0212
   10.590    7.2494
   10.620    7.3899
   10.650    7.1617
   10.680    7.1441
   10.710    6.8282
   10.740    7.6707
   10.770    7.2319
   10.800    6.9861
   10.830    7.5654
   10.860    7.2494
   10.890    6.8282
   10.920    7.9867
   10.950    7.8462
   10.980    8.0569
   11.010    7.1266
   11.040    7.0563
   11.070    6.9159
   11.100    7.6356
   11.130    7.2845
   11.160    6.6351
   11.190    7.0037
   11.220    7.0212
   11.250    7.1792
   11.280    7.0037
   11.310    7.0037
   11.340    6.8106
   11.370    6.4595
   11.400    7.4250
   11.430    6.3367
   11.460    6.9335
   11.490    7.0563
   11.520    7.0739
   11.550    6.7930
   11.580    7.2670
   11.610    6.9686
   11.640    6.7579
   11.670    7.1441
   11.700    7.4074
   11.730    7.7409
   11.760    7.2670
   11.790    6.7755
   11.820    6.5473
   11.850    6.5473
   11.880    6.2138
   11.910    6.5122
   11.940    6.0383
   11.970    6.8106
   12.000    6.9686
   12.030    6.9335
   12.060    5.6872
   12.090    6.4420
   12.120    6.4069
   12.150    6.2840
   12.180    6.3542
   12.210    6.2138
   12.240    6.8457
   12.270    5.7925
   12.300    6.4595
   12.330    6.4946
   12.360    6.8282
   12.390    6.5473
   12.420    6.5298
   12.450    5.8276
   12.480    6.4420
   12.510    6.1436
   12.540    6.4069
   12.570    6.0734
   12.600    6.0734
   12.630    6.4069
   12.660    6.1962
   12.690    6.0207
   12.720    6.0032
   12.750    6.0909
   12.780    6.3718
   12.810    5.4590
   12.840    5.9329
   12.870    5.7925
   12.900    6.0734
   12.930    6.7404
   12.960    6.1962
   12.990    6.3191
   13.020    6.6526
   13.050    6.6351
   13.080    6.1085
   13.110    6.3016
   13.140    6.4946
   13.170    6.0207
   13.200    6.0909
   13.230    6.2138
   13.260    6.0558
   13.290    5.9329
   13.320    6.4069
   13.350    5.6521
   13.380    6.5824
   13.410    6.1962
   13.440    5.3186
   13.470    6.4420
   13.500    6.0909
   13.530    6.1436
   13.560    6.6175
   13.590    6.4771
   13.620    6.4420
   13.650    6.0909
   13.680    5.5994
   13.710    6.0558
   13.740    6.0558
   13.770    6.0558
   13.800    5.9329
   13.830    5.9154
   13.860    5.7223
   13.890    5.8627
   13.920    5.8978
   13.950    5.8978
   13.980    6.3367
   14.010    6.2489
   14.040    6.2489
   14.070    5.9505
   14.100    6.2313
   14.130    6.2489
   14.160    6.3893
   14.190    6.2313
   14.220    6.0734
   14.250    6.0558
   14.280    5.7048
   14.310    5.9505
   14.340    6.3367
   14.370    6.1962
   14.400    5.7399
   14.430    6.3191
   14.460    6.0032
   14.490    5.9681
   14.520    5.7399
   14.550    5.8276
   14.580    6.3542
   14.610    5.8452
   14.640    6.2489
   14.670    5.9329
   14.700    5.8452
   14.730    5.8978
   14.760    6.2489
   14.790    5.7574
   14.820    5.8101
   14.850    6.4946
   14.880    6.4069
   14.910    5.6521
   14.940    5.8101
   14.970    6.1962
   15.000    6.1436
   15.030    6.0207
   15.060    5.7223
   15.090    6.2489
   15.120    5.7048
   15.150    6.0383
   15.180    6.4420
   15.210    5.4064
   15.240    5.8978
   15.270    5.5643
   15.300    5.6872
   15.330    5.8276
   15.360    5.8627
   15.390    5.7925
   15.420    6.0032
   15.450    5.2659
   15.480    5.8978
   15.510    6.1085
   15.540    5.6872
   15.570    5.7750
   15.600    5.9681
   15.630    5.5994
   15.660    6.1962
   15.690    6.1260
   15.720    6.2313
   15.750    5.8627
   15.780    6.1611
   15.810    5.8276
   15.840    5.8101
   15.870    5.7223
   15.900    5.6170
   15.930    6.0558
   15.960    5.6170
   15.990    6.1611
   16.020    5.8627
   16.050    6.1085
   16.080    5.7574
   16.110    6.5122
   16.140    6.0909
   16.170    5.8452
   16.200    5.6697
   16.230    6.1085
   16.260    6.1436
   16.290    6.2138
   16.320    5.5643
   16.350    5.7750
   16.380    6.2665
   16.410    5.8101
   16.440    6.0207
   16.470    5.5643
   16.500    6.0558
   16.530    5.7399
   16.560    5.7223
   16.590    6.1436
   16.620    6.6175
   16.650    6.1787
   16.680    5.5819
   16.710    6.0383
   16.740    5.6872
   16.770    6.0909
   16.800    5.8452
   16.830    5.8452
   16.860    5.8101
   16.890    5.7048
   16.920    5.7223
   16.950    6.2665
   16.980    5.6697
   17.010    5.9681
   17.040    6.3542
   17.070    5.7750
   17.100    6.0734
   17.130    6.4595
   17.160    6.5824
   17.190    5.8276
   17.220    5.8803
   17.250    5.9154
   17.280    6.0207
   17.310    6.1962
   17.340    5.6872
   17.370    5.8452
   17.400    5.9856
   17.430    6.2313
   17.460    6.0734
   17.490    6.0734
   17.520    6.5649
   17.550    6.0909
   17.580    6.0558
   17.610    6.1611
   17.640    5.6345
   17.670    5.8452
   17.700    5.6521
   17.730    6.3893
   17.760    5.9505
   17.790    6.0909
   17.820    5.9505
   17.850    5.5643
   17.880    6.2138
   17.910    5.8452
   17.940    5.8803
   17.970    5.6521
   18.000    5.6170
   18.030    6.2840
   18.060    6.3893
   18.090    6.0558
   18.120    6.5473
   18.150    5.6697
   18.180    5.9329
   18.210    5.5117
   18.240    5.6872
   18.270    6.0734
   18.300    5.8452
   18.330    5.7750
   18.360    6.3718
   18.390    5.7925
   18.420    5.7048
   18.450    5.8627
   18.480    5.7048
   18.510    6.2665
   18.540    6.0032
   18.570    6.1436
   18.600    6.0383
   18.630    6.6175
   18.660    5.5643
   18.690    6.4946
   18.720    5.9856
   18.750    5.6872
   18.780    5.4064
   18.810    6.0909
   18.840    5.6697
   18.870    5.1255
   18.900    6.0909
   18.930    6.0207
   18.960    6.4946
   18.990    6.0207
   19.020    5.9856
   19.050    5.7574
   19.080    5.7574
   19.110    6.1611
   19.140    5.9856
   19.170    5.8978
   19.200    5.8101
   19.230    5.8627
   19.260    5.5819
   19.290    5.8627
   19.320    6.0207
   19.350    6.2313
   19.380    6.0558
   19.410    5.8627
   19.440    5.9154
   19.470    5.7048
   19.500    5.9329
   19.530    5.8452
   19.560    5.8101
   19.590    6.3191
   19.620    6.3367
   19.650    5.9681
   19.680    6.3893
   19.710    6.1085
   19.740    6.1085
   19.770    6.2313
   19.800    6.2313
   19.830    6.3016
   19.860    6.3016
   19.890    5.8978
   19.920    6.4244
   19.950    6.3542
   19.980    6.0032
   20.010    5.7574
   20.040    6.3893
   20.070    6.0558
   20.100    6.1611
   20.130    6.1787
   20.160    6.2665
   20.190    6.1260
   20.220    6.4069
   20.250    6.0207
   20.280    6.0383
   20.310    6.5298
   20.340    5.7048
   20.370    6.2665
   20.400    6.1260
   20.430    6.4069
   20.460    6.0383
   20.490    6.5122
   20.520    6.3718
   20.550    6.0383
   20.580    6.1260
   20.610    5.9681
   20.640    6.3016
   20.670    5.8452
   20.700    5.8978
   20.730    6.2665
   20.760    6.4069
   20.790    5.5468
   20.820    6.3893
   20.850    6.3367
   20.880    6.0032
   20.910    6.7579
   20.940    5.9329
   20.970    6.5122
   21.000    6.1085
   21.030    6.2313
   21.060    5.6345
   21.090    6.0734
   21.120    5.8452
   21.150    6.1436
   21.180    5.9505
   21.210    5.9505
   21.240    5.7048
   21.270    5.9154
   21.300    6.0909
   21.330    6.3016
   21.360    6.5649
   21.390    6.3191
   21.420    6.0032
   21.450    6.2138
   21.480    5.8452
   21.510    6.0909
   21.540    6.6000
   21.570    6.0207
   21.600    6.5473
   21.630    6.1787
   21.660    6.2840
   21.690    6.0383
   21.720    5.8276
   21.750    6.2665
   21.780    6.0909
   21.810    6.1436
   21.840    5.6521
   21.870    6.7755
   21.900    6.2138
   21.930    6.3191
   21.960    6.5298
   21.990    6.7404
   22.020    6.2138
   22.050    6.0032
   22.080    6.5649
   22.110    6.6000
   22.140    6.3718
   22.170    6.5298
   22.200    5.9681
   22.230    6.2840
   22.260    6.8633
   22.290    6.3718
   22.320    5.8452
   22.350    6.6000
   22.380    6.1436
   22.410    6.5298
   22.440    6.6175
   22.470    6.2138
   22.500    5.8627
   22.530    6.1611
   22.560    6.3893
   22.590    6.4069
   22.620    6.4420
   22.650    5.8803
   22.680    6.2138
   22.710    6.1260
   22.740    5.7925
   22.770    6.4946
   22.800    5.8978
   22.830    6.0734
   22.860    6.1260
   22.890    6.6702
   22.920    6.8984
   22.950    6.5473
   22.980    6.6877
   23.010    6.2840
   23.040    6.4771
   23.070    6.7053
   23.100    6.1962
   23.130    6.6351
   23.160    6.0383
   23.190    6.3367
   23.220    6.3718
   23.250    5.5819
   23.280    5.9856
   23.310    6.2138
   23.340    6.3191
   23.370    5.8627
   23.400    6.1611
   23.430    6.3542
   23.460    6.4595
   23.490    6.3367
   23.520    6.5298
   23.550    6.4946
   23.580    6.3016
   23.610    6.4420
   23.640    6.3893
   23.670    5.9154
   23.700    5.9505
   23.730    6.3367
   23.760    6.6702
   23.790    6.3367
   23.820    6.1260
   23.850    6.2840
   23.880    6.0909
   23.910    6.0032
   23.940    5.1606
   23.970    5.7750
   24.000    6.0032
   24.030    5.8276
   24.060    6.1611
   24.090    5.9505
   24.120    6.1962
   24.150    6.4595
   24.180    6.2138
   24.210    6.2138
   24.240    5.5819
   24.270    5.8978
   24.300    6.5649
   24.330    5.5994
   24.360    6.1085
   24.390    6.0909
   24.420    6.0734
   24.450    5.7574
   24.480    5.7574
   24.510    5.7399
   24.540    5.8452
   24.570    5.8627
   24.600    6.0383
   24.630    5.8101
   24.660    5.5292
   24.690    5.9681
   24.720    6.4244
   24.750    6.3367
   24.780    6.0207
   24.810    5.9856
   24.840    5.8452
   24.870    5.7223
   24.900    6.3016
   24.930    5.7399
   24.960    5.5643
   24.990    6.6526
   25.020    5.9154
   25.050    6.1436
   25.080    5.3712
   25.110    6.2489
   25.140    5.7223
   25.170    5.7574
   25.200    5.9154
   25.230    6.4946
   25.260    6.4244
   25.290    5.5468
   25.320    5.9505
   25.350    5.9505
   25.380    6.3718
   25.410    5.5117
   25.440    6.1260
   25.470    5.9681
   25.500    6.1085
   25.530    5.7750
   25.560    5.9856
   25.590    5.8101
   25.620    5.3010
   25.650    5.7574
   25.680    6.1436
   25.710    5.9329
   25.740    6.1787
   25.770    5.8452
   25.800    5.3888
   25.830    5.9329
   25.860    5.6521
   25.890    6.2665
   25.920    6.0032
   25.950    6.2489
   25.980    5.8978
   26.010    5.7750
   26.040    5.7925
   26.070    5.3712
   26.100    6.1260
   26.130    6.2138
   26.160    5.9681
   26.190    5.3888
   26.220    5.9154
   26.250    5.5468
   26.280    5.5643
   26.310    6.0558
   26.340    5.6170
   26.370    5.6345
   26.400    5.7925
   26.430    5.6521
   26.460    5.5819
   26.490    5.7048
   26.520    5.6872
   26.550    5.7048
   26.580    5.8627
   26.610    5.2835
   26.640    5.7925
   26.670    5.7574
   26.700    6.1436
   26.730    5.2308
   26.760    5.3537
   26.790    5.5117
   26.820    5.6345
   26.850    5.8101
   26.880    5.6521
   26.910    5.4415
   26.940    5.8978
   26.970    5.6345
   27.000    5.6521
   27.030    5.8627
   27.060    5.2659
   27.090    5.7750
   27.120    5.7048
   27.150    5.8276
   27.180    5.5994
   27.210    5.6697
   27.240    5.6872
   27.270    5.7925
   27.300    5.7048
   27.330    5.5117
   27.360    5.6521
   27.390    5.9505
   27.420    5.4941
   27.450    5.5468
   27.480    5.2308
   27.510    5.8452
   27.540    5.6521
   27.570    5.6697
   27.600    6.0383
   27.630    5.4941
   27.660    6.1787
   27.690    5.5643
   27.720    5.3361
   27.750    5.3010
   27.780    5.7399
   27.810    5.4766
   27.840    5.5468
   27.870    5.8978
   27.900    5.4590
   27.930    5.6521
   27.960    5.5643
   27.990    5.3712
   28.020    5.7399
   28.050    6.0207
   28.080    5.4766
   28.110    5.4941
   28.140    5.7048
   28.170    5.5643
   28.200    5.3361
   28.230    5.6521
   28.260    5.6170
   28.290    5.6521
   28.320    5.3361
   28.350    5.8452
   28.380    5.5994
   28.410    5.0904
   28.440    5.5292
   28.470    5.6697
   28.500    5.2835
   28.530    5.3361
   28.560    5.5117
   28.590    5.0553
   28.620    5.4415
   28.650    5.6521
   28.680    5.6521
   28.710    5.6521
   28.740    5.3712
   28.770    5.3888
   28.800    5.7399
   28.830    5.5819
   28.860    5.8101
   28.890    5.6697
   28.920    5.7925
   28.950    5.6872
   28.980    5.5117
   29.010    5.9329
   29.040    5.2308
   29.070    4.9324
   29.100    5.5819
   29.130    5.4941
   29.160    5.5117
   29.190    5.3186
   29.220    5.8978
   29.250    5.4766
   29.280    5.2835
   29.310    5.6170
   29.340    5.4239
   29.370    5.1431
   29.400    5.1782
   29.430    5.2133
   29.460    5.2659
   29.490    5.0377
   29.520    5.4239
   29.550    5.4415
   29.580    5.3537
   29.610    5.4064
   29.640    4.9851
   29.670    5.2308
   29.700    5.4239
   29.730    5.5117
   29.760    5.3010
   29.790    5.2835
   29.820    5.2835
   29.850    5.1782
   29.880    5.2484
   29.910    5.7399
   29.940    5.4415
   29.970    5.1606
   30.000    5.2133
   30.030    5.2308
   30.060    5.4941
   30.090    5.1957
   30.120    5.3010
   30.150    5.7399
   30.180    5.5468
   30.210    5.4941
   30.240    5.2133
   30.270    5.0202
   30.300    5.4064
   30.330    5.4064
   30.360    5.1782
   30.390    5.4239
   30.420    5.0904
   30.450    5.0728
   30.480    5.2659
   30.510    5.3888
   30.540    5.2133
   30.570    4.8798
   30.600    5.3186
   30.630    5.4941
   30.660    5.1606
   30.690    5.3010
   30.720    5.8276
   30.750    5.1957
   30.780    5.4239
   30.810    4.9675
   30.840    5.4415
   30.870    5.0728
   30.900    5.2308
   30.930    5.4766
   30.960    5.4941
   30.990    5.2484
   31.020    4.9324
   31.050    4.7920
   31.080    5.4766
   31.110    5.0553
   31.140    5.1782
   31.170    5.1431
   31.200    5.0202
   31.230    5.5468
   31.260    5.0377
   31.290    5.1606
   31.320    5.0202
   31.350    4.8271
   31.380    5.1080
   31.410    5.1431
   31.440    4.8447
   31.470    5.3186
   31.500    5.4415
   31.530    5.2308
   31.560    5.0202
   31.590    5.4590
   31.620    5.7399
   31.650    5.0202
   31.680    5.0202
   31.710    5.5117
   31.740    4.8622
   31.770    5.0553
   31.800    5.0553
   31.830    5.3010
   31.860    5.7750
   31.890    5.2835
   31.920    4.8095
   31.950    5.0377
   31.980    5.1957
   32.010    4.7569
   32.040    5.2308
   32.070    5.1606
   32.100    4.8622
   32.130    5.9329
   32.160    5.5117
   32.190    4.8798
   32.220    5.0904
   32.250    5.2484
   32.280    5.0553
   32.310    4.9851
   32.340    5.0202
   32.370    4.9500
   32.400    5.0904
   32.430    4.9675
   32.460    5.5994
   32.490    4.7744
   32.520    5.3712
   32.550    4.7569
   32.580    5.4415
   32.610    5.0377
   32.640    4.9851
   32.670    5.3186
   32.700    5.5643
   32.730    5.1606
   32.760    4.4409
   32.790    4.5989
   32.820    5.1255
   32.850    4.8622
   32.880    4.8271
   32.910    4.4760
   32.940    4.9324
   32.970    4.9149
   33.000    5.0202
   33.030    4.5814
   33.060    5.0202
   33.090    5.4766
   33.120    5.3888
   33.150    4.6867
   33.180    4.8447
   33.210    5.0026
   33.240    5.0377
   33.270    5.1255
   33.300    4.9149
   33.330    5.0026
   33.360    4.8271
   33.390    4.8622
   33.420    4.7218
   33.450    5.3186
   33.480    5.1080
   33.510    5.0202
   33.540    5.3537
   33.570    4.9324
   33.600    5.1431
   33.630    4.9851
   33.660    4.8622
   33.690    4.6516
   33.720    4.9149
   33.750    5.4239
   33.780    4.3181
   33.810    5.1080
   33.840    4.6867
   33.870    4.8271
   33.900    5.0553
   33.930    5.2835
   33.960    4.9500
   33.990    5.0377
   34.020    4.5814
   34.050    5.1255
   34.080    5.3361
   34.110    4.5989
   34.140    4.9324
   34.170    5.3186
   34.200    4.8447
   34.230    4.4936
   34.260    4.8095
   34.290    4.7744
   34.320    5.2659
   34.350    5.2308
   34.380    5.5117
   34.410    5.0904
   34.440    4.8798
   34.470    4.4585
   34.500    4.9675
   34.530    4.9675
   34.560    5.1782
   34.590    5.2659
   34.620    4.9675
   34.650    4.6516
   34.680    4.6691
   34.710    4.9149
   34.740    4.5814
   34.770    5.2659
   34.800    5.4064
   34.830    5.0553
   34.860    4.9675
   34.890    4.8973
   34.920    4.8973
   34.950    5.3186
   34.980    5.2835
   35.010    5.0377
   35.040    4.5287
   35.070    4.3005
   35.100    4.8622
   35.130    4.9149
   35.160    4.6691
   35.190    4.6340
   35.220    4.5287
   35.250    4.7393
   35.280    4.8798
   35.310    4.9500
   35.340    5.2133
   35.370    4.7218
   35.400    4.6340
   35.430    4.6867
   35.460    4.5463
   35.490    5.0202
   35.520    4.6867
   35.550    4.9149
   35.580    4.8095
   35.610    5.0026
   35.640    4.6340
   35.670    4.2830
   35.700    4.8095
   35.730    4.5638
   35.760    4.6165
   35.790    4.6867
   35.820    4.8271
   35.850    4.8622
   35.880    4.8973
   35.910    5.1782
   35.940    4.6867
   35.970    5.0377
   36.000    5.1080
   36.030    4.9675
   36.060    4.8798
   36.090    4.9500
   36.120    4.9324
   36.150    5.3537
   36.180    4.9851
   36.210    4.7569
   36.240    4.8798
   36.270    4.8622
   36.300    4.8447
   36.330    4.4936
   36.360    4.7218
   36.390    4.6165
   36.420    4.9500
   36.450    4.6867
   36.480    4.7920
   36.510    5.0202
   36.540    4.7393
   36.570    5.2308
   36.600    4.7218
   36.630    4.7744
   36.660    4.9500
   36.690    5.1080
   36.720    4.8798
   36.750    4.6340
   36.780    4.9149
   36.810    4.8271
   36.840    4.8973
   36.870    4.8271
   36.900    4.5463
   36.930    4.6691
   36.960    4.8447
   36.990    4.8095
   37.020    4.4936
   37.050    4.5111
   37.080    4.7744
   37.110    4.9500
   37.140    4.8973
   37.170    4.6340
   37.200    4.5814
   37.230    5.0202
   37.260    4.9500
   37.290    4.9324
   37.320    5.1782
   37.350    4.5989
   37.380    4.8447
   37.410    4.8622
   37.440    4.5287
   37.470    4.7569
   37.500    4.6165
   37.530    4.5463
   37.560    4.8271
   37.590    4.7218
   37.620    4.6867
   37.650    4.7218
   37.680    4.2654
   37.710    4.7042
   37.740    5.2659
   37.770    4.5638
   37.800    4.6165
   37.830    4.8973
   37.860    5.2659
   37.890    4.5638
   37.920    4.4936
   37.950    5.1606
   37.980    4.7393
   38.010    4.8447
   38.040    4.5638
   38.070    4.7744
   38.100    4.5463
   38.130    4.8447
   38.160    5.0904
   38.190    5.0728
   38.220    4.7218
   38.250    5.0904
   38.280    4.9149
   38.310    5.0553
   38.340    4.6516
   38.370    4.8095
   38.400    4.8798
   38.430    4.6516
   38.460    5.0728
   38.490    5.0904
   38.520    4.3181
   38.550    5.0553
   38.580    4.5814
   38.610    4.8095
   38.640    4.7920
   38.670    4.8271
   38.700    4.8095
   38.730    4.8622
   38.760    4.4585
   38.790    4.7218
   38.820    4.1601
   38.850    5.0202
   38.880    4.4409
   38.910    4.8622
   38.940    4.6867
   38.970    4.5463
   39.000    5.2133
   39.030    5.0553
   39.060    4.9324
   39.090    4.3356
   39.120    4.9675
   39.150    4.7218
   39.180    4.5814
   39.210    4.5463
   39.240    4.8798
   39.270    4.9675
   39.300    4.8622
   39.330    4.2303
   39.360    5.4064
   39.390    5.0553
   39.420    4.7569
   39.450    4.8447
   39.480    4.8622
   39.510    4.6340
   39.540    4.7218
   39.570    4.7042
   39.600    4.7744
   39.630    4.8973
   39.660    4.8798
   39.690    4.7744
   39.720    5.0377
   39.750    5.1080
   39.780    5.0728
   39.810    4.9149
   39.840    4.7042
   39.870    4.5463
   39.900    4.4409
   39.930    4.5814
   39.960    5.1431
   39.990    4.6516