File: data/PXRD/PXRD_KE-216_Co-Ka1_capillary-1mm_5s-deg.xyd
    1.500   17.6565
    1.530   17.6672
    1.560   16.9823
    1.590   15.8694
    1.620   15.7838
    1.650   15.2595
    1.680   14.4355
    1.710   13.6437
    1.740   13.1621
    1.770   13.0444
    1.800   11.9422
    1.830   11.8994
    1.860   11.1932
    1.890   11.3323
    1.920   10.0696
    1.950   10.5297
    1.980    9.7485
    2.010    9.5238
    2.040    8.9460
    2.070    8.9781
    2.100    8.6035
    2.130    7.9936
    2.160    7.2231
    2.190    7.2017
    2.220    6.6560
    2.250    7.4264
    2.280    6.5918
    2.310    6.6025
    2.340    6.1530
    2.370    5.8641
    2.400    5.8106
    2.430    5.8106
    2.460    5.6715
    2.490    5.4040
    2.520    5.3612
    2.550    4.9866
    2.580    4.7619
    2.610    5.0187
    2.640    4.7191
    2.670    4.2590
    2.700    4.4837
    2.730    4.5907
    2.760    4.5693
    2.790    4.0342
    2.820    3.8309
    2.850    3.9700
    2.880    3.8309
    2.910    4.0770
    2.940    3.8523
    2.970    3.6276
    3.000    3.5313
    3.030    3.7453
    3.060    3.7560
    3.090    3.7346
    3.120    3.5955
    3.150    3.7988
    3.180    3.8095
    3.210    3.6918
    3.240    3.9486
    3.270    3.6704
    3.300    3.7025
    3.330    3.9272
    3.360    3.8951
    3.390    3.8630
    3.420    3.7025
    3.450    4.0877
    3.480    4.1091
    3.510    4.1948
    3.540    4.6228
    3.570    4.6442
    3.600    4.4944
    3.630    4.7619
    3.660    4.6442
    3.690    5.1471
    3.720    5.3184
    3.750    5.8534
    3.780    6.5276
    3.810    6.5276
    3.840    7.2124
    3.870    7.5441
    3.900    8.6142
    3.930    9.8127
    3.960   10.4976
    3.990   12.3810
    4.020   14.4355
    4.050   13.4831
    4.080   10.3050
    4.110    7.3729
    4.140    5.4789
    4.170    4.7940
    4.200    4.2483
    4.230    3.7560
    4.260    3.6811
    4.290    3.8416
    4.320    3.6490
    4.350    3.7239
    4.380    3.5955
    4.410    3.8309
    4.440    3.8737
    4.470    3.8951
    4.500    4.3125
    4.530    4.7833
    4.560    4.7726
    4.590    4.7191
    4.620    5.2327
    4.650    5.3933
    4.680    5.5003
    4.710    5.3933
    4.740    5.8106
    4.770    5.3612
    4.800    5.3933
    4.830    5.0722
    4.860    4.6549
    4.890    4.6656
    4.920    4.5800
    4.950    4.0556
    4.980    3.5634
    5.010    3.6490
    5.040    2.7822
    5.070    3.0712
    5.100    2.6217
    5.130    2.4077
    5.160    2.1830
    5.190    2.0974
    5.220    1.9583
    5.250    1.6693
    5.280    1.6372
    5.310    1.5623
    5.340    1.5730
    5.370    1.4446
    5.400    1.6372
    5.430    1.4767
    5.460    1.5944
    5.490    1.5302
    5.520    1.3697
    5.550    1.4553
    5.580    1.4018
    5.610    1.3483
    5.640    1.5837
    5.670    1.3483
    5.700    1.3483
    5.730    1.2306
    5.760    1.1664
    5.790    1.2199
    5.820    1.0915
    5.850    1.0487
    5.880    1.2841
    5.910    1.1557
    5.940    1.2092
    5.970    1.3376
    6.000    1.1343
    6.030    1.0594
    6.060    1.1771
    6.090    1.1022
    6.120    1.0059
    6.150    1.2520
    6.180    1.3804
    6.210    1.0380
    6.240    1.2520
    6.270    1.1771
    6.300    0.8989
    6.330    1.1343
    6.360    0.9952
    6.390    1.1450
    6.420    1.0380
    6.450    1.0701
    6.480    1.0701
    6.510    1.0808
    6.540    1.1985
    6.570    1.1664
    6.600    1.1450
    6.630    1.1022
    6.660    1.1450
    6.690    1.1664
    6.720    1.0273
    6.750    1.0059
    6.780    1.1664
    6.810    1.2520
    6.840    1.0273
    6.870    1.1557
    6.900    1.1771
    6.930    0.9952
    6.960    1.1878
    6.990    1.2627
    7.020    0.8989
    7.050    1.1450
    7.080    1.1022
    7.110    0.9738
    7.140    1.2199
    7.170    1.0059
    7.200    1.1236
    7.230    0.9952
    7.260    1.0059
    7.290    1.0273
    7.320    1.1450
    7.350    1.0701
    7.380    1.1236
    7.410    1.0701
    7.440    1.1771
    7.470    1.1129
    7.500    1.0808
    7.530    1.0166
    7.560    1.0594
    7.590    1.2199
    7.620    1.1664
    7.650    1.1557
    7.680    1.1985
    7.710    1.0808
    7.740    1.2841
    7.770    1.1236
    7.800    1.2520
    7.830    1.3162
    7.860    1.2199
    7.890    1.4232
    7.920    1.5088
    7.950    1.4125
    7.980    1.7657
    8.010    1.9262
    8.040    1.9262
    8.070    2.3435
    8.100    2.0011
    8.130    2.2579
    8.160    1.6372
    8.190    1.6372
    8.220    1.2948
    8.250    1.1985
    8.280    1.1450
    8.310    1.0915
    8.340    1.3697
    8.370    1.1450
    8.400    1.1985
    8.430    1.1557
    8.460    1.2199
    8.490    1.1022
    8.520    1.1129
    8.550    1.0166
    8.580    1.0166
    8.610    1.0808
    8.640    1.2306
    8.670    1.1664
    8.700    1.1985
    8.730    1.1878
    8.760    1.2199
    8.790    1.1129
    8.820    1.0594
    8.850    1.1450
    8.880    1.1664
    8.910    1.2092
    8.940    1.0915
    8.970    1.1985
    9.000    1.1450
    9.030    1.1664
    9.060    1.3269
    9.090    1.1664
    9.120    1.2520
    9.150    1.3162
    9.180    1.0915
    9.210    1.0808
    9.240    1.2948
    9.270    1.2413
    9.300    1.4125
    9.330    1.4660
    9.360    1.3590
    9.390    1.3804
    9.420    1.4446
    9.450    1.3269
    9.480    1.5302
    9.510    1.3911
    9.540    1.3376
    9.570    1.6372
    9.600    1.2413
    9.630    1.1664
    9.660    1.2199
    9.690    1.3697
    9.720    1.3269
    9.750    1.2520
    9.780    1.2948
    9.810    1.4018
    9.840    1.3269
    9.870    1.2092
    9.900    1.2627
    9.930    1.3269
    9.960    1.3697
    9.990    1.4232
   10.020    1.2306
   10.050    1.3376
   10.080    1.3055
   10.110    1.2413
   10.140    1.0808
   10.170    1.2306
   10.200    1.2627
   10.230    1.0594
   10.260    1.0594
   10.290    1.2092
   10.320    1.0273
   10.350    1.1985
   10.380    1.0059
   10.410    1.2413
   10.440    1.0487
   10.470    1.1022
   10.500    1.0915
   10.530    1.1343
   10.560    1.2092
   10.590    1.1343
   10.620    1.3590
   10.650    1.1771
   10.680    1.2841
   10.710    1.0059
   10.740    1.1236
   10.770    0.9738
   10.800    1.1022
   10.830    0.9952
   10.860    1.1664
   10.890    1.0808
   10.920    1.1022
   10.950    1.0487
   10.980    1.0273
   11.010    1.0487
   11.040    1.1450
   11.070    1.1343
   11.100    1.0059
   11.130    1.2627
   11.160    1.0915
   11.190    1.1236
   11.220    1.0808
   11.250    1.1236
   11.280    1.0059
   11.310    0.9845
   11.340    0.9952
   11.370    1.0487
   11.400    0.9631
   11.430    1.0380
   11.460    1.0059
   11.490    1.1557
   11.520    0.8775
   11.550    1.0166
   11.580    0.9738
   11.610    1.0273
   11.640    1.0273
   11.670    1.0059
   11.700    1.0166
   11.730    1.1985
   11.760    0.9952
   11.790    1.0808
   11.820    1.0273
   11.850    1.0808
   11.880    1.0701
   11.910    0.8561
   11.940    1.0594
   11.970    1.0059
   12.000    1.1236
   12.030    1.1022
   12.060    1.0273
   12.090    1.1022
   12.120    1.0808
   12.150    1.1878
   12.180    1.1236
   12.210    1.0808
   12.240    1.0273
   12.270    1.0273
   12.300    1.0273
   12.330    0.9310
   12.360    0.9417
   12.390    0.9738
   12.420    0.9631
   12.450    1.0273
   12.480    1.0273
   12.510    1.0380
   12.540    0.9417
   12.570    1.0594
   12.600    1.0487
   12.630    1.0915
   12.660    0.7705
   12.690    1.0701
   12.720    1.0166
   12.750    1.0273
   12.780    1.0059
   12.810    1.0059
   12.840    1.1236
   12.870    0.9096
   12.900    0.8240
   12.930    1.0701
   12.960    0.9310
   12.990    1.0701
   13.020    1.1022
   13.050    1.0380
   13.080    1.0166
   13.110    0.9631
   13.140    1.1985
   13.170    0.9096
   13.200    1.0166
   13.230    1.0701
   13.260    0.9952
   13.290    1.0380
   13.320    0.9524
   13.350    0.8668
   13.380    0.8882
   13.410    1.0273
   13.440    0.9845
   13.470    0.9524
   13.500    0.9952
   13.530    0.9203
   13.560    0.9952
   13.590    0.8882
   13.620    0.9952
   13.650    0.9417
   13.680    1.1022
   13.710    0.9952
   13.740    1.0166
   13.770    1.0166
   13.800    1.0701
   13.830    0.7919
   13.860    1.0487
   13.890    0.9417
   13.920    0.9845
   13.950    1.0059
   13.980    0.9417
   14.010    0.8882
   14.040    1.0059
   14.070    1.0166
   14.100    1.0166
   14.130    0.9738
   14.160    1.0487
   14.190    1.0166
   14.220    1.0166
   14.250    1.0166
   14.280    0.9738
   14.310    1.0273
   14.340    0.9631
   14.370    1.0059
   14.400    1.0594
   14.430    0.9524
   14.460    0.9310
   14.490    1.0059
   14.520    0.9310
   14.550    0.8775
   14.580    1.1878
   14.610    1.0915
   14.640    1.1771
   14.670    0.9417
   14.700    0.9417
   14.730    0.9738
   14.760    0.9738
   14.790    1.0380
   14.820    0.9845
   14.850    1.0487
   14.880    0.9203
   14.910    0.8240
   14.940    1.0059
   14.970    1.0380
   15.000    1.0059
   15.030    1.0594
   15.060    0.9417
   15.090    0.9524
   15.120    0.9096
   15.150    0.9845
   15.180    1.0915
   15.210    0.9203
   15.240    1.0273
   15.270    0.9631
   15.300    0.9096
   15.330    0.9203
   15.360    0.9096
   15.390    0.9738
   15.420    0.8989
   15.450    1.0166
   15.480    0.9203
   15.510    0.9952
   15.540    1.0273
   15.570    0.9845
   15.600    0.9738
   15.630    0.9417
   15.660    0.9845
   15.690    0.9952
   15.720    0.9417
   15.750    1.0701
   15.780    0.8989
   15.810    0.8347
   15.840    0.9631
   15.870    0.9845
   15.900    0.9310
   15.930    0.8347
   15.960    1.0166
   15.990    0.8775
   16.020    0.9096
   16.050    0.8454
   16.080    0.9631
   16.110    0.8989
   16.140    0.7812
   16.170    0.8989
   16.200    1.0166
   16.230    0.9417
   16.260    0.8882
   16.290    0.9738
   16.320    0.9203
   16.350    0.9096
   16.380    1.0166
   16.410    0.9417
   16.440    1.0915
   16.470    0.9417
   16.500    0.8454
   16.530    1.0166
   16.560    0.9203
   16.590    0.9631
   16.620    0.9952
   16.650    1.0380
   16.680    0.9524
   16.710    0.8989
   16.740    0.8133
   16.770    0.9524
   16.800    1.0915
   16.830    0.9417
   16.860    0.8882
   16.890    0.9524
   16.920    0.9310
   16.950    0.9096
   16.980    0.8454
   17.010    0.9417
   17.040    0.9524
   17.070    1.0059
   17.100    0.9417
   17.130    1.0487
   17.160    0.8668
   17.190    0.9203
   17.220    0.9952
   17.250    0.9524
   17.280    0.9096
   17.310    0.9203
   17.340    0.9845
   17.370    0.9631
   17.400    0.9845
   17.430    0.9310
   17.460    0.9203
   17.490    1.0273
   17.520    0.9952
   17.550    0.9203
   17.580    0.9203
   17.610    0.9631
   17.640    0.9524
   17.670    1.0273
   17.700    1.0059
   17.730    0.8668
   17.760    1.1129
   17.790    0.9524
   17.820    0.7598
   17.850    0.7812
   17.880    0.8347
   17.910    1.1022
   17.940    1.0273
   17.970    0.8775
   18.000    0.8989
   18.030    0.9096
   18.060    0.8454
   18.090    0.8989
   18.120    1.0059
   18.150    0.8882
   18.180    0.9738
   18.210    0.9310
   18.240    1.0380
   18.270    0.8668
   18.300    1.0380
   18.330    0.9203
   18.360    0.8026
   18.390    0.9952
   18.420    0.9524
   18.450    0.8989
   18.480    1.0273
   18.510    0.7919
   18.540    0.7919
   18.570    0.9096
   18.600    0.8133
   18.630    0.9952
   18.660    0.8454
   18.690    1.0059
   18.720    0.9310
   18.750    0.9738
   18.780    0.8989
   18.810    0.8561
   18.840    0.8347
   18.870    0.9738
   18.900    0.8989
   18.930    1.0380
   18.960    0.8775
   18.990    0.9952
   19.020    0.9417
   19.050    0.9310
   19.080    1.0487
   19.110    0.9845
   19.140    0.9952
   19.170    0.9524
   19.200    0.9524
   19.230    0.8775
   19.260    1.0273
   19.290    0.9417
   19.320    0.9631
   19.350    0.9417
   19.380    1.0059
   19.410    1.0380
   19.440    0.9203
   19.470    1.0273
   19.500    0.8561
   19.530    0.7598
   19.560    1.0166
   19.590    1.1022
   19.620    1.0273
   19.650    0.9952
   19.680    1.2199
   19.710    1.0808
   19.740    0.8882
   19.770    0.9738
   19.800    0.9952
   19.830    0.8668
   19.860    0.9738
   19.890    1.0808
   19.920    1.1557
   19.950    0.8775
   19.980    0.8454
   20.010    0.8882
   20.040    0.8668
   20.070    1.0701
   20.100    0.9096
   20.130    0.8454
   20.160    0.8775
   20.190    0.9738
   20.220    1.0166
   20.250    1.0059
   20.280    1.0166
   20.310    0.8561
   20.340    0.9524
   20.370    1.0701
   20.400    0.8347
   20.430    0.9310
   20.460    1.0701
   20.490    0.9845
   20.520    0.8561
   20.550    0.9096
   20.580    1.0701
   20.610    1.1343
   20.640    0.8668
   20.670    0.9631
   20.700    1.0059
   20.730    0.8561
   20.760    0.9845
   20.790    0.9952
   20.820    0.9417
   20.850    1.0915
   20.880    1.1236
   20.910    1.0701
   20.940    1.1450
   20.970    1.1664
   21.000    1.2092
   21.030    1.1450
   21.060    1.2948
   21.090    0.9631
   21.120    1.1236
   21.150    1.0273
   21.180    1.0166
   21.210    0.8133
   21.240    0.9738
   21.270    0.9952
   21.300    0.9845
   21.330    1.0808
   21.360    0.8775
   21.390    0.9738
   21.420    0.8026
   21.450    0.8240
   21.480    0.9524
   21.510    0.9096
   21.540    1.0594
   21.570    1.0166
   21.600    0.8454
   21.630    0.9952
   21.660    1.0059
   21.690    0.8026
   21.720    0.9738
   21.750    0.9310
   21.780    0.9096
   21.810    1.0166
   21.840    0.9417
   21.870    0.9203
   21.900    0.8668
   21.930    0.8026
   21.960    1.0380
   21.990    1.1557
   22.020    0.8989
   22.050    1.1236
   22.080    1.0487
   22.110    0.8775
   22.140    0.8668
   22.170    0.8989
   22.200    0.9096
   22.230    0.9310
   22.260    0.8454
   22.290    1.0594
   22.320    0.8133
   22.350    0.9203
   22.380    1.0059
   22.410    0.9738
   22.440    0.8989
   22.470    0.9524
   22.500    1.1343
   22.530    1.0273
   22.560    1.1771
   22.590    0.9096
   22.620    0.9203
   22.650    1.1557
   22.680    0.9631
   22.710    0.9845
   22.740    0.8989
   22.770    0.9096
   22.800    0.9845
   22.830    1.0273
   22.860    1.0487
   22.890    1.0166
   22.920    0.9310
   22.950    0.9203
   22.980    1.0166
   23.010    1.0059
   23.040    1.0166
   23.070    1.0487
   23.100    0.9845
   23.130    1.0273
   23.160    0.9310
   23.190    0.9738
   23.220    1.1236
   23.250    1.0701
   23.280    1.0594
   23.310    0.8454
   23.340    0.9631
   23.370    0.8454
   23.400    0.9310
   23.430    1.1129
   23.460    1.0380
   23.490    0.9524
   23.520    1.0059
   23.550    1.0380
   23.580    0.9631
   23.610    0.9631
   23.640    0.9845
   23.670    0.9203
   23.700    0.9417
   23.730    0.8347
   23.760    1.0380
   23.790    0.9096
   23.820    1.0166
   23.850    1.1343
   23.880    0.9631
   23.910    0.9952
   23.940    0.9096
   23.970    0.9952
   24.000    1.0594
   24.030    1.0594
   24.060    0.9738
   24.090    0.9096
   24.120    0.8668
   24.150    1.1022
   24.180    1.0273
   24.210    0.9524
   24.240    0.9845
   24.270    0.9631
   24.300    1.0487
   24.330    1.0059
   24.360    0.9524
   24.390    0.9417
   24.420    0.9203
   24.450    1.0701
   24.480    1.0059
   24.510    1.1236
   24.540    0.9310
   24.570    0.9524
   24.600    1.2199
   24.630    1.0273
   24.660    1.0273
   24.690    1.0915
   24.720    0.9310
   24.750    0.8882
   24.780    0.9631
   24.810    0.9952
   24.840    0.9096
   24.870    1.0594
   24.900    0.8882
   24.930    1.1343
   24.960    0.9738
   24.990    0.9631
   25.020    1.0701
   25.050    0.9952
   25.080    0.9952
   25.110    1.0273
   25.140    0.9096
   25.170    0.8882
   25.200    1.0166
   25.230    0.9952
   25.260    0.9417
   25.290    0.9738
   25.320    0.9203
   25.350    1.0273
   25.380    0.8775
   25.410    0.9096
   25.440    0.9096
   25.470    0.9203
   25.500    1.0059
   25.530    0.9524
   25.560    1.0701
   25.590    1.0380
   25.620    0.8775
   25.650    0.9738
   25.680    0.9952
   25.710    0.9096
   25.740    1.0273
   25.770    1.0166
   25.800    1.1450
   25.830    0.9524
   25.860    0.8882
   25.890    1.0273
   25.920    0.9952
   25.950    0.9631
   25.980    0.9845
   26.010    1.0701
   26.040    0.8882
   26.070    0.9310
   26.100    0.7598
   26.130    1.0487
   26.160    0.9738
   26.190    0.8882
   26.220    1.0273
   26.250    0.8882
   26.280    0.9845
   26.310    0.8989
   26.340    0.8668
   26.370    1.0166
   26.400    0.9310
   26.430    0.8989
   26.460    1.0273
   26.490    0.7812
   26.520    0.9845
   26.550    0.8133
   26.580    0.8668
   26.610    0.9310
   26.640    0.9738
   26.670    0.9845
   26.700    0.9952
   26.730    0.9203
   26.760    0.9096
   26.790    0.8240
   26.820    0.9845
   26.850    0.8668
   26.880    0.9203
   26.910    0.9952
   26.940    0.8026
   26.970    0.9738
   27.000    1.0915
   27.030    0.9310
   27.060    0.7812
   27.090    1.0273
   27.120    0.8989
   27.150    0.8561
   27.180    0.7063
   27.210    0.8240
   27.240    0.9203
   27.270    0.8347
   27.300    0.8989
   27.330    0.9310
   27.360    0.8775
   27.390    0.8989
   27.420    0.8026
   27.450    0.8454
   27.480    0.8668
   27.510    1.0594
   27.540    0.9417
   27.570    0.7598
   27.600    0.9203
   27.630    0.8668
   27.660    0.9417
   27.690    1.0059
   27.720    0.8775
   27.750    0.8347
   27.780    0.9845
   27.810    0.8026
   27.840    0.9417
   27.870    0.7705
   27.900    0.9845
   27.930    0.7063
   27.960    0.8882
   27.990    0.7812
   28.020    0.8668
   28.050    0.8026
   28.080    0.8561
   28.110    0.7598
   28.140    0.8882
   28.170    0.9096
   28.200    0.8668
   28.230    0.8347
   28.260    0.7812
   28.290    0.8347
   28.320    0.8347
   28.350    0.8240
   28.380    0.8347
   28.410    0.8561
   28.440    0.6849
   28.470    0.8668
   28.500    0.7705
   28.530    0.8989
   28.560    0.8026
   28.590    0.8347
   28.620    0.9417
   28.650    0.7170
   28.680    0.9417
   28.710    0.9310
   28.740    0.8561
   28.770    0.8133
   28.800    0.8026
   28.830    0.8775
   28.860    0.8026
   28.890    0.7705
   28.920    0.7491
   28.950    0.7812
   28.980    0.9738
   29.010    0.8240
   29.040    0.7491
   29.070    0.7384
   29.100    0.8133
   29.130    0.8347
   29.160    0.8026
   29.190    0.8133
   29.220    0.7812
   29.250    0.9845
   29.280    0.9845
   29.310    0.7491
   29.340    0.6849
   29.370    0.8454
   29.400    0.8454
   29.430    0.8240
   29.460    0.7491
   29.490    0.8561
   29.520    0.7170
   29.550    0.9096
   29.580    0.9096
   29.610    0.8775
   29.640    0.7705
   29.670    0.7705
   29.700    0.7919
   29.730    0.7384
   29.760    0.9310
   29.790    0.6742
   29.820    0.7705
   29.850    0.6314
   29.880    0.7812
   29.910    0.8347
   29.940    0.8668
   29.970    0.7919
   30.000    0.8133
   30.030    0.7277
   30.060    0.7812
   30.090    0.7491
   30.120    0.7812
   30.150    0.8561
   30.180    0.8240
   30.210    0.7170
   30.240    0.7277
   30.270    0.7063
   30.300    0.8561
   30.330    0.8026
   30.360    0.7812
   30.390    0.7384
   30.420    0.7598
   30.450    0.7170
   30.480    0.6314
   30.510    0.6635
   30.540    0.7598
   30.570    0.6528
   30.600    0.7491
   30.630    0.8347
   30.660    0.6849
   30.690    0.6956
   30.720    0.8133
   30.750    0.6956
   30.780    0.6956
   30.810    0.7277
   30.840    0.6635
   30.870    0.7491
   30.900    0.5671
   30.930    0.7063
   30.960    0.5671
   30.990    0.6635
   31.020    0.7491
   31.050    0.6635
   31.080    0.6528
   31.110    0.6849
   31.140    0.8133
   31.170    0.6528
   31.200    0.6849
   31.230    0.6742
   31.260    0.7384
   31.290    0.6742
   31.320    0.7491
   31.350    0.6849
   31.380    0.7170
   31.410    0.5886
   31.440    0.6956
   31.470    0.7491
   31.500    0.6742
   31.530    0.6742
   31.560    0.8026
   31.590    0.7063
   31.620    0.6849
   31.650    0.7170
   31.680    0.6314
   31.710    0.7063
   31.740    0.6421
   31.770    0.7919
   31.800    0.7063
   31.830    0.8133
   31.860    0.6849
   31.890    0.6849
   31.920    0.6314
   31.950    0.6207
   31.980    0.7384
   32.010    0.7919
   32.040    0.6849
   32.070    0.6421
   32.100    0.6849
   32.130    0.7170
   32.160    0.5993
   32.190    0.6314
   32.220    0.7491
   32.250    0.8133
   32.280    0.6314
   32.310    0.6849
   32.340    0.7384
   32.370    0.5993
   32.400    0.7063
   32.430    0.6635
   32.460    0.6849
   32.490    0.7063
   32.520    0.7063
   32.550    0.7705
   32.580    0.6421
   32.610    0.5993
   32.640    0.6528
   32.670    0.7384
   32.700    0.6314
   32.730    0.4494
   32.760    0.6849
   32.790    0.7598
   32.820    0.7598
   32.850    0.6742
   32.880    0.8561
   32.910    0.6742
   32.940    0.8454
   32.970    0.7277
   33.000    0.5886
   33.030    0.6528
   33.060    0.5564
   33.090    0.6314
   33.120    0.6421
   33.150    0.5457
   33.180    0.5886
   33.210    0.7063
   33.240    0.5886
   33.270    0.5778
   33.300    0.7170
   33.330    0.5886
   33.360    0.6956
   33.390    0.5671
   33.420    0.6635
   33.450    0.5778
   33.480    0.5671
   33.510    0.5457
   33.540    0.5778
   33.570    0.5993
   33.600    0.6314
   33.630    0.6314
   33.660    0.4922
   33.690    0.6421
   33.720    0.6314
   33.750    0.5457
   33.780    0.6421
   33.810    0.5457
   33.840    0.5243
   33.870    0.7919
   33.900    0.5886
   33.930    0.6314
   33.960    0.6207
   33.990    0.6314
   34.020    0.6421
   34.050    0.5350
   34.080    0.5029
   34.110    0.4494
   34.140    0.5350
   34.170    0.6100
   34.200    0.5671
   34.230    0.6528
   34.260    0.6635
   34.290    0.7598
   34.320    0.6207
   34.350    0.6742
   34.380    0.6849
   34.410    0.6314
   34.440    0.6207
   34.470    0.5671
   34.500    0.6314
   34.530    0.5029
   34.560    0.6100
   34.590    0.6314
   34.620    0.5029
   34.650    0.7384
   34.680    0.6314
   34.710    0.6742
   34.740    0.5029
   34.770    0.6207
   34.800    0.6314
   34.830    0.6742
   34.860    0.5350
   34.890    0.4387
   34.920    0.5564
   34.950    0.5564
   34.980    0.5886
   35.010    0.4922
   35.040    0.5136
   35.070    0.5778
   35.100    0.5886
   35.130    0.5886
   35.160    0.5886
   35.190    0.6742
   35.220    0.5671
   35.250    0.5136
   35.280    0.5029
   35.310    0.6421
   35.340    0.5457
   35.370    0.7170
   35.400    0.5457
   35.430    0.3638
   35.460    0.4815
   35.490    0.6421
   35.520    0.6528
   35.550    0.5243
   35.580    0.6100
   35.610    0.6100
   35.640    0.5778
   35.670    0.6314
   35.700    0.5778
   35.730    0.5243
   35.760    0.5778
   35.790    0.5457
   35.820    0.4708
   35.850    0.6635
   35.880    0.5136
   35.910    0.4708
   35.940    0.5350
   35.970    0.5029
   36.000    0.5671
   36.030    0.5457
   36.060    0.4922
   36.090    0.5029
   36.120    0.5457
   36.150    0.4066
   36.180    0.4922
   36.210    0.4922
   36.240    0.5243
   36.270    0.5778
   36.300    0.5029
   36.330    0.6314
   36.360    0.5886
   36.390    0.5564
   36.420    0.4922
   36.450    0.5029
   36.480    0.5350
   36.510    0.5564
   36.540    0.4708
   36.570    0.5457
   36.600    0.4922
   36.630    0.4601
   36.660    0.4922
   36.690    0.5564
   36.720    0.5029
   36.750    0.3852
   36.780    0.5564
   36.810    0.4815
   36.840    0.4601
   36.870    0.5136
   36.900    0.5457
   36.930    0.4387
   36.960    0.5457
   36.990    0.4922
   37.020    0.5993
   37.050    0.5243
   37.080    0.5886
   37.110    0.5564
   37.140    0.4708
   37.170    0.4708
   37.200    0.5243
   37.230    0.5671
   37.260    0.4815
   37.290    0.4387
   37.320    0.4922
   37.350    0.4815
   37.380    0.5029
   37.410    0.5243
   37.440    0.4922
   37.470    0.4494
   37.500    0.4922
   37.530    0.5350
   37.560    0.4708
   37.590    0.4280
   37.620    0.5886
   37.650    0.5350
   37.680    0.5671
   37.710    0.6635
   37.740    0.4815
   37.770    0.5029
   37.800    0.4815
   37.830    0.5350
   37.860    0.5136
   37.890    0.4387
   37.920    0.4922
   37.950    0.4173
   37.980    0.5029
   38.010    0.5457
   38.040    0.4601
   38.070    0.4494
   38.100    0.4173
   38.130    0.5136
   38.160    0.4815
   38.190    0.4815
   38.220    0.4708
   38.250    0.3959
   38.280    0.5243
   38.310    0.4494
   38.340    0.5136
   38.370    0.4387
   38.400    0.4922
   38.430    0.5350
   38.460    0.5029
   38.490    0.4387
   38.520    0.3852
   38.550    0.5457
   38.580    0.4601
   38.610    0.5671
   38.640    0.4494
   38.670    0.5886
   38.700    0.5350
   38.730    0.4280
   38.760    0.5564
   38.790    0.3959
   38.820    0.4815
   38.850    0.4601
   38.880    0.4066
   38.910    0.4173
   38.940    0.6100
   38.970    0.5029
   39.000    0.5243
   39.030    0.5564
   39.060    0.4173
   39.090    0.4601
   39.120    0.4815
   39.150    0.5136
   39.180    0.4494
   39.210    0.5029
   39.240    0.5136
   39.270    0.4280
   39.300    0.5350
   39.330    0.4387
   39.360    0.4280
   39.390    0.4922
   39.420    0.4815
   39.450    0.3210
   39.480    0.3424
   39.510    0.4066
   39.540    0.4494
   39.570    0.4494
   39.600    0.3959
   39.630    0.3317
   39.660    0.3317
   39.690    0.3531
   39.720    0.3852
   39.750    0.4708
   39.780    0.5886
   39.810    0.4280
   39.840    0.5029
   39.870    0.5671
   39.900    0.4387
   39.930    0.3745
   39.960    0.4280
   39.990    0.3959