File: data/PXRD/PXRD_KE-296_Cu-Ka1_film-3mm_3s-deg.xyd
    1.500   13.7792
    1.530   13.6914
    1.560   13.3228
    1.590   12.5680
    1.620   12.6909
    1.650   12.6382
    1.680   12.5856
    1.710   11.7957
    1.740   11.5499
    1.770   11.4095
    1.800   11.4797
    1.830   10.9882
    1.860   10.8654
    1.890   10.9531
    1.920   10.2510
    1.950   10.2861
    1.980    9.7420
    2.010    9.8122
    2.040    9.9526
    2.070    9.6718
    2.100    9.5489
    2.130    9.6191
    2.160    9.3734
    2.190    9.8122
    2.220    9.6893
    2.250    9.1978
    2.280    8.6010
    2.310    9.4962
    2.340    8.9521
    2.370    8.4255
    2.400    8.3377
    2.430    8.6712
    2.460    8.1446
    2.490    8.4606
    2.520    8.3553
    2.550    8.0393
    2.580    8.0920
    2.610    8.3728
    2.640    8.1095
    2.670    7.5127
    2.700    8.1271
    2.730    7.3196
    2.760    7.7234
    2.790    7.8462
    2.820    7.6883
    2.850    7.9867
    2.880    7.9164
    2.910    7.8287
    2.940    8.3377
    2.970    8.1271
    3.000    7.5478
    3.030    7.5478
    3.060    7.3899
    3.090    7.6180
    3.120    8.2324
    3.150    7.2670
    3.180    7.6532
    3.210    7.6883
    3.240    7.4601
    3.270    8.2675
    3.300    8.3026
    3.330    8.6361
    3.360    8.1271
    3.390    8.2324
    3.420    9.1276
    3.450    8.8292
    3.480    8.9521
    3.510   10.0228
    3.540    9.0574
    3.570   10.2861
    3.600   10.4090
    3.630   11.1638
    3.660   12.1643
    3.690   11.9361
    3.720   13.4457
    3.750   14.9552
    3.780   16.9914
    3.810   19.5893
    3.840   25.9259
    3.870   23.6440
    3.900   17.8339
    3.930    9.4260
    3.960    8.4781
    3.990    7.9340
    4.020    7.5478
    4.050    7.6356
    4.080    7.5478
    4.110    7.1617
    4.140    7.3899
    4.170    7.7936
    4.200    7.0563
    4.230    6.9686
    4.260    7.7760
    4.290    7.4952
    4.320    7.1266
    4.350    7.7760
    4.380    7.1792
    4.410    7.1266
    4.440    7.1617
    4.470    7.4601
    4.500    7.2494
    4.530    7.3021
    4.560    7.4952
    4.590    6.9510
    4.620    7.3372
    4.650    7.5127
    4.680    7.5654
    4.710    7.6005
    4.740    6.9510
    4.770    7.0739
    4.800    8.0920
    4.830    7.8462
    4.860    7.9516
    4.890    7.5478
    4.920    7.7234
    4.950    8.4255
    4.980    8.1446
    5.010    8.1095
    5.040    7.7585
    5.070    8.4606
    5.100    8.5308
    5.130    9.2856
    5.160    9.0750
    5.190    9.2154
    5.220    9.7244
    5.250    9.7420
    5.280   10.3388
    5.310   10.6021
    5.340   11.2340
    5.370   11.4797
    5.400   12.3223
    5.430   13.5334
    5.460   15.5169
    5.490   15.2536
    5.520   13.3579
    5.550   10.9356
    5.580   10.3563
    5.610   10.1457
    5.640   10.0053
    5.670    9.5664
    5.700    9.5840
    5.730    9.2856
    5.760    9.3909
    5.790    9.0750
    5.820    8.7590
    5.850    8.0218
    5.880    8.3202
    5.910    7.8462
    5.940    7.9164
    5.970    7.2670
    6.000    7.1792
    6.030    7.6180
    6.060    7.2319
    6.090    7.4425
    6.120    7.3723
    6.150    7.7234
    6.180    6.8984
    6.210    6.9335
    6.240    7.4250
    6.270    6.6000
    6.300    7.2494
    6.330    7.8287
    6.360    7.2494
    6.390    7.0037
    6.420    7.1441
    6.450    6.8808
    6.480    6.4771
    6.510    6.9861
    6.540    7.0037
    6.570    7.0563
    6.600    7.5829
    6.630    7.6883
    6.660    7.4074
    6.690    8.5659
    6.720    9.8122
    6.750    9.0750
    6.780    7.6005
    6.810    6.1436
    6.840    6.0909
    6.870    6.2138
    6.900    6.3893
    6.930    6.2665
    6.960    6.1611
    6.990    5.9505
    7.020    6.1787
    7.050    5.8978
    7.080    5.8101
    7.110    5.9505
    7.140    6.0032
    7.170    6.0032
    7.200    5.8803
    7.230    6.0032
    7.260    5.8276
    7.290    5.6170
    7.320    5.2133
    7.350    5.4766
    7.380    5.0377
    7.410    5.3712
    7.440    5.3537
    7.470    5.5468
    7.500    5.3361
    7.530    5.5994
    7.560    6.0558
    7.590    5.8978
    7.620    5.5643
    7.650    5.6521
    7.680    5.4590
    7.710    5.4590
    7.740    6.3367
    7.770    6.6526
    7.800    5.9505
    7.830    5.6872
    7.860    5.2308
    7.890    4.9500
    7.920    4.7218
    7.950    5.0026
    7.980    4.8973
    8.010    4.9675
    8.040    5.1080
    8.070    4.9851
    8.100    5.0553
    8.130    5.1255
    8.160    4.6867
    8.190    4.5287
    8.220    4.4585
    8.250    4.5989
    8.280    4.6340
    8.310    4.6867
    8.340    4.5814
    8.370    4.6340
    8.400    4.9675
    8.430    4.5814
    8.460    4.9500
    8.490    5.0026
    8.520    4.6165
    8.550    4.6691
    8.580    4.4234
    8.610    4.3181
    8.640    4.5463
    8.670    4.6340
    8.700    4.7920
    8.730    4.7042
    8.760    4.6165
    8.790    4.1074
    8.820    4.5111
    8.850    4.1776
    8.880    4.7393
    8.910    4.4409
    8.940    4.3532
    8.970    4.5989
    9.000    4.4409
    9.030    4.4234
    9.060    4.5814
    9.090    4.4409
    9.120    4.4234
    9.150    3.8792
    9.180    4.3005
    9.210    4.1776
    9.240    4.3883
    9.270    4.5814
    9.300    4.7569
    9.330    5.0553
    9.360    4.6867
    9.390    5.2484
    9.420    4.8447
    9.450    5.5643
    9.480    6.0207
    9.510    7.7058
    9.540    8.5484
    9.570    7.2845
    9.600    5.6521
    9.630    4.7920
    9.660    4.2303
    9.690    4.3356
    9.720    4.3356
    9.750    4.5463
    9.780    4.0372
    9.810    4.9851
    9.840    4.3707
    9.870    4.5287
    9.900    4.5814
    9.930    4.4409
    9.960    4.3532
    9.990    4.2127
   10.020    4.3005
   10.050    4.6340
   10.080    4.2478
   10.110    4.5287
   10.140    4.5989
   10.170    4.3707
   10.200    4.3707
   10.230    4.9675
   10.260    4.9851
   10.290    5.6170
   10.320    6.7404
   10.350    5.5117
   10.380    5.0904
   10.410    4.6165
   10.440    4.3181
   10.470    4.2303
   10.500    4.2830
   10.530    4.2303
   10.560    4.3181
   10.590    3.8792
   10.620    4.5638
   10.650    4.3532
   10.680    4.3532
   10.710    4.5111
   10.740    4.3883
   10.770    4.3005
   10.800    4.9324
   10.830    4.5814
   10.860    4.6340
   10.890    5.0026
   10.920    5.0377
   10.950    5.1782
   10.980    5.3712
   11.010    6.1260
   11.040    6.2138
   11.070    5.6521
   11.100    4.7569
   11.130    4.5111
   11.160    4.6340
   11.190    4.8973
   11.220    5.0202
   11.250    4.4409
   11.280    4.4760
   11.310    4.8622
   11.340    4.7744
   11.370    4.9149
   11.400    4.3356
   11.430    4.3707
   11.460    4.8447
   11.490    4.4936
   11.520    4.8798
   11.550    4.6867
   11.580    4.9324
   11.610    5.3361
   11.640    4.9149
   11.670    5.8452
   11.700    6.3718
   11.730    6.1611
   11.760    5.2835
   11.790    5.0026
   11.820    4.7393
   11.850    4.5638
   11.880    4.5638
   11.910    4.5287
   11.940    4.8973
   11.970    4.5814
   12.000    4.7042
   12.030    4.6691
   12.060    4.6516
   12.090    4.2830
   12.120    4.4409
   12.150    4.3707
   12.180    4.0899
   12.210    4.5111
   12.240    3.9670
   12.270    4.3883
   12.300    4.3707
   12.330    4.6691
   12.360    4.7744
   12.390    4.5111
   12.420    4.5814
   12.450    4.2830
   12.480    4.3707
   12.510    4.1952
   12.540    4.5463
   12.570    4.3181
   12.600    4.4058
   12.630    4.2830
   12.660    4.5287
   12.690    4.4409
   12.720    4.1601
   12.750    4.0372
   12.780    4.4409
   12.810    4.6516
   12.840    4.6516
   12.870    4.5463
   12.900    4.8095
   12.930    5.1431
   12.960    4.9675
   12.990    4.8973
   13.020    4.6165
   13.050    4.5989
   13.080    4.0723
   13.110    4.0197
   13.140    4.1952
   13.170    4.0723
   13.200    4.4409
   13.230    4.4760
   13.260    3.8617
   13.290    4.3707
   13.320    4.1776
   13.350    4.0899
   13.380    4.0899
   13.410    4.3883
   13.440    4.6516
   13.470    4.8271
   13.500    4.8622
   13.530    5.1957
   13.560    4.8798
   13.590    4.6516
   13.620    4.4234
   13.650    4.0197
   13.680    4.2127
   13.710    4.5814
   13.740    4.5287
   13.770    4.3883
   13.800    4.0372
   13.830    4.1250
   13.860    4.4760
   13.890    4.4058
   13.920    4.5814
   13.950    4.3707
   13.980    4.5287
   14.010    4.4234
   14.040    4.5287
   14.070    5.6521
   14.100    5.6697
   14.130    4.8798
   14.160    4.3707
   14.190    4.5989
   14.220    4.8622
   14.250    4.8973
   14.280    4.7042
   14.310    4.3532
   14.340    4.5287
   14.370    4.9851
   14.400    4.4585
   14.430    5.0026
   14.460    4.7042
   14.490    4.8622
   14.520    5.0026
   14.550    4.3883
   14.580    4.2127
   14.610    4.5638
   14.640    4.3181
   14.670    5.1606
   14.700    4.3005
   14.730    4.1601
   14.760    4.7393
   14.790    4.7569
   14.820    5.0728
   14.850    4.5638
   14.880    4.5814
   14.910    4.2830
   14.940    4.4234
   14.970    4.2303
   15.000    4.3181
   15.030    4.2830
   15.060    4.1952
   15.090    4.5463
   15.120    4.8271
   15.150    4.1601
   15.180    4.4760
   15.210    4.0548
   15.240    4.4585
   15.270    4.0723
   15.300    4.0899
   15.330    4.3356
   15.360    4.4760
   15.390    3.8968
   15.420    4.3707
   15.450    4.3883
   15.480    4.3707
   15.510    4.3707
   15.540    4.3883
   15.570    4.2830
   15.600    4.0372
   15.630    4.3181
   15.660    4.0021
   15.690    4.2830
   15.720    3.8090
   15.750    4.4585
   15.780    4.5463
   15.810    4.0197
   15.840    3.8266
   15.870    3.9846
   15.900    4.3181
   15.930    4.3356
   15.960    4.7920
   15.990    4.1425
   16.020    4.4936
   16.050    3.8266
   16.080    4.4058
   16.110    3.6510
   16.140    4.7744
   16.170    4.5111
   16.200    4.0548
   16.230    4.2127
   16.260    4.3005
   16.290    3.9670
   16.320    4.4936
   16.350    4.1250
   16.380    4.4234
   16.410    4.5814
   16.440    4.1074
   16.470    4.1074
   16.500    4.2127
   16.530    4.0548
   16.560    4.1776
   16.590    4.3707
   16.620    4.3883
   16.650    4.3181
   16.680    4.1250
   16.710    4.2303
   16.740    4.0548
   16.770    4.4585
   16.800    4.2654
   16.830    4.0197
   16.860    3.9319
   16.890    4.0548
   16.920    4.1601
   16.950    3.9846
   16.980    4.3181
   17.010    4.5814
   17.040    4.3181
   17.070    5.2835
   17.100    4.4760
   17.130    4.4585
   17.160    4.4409
   17.190    3.9670
   17.220    3.9846
   17.250    4.0548
   17.280    3.7564
   17.310    4.3005
   17.340    3.8792
   17.370    4.7042
   17.400    4.4058
   17.430    4.0723
   17.460    4.3532
   17.490    4.0723
   17.520    3.7915
   17.550    4.5111
   17.580    4.1952
   17.610    4.3356
   17.640    3.8792
   17.670    3.7213
   17.700    4.3181
   17.730    3.9670
   17.760    4.0899
   17.790    4.0372
   17.820    4.0899
   17.850    4.3707
   17.880    4.6691
   17.910    4.0021
   17.940    4.8447
   17.970    4.4058
   18.000    4.8622
   18.030    4.1952
   18.060    4.5463
   18.090    4.6867
   18.120    4.6691
   18.150    3.9846
   18.180    4.1952
   18.210    4.3356
   18.240    3.9846
   18.270    3.9143
   18.300    3.9846
   18.330    4.4058
   18.360    4.1074
   18.390    4.6867
   18.420    4.3356
   18.450    4.1425
   18.480    3.9846
   18.510    3.9143
   18.540    3.8090
   18.570    4.3181
   18.600    4.1250
   18.630    3.9319
   18.660    4.1952
   18.690    4.4585
   18.720    4.1074
   18.750    4.5287
   18.780    4.4058
   18.810    3.7739
   18.840    4.5287
   18.870    4.1250
   18.900    4.1601
   18.930    4.7744
   18.960    5.5117
   18.990    5.2308
   19.020    5.0553
   19.050    4.4936
   19.080    3.5457
   19.110    4.2303
   19.140    3.7037
   19.170    3.5282
   19.200    3.8792
   19.230    3.9494
   19.260    3.5457
   19.290    4.2127
   19.320    3.6159
   19.350    3.8968
   19.380    3.6159
   19.410    4.0899
   19.440    4.2127
   19.470    4.3707
   19.500    4.0723
   19.530    4.4936
   19.560    3.8441
   19.590    4.2303
   19.620    4.1425
   19.650    4.2478
   19.680    4.2830
   19.710    4.2303
   19.740    4.0548
   19.770    4.0372
   19.800    3.9143
   19.830    3.9319
   19.860    3.9670
   19.890    4.2654
   19.920    3.8266
   19.950    4.1250
   19.980    4.0197
   20.010    3.6862
   20.040    3.9846
   20.070    3.8441
   20.100    4.3707
   20.130    3.8090
   20.160    3.6862
   20.190    3.6510
   20.220    4.1776
   20.250    4.1074
   20.280    3.7388
   20.310    3.8968
   20.340    4.1074
   20.370    3.8617
   20.400    4.0899
   20.430    4.1250
   20.460    3.5984
   20.490    3.7564
   20.520    3.7213
   20.550    3.9143
   20.580    3.2473
   20.610    3.4580
   20.640    3.5633
   20.670    3.8266
   20.700    3.7037
   20.730    3.6510
   20.760    3.8441
   20.790    4.0021
   20.820    3.5106
   20.850    3.5808
   20.880    3.4404
   20.910    3.8090
   20.940    3.5633
   20.970    3.4580
   21.000    3.9494
   21.030    3.8266
   21.060    3.3351
   21.090    3.7037
   21.120    3.8968
   21.150    3.4755
   21.180    3.5984
   21.210    3.6510
   21.240    3.5457
   21.270    3.8090
   21.300    4.0021
   21.330    3.7915
   21.360    3.8792
   21.390    3.8441
   21.420    3.4580
   21.450    3.6510
   21.480    3.7213
   21.510    3.3877
   21.540    3.4755
   21.570    3.8792
   21.600    3.8266
   21.630    3.3526
   21.660    3.5808
   21.690    3.3702
   21.720    3.8792
   21.750    3.5106
   21.780    3.9670
   21.810    3.4931
   21.840    3.7739
   21.870    3.9494
   21.900    3.3175
   21.930    3.3877
   21.960    3.7739
   21.990    3.7213
   22.020    3.5633
   22.050    3.3877
   22.080    3.2649
   22.110    3.3351
   22.140    3.4931
   22.170    3.8090
   22.200    3.7739
   22.230    4.0021
   22.260    3.7739
   22.290    3.5633
   22.320    3.5282
   22.350    3.9143
   22.380    3.2824
   22.410    3.7213
   22.440    3.3526
   22.470    3.5808
   22.500    3.6159
   22.530    3.6686
   22.560    4.1952
   22.590    4.3883
   22.620    4.2654
   22.650    3.7037
   22.680    3.1596
   22.710    3.2473
   22.740    3.0893
   22.770    3.4931
   22.800    3.5106
   22.830    3.3000
   22.860    3.1947
   22.890    3.7388
   22.920    3.9494
   22.950    4.0372
   22.980    4.2303
   23.010    3.6510
   23.040    3.5282
   23.070    3.4931
   23.100    3.8441
   23.130    3.4580
   23.160    3.7388
   23.190    3.4229
   23.220    3.4053
   23.250    4.0548
   23.280    3.1771
   23.310    3.0718
   23.340    3.2649
   23.370    3.3000
   23.400    3.0718
   23.430    3.4053
   23.460    3.1771
   23.490    3.2649
   23.520    3.2649
   23.550    3.2298
   23.580    3.9494
   23.610    3.3702
   23.640    3.6686
   23.670    3.2473
   23.700    3.2298
   23.730    3.2649
   23.760    3.3526
   23.790    3.1596
   23.820    3.2649
   23.850    3.5457
   23.880    3.3526
   23.910    3.2649
   23.940    3.2122
   23.970    3.3877
   24.000    3.0191
   24.030    3.0893
   24.060    3.3351
   24.090    3.0191
   24.120    3.3000
   24.150    3.1771
   24.180    3.0718
   24.210    3.1420
   24.240    3.3526
   24.270    3.3000
   24.300    3.1947
   24.330    3.2824
   24.360    3.2122
   24.390    3.1245
   24.420    3.1420
   24.450    2.8963
   24.480    3.0016
   24.510    3.1596
   24.540    2.9489
   24.570    2.8085
   24.600    2.8612
   24.630    3.3351
   24.660    3.1596
   24.690    3.2298
   24.720    2.9489
   24.750    3.0191
   24.780    3.0542
   24.810    3.2473
   24.840    3.4931
   24.870    3.0191
   24.900    3.3526
   24.930    2.9314
   24.960    3.0016
   24.990    3.1596
   25.020    3.4053
   25.050    3.1947
   25.080    2.7734
   25.110    2.9489
   25.140    3.0893
   25.170    3.1420
   25.200    3.2122
   25.230    2.9840
   25.260    3.0893
   25.290    3.3877
   25.320    2.8963
   25.350    3.2473
   25.380    2.6330
   25.410    2.9314
   25.440    3.0718
   25.470    3.2298
   25.500    3.1069
   25.530    3.0718
   25.560    3.5282
   25.590    3.2824
   25.620    2.9840
   25.650    3.2122
   25.680    3.3351
   25.710    2.9840
   25.740    3.5457
   25.770    3.0367
   25.800    3.5106
   25.830    3.1245
   25.860    3.2298
   25.890    3.0893
   25.920    3.1771
   25.950    3.0893
   25.980    2.6154
   26.010    3.0016
   26.040    2.6681
   26.070    3.1596
   26.100    3.2473
   26.130    3.0542
   26.160    2.9314
   26.190    3.0718
   26.220    3.1596
   26.250    2.8436
   26.280    3.2122
   26.310    3.1771
   26.340    2.8436
   26.370    3.2824
   26.400    3.0718
   26.430    2.9138
   26.460    2.9665
   26.490    2.6856
   26.520    2.9314
   26.550    2.6154
   26.580    3.0893
   26.610    2.8787
   26.640    2.5979
   26.670    2.8436
   26.700    2.6856
   26.730    2.8260
   26.760    3.1947
   26.790    2.5803
   26.820    3.1069
   26.850    2.5276
   26.880    2.7909
   26.910    2.9840
   26.940    2.8436
   26.970    2.4574
   27.000    2.6330
   27.030    2.9314
   27.060    3.2824
   27.090    2.7909
   27.120    2.8787
   27.150    2.6154
   27.180    2.8085
   27.210    2.8963
   27.240    2.8787
   27.270    2.7207
   27.300    2.4399
   27.330    2.8612
   27.360    2.7032
   27.390    2.8612
   27.420    2.5452
   27.450    2.8085
   27.480    2.5101
   27.510    2.9665
   27.540    2.9314
   27.570    2.7734
   27.600    2.7207
   27.630    2.9314
   27.660    2.8260
   27.690    2.6330
   27.720    2.9665
   27.750    2.7383
   27.780    2.9138
   27.810    2.7558
   27.840    2.8085
   27.870    2.4750
   27.900    2.9665
   27.930    2.5276
   27.960    3.3702
   27.990    4.2478
   28.020    4.2830
   28.050    3.0893
   28.080    3.1069
   28.110    2.6330
   28.140    2.7734
   28.170    2.6681
   28.200    2.8963
   28.230    2.7032
   28.260    2.6154
   28.290    2.7032
   28.320    2.5276
   28.350    2.6681
   28.380    2.7383
   28.410    2.7383
   28.440    2.9665
   28.470    2.5803
   28.500    2.7032
   28.530    2.8436
   28.560    2.7383
   28.590    2.6505
   28.620    2.6681
   28.650    2.8260
   28.680    2.5979
   28.710    2.6856
   28.740    2.4048
   28.770    2.7207
   28.800    2.6330
   28.830    2.4223
   28.860    2.5803
   28.890    3.1771
   28.920    3.7564
   28.950    5.2659
   28.980    5.1080
   29.010    3.6510
   29.040    2.7558
   29.070    2.6856
   29.100    2.6154
   29.130    2.7734
   29.160    2.4750
   29.190    2.7383
   29.220    2.7032
   29.250    2.5979
   29.280    2.5276
   29.310    2.6681
   29.340    2.5979
   29.370    2.3697
   29.400    2.5101
   29.430    2.3697
   29.460    2.2292
   29.490    2.4223
   29.520    2.5101
   29.550    2.4750
   29.580    2.4223
   29.610    2.4399
   29.640    2.1415
   29.670    2.3346
   29.700    2.6330
   29.730    2.5979
   29.760    2.4750
   29.790    2.7909
   29.820    2.4048
   29.850    2.0537
   29.880    2.5101
   29.910    2.2819
   29.940    2.4399
   29.970    2.1941
   30.000    2.3346
   30.030    2.4223
   30.060    2.2643
   30.090    2.2292
   30.120    2.3346
   30.150    2.2643
   30.180    2.2819
   30.210    2.1415
   30.240    2.5101
   30.270    2.0888
   30.300    2.2117
   30.330    2.0888
   30.360    2.3346
   30.390    2.4750
   30.420    2.1941
   30.450    2.3170
   30.480    2.1766
   30.510    1.8957
   30.540    2.1590
   30.570    2.2643
   30.600    1.8957
   30.630    2.2292
   30.660    2.2995
   30.690    2.3170
   30.720    2.4223
   30.750    2.3346
   30.780    2.1590
   30.810    2.2292
   30.840    2.4574
   30.870    2.2117
   30.900    1.9484
   30.930    2.2819
   30.960    2.0537
   30.990    2.2468
   31.020    2.1239
   31.050    2.3170
   31.080    2.1415
   31.110    2.2292
   31.140    2.1239
   31.170    2.4750
   31.200    1.7729
   31.230    2.0888
   31.260    2.0537
   31.290    2.2643
   31.320    2.1239
   31.350    1.8431
   31.380    2.0713
   31.410    2.1590
   31.440    1.8255
   31.470    2.2117
   31.500    2.0537
   31.530    1.9659
   31.560    1.9835
   31.590    1.8782
   31.620    2.0011
   31.650    2.1941
   31.680    2.1239
   31.710    2.3170
   31.740    2.2995
   31.770    2.4048
   31.800    2.7032
   31.830    2.6681
   31.860    2.4399
   31.890    2.1239
   31.920    2.0362
   31.950    1.9484
   31.980    2.3521
   32.010    2.3170
   32.040    3.3702
   32.070    5.3888
   32.100    6.0383
   32.130    4.6867
   32.160    3.2298
   32.190    2.4399
   32.220    2.1941
   32.250    2.2819
   32.280    1.9835
   32.310    1.7904
   32.340    1.9659
   32.370    1.6851
   32.400    2.2292
   32.430    1.7202
   32.460    2.2468
   32.490    2.1415
   32.520    1.9835
   32.550    1.9308
   32.580    2.1064
   32.610    2.0888
   32.640    2.0186
   32.670    1.9835
   32.700    1.8080
   32.730    1.7202
   32.760    1.5271
   32.790    1.7027
   32.820    2.3170
   32.850    2.0362
   32.880    2.0011
   32.910    2.0537
   32.940    1.9659
   32.970    1.9659
   33.000    2.2468
   33.030    1.8782
   33.060    2.0011
   33.090    2.0888
   33.120    2.2117
   33.150    1.9659
   33.180    2.0537
   33.210    1.8255
   33.240    1.8255
   33.270    1.8782
   33.300    2.0186
   33.330    1.8606
   33.360    1.7378
   33.390    1.5973
   33.420    2.1941
   33.450    1.8606
   33.480    2.0362
   33.510    2.1239
   33.540    2.0362
   33.570    1.9835
   33.600    1.8957
   33.630    1.7027
   33.660    2.1239
   33.690    1.8080
   33.720    2.0186
   33.750    2.2468
   33.780    2.8085
   33.810    2.6330
   33.840    2.9138
   33.870    2.4574
   33.900    2.1064
   33.930    1.8782
   33.960    1.9133
   33.990    1.8957
   34.020    2.1064
   34.050    1.8782
   34.080    1.8255
   34.110    1.7027
   34.140    1.8431
   34.170    1.8957
   34.200    1.8782
   34.230    1.8080
   34.260    1.5973
   34.290    1.8606
   34.320    1.8606
   34.350    1.6500
   34.380    1.4569
   34.410    1.9484
   34.440    1.7729
   34.470    1.8782
   34.500    1.8255
   34.530    1.7729
   34.560    1.7729
   34.590    1.6851
   34.620    1.6851
   34.650    1.6500
   34.680    1.8957
   34.710    1.8957
   34.740    1.7202
   34.770    1.7378
   34.800    1.9835
   34.830    1.8080
   34.860    1.6500
   34.890    1.9133
   34.920    2.0011
   34.950    1.8782
   34.980    1.7378
   35.010    1.8255
   35.040    1.9835
   35.070    1.6149
   35.100    1.7904
   35.130    1.9659
   35.160    1.8957
   35.190    1.9308
   35.220    1.7202
   35.250    1.7729
   35.280    1.7553
   35.310    1.8606
   35.340    1.8431
   35.370    1.8606
   35.400    1.8606
   35.430    1.7729
   35.460    1.8255
   35.490    1.6851
   35.520    1.9133
   35.550    1.9659
   35.580    1.7202
   35.610    1.9133
   35.640    1.8782
   35.670    1.7202
   35.700    1.6324
   35.730    2.0186
   35.760    1.8782
   35.790    1.7027
   35.820    1.7553
   35.850    1.9133
   35.880    1.5622
   35.910    1.7729
   35.940    1.7904
   35.970    1.8255
   36.000    1.8431
   36.030    1.9308
   36.060    1.9308
   36.090    1.7553
   36.120    1.7553
   36.150    1.7904
   36.180    1.8080
   36.210    1.7553
   36.240    1.8080
   36.270    1.8255
   36.300    1.7378
   36.330    1.6500
   36.360    1.8255
   36.390    2.0713
   36.420    1.8080
   36.450    1.7553
   36.480    1.7553
   36.510    1.9133
   36.540    1.8957
   36.570    1.7553
   36.600    2.0537
   36.630    1.9484
   36.660    1.8080
   36.690    1.9133
   36.720    1.7378
   36.750    1.5973
   36.780    1.6675
   36.810    1.8080
   36.840    1.7729
   36.870    1.9133
   36.900    1.6324
   36.930    1.7027
   36.960    1.8080
   36.990    1.6324
   37.020    1.6675
   37.050    1.9308
   37.080    1.5447
   37.110    2.0713
   37.140    1.7027
   37.170    2.0186
   37.200    2.0011
   37.230    1.5798
   37.260    1.8431
   37.290    2.0186
   37.320    1.6851
   37.350    1.7904
   37.380    1.6851
   37.410    1.4920
   37.440    1.7553
   37.470    1.9835
   37.500    1.5798
   37.530    1.9133
   37.560    1.5096
   37.590    1.5622
   37.620    1.6149
   37.650    1.6324
   37.680    1.7729
   37.710    1.6675
   37.740    1.7553
   37.770    1.7729
   37.800    1.9484
   37.830    1.7553
   37.860    1.6500
   37.890    1.8255
   37.920    1.7729
   37.950    1.5798
   37.980    1.5973
   38.010    1.8080
   38.040    1.6500
   38.070    1.6851
   38.100    1.7378
   38.130    1.2814
   38.160    1.5973
   38.190    1.7202
   38.220    1.6500
   38.250    1.6324
   38.280    1.8080
   38.310    1.6675
   38.340    1.7202
   38.370    1.7378
   38.400    1.6851
   38.430    1.7202
   38.460    1.8957
   38.490    1.7202
   38.520    1.7202
   38.550    1.8957
   38.580    2.2643
   38.610    2.6330
   38.640    1.9835
   38.670    1.5096
   38.700    1.3516
   38.730    1.7202
   38.760    1.4394
   38.790    1.8255
   38.820    1.6324
   38.850    1.5271
   38.880    1.4920
   38.910    1.5973
   38.940    1.8782
   38.970    1.5447
   39.000    1.4394
   39.030    1.5622
   39.060    1.5622
   39.090    1.7027
   39.120    1.6675
   39.150    1.6851
   39.180    1.4569
   39.210    1.7202
   39.240    1.7202
   39.270    1.6324
   39.300    1.3867
   39.330    1.7729
   39.360    1.4745
   39.390    1.7904
   39.420    1.9484
   39.450    1.5973
   39.480    1.5096
   39.510    1.4569
   39.540    1.3691
   39.570    1.8080
   39.600    1.5973
   39.630    1.4218
   39.660    1.7553
   39.690    1.7202
   39.720    1.6675
   39.750    1.5096
   39.780    1.6851
   39.810    1.7729
   39.840    1.5798
   39.870    1.7729
   39.900    1.5447
   39.930    1.5096
   39.960    1.4745
   39.990    1.6149