File: data/PXRD/PXRD_KE-021_Cu-Ka1_capillary-1mm_5s-deg.xyd
    1.500   23.3175
    1.530   23.3491
    1.560   23.3281
    1.590   22.2012
    1.620   21.5692
    1.650   22.0537
    1.680   20.8952
    1.710   20.6214
    1.740   21.1901
    1.770   20.4423
    1.800   20.0421
    1.830   19.5155
    1.860   19.5366
    1.890   19.0416
    1.920   18.4308
    1.950   19.1890
    1.980   18.6625
    2.010   18.2201
    2.040   18.5993
    2.070   18.6730
    2.100   18.5782
    2.130   18.3149
    2.160   18.2412
    2.190   17.6830
    2.220   17.7567
    2.250   18.7888
    2.280   18.0516
    2.310   18.6940
    2.340   17.9568
    2.370   18.4518
    2.400   19.1153
    2.430   19.1469
    2.460   18.1569
    2.490   19.8631
    2.520   19.6840
    2.550   20.0632
    2.580   19.8526
    2.610   20.9795
    2.640   21.4534
    2.670   21.7799
    2.700   21.8325
    2.730   22.3275
    2.760   22.7278
    2.790   24.0758
    2.820   25.1395
    2.850   25.8241
    2.880   26.3612
    2.910   26.8457
    2.940   28.8257
    2.970   28.6783
    3.000   29.6682
    3.030   31.9537
    3.060   33.2070
    3.090   35.1975
    3.120   35.9452
    3.150   38.9468
    3.180   41.3797
    3.210   44.5814
    3.240   46.9194
    3.270   50.5529
    3.300   54.5656
    3.330   58.0411
    3.360   64.6446
    3.390   71.7325
    3.420   77.1143
    3.450   83.5282
    3.480   86.3191
    3.510   81.8957
    3.540   71.6377
    3.570   59.4945
    3.600   51.6377
    3.630   46.4244
    3.660   44.2127
    3.690   43.8231
    3.720   44.2759
    3.750   43.7915
    3.780   45.7504
    3.810   47.6040
    3.840   48.5308
    3.870   47.8041
    3.900   46.1927
    3.930   43.8020
    3.960   38.8415
    3.990   35.7557
    4.020   29.8368
    4.050   25.7293
    4.080   22.2328
    4.110   19.4945
    4.140   17.7462
    4.170   15.7346
    4.200   14.6182
    4.230   13.7335
    4.260   12.7225
    4.290   12.0274
    4.320   11.3007
    4.350   10.7846
    4.380   10.6161
    4.410   10.3633
    4.440    9.9842
    4.470    9.6261
    4.500    9.3628
    4.530    9.2680
    4.560    9.0469
    4.590    8.8678
    4.620    8.8784
    4.650    9.1206
    4.680    8.4887
    4.710    8.8889
    4.740    8.1622
    4.770    8.3939
    4.800    7.7830
    4.830    8.0674
    4.860    7.7093
    4.890    8.0569
    4.920    8.1517
    4.950    8.2780
    4.980    7.6567
    5.010    7.6461
    5.040    7.5724
    5.070    7.7936
    5.100    7.9410
    5.130    7.9516
    5.160    7.9094
    5.190    7.4776
    5.220    8.0990
    5.250    7.8778
    5.280    7.6461
    5.310    7.6145
    5.340    7.5408
    5.370    7.3618
    5.400    7.3618
    5.430    7.5619
    5.460    7.3196
    5.490    7.5092
    5.520    7.5408
    5.550    6.9721
    5.580    7.3618
    5.610    6.8352
    5.640    7.0037
    5.670    7.1511
    5.700    7.0458
    5.730    7.0248
    5.760    6.5192
    5.790    6.7404
    5.820    6.9616
    5.850    7.1406
    5.880    6.7299
    5.910    6.8562
    5.940    7.2565
    5.970    6.7720
    6.000    7.0458
    6.030    6.8984
    6.060    6.7825
    6.090    7.4039
    6.120    7.0142
    6.150    6.9616
    6.180    7.0037
    6.210    7.4460
    6.240    7.6040
    6.270    7.6040
    6.300    7.8041
    6.330    7.2986
    6.360    7.3618
    6.390    7.6567
    6.420    7.6883
    6.450    8.0779
    6.480    7.9200
    6.510    7.9516
    6.540    8.3412
    6.570    8.3623
    6.600    9.0258
    6.630    8.8046
    6.660    9.5313
    6.690    9.7104
    6.720   10.1211
    6.750   10.9215
    6.780   11.7536
    6.810   12.0169
    6.840   13.2596
    6.870   14.1759
    6.900   15.5450
    6.930   17.0511
    6.960   17.9884
    6.990   18.2306
    7.020   16.5140
    7.050   15.3133
    7.080   14.3444
    7.110   12.4803
    7.140   11.6798
    7.170   11.0058
    7.200   11.2796
    7.230   11.4587
    7.260   11.7430
    7.290   12.7120
    7.320   13.1438
    7.350   14.1338
    7.380   15.5977
    7.410   19.6735
    7.440   21.1480
    7.470   21.2954
    7.500   15.4186
    7.530   10.1632
    7.560   10.2896
    7.590   10.7004
    7.620   11.0585
    7.650   12.0274
    7.680   12.2801
    7.710   12.6382
    7.740   14.0179
    7.770   13.6072
    7.800   14.4918
    7.830   14.7025
    7.860   14.4708
    7.890   14.4602
    7.920   13.7862
    7.950   12.6382
    7.980   12.8699
    8.010   11.5008
    8.040   10.9321
    8.070   10.1527
    8.100    9.7841
    8.130    9.7314
    8.160    9.2575
    8.190    8.9731
    8.220    9.0995
    8.250    9.0469
    8.280    8.7309
    8.310    8.9731
    8.340    9.2470
    8.370    9.3734
    8.400   10.1632
    8.430   10.8899
    8.460   12.0906
    8.490   12.3117
    8.520   11.4797
    8.550    8.8678
    8.580    7.4144
    8.610    6.9616
    8.640    6.9510
    8.670    6.8141
    8.700    6.7299
    8.730    6.8562
    8.760    7.0353
    8.790    6.3823
    8.820    6.7930
    8.850    6.3402
    8.880    6.5087
    8.910    6.8773
    8.940    6.6983
    8.970    6.6351
    9.000    6.4666
    9.030    6.6351
    9.060    6.1295
    9.090    6.4666
    9.120    6.7930
    9.150    6.7825
    9.180    6.4350
    9.210    6.7720
    9.240    6.2981
    9.270    6.3296
    9.300    6.2243
    9.330    6.5298
    9.360    6.7088
    9.390    6.6351
    9.420    6.6877
    9.450    6.3612
    9.480    6.5403
    9.510    6.5403
    9.540    6.7193
    9.570    6.4982
    9.600    6.3191
    9.630    6.7404
    9.660    6.4771
    9.690    6.1717
    9.720    6.5719
    9.750    6.5824
    9.780    6.2349
    9.810    6.1717
    9.840    6.5403
    9.870    6.2559
    9.900    6.3296
    9.930    6.3507
    9.960    6.6351
    9.990    6.0769
   10.020    6.4982
   10.050    6.3718
   10.080    6.7720
   10.110    6.3718
   10.140    6.3296
   10.170    6.2559
   10.200    6.5298
   10.230    6.5403
   10.260    6.2559
   10.290    6.7509
   10.320    6.4455
   10.350    6.5298
   10.380    6.5824
   10.410    6.7615
   10.440    6.6140
   10.470    6.7825
   10.500    6.6561
   10.530    6.6245
   10.560    6.7193
   10.590    6.4771
   10.620    6.6983
   10.650    6.5824
   10.680    6.2454
   10.710    6.9300
   10.740    6.6667
   10.770    6.6667
   10.800    6.2981
   10.830    6.7299
   10.860    6.3296
   10.890    6.9826
   10.920    6.7509
   10.950    6.5087
   10.980    6.8668
   11.010    6.9932
   11.040    6.8984
   11.070    6.9616
   11.100    7.0353
   11.130    7.2775
   11.160    7.9937
   11.190    8.0569
   11.220    8.4255
   11.250    9.4365
   11.280   10.7846
   11.310   10.7530
   11.340   10.1106
   11.370    8.1727
   11.400    6.3507
   11.430    6.6561
   11.460    7.0669
   11.490    6.5192
   11.520    7.0985
   11.550    6.7720
   11.580    7.0142
   11.610    7.4776
   11.640    6.5929
   11.670    7.0248
   11.700    6.7825
   11.730    7.1933
   11.760    7.1722
   11.790    7.0669
   11.820    7.0985
   11.850    7.1617
   11.880    6.7720
   11.910    7.0563
   11.940    7.0879
   11.970    6.4244
   12.000    6.8984
   12.030    6.5298
   12.060    6.4666
   12.090    6.6035
   12.120    6.4771
   12.150    6.5403
   12.180    6.4560
   12.210    6.4666
   12.240    7.0037
   12.270    6.6772
   12.300    6.7404
   12.330    6.6035
   12.360    6.3928
   12.390    6.3086
   12.420    6.4982
   12.450    6.3086
   12.480    6.4771
   12.510    6.3086
   12.540    6.2243
   12.570    6.4244
   12.600    6.1927
   12.630    6.2559
   12.660    6.3718
   12.690    6.5824
   12.720    6.3296
   12.750    6.7509
   12.780    6.6351
   12.810    6.5719
   12.840    6.9616
   12.870    6.5613
   12.900    6.7193
   12.930    6.8246
   12.960    6.6772
   12.990    7.0353
   13.020    6.5929
   13.050    6.9721
   13.080    7.0037
   13.110    6.5929
   13.140    6.6667
   13.170    6.6877
   13.200    6.3507
   13.230    6.5824
   13.260    6.2243
   13.290    6.5613
   13.320    6.6351
   13.350    6.4560
   13.380    6.3402
   13.410    7.0353
   13.440    6.6351
   13.470    6.3191
   13.500    6.5403
   13.530    6.4666
   13.560    6.5403
   13.590    6.3718
   13.620    6.6772
   13.650    6.3718
   13.680    6.4666
   13.710    5.9926
   13.740    6.4455
   13.770    6.4139
   13.800    6.3086
   13.830    6.1822
   13.860    6.2559
   13.890    6.3191
   13.920    6.3928
   13.950    6.0769
   13.980    6.2243
   14.010    6.3191
   14.040    6.6140
   14.070    6.2770
   14.100    6.2875
   14.130    6.6245
   14.160    6.6140
   14.190    6.6983
   14.220    6.1506
   14.250    6.1822
   14.280    6.5824
   14.310    6.2033
   14.340    6.4560
   14.370    6.4139
   14.400    6.0348
   14.430    6.0979
   14.460    6.1927
   14.490    6.5613
   14.520    6.3928
   14.550    6.2981
   14.580    6.4034
   14.610    6.6140
   14.640    6.5192
   14.670    6.2875
   14.700    6.3086
   14.730    6.6456
   14.760    6.3191
   14.790    6.1401
   14.820    6.6983
   14.850    6.6351
   14.880    6.4244
   14.910    6.7930
   14.940    6.4350
   14.970    6.6456
   15.000    6.5298
   15.030    6.6351
   15.060    6.0137
   15.090    6.4560
   15.120    6.3612
   15.150    6.2981
   15.180    6.5824
   15.210    6.4666
   15.240    6.8141
   15.270    6.4666
   15.300    6.2454
   15.330    6.4350
   15.360    6.8246
   15.390    6.8984
   15.420    6.3402
   15.450    6.8352
   15.480    7.3196
   15.510    7.3196
   15.540    6.8668
   15.570    6.7615
   15.600    6.3928
   15.630    6.5403
   15.660    6.4139
   15.690    6.6245
   15.720    6.4244
   15.750    6.4982
   15.780    6.7615
   15.810    6.3928
   15.840    6.4139
   15.870    6.4455
   15.900    6.6035
   15.930    6.8036
   15.960    6.4666
   15.990    6.2981
   16.020    6.2875
   16.050    6.4034
   16.080    6.6140
   16.110    6.3718
   16.140    6.4876
   16.170    5.9505
   16.200    6.4666
   16.230    6.5087
   16.260    6.6561
   16.290    6.1506
   16.320    6.1506
   16.350    6.2770
   16.380    6.1190
   16.410    6.4350
   16.440    5.9610
   16.470    6.3718
   16.500    6.4350
   16.530    6.2138
   16.560    6.6351
   16.590    6.1401
   16.620    6.4982
   16.650    6.4666
   16.680    6.6772
   16.710    6.3612
   16.740    6.6035
   16.770    6.6667
   16.800    6.4350
   16.830    7.0458
   16.860    6.2665
   16.890    6.1295
   16.920    6.2770
   16.950    6.6245
   16.980    6.4666
   17.010    6.5613
   17.040    6.5508
   17.070    6.5087
   17.100    6.3191
   17.130    6.2243
   17.160    6.6561
   17.190    6.3507
   17.220    6.3928
   17.250    6.4560
   17.280    6.2770
   17.310    6.1401
   17.340    6.1190
   17.370    6.5929
   17.400    6.4560
   17.430    6.5192
   17.460    6.3402
   17.490    6.4876
   17.520    6.7193
   17.550    6.7299
   17.580    6.5719
   17.610    6.9300
   17.640    6.2454
   17.670    6.9405
   17.700    6.6561
   17.730    6.7509
   17.760    6.3612
   17.790    6.3086
   17.820    5.9716
   17.850    6.4350
   17.880    6.2665
   17.910    6.5403
   17.940    6.7930
   17.970    6.4244
   18.000    6.4244
   18.030    6.8457
   18.060    6.1717
   18.090    6.6561
   18.120    6.2665
   18.150    6.4982
   18.180    6.3296
   18.210    6.4139
   18.240    6.7720
   18.270    6.3086
   18.300    6.4139
   18.330    6.1401
   18.360    6.6456
   18.390    6.1822
   18.420    6.4876
   18.450    6.4244
   18.480    6.7193
   18.510    6.1401
   18.540    6.2559
   18.570    6.6983
   18.600    6.4560
   18.630    6.6351
   18.660    6.3402
   18.690    6.8457
   18.720    6.6877
   18.750    6.5719
   18.780    6.5403
   18.810    7.0669
   18.840    6.3718
   18.870    6.4139
   18.900    6.4034
   18.930    6.4666
   18.960    6.0242
   18.990    6.6877
   19.020    6.8457
   19.050    6.3612
   19.080    6.8562
   19.110    6.3718
   19.140    6.8457
   19.170    6.5508
   19.200    6.5087
   19.230    6.3507
   19.260    6.2770
   19.290    6.8246
   19.320    6.8773
   19.350    6.4455
   19.380    6.4560
   19.410    6.9300
   19.440    6.6351
   19.470    6.7299
   19.500    6.8352
   19.530    6.5192
   19.560    6.5298
   19.590    6.4560
   19.620    6.6140
   19.650    6.3823
   19.680    6.5403
   19.710    7.0563
   19.740    6.6245
   19.770    6.4350
   19.800    6.8773
   19.830    6.6140
   19.860    6.7404
   19.890    6.8773
   19.920    6.9405
   19.950    6.4771
   19.980    6.7615
   20.010    7.1511
   20.040    6.9510
   20.070    7.4355
   20.100    7.1511
   20.130    7.2143
   20.160    7.0142
   20.190    6.9510
   20.220    7.1827
   20.250    7.2459
   20.280    7.1722
   20.310    7.3828
   20.340    7.2565
   20.370    6.8246
   20.400    6.8036
   20.430    6.6983
   20.460    7.1722
   20.490    6.8246
   20.520    7.3723
   20.550    6.9510
   20.580    6.8246
   20.610    7.2670
   20.640    6.4560
   20.670    6.7404
   20.700    6.5719
   20.730    6.9932
   20.760    6.7299
   20.790    6.8141
   20.820    6.7299
   20.850    7.0985
   20.880    7.1195
   20.910    7.4250
   20.940    7.0563
   20.970    6.9721
   21.000    6.8352
   21.030    7.2038
   21.060    7.0353
   21.090    7.2459
   21.120    6.8141
   21.150    7.0142
   21.180    6.7720
   21.210    7.0669
   21.240    7.1406
   21.270    7.2459
   21.300    7.2038
   21.330    6.9826
   21.360    7.0563
   21.390    7.1195
   21.420    7.1301
   21.450    7.3091
   21.480    7.0774
   21.510    7.1195
   21.540    7.1301
   21.570    7.3512
   21.600    6.9932
   21.630    7.0669
   21.660    7.0669
   21.690    6.7193
   21.720    7.2459
   21.750    7.2459
   21.780    7.0985
   21.810    6.9300
   21.840    7.3512
   21.870    6.7509
   21.900    6.5613
   21.930    6.9826
   21.960    7.4355
   21.990    7.2143
   22.020    6.7299
   22.050    7.1722
   22.080    6.8773
   22.110    6.9089
   22.140    7.1617
   22.170    7.2459
   22.200    7.2249
   22.230    6.8984
   22.260    7.2986
   22.290    7.2038
   22.320    7.2249
   22.350    7.2986
   22.380    7.1617
   22.410    6.9616
   22.440    6.7825
   22.470    7.2459
   22.500    7.0669
   22.530    7.3828
   22.560    7.0669
   22.590    7.3618
   22.620    7.2459
   22.650    7.3091
   22.680    7.1195
   22.710    7.3302
   22.740    7.6777
   22.770    7.0142
   22.800    7.1301
   22.830    7.3302
   22.860    7.1406
   22.890    7.2459
   22.920    7.0037
   22.950    7.4039
   22.980    7.4882
   23.010    7.4250
   23.040    6.8773
   23.070    6.9616
   23.100    6.9616
   23.130    7.2038
   23.160    6.7088
   23.190    7.3196
   23.220    6.9405
   23.250    6.6772
   23.280    6.8773
   23.310    6.6456
   23.340    6.9089
   23.370    7.1933
   23.400    6.8668
   23.430    6.8562
   23.460    6.6245
   23.490    6.6561
   23.520    7.0037
   23.550    6.5824
   23.580    7.0669
   23.610    6.7404
   23.640    6.7193
   23.670    6.6983
   23.700    6.8141
   23.730    7.0563
   23.760    6.9194
   23.790    6.7088
   23.820    6.5824
   23.850    6.5824
   23.880    6.4666
   23.910    6.8984
   23.940    7.1195
   23.970    6.9089
   24.000    6.7509
   24.030    7.0353
   24.060    7.0669
   24.090    6.6667
   24.120    6.8562
   24.150    6.9616
   24.180    6.7509
   24.210    6.7720
   24.240    6.8457
   24.270    6.7299
   24.300    6.4666
   24.330    6.7825
   24.360    6.9300
   24.390    7.0458
   24.420    6.9826
   24.450    7.3196
   24.480    7.7620
   24.510    7.9200
   24.540    7.4566
   24.570    7.7199
   24.600    7.5303
   24.630    6.8878
   24.660    7.0248
   24.690    7.0353
   24.720    6.6561
   24.750    6.7299
   24.780    6.7509
   24.810    6.7615
   24.840    6.5087
   24.870    6.5824
   24.900    6.5508
   24.930    6.8878
   24.960    6.9194
   24.990    6.8457
   25.020    6.7615
   25.050    6.4771
   25.080    6.4666
   25.110    6.3507
   25.140    6.3191
   25.170    6.3402
   25.200    6.3718
   25.230    6.3086
   25.260    6.8668
   25.290    6.5508
   25.320    6.7720
   25.350    6.8773
   25.380    6.7509
   25.410    6.4771
   25.440    6.4139
   25.470    6.6140
   25.500    6.5298
   25.530    6.2981
   25.560    6.3086
   25.590    6.5508
   25.620    6.2454
   25.650    6.5403
   25.680    6.5613
   25.710    6.6035
   25.740    6.4455
   25.770    6.2559
   25.800    6.6561
   25.830    6.1927
   25.860    6.0348
   25.890    6.3296
   25.920    5.7715
   25.950    6.4034
   25.980    6.4560
   26.010    6.4560
   26.040    6.4139
   26.070    5.8031
   26.100    6.2770
   26.130    6.2770
   26.160    6.0769
   26.190    6.1190
   26.220    6.2033
   26.250    6.4350
   26.280    6.5719
   26.310    6.6561
   26.340    6.6667
   26.370    6.8878
   26.400    6.6140
   26.430    6.3612
   26.460    6.3507
   26.490    6.1611
   26.520    6.3823
   26.550    6.1506
   26.580    6.3507
   26.610    6.2454
   26.640    6.4876
   26.670    6.6351
   26.700    6.6772
   26.730    6.4771
   26.760    6.3612
   26.790    6.2138
   26.820    6.5298
   26.850    6.4139
   26.880    6.2665
   26.910    6.5298
   26.940    6.2243
   26.970    6.0348
   27.000    6.0558
   27.030    6.2454
   27.060    6.4771
   27.090    6.2875
   27.120    6.2770
   27.150    6.5298
   27.180    6.1611
   27.210    6.2875
   27.240    5.9716
   27.270    6.4034
   27.300    6.4876
   27.330    5.9084
   27.360    6.3823
   27.390    6.2875
   27.420    6.1927
   27.450    6.2349
   27.480    6.0348
   27.510    6.3296
   27.540    6.2559
   27.570    6.0453
   27.600    6.0558
   27.630    6.0032
   27.660    6.0979
   27.690    6.2875
   27.720    6.4560
   27.750    5.8873
   27.780    6.6245
   27.810    6.6035
   27.840    6.4244
   27.870    6.8141
   27.900    6.4560
   27.930    6.1190
   27.960    6.0137
   27.990    6.8141
   28.020    6.3191
   28.050    6.1927
   28.080    6.2875
   28.110    5.9821
   28.140    6.2349
   28.170    6.2454
   28.200    6.0137
   28.230    6.6772
   28.260    6.2875
   28.290    5.9821
   28.320    6.2770
   28.350    6.0242
   28.380    6.0348
   28.410    6.3402
   28.440    6.4982
   28.470    6.2243
   28.500    5.8241
   28.530    6.2770
   28.560    5.9294
   28.590    6.0242
   28.620    5.8241
   28.650    6.2559
   28.680    6.4560
   28.710    5.9926
   28.740    5.8557
   28.770    6.0874
   28.800    5.8662
   28.830    5.8662
   28.860    6.1085
   28.890    6.0242
   28.920    5.6345
   28.950    5.9821
   28.980    6.0242
   29.010    6.0979
   29.040    5.7925
   29.070    5.8136
   29.100    6.2138
   29.130    5.7504
   29.160    6.1506
   29.190    5.8557
   29.220    5.8557
   29.250    5.7083
   29.280    6.1717
   29.310    5.9400
   29.340    5.8031
   29.370    5.9400
   29.400    6.3191
   29.430    6.1822
   29.460    5.8136
   29.490    6.0664
   29.520    5.9610
   29.550    6.0348
   29.580    5.8873
   29.610    5.6556
   29.640    5.8873
   29.670    5.6556
   29.700    5.8978
   29.730    5.8557
   29.760    6.1506
   29.790    6.2454
   29.820    6.3086
   29.850    5.8557
   29.880    6.1401
   29.910    6.2033
   29.940    6.0137
   29.970    5.7188
   30.000    5.7504
   30.030    5.7188
   30.060    5.8557
   30.090    5.8557
   30.120    5.8768
   30.150    5.9716
   30.180    6.1927
   30.210    5.7504
   30.240    5.9400
   30.270    5.4976
   30.300    6.0558
   30.330    6.1927
   30.360    6.4034
   30.390    5.8031
   30.420    6.0664
   30.450    5.9610
   30.480    5.7188
   30.510    5.8873
   30.540    6.3402
   30.570    5.8557
   30.600    5.7715
   30.630    5.7504
   30.660    5.7609
   30.690    5.9716
   30.720    5.6767
   30.750    5.8347
   30.780    6.2138
   30.810    5.7083
   30.840    5.8452
   30.870    5.9084
   30.900    6.4350
   30.930    5.7399
   30.960    5.6029
   30.990    5.8557
   31.020    5.8452
   31.050    5.7188
   31.080    5.7715
   31.110    5.9821
   31.140    5.8031
   31.170    5.5398
   31.200    5.6451
   31.230    5.4344
   31.260    5.5924
   31.290    5.7925
   31.320    6.0979
   31.350    6.0769
   31.380    5.4976
   31.410    5.9926
   31.440    5.5924
   31.470    6.0664
   31.500    5.9716
   31.530    5.7715
   31.560    5.6451
   31.590    5.7820
   31.620    5.7504
   31.650    5.6767
   31.680    5.4450
   31.710    5.7083
   31.740    5.7925
   31.770    5.6977
   31.800    5.8347
   31.830    6.2243
   31.860    5.9505
   31.890    5.5714
   31.920    6.2243
   31.950    5.8136
   31.980    5.4871
   32.010    5.2343
   32.040    5.1922
   32.070    5.7820
   32.100    5.4555
   32.130    5.8452
   32.160    5.2343
   32.190    5.2870
   32.220    5.4871
   32.250    5.2449
   32.280    5.2449
   32.310    5.4450
   32.340    5.5503
   32.370    6.0769
   32.400    5.5187
   32.430    5.5187
   32.460    5.2765
   32.490    5.6872
   32.520    5.2870
   32.550    5.8662
   32.580    5.5503
   32.610    5.5292
   32.640    5.7925
   32.670    5.6135
   32.700    5.5292
   32.730    5.2870
   32.760    5.3397
   32.790    5.5924
   32.820    5.3397
   32.850    5.4134
   32.880    5.4766
   32.910    5.2238
   32.940    5.4450
   32.970    5.3607
   33.000    5.2343
   33.030    5.2027
   33.060    5.1395
   33.090    5.3081
   33.120    5.2027
   33.150    5.7293
   33.180    5.3818
   33.210    5.6767
   33.240    5.1501
   33.270    5.7820
   33.300    5.3607
   33.330    5.4660
   33.360    5.3081
   33.390    5.5398
   33.420    5.3397
   33.450    5.4239
   33.480    5.6977
   33.510    5.7609
   33.540    5.3186
   33.570    5.7715
   33.600    5.4660
   33.630    5.5819
   33.660    5.4028
   33.690    5.3607
   33.720    5.2975
   33.750    5.1185
   33.780    5.1711
   33.810    5.0869
   33.840    5.0658
   33.870    5.4239
   33.900    5.4239
   33.930    5.6240
   33.960    5.2765
   33.990    5.1290
   34.020    5.3186
   34.050    5.0764
   34.080    5.6556
   34.110    5.2554
   34.140    5.2765
   34.170    5.1290
   34.200    5.1395
   34.230    5.4766
   34.260    4.8973
   34.290    5.4239
   34.320    5.3607
   34.350    5.1711
   34.380    5.1185
   34.410    5.3291
   34.440    5.2870
   34.470    5.3923
   34.500    5.4660
   34.530    5.3712
   34.560    4.9500
   34.590    5.1290
   34.620    5.3291
   34.650    4.9394
   34.680    5.2027
   34.710    5.0869
   34.740    5.0658
   34.770    4.9816
   34.800    5.4871
   34.830    5.2343
   34.860    5.4134
   34.890    5.1606
   34.920    5.6029
   34.950    5.3712
   34.980    5.3291
   35.010    5.1711
   35.040    5.0658
   35.070    5.2870
   35.100    4.8657
   35.130    4.8447
   35.160    5.1185
   35.190    4.9605
   35.220    4.8236
   35.250    4.8447
   35.280    4.7815
   35.310    4.9184
   35.340    5.0974
   35.370    4.8763
   35.400    5.4028
   35.430    4.8552
   35.460    4.9921
   35.490    5.1080
   35.520    5.0342
   35.550    5.1080
   35.580    5.4766
   35.610    4.8657
   35.640    5.2449
   35.670    5.3291
   35.700    5.2449
   35.730    5.3081
   35.760    5.2765
   35.790    5.0869
   35.820    5.1817
   35.850    5.3712
   35.880    5.1395
   35.910    4.5708
   35.940    4.8552
   35.970    5.1501
   36.000    4.8447
   36.030    5.0342
   36.060    5.0869
   36.090    4.9816
   36.120    4.7815
   36.150    4.8868
   36.180    4.8341
   36.210    4.7709
   36.240    4.9078
   36.270    4.9605
   36.300    4.8657
   36.330    4.6130
   36.360    4.6656
   36.390    4.9078
   36.420    5.0448
   36.450    4.9500
   36.480    4.7393
   36.510    5.0237
   36.540    4.9500
   36.570    5.0448
   36.600    4.7709
   36.630    4.7288
   36.660    4.6235
   36.690    4.9605
   36.720    4.8447
   36.750    5.0869
   36.780    4.9289
   36.810    4.8763
   36.840    4.6130
   36.870    4.7393
   36.900    4.7920
   36.930    5.0764
   36.960    4.8236
   36.990    4.9500
   37.020    4.6024
   37.050    4.7815
   37.080    4.8447
   37.110    5.1922
   37.140    4.6130
   37.170    5.1817
   37.200    4.9289
   37.230    4.4339
   37.260    4.8657
   37.290    4.8025
   37.320    5.2027
   37.350    4.4128
   37.380    4.9184
   37.410    4.7709
   37.440    4.7393
   37.470    4.8131
   37.500    5.1290
   37.530    5.3291
   37.560    4.7288
   37.590    5.2238
   37.620    5.0342
   37.650    5.0764
   37.680    4.8341
   37.710    5.1606
   37.740    5.0974
   37.770    5.0132
   37.800    4.8552
   37.830    4.8341
   37.860    4.8552
   37.890    4.7815
   37.920    4.9289
   37.950    4.7920
   37.980    4.6972
   38.010    4.7604
   38.040    4.6340
   38.070    4.6656
   38.100    4.7393
   38.130    5.0974
   38.160    4.8341
   38.190    4.9078
   38.220    4.8236
   38.250    4.8657
   38.280    4.6761
   38.310    4.6235
   38.340    4.8236
   38.370    4.5708
   38.400    4.8447
   38.430    4.7183
   38.460    4.5182
   38.490    4.8763
   38.520    5.0764
   38.550    5.3712
   38.580    4.9605
   38.610    5.0342
   38.640    4.7393
   38.670    4.7815
   38.700    4.6445
   38.730    4.7393
   38.760    4.8868
   38.790    4.8868
   38.820    4.6551
   38.850    4.7604
   38.880    4.9078
   38.910    4.7077
   38.940    4.6656
   38.970    4.7393
   39.000    4.6761
   39.030    4.9710
   39.060    5.0974
   39.090    4.7920
   39.120    4.9184
   39.150    4.7499
   39.180    4.9078
   39.210    4.9184
   39.240    4.9184
   39.270    4.9500
   39.300    5.2870
   39.330    5.0658
   39.360    4.9078
   39.390    4.6972
   39.420    5.1185
   39.450    4.4234
   39.480    4.4234
   39.510    4.8657
   39.540    4.3075
   39.570    4.5076
   39.600    4.3391
   39.630    4.6340
   39.660    4.5182
   39.690    4.7604
   39.720    4.3602
   39.750    4.6867
   39.780    4.5919
   39.810    4.5182
   39.840    4.9394
   39.870    4.6551
   39.900    4.7183
   39.930    4.4971
   39.960    4.4234
   39.990    5.0869