File: data/PXRD/PXRD_KE-305-2B_Cu-Ka1_capillary-1mm_3s-deg.xyd
    1.500   19.3435
    1.530   19.2733
    1.560   18.8871
    1.590   18.6414
    1.620   16.7983
    1.650   17.8866
    1.680   16.2717
    1.710   16.5526
    1.740   15.9031
    1.770   15.7978
    1.800   14.6393
    1.830   14.8499
    1.860   13.7792
    1.890   14.1654
    1.920   13.8494
    1.950   14.0425
    1.980   13.0244
    2.010   13.2175
    2.040   12.3574
    2.070   12.8138
    2.100   11.9361
    2.130   12.2872
    2.160   12.0941
    2.190   12.5856
    2.220   12.2872
    2.250   12.3398
    2.280   12.0063
    2.310   11.7957
    2.340   11.6728
    2.370   12.3047
    2.400   11.8132
    2.430   12.5154
    2.460   11.8132
    2.490   11.6553
    2.520   11.5324
    2.550   11.8834
    2.580   11.5850
    2.610   12.6382
    2.640   12.2872
    2.670   11.8483
    2.700   12.1819
    2.730   12.1467
    2.760   12.9015
    2.790   12.7611
    2.820   13.0946
    2.850   13.7090
    2.880   13.2877
    2.910   13.4457
    2.940   13.7265
    2.970   14.3760
    3.000   14.5515
    3.030   14.7095
    3.060   15.0430
    3.090   15.5169
    3.120   16.4121
    3.150   16.9212
    3.180   17.3951
    3.210   17.5355
    3.240   18.8169
    3.270   19.7999
    3.300   19.7648
    3.330   20.8180
    3.360   22.6084
    3.390   23.0999
    3.420   24.0302
    3.450   25.6626
    3.480   27.5935
    3.510   29.5068
    3.540   32.3328
    3.570   34.0881
    3.600   37.4057
    3.630   41.9870
    3.660   45.7258
    3.690   51.5886
    3.720   57.5215
    3.750   68.5975
    3.780   83.6054
    3.810  111.4271
    3.840  132.5259
    3.870  109.1803
    3.900   57.8550
    3.930   20.8882
    3.960   12.3749
    3.990   10.7600
    4.020    9.8999
    4.050    8.6888
    4.080    8.6888
    4.110    8.3377
    4.140    8.1797
    4.170    7.4074
    4.200    7.4601
    4.230    7.8287
    4.260    7.6883
    4.290    7.9164
    4.320    7.8462
    4.350    7.1792
    4.380    7.8111
    4.410    7.6532
    4.440    7.1617
    4.470    6.8106
    4.500    7.5478
    4.530    7.0212
    4.560    7.4776
    4.590    7.3021
    4.620    7.5127
    4.650    6.9686
    4.680    7.0388
    4.710    7.0739
    4.740    7.6356
    4.770    8.1446
    4.800    7.5654
    4.830    7.4952
    4.860    7.7936
    4.890    6.8808
    4.920    7.7409
    4.950    7.8287
    4.980    8.4606
    5.010    7.8462
    5.040    8.6888
    5.070    8.3553
    5.100    8.1622
    5.130    8.1622
    5.160    8.5484
    5.190    9.0047
    5.220    9.8824
    5.250   10.7249
    5.280   10.3739
    5.310   11.3744
    5.340   12.6031
    5.370   13.8494
    5.400   15.8856
    5.430   19.1329
    5.460   23.1525
    5.490   20.7478
    5.520   13.6563
    5.550    8.7941
    5.580    6.4244
    5.610    7.1266
    5.640    6.6877
    5.670    6.7579
    5.700    6.7053
    5.730    6.4595
    5.760    6.1962
    5.790    6.1260
    5.820    7.1617
    5.850    6.7930
    5.880    6.8457
    5.910    6.6526
    5.940    6.5473
    5.970    6.4420
    6.000    6.8633
    6.030    6.4244
    6.060    6.8457
    6.090    6.9159
    6.120    6.3367
    6.150    6.6526
    6.180    6.9510
    6.210    7.0388
    6.240    6.9335
    6.270    7.0739
    6.300    6.6877
    6.330    6.6351
    6.360    7.3196
    6.390    7.6532
    6.420    7.4250
    6.450    6.8457
    6.480    8.0042
    6.510    8.3026
    6.540    8.2500
    6.570    8.9872
    6.600    9.2856
    6.630    9.7946
    6.660   11.1111
    6.690   13.2701
    6.720   13.8845
    6.750   11.6728
    6.780    8.7941
    6.810    7.4425
    6.840    6.9159
    6.870    6.4244
    6.900    6.2665
    6.930    6.2313
    6.960    5.9154
    6.990    6.2313
    7.020    6.2489
    7.050    6.7404
    7.080    6.3718
    7.110    6.5122
    7.140    6.1962
    7.170    6.7579
    7.200    5.9154
    7.230    6.1436
    7.260    6.0909
    7.290    6.6877
    7.320    6.5824
    7.350    6.4946
    7.380    6.6000
    7.410    6.2665
    7.440    6.9335
    7.470    7.1441
    7.500    6.6175
    7.530    6.6877
    7.560    7.1617
    7.590    7.6532
    7.620    7.5478
    7.650    7.8638
    7.680    8.8468
    7.710    9.8824
    7.740   10.8829
    7.770   11.6904
    7.800   10.1808
    7.830    7.6356
    7.860    6.5122
    7.890    6.4595
    7.920    6.2840
    7.950    5.8803
    7.980    6.5122
    8.010    6.1436
    8.040    6.1611
    8.070    6.5473
    8.100    6.5298
    8.130    6.0207
    8.160    5.7750
    8.190    6.0734
    8.220    6.2665
    8.250    6.1611
    8.280    6.3367
    8.310    6.1436
    8.340    6.1962
    8.370    6.0383
    8.400    5.8101
    8.430    6.7053
    8.460    6.3367
    8.490    6.4244
    8.520    6.5298
    8.550    6.2665
    8.580    6.8106
    8.610    6.6702
    8.640    6.4946
    8.670    7.1090
    8.700    7.3547
    8.730    7.0212
    8.760    6.5122
    8.790    6.0734
    8.820    5.5292
    8.850    6.1787
    8.880    6.0558
    8.910    5.8803
    8.940    6.2489
    8.970    6.8457
    9.000    6.3191
    9.030    6.7228
    9.060    6.3542
    9.090    6.1085
    9.120    6.6877
    9.150    6.6877
    9.180    7.7409
    9.210    7.4776
    9.240    7.9164
    9.270    8.0218
    9.300    8.4606
    9.330    8.7765
    9.360    9.8473
    9.390   10.7776
    9.420   12.6207
    9.450   14.0776
    9.480   17.5355
    9.510   21.5903
    9.540   23.4509
    9.570   17.0441
    9.600   10.7425
    9.630    8.1446
    9.660    7.2494
    9.690    6.1085
    9.720    6.3718
    9.750    6.6526
    9.780    6.5122
    9.810    6.3542
    9.840    6.5473
    9.870    6.6351
    9.900    6.5473
    9.930    6.5824
    9.960    6.5298
    9.990    6.6877
   10.020    6.4771
   10.050    7.2319
   10.080    6.7579
   10.110    7.9691
   10.140    7.7760
   10.170    7.6707
   10.200    9.4260
   10.230   10.6196
   10.260   12.9893
   10.290   14.4286
   10.320   13.8845
   10.350   11.0058
   10.380    7.8813
   10.410    6.4946
   10.440    6.6526
   10.470    6.4069
   10.500    6.2313
   10.530    6.0207
   10.560    6.1085
   10.590    6.3893
   10.620    6.7053
   10.650    6.4771
   10.680    5.9329
   10.710    6.3016
   10.740    6.2665
   10.770    6.3542
   10.800    6.2840
   10.830    7.1090
   10.860    7.3723
   10.890    7.4601
   10.920    7.4952
   10.950    9.3031
   10.980   10.2686
   11.010   10.9005
   11.040   10.7776
   11.070    8.4255
   11.100    6.6877
   11.130    6.6175
   11.160    6.2313
   11.190    6.4771
   11.220    5.4064
   11.250    5.9856
   11.280    6.1260
   11.310    5.8276
   11.340    6.1260
   11.370    6.1085
   11.400    5.7048
   11.430    6.4595
   11.460    5.8803
   11.490    7.3196
   11.520    7.2143
   11.550    7.1441
   11.580    7.5303
   11.610    8.5659
   11.640    9.8648
   11.670   11.1813
   11.700   11.6553
   11.730    9.8473
   11.760    8.4781
   11.790    6.5122
   11.820    6.1085
   11.850    5.9505
   11.880    6.4771
   11.910    5.6170
   11.940    5.9329
   11.970    5.8803
   12.000    5.8627
   12.030    5.6345
   12.060    5.6345
   12.090    5.9681
   12.120    5.9154
   12.150    5.7574
   12.180    5.4239
   12.210    5.6521
   12.240    5.8452
   12.270    6.5122
   12.300    6.6351
   12.330    6.4420
   12.360    6.6351
   12.390    6.4420
   12.420    5.3888
   12.450    6.0032
   12.480    5.2659
   12.510    5.7925
   12.540    5.8978
   12.570    5.8452
   12.600    5.6697
   12.630    5.6170
   12.660    6.0558
   12.690    5.9329
   12.720    6.3718
   12.750    6.3718
   12.780    6.0207
   12.810    7.2494
   12.840    7.2143
   12.870    7.8638
   12.900    9.5840
   12.930   11.5850
   12.960   10.5845
   12.990    8.6537
   13.020    6.9510
   13.050    5.6521
   13.080    5.6521
   13.110    5.5292
   13.140    5.5819
   13.170    5.9681
   13.200    6.0383
   13.230    5.5292
   13.260    5.2133
   13.290    5.9856
   13.320    5.7399
   13.350    5.8101
   13.380    5.3888
   13.410    6.0909
   13.440    6.2313
   13.470    7.1792
   13.500    7.8462
   13.530    7.6883
   13.560    7.1968
   13.590    7.1090
   13.620    5.5117
   13.650    5.7399
   13.680    5.3361
   13.710    5.5468
   13.740    5.7223
   13.770    5.5117
   13.800    5.7048
   13.830    5.7399
   13.860    5.4415
   13.890    6.2138
   13.920    6.2840
   13.950    5.8627
   13.980    7.0915
   14.010    6.4771
   14.040    7.4776
   14.070    8.1622
   14.100    7.4425
   14.130    7.3021
   14.160    6.1787
   14.190    6.0909
   14.220    5.9505
   14.250    5.6170
   14.280    5.9681
   14.310    5.5117
   14.340    5.5117
   14.370    5.6345
   14.400    6.1436
   14.430    5.7399
   14.460    5.0553
   14.490    5.2835
   14.520    5.7925
   14.550    5.9329
   14.580    5.7574
   14.610    5.5643
   14.640    5.6697
   14.670    5.5643
   14.700    5.5468
   14.730    5.5819
   14.760    5.4239
   14.790    5.3712
   14.820    5.8627
   14.850    5.7750
   14.880    5.8276
   14.910    5.8627
   14.940    5.9154
   14.970    6.0207
   15.000    5.9329
   15.030    5.6345
   15.060    5.9329
   15.090    6.0558
   15.120    6.6702
   15.150    6.1962
   15.180    6.2313
   15.210    6.1787
   15.240    5.9154
   15.270    5.9681
   15.300    6.3191
   15.330    5.8452
   15.360    5.7925
   15.390    5.5643
   15.420    5.7399
   15.450    5.9154
   15.480    5.6872
   15.510    5.6521
   15.540    5.9154
   15.570    5.7048
   15.600    5.7399
   15.630    5.6345
   15.660    5.3010
   15.690    5.9329
   15.720    5.7048
   15.750    5.9154
   15.780    5.6170
   15.810    5.9856
   15.840    5.7925
   15.870    5.6170
   15.900    5.9856
   15.930    5.4941
   15.960    5.5819
   15.990    5.3712
   16.020    6.7228
   16.050    6.0558
   16.080    7.2845
   16.110    6.8633
   16.140    7.1266
   16.170    6.7404
   16.200    5.9681
   16.230    5.5994
   16.260    5.9154
   16.290    6.1085
   16.320    5.3537
   16.350    5.3361
   16.380    6.0383
   16.410    6.1436
   16.440    6.1085
   16.470    6.1085
   16.500    6.3893
   16.530    6.8106
   16.560    6.8282
   16.590    8.0744
   16.620    7.4425
   16.650    6.5473
   16.680    6.0032
   16.710    6.1436
   16.740    5.9329
   16.770    5.3537
   16.800    5.8803
   16.830    6.0909
   16.860    5.5994
   16.890    6.1787
   16.920    6.8282
   16.950    6.8106
   16.980    7.6532
   17.010    8.2500
   17.040    9.2154
   17.070    9.1276
   17.100    8.7063
   17.130    7.1617
   17.160    5.7925
   17.190    6.1962
   17.220    5.8627
   17.250    5.8978
   17.280    6.0558
   17.310    6.0383
   17.340    6.0909
   17.370    5.7925
   17.400    5.4766
   17.430    5.7223
   17.460    6.4946
   17.490    5.9856
   17.520    6.4420
   17.550    6.1787
   17.580    5.6872
   17.610    5.8101
   17.640    5.9329
   17.670    6.2840
   17.700    5.5468
   17.730    6.3367
   17.760    5.9154
   17.790    5.8803
   17.820    5.6170
   17.850    6.0207
   17.880    5.9856
   17.910    6.0909
   17.940    6.3718
   17.970    6.1962
   18.000    6.7579
   18.030    5.6697
   18.060    6.0558
   18.090    5.4941
   18.120    6.7053
   18.150    5.7925
   18.180    5.2484
   18.210    5.8978
   18.240    5.6697
   18.270    6.0558
   18.300    6.7053
   18.330    7.0037
   18.360    6.8106
   18.390    6.9159
   18.420    6.5473
   18.450    5.8101
   18.480    6.2840
   18.510    5.7574
   18.540    6.3542
   18.570    5.7925
   18.600    6.0558
   18.630    6.1260
   18.660    5.6697
   18.690    5.5994
   18.720    5.7925
   18.750    5.8803
   18.780    6.1611
   18.810    6.4946
   18.840    6.2665
   18.870    6.3542
   18.900    5.8627
   18.930    6.1260
   18.960    5.5468
   18.990    5.4590
   19.020    5.4590
   19.050    6.1787
   19.080    5.3186
   19.110    5.7048
   19.140    6.1085
   19.170    5.9329
   19.200    6.6702
   19.230    5.7048
   19.260    5.9681
   19.290    6.2665
   19.320    5.8627
   19.350    6.4244
   19.380    5.7925
   19.410    5.9856
   19.440    6.1611
   19.470    6.2489
   19.500    5.9329
   19.530    6.5473
   19.560    7.0563
   19.590    7.4776
   19.620    6.9159
   19.650    6.6702
   19.680    6.2489
   19.710    6.1611
   19.740    5.7750
   19.770    5.9329
   19.800    5.4064
   19.830    5.4590
   19.860    5.7223
   19.890    5.9154
   19.920    6.4771
   19.950    5.8101
   19.980    5.8452
   20.010    6.4420
   20.040    5.5292
   20.070    6.0909
   20.100    6.3542
   20.130    5.7399
   20.160    5.8101
   20.190    6.1436
   20.220    6.6526
   20.250    6.6526
   20.280    6.8106
   20.310    7.4601
   20.340    8.7941
   20.370    8.7941
   20.400    8.9170
   20.430    7.8638
   20.460    7.3372
   20.490    6.3718
   20.520    6.1962
   20.550    6.5122
   20.580    5.7750
   20.610    5.9329
   20.640    6.1611
   20.670    6.2489
   20.700    6.1085
   20.730    6.1260
   20.760    5.9681
   20.790    5.7223
   20.820    5.8978
   20.850    6.4420
   20.880    6.1260
   20.910    6.2313
   20.940    5.9329
   20.970    5.7750
   21.000    6.0207
   21.030    6.4420
   21.060    5.8276
   21.090    5.8276
   21.120    6.1260
   21.150    6.1085
   21.180    6.1436
   21.210    6.5649
   21.240    6.8633
   21.270    6.5824
   21.300    6.3016
   21.330    6.4946
   21.360    5.7048
   21.390    5.9681
   21.420    6.0909
   21.450    6.3191
   21.480    6.1260
   21.510    6.5824
   21.540    6.2665
   21.570    6.3718
   21.600    6.6351
   21.630    6.4069
   21.660    6.3718
   21.690    6.1962
   21.720    6.3893
   21.750    6.4595
   21.780    6.5473
   21.810    7.2143
   21.840    7.3196
   21.870    7.5127
   21.900    6.9686
   21.930    7.1792
   21.960    6.6000
   21.990    6.0734
   22.020    6.3191
   22.050    6.1085
   22.080    6.6351
   22.110    6.4595
   22.140    6.4420
   22.170    6.6702
   22.200    7.9516
   22.230    7.5478
   22.260    6.7930
   22.290    6.5649
   22.320    6.2138
   22.350    6.5298
   22.380    6.3367
   22.410    6.9335
   22.440    6.6000
   22.470    7.5478
   22.500    7.8813
   22.530    9.8824
   22.560   10.2159
   22.590   10.6723
   22.620    9.3031
   22.650    7.7409
   22.680    6.6351
   22.710    6.4771
   22.740    6.5473
   22.770    7.3723
   22.800    7.0388
   22.830    8.1797
   22.860    8.7590
   22.890   10.0404
   22.920   10.3563
   22.950    9.1452
   22.980    8.6186
   23.010    7.4776
   23.040    6.4244
   23.070    5.9856
   23.100    6.4595
   23.130    6.6351
   23.160    6.2489
   23.190    6.9510
   23.220    7.8638
   23.250    7.8813
   23.280    7.2494
   23.310    7.6532
   23.340    6.5649
   23.370    6.4771
   23.400    6.3191
   23.430    6.1611
   23.460    6.1962
   23.490    6.3893
   23.520    6.0734
   23.550    7.0212
   23.580    6.8808
   23.610    6.6351
   23.640    5.5994
   23.670    6.5473
   23.700    6.4420
   23.730    6.5473
   23.760    7.1090
   23.790    7.1968
   23.820    6.4595
   23.850    7.0037
   23.880    7.6005
   23.910    7.8287
   23.940    8.0393
   23.970    7.3547
   24.000    6.3893
   24.030    6.4595
   24.060    6.0383
   24.090    6.2313
   24.120    6.4069
   24.150    5.7399
   24.180    6.5473
   24.210    6.0734
   24.240    6.3542
   24.270    6.5122
   24.300    6.5649
   24.330    5.8978
   24.360    5.9856
   24.390    6.4771
   24.420    6.1787
   24.450    6.5824
   24.480    6.8106
   24.510    6.5473
   24.540    6.4946
   24.570    6.2313
   24.600    6.1260
   24.630    6.3718
   24.660    6.6877
   24.690    6.3191
   24.720    6.4420
   24.750    5.9856
   24.780    6.1787
   24.810    6.2313
   24.840    7.0037
   24.870    6.9510
   24.900    5.9505
   24.930    6.1436
   24.960    6.0383
   24.990    6.0909
   25.020    6.5473
   25.050    6.0383
   25.080    6.1611
   25.110    6.1436
   25.140    6.5824
   25.170    6.6526
   25.200    6.7755
   25.230    6.7930
   25.260    6.6175
   25.290    6.4244
   25.320    6.3367
   25.350    5.8627
   25.380    6.5298
   25.410    6.4946
   25.440    6.7404
   25.470    6.7579
   25.500    6.6175
   25.530    6.9686
   25.560    6.2665
   25.590    6.6175
   25.620    6.5473
   25.650    6.5824
   25.680    6.4244
   25.710    6.6175
   25.740    7.1968
   25.770    8.3202
   25.800    8.7941
   25.830    9.0750
   25.860    8.7239
   25.890    8.0042
   25.920    7.2670
   25.950    6.5122
   25.980    6.5298
   26.010    5.8803
   26.040    6.2665
   26.070    6.1962
   26.100    6.7930
   26.130    6.2665
   26.160    6.6000
   26.190    6.6351
   26.220    5.9505
   26.250    6.0207
   26.280    5.9681
   26.310    6.4595
   26.340    6.2313
   26.370    6.7579
   26.400    6.6877
   26.430    6.9335
   26.460    6.6526
   26.490    6.4420
   26.520    6.2840
   26.550    6.1611
   26.580    5.5819
   26.610    6.0909
   26.640    5.8803
   26.670    5.6345
   26.700    5.4766
   26.730    5.3537
   26.760    6.1260
   26.790    5.9329
   26.820    5.7750
   26.850    5.8627
   26.880    5.8452
   26.910    6.1260
   26.940    6.1787
   26.970    6.6877
   27.000    7.1792
   27.030    6.8808
   27.060    6.8633
   27.090    6.4244
   27.120    6.0734
   27.150    6.3542
   27.180    5.8101
   27.210    5.7574
   27.240    6.2313
   27.270    5.7925
   27.300    5.8101
   27.330    5.8803
   27.360    5.9856
   27.390    6.2138
   27.420    5.7399
   27.450    5.4766
   27.480    5.8978
   27.510    5.9505
   27.540    5.8978
   27.570    6.3016
   27.600    6.3893
   27.630    6.5122
   27.660    6.4771
   27.690    6.1260
   27.720    6.3016
   27.750    5.8803
   27.780    5.7574
   27.810    5.8452
   27.840    5.9681
   27.870    6.6175
   27.900    6.3016
   27.930    6.1611
   27.960    6.3367
   27.990    6.2313
   28.020    6.0734
   28.050    5.8452
   28.080    6.3191
   28.110    6.1436
   28.140    6.8984
   28.170    7.2670
   28.200    6.9861
   28.230    6.7053
   28.260    6.1085
   28.290    6.4244
   28.320    5.7925
   28.350    5.7925
   28.380    6.4946
   28.410    6.6526
   28.440    6.8633
   28.470    6.5298
   28.500    6.8808
   28.530    6.1787
   28.560    5.7048
   28.590    5.8452
   28.620    5.6697
   28.650    5.7223
   28.680    5.6521
   28.710    5.6872
   28.740    6.0032
   28.770    5.5292
   28.800    6.0032
   28.830    5.3888
   28.860    5.6872
   28.890    5.4941
   28.920    6.0032
   28.950    5.7223
   28.980    5.4064
   29.010    5.6521
   29.040    5.5819
   29.070    6.2313
   29.100    5.4590
   29.130    6.1085
   29.160    5.8452
   29.190    5.9505
   29.220    5.8978
   29.250    5.9154
   29.280    6.1787
   29.310    6.7930
   29.340    6.3718
   29.370    5.7399
   29.400    5.5468
   29.430    5.0728
   29.460    5.6521
   29.490    6.0207
   29.520    5.2133
   29.550    5.4766
   29.580    5.3537
   29.610    5.5117
   29.640    5.1606
   29.670    5.0904
   29.700    5.3537
   29.730    5.5468
   29.760    6.3191
   29.790    5.6697
   29.820    6.1260
   29.850    5.7925
   29.880    5.7750
   29.910    6.2313
   29.940    5.1606
   29.970    5.8627
   30.000    5.8978
   30.030    5.7399
   30.060    5.2835
   30.090    5.8276
   30.120    5.5819
   30.150    5.5994
   30.180    5.4590
   30.210    4.9500
   30.240    5.1606
   30.270    5.2484
   30.300    5.2484
   30.330    5.3010
   30.360    5.4941
   30.390    5.3010
   30.420    5.4941
   30.450    5.3186
   30.480    5.0026
   30.510    5.4415
   30.540    5.1255
   30.570    5.8452
   30.600    5.8978
   30.630    5.8276
   30.660    5.0904
   30.690    5.6521
   30.720    5.3361
   30.750    5.7399
   30.780    4.9851
   30.810    5.1431
   30.840    5.0904
   30.870    5.4415
   30.900    5.6345
   30.930    5.4239
   30.960    5.1080
   30.990    5.2835
   31.020    5.0553
   31.050    5.5643
   31.080    5.5468
   31.110    4.8447
   31.140    5.3186
   31.170    4.7569
   31.200    4.8447
   31.230    5.3361
   31.260    5.3010
   31.290    4.7920
   31.320    5.1606
   31.350    5.0026
   31.380    5.8101
   31.410    5.8101
   31.440    5.3010
   31.470    5.2133
   31.500    5.0728
   31.530    5.2133
   31.560    4.7744
   31.590    4.8622
   31.620    5.0553
   31.650    4.9675
   31.680    5.1255
   31.710    5.0904
   31.740    5.2835
   31.770    4.6516
   31.800    5.2133
   31.830    4.9149
   31.860    5.4239
   31.890    5.5292
   31.920    5.0553
   31.950    5.2659
   31.980    5.2133
   32.010    4.9851
   32.040    4.6867
   32.070    5.0728
   32.100    5.3186
   32.130    5.0728
   32.160    5.2659
   32.190    5.1606
   32.220    4.8798
   32.250    4.9149
   32.280    5.0026
   32.310    4.9500
   32.340    4.7042
   32.370    5.2133
   32.400    5.3186
   32.430    4.9149
   32.460    4.9500
   32.490    5.0377
   32.520    5.0026
   32.550    4.8271
   32.580    4.7042
   32.610    4.7218
   32.640    4.8798
   32.670    4.4234
   32.700    4.6691
   32.730    4.9851
   32.760    4.8973
   32.790    4.9851
   32.820    4.6165
   32.850    4.9851
   32.880    5.1255
   32.910    5.1606
   32.940    5.0904
   32.970    5.1782
   33.000    4.7393
   33.030    4.8973
   33.060    4.5989
   33.090    5.0026
   33.120    4.7920
   33.150    4.5638
   33.180    5.1782
   33.210    5.2484
   33.240    5.0904
   33.270    4.5814
   33.300    4.7218
   33.330    4.8622
   33.360    4.5287
   33.390    4.4234
   33.420    4.7042
   33.450    4.7042
   33.480    4.9324
   33.510    5.1431
   33.540    5.1080
   33.570    4.7744
   33.600    5.1606
   33.630    5.3537
   33.660    5.0377
   33.690    5.3361
   33.720    5.3537
   33.750    4.7218
   33.780    5.0202
   33.810    4.6516
   33.840    5.4064
   33.870    5.2308
   33.900    5.0553
   33.930    5.2659
   33.960    5.0904
   33.990    4.5111
   34.020    5.1606
   34.050    4.7393
   34.080    4.8271
   34.110    4.6867
   34.140    5.0202
   34.170    4.8973
   34.200    4.7920
   34.230    4.1776
   34.260    4.3883
   34.290    4.7920
   34.320    4.6340
   34.350    4.9149
   34.380    4.5287
   34.410    4.3356
   34.440    4.8447
   34.470    4.4585
   34.500    4.4936
   34.530    5.2308
   34.560    4.6516
   34.590    4.6165
   34.620    4.8095
   34.650    5.2484
   34.680    4.6516
   34.710    4.4409
   34.740    4.4585
   34.770    4.8798
   34.800    4.8095
   34.830    4.7393
   34.860    4.8095
   34.890    4.5638
   34.920    4.6165
   34.950    4.4234
   34.980    4.6340
   35.010    4.3181
   35.040    4.6867
   35.070    4.4760
   35.100    4.4409
   35.130    4.4058
   35.160    4.4936
   35.190    4.3005
   35.220    4.3181
   35.250    4.3707
   35.280    4.7744
   35.310    4.4936
   35.340    4.5463
   35.370    4.8271
   35.400    4.5111
   35.430    4.6340
   35.460    4.2654
   35.490    4.3356
   35.520    4.1952
   35.550    4.1425
   35.580    4.7218
   35.610    4.2127
   35.640    4.4760
   35.670    4.8447
   35.700    4.8973
   35.730    4.5111
   35.760    4.9149
   35.790    4.4585
   35.820    4.8095
   35.850    4.2830
   35.880    4.6516
   35.910    4.4760
   35.940    4.5638
   35.970    4.3005
   36.000    4.6165
   36.030    4.7744
   36.060    4.2830
   36.090    4.2127
   36.120    4.3532
   36.150    4.3707
   36.180    4.8447
   36.210    4.3356
   36.240    4.5287
   36.270    4.5111
   36.300    4.2127
   36.330    4.1250
   36.360    4.2654
   36.390    5.0026
   36.420    4.3707
   36.450    4.5463
   36.480    4.3532
   36.510    4.5638
   36.540    4.1425
   36.570    4.5111
   36.600    4.4058
   36.630    4.3532
   36.660    4.4058
   36.690    4.2478
   36.720    3.9143
   36.750    4.2127
   36.780    4.2830
   36.810    4.2478
   36.840    4.0197
   36.870    4.3707
   36.900    3.9670
   36.930    3.9846
   36.960    4.0723
   36.990    4.1601
   37.020    4.7042
   37.050    4.6691
   37.080    4.9675
   37.110    4.5814
   37.140    4.8095
   37.170    4.4936
   37.200    4.5814
   37.230    4.4409
   37.260    4.2478
   37.290    4.5111
   37.320    4.2478
   37.350    4.2654
   37.380    4.2830
   37.410    4.6516
   37.440    4.2478
   37.470    4.2654
   37.500    4.5814
   37.530    4.1074
   37.560    4.5463
   37.590    4.4058
   37.620    3.9494
   37.650    4.2303
   37.680    4.3181
   37.710    4.4409
   37.740    4.0021
   37.770    3.9494
   37.800    3.7915
   37.830    4.2654
   37.860    4.4058
   37.890    4.6165
   37.920    4.2478
   37.950    4.0197
   37.980    4.4058
   38.010    4.4409
   38.040    4.4936
   38.070    4.2303
   38.100    3.9494
   38.130    4.0723
   38.160    4.2478
   38.190    4.1074
   38.220    4.0548
   38.250    4.3356
   38.280    4.6340
   38.310    4.1952
   38.340    4.4409
   38.370    4.4936
   38.400    3.8266
   38.430    4.1425
   38.460    4.3356
   38.490    4.1425
   38.520    4.4409
   38.550    4.2127
   38.580    4.1250
   38.610    4.3356
   38.640    3.9143
   38.670    4.5814
   38.700    4.1601
   38.730    4.3356
   38.760    4.5638
   38.790    4.4760
   38.820    4.0899
   38.850    4.3883
   38.880    4.0899
   38.910    4.3181
   38.940    4.0548
   38.970    4.1952
   39.000    4.1250
   39.030    4.1250
   39.060    4.1250
   39.090    4.3883
   39.120    4.5463
   39.150    3.9846
   39.180    4.0723
   39.210    4.4760
   39.240    4.5111
   39.270    4.4409
   39.300    4.4409
   39.330    4.1776
   39.360    3.8968
   39.390    4.1952
   39.420    3.8266
   39.450    4.0723
   39.480    4.1074
   39.510    4.1776
   39.540    3.8792
   39.570    3.9846
   39.600    4.0548
   39.630    4.3356
   39.660    4.4409
   39.690    4.0197
   39.720    3.7213
   39.750    4.5287
   39.780    4.1074
   39.810    3.8968
   39.840    4.3181
   39.870    4.3181
   39.900    4.3181
   39.930    3.9670
   39.960    4.1425
   39.990    4.5463