File: data/PXRD/PXRD_KE-242-2_Co-Ka1_capillary-1mm_5s-deg.xyd
    1.500    4.7512
    1.530    4.7512
    1.560    4.3981
    1.590    4.4623
    1.620    4.3018
    1.650    4.0128
    1.680    3.7346
    1.710    3.3601
    1.740    3.5955
    1.770    3.3387
    1.800    3.1568
    1.830    3.0819
    1.860    3.0819
    1.890    2.7929
    1.920    2.8571
    1.950    2.6538
    1.980    2.3114
    2.010    2.6110
    2.040    2.5468
    2.070    2.3007
    2.100    2.4719
    2.130    2.3970
    2.160    2.1402
    2.190    2.1081
    2.220    2.1937
    2.250    1.9583
    2.280    2.1509
    2.310    1.9583
    2.340    1.8192
    2.370    1.5944
    2.400    2.0332
    2.430    1.9155
    2.460    1.8192
    2.490    1.7335
    2.520    1.8727
    2.550    1.7442
    2.580    1.5944
    2.610    1.6372
    2.640    1.6265
    2.670    1.4874
    2.700    1.5944
    2.730    1.5516
    2.760    1.3804
    2.790    1.4232
    2.820    1.4446
    2.850    1.0915
    2.880    1.4018
    2.910    1.4660
    2.940    1.4660
    2.970    1.2306
    3.000    1.3376
    3.030    1.2948
    3.060    1.2199
    3.090    1.2841
    3.120    1.0915
    3.150    1.4232
    3.180    1.3269
    3.210    1.3162
    3.240    1.2092
    3.270    1.2413
    3.300    1.2092
    3.330    1.1771
    3.360    1.2199
    3.390    1.1664
    3.420    1.2627
    3.450    1.1129
    3.480    1.0701
    3.510    1.1985
    3.540    1.1236
    3.570    1.3590
    3.600    1.1878
    3.630    1.1236
    3.660    1.4339
    3.690    1.4446
    3.720    1.3376
    3.750    1.3269
    3.780    1.2734
    3.810    1.4874
    3.840    1.4874
    3.870    1.8620
    3.900    1.8727
    3.930    2.0867
    3.960    2.4184
    3.990    2.6538
    4.020    2.8678
    4.050    3.1354
    4.080    3.8737
    4.110    4.0342
    4.140    4.9331
    4.170    5.9711
    4.200    6.6453
    4.230    7.6512
    4.260    9.0744
    4.290   10.9898
    4.320   13.2370
    4.350   16.0514
    4.380   19.7967
    4.410   23.9379
    4.440   31.3858
    4.470   42.0546
    4.500   63.6490
    4.530   74.1252
    4.560   23.5634
    4.590    5.1578
    4.620    2.6538
    4.650    1.8192
    4.680    1.2520
    4.710    1.3269
    4.740    0.9203
    4.770    1.1450
    4.800    0.9417
    4.830    0.7919
    4.860    0.9738
    4.890    0.8454
    4.920    0.8561
    4.950    0.9203
    4.980    0.8561
    5.010    0.7170
    5.040    0.6849
    5.070    0.7491
    5.100    0.8133
    5.130    0.5886
    5.160    0.8026
    5.190    0.6635
    5.220    0.7598
    5.250    0.7170
    5.280    0.6849
    5.310    0.7705
    5.340    0.7063
    5.370    0.7919
    5.400    0.8454
    5.430    0.7277
    5.460    0.6421
    5.490    0.7812
    5.520    0.7170
    5.550    0.7812
    5.580    0.7063
    5.610    0.8240
    5.640    0.7384
    5.670    0.7812
    5.700    0.7812
    5.730    0.7919
    5.760    0.6528
    5.790    0.7170
    5.820    0.6314
    5.850    0.6100
    5.880    0.6849
    5.910    0.6956
    5.940    0.7705
    5.970    0.8989
    6.000    0.6635
    6.030    0.8347
    6.060    0.9524
    6.090    1.0380
    6.120    1.0701
    6.150    1.1343
    6.180    1.4446
    6.210    1.7121
    6.240    2.0546
    6.270    2.2365
    6.300    2.8464
    6.330    3.8951
    6.360    5.3719
    6.390    8.3039
    6.420    7.3408
    6.450    2.4612
    6.480    1.2199
    6.510    0.8026
    6.540    0.6635
    6.570    0.7812
    6.600    0.5886
    6.630    0.4815
    6.660    0.6207
    6.690    0.5886
    6.720    0.5564
    6.750    0.4922
    6.780    0.5993
    6.810    0.6635
    6.840    0.6314
    6.870    0.8026
    6.900    0.6314
    6.930    0.5993
    6.960    0.4922
    6.990    0.4815
    7.020    0.5886
    7.050    0.6100
    7.080    0.5457
    7.110    0.5886
    7.140    0.5778
    7.170    0.6528
    7.200    0.5243
    7.230    0.5778
    7.260    0.6100
    7.290    0.5457
    7.320    0.5243
    7.350    0.5564
    7.380    0.5671
    7.410    0.5671
    7.440    0.5886
    7.470    0.4387
    7.500    0.6742
    7.530    0.6742
    7.560    0.6421
    7.590    0.5136
    7.620    0.5671
    7.650    0.6742
    7.680    0.6207
    7.710    0.5886
    7.740    0.7705
    7.770    0.6849
    7.800    0.9310
    7.830    0.9524
    7.860    1.0915
    7.890    0.7063
    7.920    0.7277
    7.950    0.5993
    7.980    0.5564
    8.010    0.6314
    8.040    0.4815
    8.070    0.4708
    8.100    0.5457
    8.130    0.5350
    8.160    0.4922
    8.190    0.6421
    8.220    0.5136
    8.250    0.5350
    8.280    0.7277
    8.310    0.5778
    8.340    0.4066
    8.370    0.6314
    8.400    0.4601
    8.430    0.5350
    8.460    0.4601
    8.490    0.5243
    8.520    0.6207
    8.550    0.5350
    8.580    0.5457
    8.610    0.5671
    8.640    0.5350
    8.670    0.5886
    8.700    0.5136
    8.730    0.4815
    8.760    0.5457
    8.790    0.6100
    8.820    0.6207
    8.850    0.6314
    8.880    0.7919
    8.910    0.8026
    8.940    0.9845
    8.970    1.0380
    9.000    1.3269
    9.030    1.9155
    9.060    2.9749
    9.090    2.4719
    9.120    1.1129
    9.150    0.5136
    9.180    0.5778
    9.210    0.5136
    9.240    0.5350
    9.270    0.4066
    9.300    0.5457
    9.330    0.5457
    9.360    0.5029
    9.390    0.4387
    9.420    0.5671
    9.450    0.5564
    9.480    0.4601
    9.510    0.5136
    9.540    0.5136
    9.570    0.4708
    9.600    0.5029
    9.630    0.5136
    9.660    0.3959
    9.690    0.4066
    9.720    0.3959
    9.750    0.4922
    9.780    0.4173
    9.810    0.6742
    9.840    0.4173
    9.870    0.4815
    9.900    0.4280
    9.930    0.5993
    9.960    0.4922
    9.990    0.5993
   10.020    0.5457
   10.050    0.6314
   10.080    0.5993
   10.110    0.6956
   10.140    1.0915
   10.170    0.8454
   10.200    0.5778
   10.230    0.4601
   10.260    0.5029
   10.290    0.6421
   10.320    0.4066
   10.350    0.5350
   10.380    0.5993
   10.410    0.4494
   10.440    0.4387
   10.470    0.5136
   10.500    0.4280
   10.530    0.4280
   10.560    0.5350
   10.590    0.5243
   10.620    0.5564
   10.650    0.4601
   10.680    0.5778
   10.710    0.4601
   10.740    0.4066
   10.770    0.5243
   10.800    0.4922
   10.830    0.4387
   10.860    0.5136
   10.890    0.5993
   10.920    0.8668
   10.950    1.0380
   10.980    0.9203
   11.010    1.4553
   11.040    1.8727
   11.070    2.7287
   11.100    4.7726
   11.130    4.7833
   11.160    2.1188
   11.190    0.9952
   11.220    0.6635
   11.250    0.6421
   11.280    0.5457
   11.310    0.5778
   11.340    0.5243
   11.370    0.5993
   11.400    0.5136
   11.430    0.6100
   11.460    0.3959
   11.490    0.5993
   11.520    0.5136
   11.550    0.3531
   11.580    0.4494
   11.610    0.4387
   11.640    0.5029
   11.670    0.4601
   11.700    0.4173
   11.730    0.5564
   11.760    0.5564
   11.790    0.4601
   11.820    0.5564
   11.850    0.5457
   11.880    0.6528
   11.910    0.7598
   11.940    0.9952
   11.970    1.2627
   12.000    2.0653
   12.030    1.6693
   12.060    1.0273
   12.090    0.6314
   12.120    0.5778
   12.150    0.4387
   12.180    0.4922
   12.210    0.4708
   12.240    0.3959
   12.270    0.3638
   12.300    0.4494
   12.330    0.5350
   12.360    0.4066
   12.390    0.4387
   12.420    0.4494
   12.450    0.3745
   12.480    0.3959
   12.510    0.4708
   12.540    0.4815
   12.570    0.4922
   12.600    0.4815
   12.630    0.5243
   12.660    0.4601
   12.690    0.6528
   12.720    0.6635
   12.750    0.9417
   12.780    1.0273
   12.810    1.6586
   12.840    2.1188
   12.870    1.8513
   12.900    0.8668
   12.930    0.6421
   12.960    0.6314
   12.990    0.4494
   13.020    0.5993
   13.050    0.5029
   13.080    0.5457
   13.110    0.4280
   13.140    0.3959
   13.170    0.3959
   13.200    0.4708
   13.230    0.4494
   13.260    0.4922
   13.290    0.5029
   13.320    0.4601
   13.350    0.5136
   13.380    0.4708
   13.410    0.4601
   13.440    0.5243
   13.470    0.5778
   13.500    0.6956
   13.530    0.7063
   13.560    0.9952
   13.590    1.4981
   13.620    1.9476
   13.650    2.1295
   13.680    1.1343
   13.710    0.5564
   13.740    0.5029
   13.770    0.5993
   13.800    0.4494
   13.830    0.4494
   13.860    0.4494
   13.890    0.5029
   13.920    0.5029
   13.950    0.4708
   13.980    0.3424
   14.010    0.4280
   14.040    0.5136
   14.070    0.3531
   14.100    0.3852
   14.130    0.3852
   14.160    0.5243
   14.190    0.4922
   14.220    0.4494
   14.250    0.3959
   14.280    0.5029
   14.310    0.4387
   14.340    0.6956
   14.370    0.6956
   14.400    0.6207
   14.430    0.5029
   14.460    0.5350
   14.490    0.4815
   14.520    0.3210
   14.550    0.3745
   14.580    0.4173
   14.610    0.4173
   14.640    0.5243
   14.670    0.5457
   14.700    0.3959
   14.730    0.5136
   14.760    0.4173
   14.790    0.4280
   14.820    0.4708
   14.850    0.4922
   14.880    0.3424
   14.910    0.4815
   14.940    0.5350
   14.970    0.6528
   15.000    0.8133
   15.030    1.0701
   15.060    1.5837
   15.090    1.8085
   15.120    1.0701
   15.150    0.5993
   15.180    0.4280
   15.210    0.4494
   15.240    0.4815
   15.270    0.4922
   15.300    0.3210
   15.330    0.4066
   15.360    0.4708
   15.390    0.3424
   15.420    0.4280
   15.450    0.5029
   15.480    0.4280
   15.510    0.4387
   15.540    0.2568
   15.570    0.4280
   15.600    0.4601
   15.630    0.5457
   15.660    0.4815
   15.690    0.6635
   15.720    0.9096
   15.750    1.0594
   15.780    1.0380
   15.810    0.7170
   15.840    0.4494
   15.870    0.4066
   15.900    0.3103
   15.930    0.4708
   15.960    0.3531
   15.990    0.4708
   16.020    0.4708
   16.050    0.3852
   16.080    0.4173
   16.110    0.4708
   16.140    0.3745
   16.170    0.4280
   16.200    0.4280
   16.230    0.3638
   16.260    0.4815
   16.290    0.6528
   16.320    0.5993
   16.350    0.7705
   16.380    0.9952
   16.410    1.1878
   16.440    0.9524
   16.470    0.7277
   16.500    0.4601
   16.530    0.3638
   16.560    0.3531
   16.590    0.3852
   16.620    0.4815
   16.650    0.4066
   16.680    0.4173
   16.710    0.4066
   16.740    0.3745
   16.770    0.5029
   16.800    0.3959
   16.830    0.4387
   16.860    0.4494
   16.890    0.5136
   16.920    0.4280
   16.950    0.4280
   16.980    0.4601
   17.010    0.4066
   17.040    0.3852
   17.070    0.5457
   17.100    0.4280
   17.130    0.4387
   17.160    0.3745
   17.190    0.3424
   17.220    0.3852
   17.250    0.4387
   17.280    0.3852
   17.310    0.3638
   17.340    0.3424
   17.370    0.4173
   17.400    0.3531
   17.430    0.4601
   17.460    0.4494
   17.490    0.3210
   17.520    0.5350
   17.550    0.5029
   17.580    0.5886
   17.610    0.8882
   17.640    0.7919
   17.670    0.7170
   17.700    0.5243
   17.730    0.4387
   17.760    0.4280
   17.790    0.4708
   17.820    0.4922
   17.850    0.4173
   17.880    0.4815
   17.910    0.4280
   17.940    0.5029
   17.970    0.4815
   18.000    0.3531
   18.030    0.3638
   18.060    0.4387
   18.090    0.3852
   18.120    0.3210
   18.150    0.3852
   18.180    0.3210
   18.210    0.4173
   18.240    0.3210
   18.270    0.3210
   18.300    0.3210
   18.330    0.4387
   18.360    0.3531
   18.390    0.4066
   18.420    0.3531
   18.450    0.3210
   18.480    0.3531
   18.510    0.3531
   18.540    0.3531
   18.570    0.3745
   18.600    0.3531
   18.630    0.4066
   18.660    0.4280
   18.690    0.4601
   18.720    0.4387
   18.750    0.6528
   18.780    0.7063
   18.810    0.5886
   18.840    0.4815
   18.870    0.5029
   18.900    0.4066
   18.930    0.3103
   18.960    0.5136
   18.990    0.4280
   19.020    0.3531
   19.050    0.3638
   19.080    0.4066
   19.110    0.5136
   19.140    0.4387
   19.170    0.4173
   19.200    0.4601
   19.230    0.4173
   19.260    0.5136
   19.290    0.6956
   19.320    0.7812
   19.350    0.7384
   19.380    0.6849
   19.410    0.5457
   19.440    0.3852
   19.470    0.4815
   19.500    0.4173
   19.530    0.3959
   19.560    0.3638
   19.590    0.4066
   19.620    0.4601
   19.650    0.4173
   19.680    0.3424
   19.710    0.4280
   19.740    0.4708
   19.770    0.4280
   19.800    0.7170
   19.830    1.1557
   19.860    1.1664
   19.890    1.1771
   19.920    0.6849
   19.950    0.5029
   19.980    0.4601
   20.010    0.5029
   20.040    0.5136
   20.070    0.4815
   20.100    0.3745
   20.130    0.3959
   20.160    0.4387
   20.190    0.3852
   20.220    0.4387
   20.250    0.3852
   20.280    0.5136
   20.310    0.4387
   20.340    0.6100
   20.370    0.5350
   20.400    0.5350
   20.430    0.5243
   20.460    0.4922
   20.490    0.4280
   20.520    0.4815
   20.550    0.3103
   20.580    0.3638
   20.610    0.4494
   20.640    0.4280
   20.670    0.3745
   20.700    0.4066
   20.730    0.3959
   20.760    0.3103
   20.790    0.4280
   20.820    0.4494
   20.850    0.6207
   20.880    0.5350
   20.910    0.6421
   20.940    0.5778
   20.970    0.3745
   21.000    0.4708
   21.030    0.4494
   21.060    0.4387
   21.090    0.4387
   21.120    0.3317
   21.150    0.5029
   21.180    0.3852
   21.210    0.3959
   21.240    0.4601
   21.270    0.4066
   21.300    0.3959
   21.330    0.5029
   21.360    0.6528
   21.390    0.5993
   21.420    0.6528
   21.450    0.6742
   21.480    0.4173
   21.510    0.4280
   21.540    0.3638
   21.570    0.4601
   21.600    0.4387
   21.630    0.5350
   21.660    0.3317
   21.690    0.4280
   21.720    0.4066
   21.750    0.4815
   21.780    0.4708
   21.810    0.3745
   21.840    0.4708
   21.870    0.5457
   21.900    0.4066
   21.930    0.4815
   21.960    0.3638
   21.990    0.4173
   22.020    0.4066
   22.050    0.3531
   22.080    0.4494
   22.110    0.3745
   22.140    0.4922
   22.170    0.4280
   22.200    0.3317
   22.230    0.3638
   22.260    0.3638
   22.290    0.5136
   22.320    0.4066
   22.350    0.4922
   22.380    0.4173
   22.410    0.4922
   22.440    0.4601
   22.470    0.4708
   22.500    0.3745
   22.530    0.4173
   22.560    0.4066
   22.590    0.4601
   22.620    0.3745
   22.650    0.5350
   22.680    0.4601
   22.710    0.4708
   22.740    0.5350
   22.770    0.6528
   22.800    0.6314
   22.830    0.7705
   22.860    0.6421
   22.890    0.7277
   22.920    0.4815
   22.950    0.4066
   22.980    0.5564
   23.010    0.4494
   23.040    0.3959
   23.070    0.4387
   23.100    0.4173
   23.130    0.4280
   23.160    0.4494
   23.190    0.4922
   23.220    0.5350
   23.250    0.5243
   23.280    0.5778
   23.310    0.5564
   23.340    0.3424
   23.370    0.4922
   23.400    0.5778
   23.430    0.4601
   23.460    0.4494
   23.490    0.4494
   23.520    0.5136
   23.550    0.4387
   23.580    0.5029
   23.610    0.5136
   23.640    0.6100
   23.670    0.7705
   23.700    1.1343
   23.730    1.0487
   23.760    1.1129
   23.790    1.0059
   23.820    0.5350
   23.850    0.5886
   23.880    0.5136
   23.910    0.4708
   23.940    0.5029
   23.970    0.4815
   24.000    0.3531
   24.030    0.3745
   24.060    0.4494
   24.090    0.4815
   24.120    0.5457
   24.150    0.5671
   24.180    0.4280
   24.210    0.5029
   24.240    0.4173
   24.270    0.5029
   24.300    0.4494
   24.330    0.4494
   24.360    0.3959
   24.390    0.4922
   24.420    0.4387
   24.450    0.4708
   24.480    0.6207
   24.510    0.4280
   24.540    0.4494
   24.570    0.4280
   24.600    0.3959
   24.630    0.4387
   24.660    0.4066
   24.690    0.4173
   24.720    0.5243
   24.750    0.4280
   24.780    0.5136
   24.810    0.4387
   24.840    0.4280
   24.870    0.5564
   24.900    0.5671
   24.930    0.4922
   24.960    0.4387
   24.990    0.5243
   25.020    0.4601
   25.050    0.4494
   25.080    0.5136
   25.110    0.5350
   25.140    0.3745
   25.170    0.4922
   25.200    0.4280
   25.230    0.4280
   25.260    0.4601
   25.290    0.4066
   25.320    0.5243
   25.350    0.4708
   25.380    0.5564
   25.410    0.6314
   25.440    0.7705
   25.470    0.6528
   25.500    0.7384
   25.530    0.5564
   25.560    0.4708
   25.590    0.4601
   25.620    0.4708
   25.650    0.4280
   25.680    0.4280
   25.710    0.4922
   25.740    0.4494
   25.770    0.5029
   25.800    0.4387
   25.830    0.6635
   25.860    0.5993
   25.890    0.5671
   25.920    0.6956
   25.950    0.5457
   25.980    0.4815
   26.010    0.4708
   26.040    0.4173
   26.070    0.6207
   26.100    0.5243
   26.130    0.4815
   26.160    0.5457
   26.190    0.5778
   26.220    0.8561
   26.250    1.0915
   26.280    1.1343
   26.310    1.0487
   26.340    1.1450
   26.370    0.6742
   26.400    0.5993
   26.430    0.5350
   26.460    0.4494
   26.490    0.4922
   26.520    0.4708
   26.550    0.4387
   26.580    0.6421
   26.610    0.8026
   26.640    1.0594
   26.670    1.1985
   26.700    1.2520
   26.730    1.1022
   26.760    0.9203
   26.790    0.6742
   26.820    0.5671
   26.850    0.5136
   26.880    0.4708
   26.910    0.5350
   26.940    0.5564
   26.970    0.3745
   27.000    0.5671
   27.030    0.7170
   27.060    0.6207
   27.090    0.6421
   27.120    0.6100
   27.150    0.6421
   27.180    0.4922
   27.210    0.4815
   27.240    0.4280
   27.270    0.4173
   27.300    0.4494
   27.330    0.3745
   27.360    0.4494
   27.390    0.4708
   27.420    0.4922
   27.450    0.5029
   27.480    0.6956
   27.510    0.4173
   27.540    0.4173
   27.570    0.5671
   27.600    0.5350
   27.630    0.4280
   27.660    0.5350
   27.690    0.4922
   27.720    0.4387
   27.750    0.4173
   27.780    0.4708
   27.810    0.7170
   27.840    0.6849
   27.870    0.7170
   27.900    0.7277
   27.930    0.5993
   27.960    0.5243
   27.990    0.5564
   28.020    0.4494
   28.050    0.5029
   28.080    0.4601
   28.110    0.4494
   28.140    0.4387
   28.170    0.4708
   28.200    0.4494
   28.230    0.4387
   28.260    0.3852
   28.290    0.3745
   28.320    0.5457
   28.350    0.3317
   28.380    0.4815
   28.410    0.4280
   28.440    0.4280
   28.470    0.3852
   28.500    0.4066
   28.530    0.4066
   28.560    0.4708
   28.590    0.5993
   28.620    0.4601
   28.650    0.5564
   28.680    0.5350
   28.710    0.4815
   28.740    0.4601
   28.770    0.4280
   28.800    0.4280
   28.830    0.4815
   28.860    0.3959
   28.890    0.4922
   28.920    0.4173
   28.950    0.4280
   28.980    0.5136
   29.010    0.4387
   29.040    0.4708
   29.070    0.4494
   29.100    0.4066
   29.130    0.4815
   29.160    0.3959
   29.190    0.4708
   29.220    0.3852
   29.250    0.4922
   29.280    0.5029
   29.310    0.4708
   29.340    0.5671
   29.370    0.5243
   29.400    0.5243
   29.430    0.4922
   29.460    0.4708
   29.490    0.5136
   29.520    0.4494
   29.550    0.4494
   29.580    0.3745
   29.610    0.4387
   29.640    0.4066
   29.670    0.5136
   29.700    0.4922
   29.730    0.3638
   29.760    0.4815
   29.790    0.5457
   29.820    0.4922
   29.850    0.4601
   29.880    0.4173
   29.910    0.3531
   29.940    0.3424
   29.970    0.4708
   30.000    0.4922
   30.030    0.6956
   30.060    0.8026
   30.090    0.8561
   30.120    0.9310
   30.150    0.8133
   30.180    0.7063
   30.210    0.5136
   30.240    0.3959
   30.270    0.4601
   30.300    0.6100
   30.330    0.3852
   30.360    0.3638
   30.390    0.3317
   30.420    0.3852
   30.450    0.3959
   30.480    0.4387
   30.510    0.5778
   30.540    0.4280
   30.570    0.4280
   30.600    0.3531
   30.630    0.4387
   30.660    0.4173
   30.690    0.3852
   30.720    0.4066
   30.750    0.5886
   30.780    0.5457
   30.810    0.5457
   30.840    0.6100
   30.870    0.4494
   30.900    0.5778
   30.930    0.4708
   30.960    0.4922
   30.990    0.4708
   31.020    0.3959
   31.050    0.3638
   31.080    0.3852
   31.110    0.5886
   31.140    0.4815
   31.170    0.3745
   31.200    0.3745
   31.230    0.3317
   31.260    0.2996
   31.290    0.4173
   31.320    0.4066
   31.350    0.4066
   31.380    0.4173
   31.410    0.4494
   31.440    0.5350
   31.470    0.4280
   31.500    0.7598
   31.530    0.6314
   31.560    0.6742
   31.590    0.5457
   31.620    0.3959
   31.650    0.3852
   31.680    0.4708
   31.710    0.4066
   31.740    0.4173
   31.770    0.2782
   31.800    0.3745
   31.830    0.3852
   31.860    0.4173
   31.890    0.3531
   31.920    0.3852
   31.950    0.3103
   31.980    0.4280
   32.010    0.3424
   32.040    0.3638
   32.070    0.3638
   32.100    0.3103
   32.130    0.5029
   32.160    0.5243
   32.190    0.4494
   32.220    0.4708
   32.250    0.4601
   32.280    0.4066
   32.310    0.5778
   32.340    0.4280
   32.370    0.3424
   32.400    0.3210
   32.430    0.3852
   32.460    0.4173
   32.490    0.4494
   32.520    0.5243
   32.550    0.4922
   32.580    0.5243
   32.610    0.5136
   32.640    0.4708
   32.670    0.3959
   32.700    0.4708
   32.730    0.4708
   32.760    0.4922
   32.790    0.4601
   32.820    0.4601
   32.850    0.7170
   32.880    0.6314
   32.910    0.5886
   32.940    0.5671
   32.970    0.4280
   33.000    0.4387
   33.030    0.4601
   33.060    0.4280
   33.090    0.4280
   33.120    0.4494
   33.150    0.5350
   33.180    0.5993
   33.210    0.6100
   33.240    0.5778
   33.270    0.5457
   33.300    0.3852
   33.330    0.4387
   33.360    0.4066
   33.390    0.2889
   33.420    0.4494
   33.450    0.4708
   33.480    0.3852
   33.510    0.2889
   33.540    0.3852
   33.570    0.3210
   33.600    0.3317
   33.630    0.3103
   33.660    0.3424
   33.690    0.4601
   33.720    0.2996
   33.750    0.4708
   33.780    0.4601
   33.810    0.3638
   33.840    0.4066
   33.870    0.3210
   33.900    0.4387
   33.930    0.3103
   33.960    0.3852
   33.990    0.4280
   34.020    0.4280
   34.050    0.4494
   34.080    0.4387
   34.110    0.4708
   34.140    0.3959
   34.170    0.6635
   34.200    0.4280
   34.230    0.5029
   34.260    0.4708
   34.290    0.4708
   34.320    0.2996
   34.350    0.3424
   34.380    0.3317
   34.410    0.4173
   34.440    0.2568
   34.470    0.2675
   34.500    0.3531
   34.530    0.3745
   34.560    0.3531
   34.590    0.3959
   34.620    0.3531
   34.650    0.3638
   34.680    0.3424
   34.710    0.3959
   34.740    0.3103
   34.770    0.4494
   34.800    0.4601
   34.830    0.3317
   34.860    0.4066
   34.890    0.3852
   34.920    0.3852
   34.950    0.4708
   34.980    0.3210
   35.010    0.3317
   35.040    0.3531
   35.070    0.3852
   35.100    0.3531
   35.130    0.4280
   35.160    0.2782
   35.190    0.4066
   35.220    0.3424
   35.250    0.3638
   35.280    0.2461
   35.310    0.3638
   35.340    0.3210
   35.370    0.3638
   35.400    0.3424
   35.430    0.3745
   35.460    0.3531
   35.490    0.2889
   35.520    0.4387
   35.550    0.2782
   35.580    0.3852
   35.610    0.2996
   35.640    0.3531
   35.670    0.4173
   35.700    0.4280
   35.730    0.4280
   35.760    0.3745
   35.790    0.3852
   35.820    0.2675
   35.850    0.2889
   35.880    0.2996
   35.910    0.3424
   35.940    0.3531
   35.970    0.3210
   36.000    0.3531
   36.030    0.2461
   36.060    0.3531
   36.090    0.3103
   36.120    0.4066
   36.150    0.2889
   36.180    0.2247
   36.210    0.2996
   36.240    0.3103
   36.270    0.2782
   36.300    0.2889
   36.330    0.3424
   36.360    0.2889
   36.390    0.3424
   36.420    0.3210
   36.450    0.2568
   36.480    0.2461
   36.510    0.2675
   36.540    0.3317
   36.570    0.4066
   36.600    0.3959
   36.630    0.4708
   36.660    0.3317
   36.690    0.3745
   36.720    0.4708
   36.750    0.3210
   36.780    0.3531
   36.810    0.3531
   36.840    0.3531
   36.870    0.2889
   36.900    0.3210
   36.930    0.3638
   36.960    0.3103
   36.990    0.3852
   37.020    0.4494
   37.050    0.2782
   37.080    0.3103
   37.110    0.3424
   37.140    0.3745
   37.170    0.3210
   37.200    0.3317
   37.230    0.3210
   37.260    0.3103
   37.290    0.3531
   37.320    0.3210
   37.350    0.3103
   37.380    0.2461
   37.410    0.2461
   37.440    0.2461
   37.470    0.2889
   37.500    0.2996
   37.530    0.2889
   37.560    0.3103
   37.590    0.3210
   37.620    0.3103
   37.650    0.3210
   37.680    0.2782
   37.710    0.3424
   37.740    0.3103
   37.770    0.3424
   37.800    0.1926
   37.830    0.3531
   37.860    0.3852
   37.890    0.2247
   37.920    0.2354
   37.950    0.2568
   37.980    0.3424
   38.010    0.2140
   38.040    0.2889
   38.070    0.2354
   38.100    0.3424
   38.130    0.2782
   38.160    0.2996
   38.190    0.2996
   38.220    0.2568
   38.250    0.2354
   38.280    0.2889
   38.310    0.3638
   38.340    0.3210
   38.370    0.3531
   38.400    0.2568
   38.430    0.2782
   38.460    0.2782
   38.490    0.3103
   38.520    0.2889
   38.550    0.2354
   38.580    0.1926
   38.610    0.1926
   38.640    0.3424
   38.670    0.2568
   38.700    0.2889
   38.730    0.2675
   38.760    0.3103
   38.790    0.3317
   38.820    0.3745
   38.850    0.2889
   38.880    0.2996
   38.910    0.2568
   38.940    0.2247
   38.970    0.2247
   39.000    0.2782
   39.030    0.2782
   39.060    0.2996
   39.090    0.3210
   39.120    0.2675
   39.150    0.2247
   39.180    0.2782
   39.210    0.2889
   39.240    0.2247
   39.270    0.2889
   39.300    0.2568
   39.330    0.2675
   39.360    0.2461
   39.390    0.2568
   39.420    0.1926
   39.450    0.3103
   39.480    0.2889
   39.510    0.2996
   39.540    0.3210
   39.570    0.3317
   39.600    0.2889
   39.630    0.2996
   39.660    0.3317
   39.690    0.2675
   39.720    0.3103
   39.750    0.2889
   39.780    0.3638
   39.810    0.2354
   39.840    0.2568
   39.870    0.2889
   39.900    0.3210
   39.930    0.3210
   39.960    0.1819
   39.990    0.2461