File: data/PXRD/PXRD_KE-035_Cu-Ka1_film-3mm_5s-deg.xyd
    1.500   11.4271
    1.530   11.8273
    1.560   10.7425
    1.590   10.5424
    1.620   10.5951
    1.650   10.5635
    1.680   10.8689
    1.710    9.9526
    1.740    9.5945
    1.770    9.7525
    1.800    9.5208
    1.830    9.9315
    1.860    9.4787
    1.890    9.7630
    1.920    9.2786
    1.950    8.5203
    1.980    9.1417
    2.010    8.8468
    2.040    8.8889
    2.070    8.7730
    2.100    8.9942
    2.130    8.6572
    2.160    8.5308
    2.190    8.3412
    2.220    8.7309
    2.250    8.5940
    2.280    7.8989
    2.310    7.9516
    2.340    8.0463
    2.370    8.2359
    2.400    7.9831
    2.430    8.0147
    2.460    8.2675
    2.490    8.0463
    2.520    7.7936
    2.550    7.6356
    2.580    8.1938
    2.610    8.0885
    2.640    8.0674
    2.670    7.9726
    2.700    8.1622
    2.730    7.8357
    2.760    8.3623
    2.790    8.8152
    2.820    8.5519
    2.850    8.1411
    2.880    8.7098
    2.910    9.1522
    2.940    8.8889
    2.970    9.9737
    3.000    9.7314
    3.030   10.4687
    3.060   10.2370
    3.090   10.2580
    3.120   11.5008
    3.150   11.6061
    3.180   12.4908
    3.210   12.4381
    3.240   13.2070
    3.270   14.7341
    3.300   15.4924
    3.330   16.0611
    3.360   18.0621
    3.390   18.3360
    3.420   20.2001
    3.450   20.8426
    3.480   21.6324
    3.510   21.2744
    3.540   20.4002
    3.570   19.1048
    3.600   18.8626
    3.630   17.5040
    3.660   16.1664
    3.690   16.0084
    3.720   15.7873
    3.750   15.3028
    3.780   15.3449
    3.810   15.1659
    3.840   16.1243
    3.870   15.2712
    3.900   14.9552
    3.930   13.8705
    3.960   13.7441
    3.990   13.4597
    4.020   11.9642
    4.050   11.5429
    4.080   10.7320
    4.110   10.4687
    4.140    9.8684
    4.170    9.1311
    4.200    8.7098
    4.230    8.4992
    4.260    8.3939
    4.290    7.8568
    4.320    7.9937
    4.350    7.4566
    4.380    7.4671
    4.410    7.6040
    4.440    7.4355
    4.470    7.1511
    4.500    7.5303
    4.530    6.9405
    4.560    6.8036
    4.590    7.1722
    4.620    6.7615
    4.650    7.0458
    4.680    6.9194
    4.710    7.3091
    4.740    6.5403
    4.770    6.9721
    4.800    6.9089
    4.830    7.1722
    4.860    6.6772
    4.890    7.1722
    4.920    6.8562
    4.950    6.9194
    4.980    6.5929
    5.010    6.8352
    5.040    7.1195
    5.070    7.3828
    5.100    6.9300
    5.130    7.7936
    5.160    7.9831
    5.190    7.4460
    5.220    7.4144
    5.250    7.6883
    5.280    7.6356
    5.310    8.3518
    5.340    7.7514
    5.370    8.0990
    5.400    8.2570
    5.430    8.5519
    5.460    8.1095
    5.490    8.7941
    5.520    8.6783
    5.550    8.1517
    5.580    8.2675
    5.610    8.6888
    5.640    8.2675
    5.670    8.4466
    5.700    8.2886
    5.730    8.0358
    5.760    8.0042
    5.790    7.9305
    5.820    7.6883
    5.850    7.2354
    5.880    7.3934
    5.910    7.2880
    5.940    7.0985
    5.970    7.3407
    6.000    6.2454
    6.030    6.7615
    6.060    6.5929
    6.090    6.3296
    6.120    5.9716
    6.150    6.3612
    6.180    6.4771
    6.210    6.3507
    6.240    6.3086
    6.270    6.1401
    6.300    6.0664
    6.330    6.3507
    6.360    5.9400
    6.390    6.2875
    6.420    6.0032
    6.450    6.3507
    6.480    6.2770
    6.510    5.8031
    6.540    6.0453
    6.570    5.8136
    6.600    5.8347
    6.630    5.7609
    6.660    5.8557
    6.690    6.0979
    6.720    5.7188
    6.750    6.0558
    6.780    6.4876
    6.810    6.5298
    6.840    6.5192
    6.870    6.3507
    6.900    6.2875
    6.930    6.7720
    6.960    6.7509
    6.990    7.0142
    7.020    6.8878
    7.050    6.9405
    7.080    6.3928
    7.110    6.2454
    7.140    6.0558
    7.170    5.9716
    7.200    5.8347
    7.230    5.4028
    7.260    5.6977
    7.290    5.5398
    7.320    5.3291
    7.350    4.9921
    7.380    5.1711
    7.410    5.0974
    7.440    4.7815
    7.470    4.9921
    7.500    5.5292
    7.530    5.2238
    7.560    5.3607
    7.590    5.2449
    7.620    5.0658
    7.650    5.2765
    7.680    5.2975
    7.710    5.3186
    7.740    5.4450
    7.770    5.3712
    7.800    5.2870
    7.830    5.7399
    7.860    5.6029
    7.890    5.4871
    7.920    5.5924
    7.950    5.4871
    7.980    5.1817
    8.010    4.7393
    8.040    4.8552
    8.070    5.0026
    8.100    4.7604
    8.130    4.6024
    8.160    4.1917
    8.190    4.8025
    8.220    4.5498
    8.250    4.1811
    8.280    4.7709
    8.310    4.2338
    8.340    4.1074
    8.370    4.3497
    8.400    4.2654
    8.430    4.0969
    8.460    4.0021
    8.490    4.2022
    8.520    4.3707
    8.550    4.1601
    8.580    3.9073
    8.610    3.8336
    8.640    3.8547
    8.670    3.8231
    8.700    3.9494
    8.730    4.0337
    8.760    3.8968
    8.790    4.0548
    8.820    4.0021
    8.850    3.9284
    8.880    3.8863
    8.910    3.7599
    8.940    4.0758
    8.970    4.0969
    9.000    4.0232
    9.030    3.9389
    9.060    3.8020
    9.090    3.6967
    9.120    3.8231
    9.150    3.6124
    9.180    3.9179
    9.210    3.6124
    9.240    3.9705
    9.270    3.7599
    9.300    3.4123
    9.330    3.4650
    9.360    4.1496
    9.390    3.5703
    9.420    3.9810
    9.450    3.7388
    9.480    4.0969
    9.510    3.5808
    9.540    3.6019
    9.570    3.8020
    9.600    3.7809
    9.630    3.6546
    9.660    3.8547
    9.690    3.6546
    9.720    3.6440
    9.750    3.5071
    9.780    3.6019
    9.810    3.7809
    9.840    3.6440
    9.870    3.6756
    9.900    3.6651
    9.930    3.6019
    9.960    3.8336
    9.990    3.5914
   10.020    3.7177
   10.050    3.8863
   10.080    3.6756
   10.110    3.6756
   10.140    4.0864
   10.170    3.7704
   10.200    3.8441
   10.230    3.8020
   10.260    3.6124
   10.290    3.9600
   10.320    3.6862
   10.350    3.5703
   10.380    3.6862
   10.410    3.4650
   10.440    3.6546
   10.470    3.6440
   10.500    3.7704
   10.530    4.0021
   10.560    4.1180
   10.590    4.1706
   10.620    3.6967
   10.650    3.8336
   10.680    3.8863
   10.710    3.8968
   10.740    3.8441
   10.770    3.9810
   10.800    4.0442
   10.830    3.7915
   10.860    4.0758
   10.890    3.7704
   10.920    3.9179
   10.950    4.0232
   10.980    3.6335
   11.010    3.9179
   11.040    3.8020
   11.070    3.9284
   11.100    4.0232
   11.130    4.0442
   11.160    3.8336
   11.190    4.1285
   11.220    3.7704
   11.250    4.1074
   11.280    4.2127
   11.310    3.8125
   11.340    4.0021
   11.370    4.0126
   11.400    4.1706
   11.430    3.9705
   11.460    4.2338
   11.490    4.1074
   11.520    4.0232
   11.550    3.8968
   11.580    3.9284
   11.610    3.9600
   11.640    4.1390
   11.670    4.0232
   11.700    4.1285
   11.730    3.9494
   11.760    3.8547
   11.790    4.0758
   11.820    3.8652
   11.850    4.2022
   11.880    3.8968
   11.910    3.8020
   11.940    4.0232
   11.970    3.7915
   12.000    3.6967
   12.030    4.1917
   12.060    3.8757
   12.090    3.9389
   12.120    3.8757
   12.150    3.7599
   12.180    4.0548
   12.210    3.8020
   12.240    3.7599
   12.270    3.8125
   12.300    3.6546
   12.330    3.8125
   12.360    4.0126
   12.390    3.7809
   12.420    3.5598
   12.450    3.7704
   12.480    3.6756
   12.510    3.5808
   12.540    3.7704
   12.570    3.8020
   12.600    3.7704
   12.630    3.5914
   12.660    3.9494
   12.690    3.6651
   12.720    3.5282
   12.750    3.7915
   12.780    3.5914
   12.810    3.7493
   12.840    4.0021
   12.870    4.0126
   12.900    3.8125
   12.930    3.7072
   12.960    3.6651
   12.990    3.6019
   13.020    3.5598
   13.050    3.4334
   13.080    3.8020
   13.110    3.6440
   13.140    3.6546
   13.170    3.5282
   13.200    3.5703
   13.230    3.6546
   13.260    3.7599
   13.290    3.5492
   13.320    3.6019
   13.350    3.6440
   13.380    3.6335
   13.410    3.5387
   13.440    3.5071
   13.470    3.7704
   13.500    3.7599
   13.530    3.5071
   13.560    3.6967
   13.590    3.5282
   13.620    3.6546
   13.650    3.6546
   13.680    3.7915
   13.710    3.7704
   13.740    3.7599
   13.770    3.8231
   13.800    3.7388
   13.830    3.9179
   13.860    3.8863
   13.890    3.8757
   13.920    3.7809
   13.950    3.8547
   13.980    3.8757
   14.010    3.7283
   14.040    3.8441
   14.070    3.6019
   14.100    4.1074
   14.130    3.7704
   14.160    3.7599
   14.190    4.0653
   14.220    3.9494
   14.250    4.0337
   14.280    4.1496
   14.310    4.1390
   14.340    4.2022
   14.370    3.9916
   14.400    3.9179
   14.430    4.2127
   14.460    4.2127
   14.490    4.4234
   14.520    4.0969
   14.550    3.7283
   14.580    3.9810
   14.610    4.1496
   14.640    4.2338
   14.670    3.9705
   14.700    4.0548
   14.730    3.9494
   14.760    4.1074
   14.790    4.1180
   14.820    4.2127
   14.850    3.5598
   14.880    4.1917
   14.910    3.4966
   14.940    3.8547
   14.970    3.8125
   15.000    3.7493
   15.030    3.7493
   15.060    3.7493
   15.090    3.6967
   15.120    3.8547
   15.150    3.5387
   15.180    3.8125
   15.210    3.8125
   15.240    3.6440
   15.270    3.7493
   15.300    3.7493
   15.330    3.6651
   15.360    3.2649
   15.390    3.6862
   15.420    3.5914
   15.450    3.4439
   15.480    3.7177
   15.510    3.3281
   15.540    3.4439
   15.570    3.5808
   15.600    3.6967
   15.630    3.4860
   15.660    3.5703
   15.690    3.6546
   15.720    3.8968
   15.750    3.3807
   15.780    3.6230
   15.810    3.6651
   15.840    3.7704
   15.870    3.6862
   15.900    3.6862
   15.930    3.7177
   15.960    3.7493
   15.990    3.7177
   16.020    3.6651
   16.050    3.4650
   16.080    3.4650
   16.110    3.7072
   16.140    3.6019
   16.170    3.6546
   16.200    3.6230
   16.230    3.6546
   16.260    3.3175
   16.290    3.3702
   16.320    3.7599
   16.350    3.4439
   16.380    3.3597
   16.410    3.7388
   16.440    3.5914
   16.470    3.6651
   16.500    3.5598
   16.530    3.7177
   16.560    3.3175
   16.590    3.3702
   16.620    3.2438
   16.650    3.7704
   16.680    3.9705
   16.710    3.4018
   16.740    3.6124
   16.770    3.7809
   16.800    3.5492
   16.830    3.5703
   16.860    3.4755
   16.890    3.6546
   16.920    3.4123
   16.950    3.5914
   16.980    3.5914
   17.010    3.3175
   17.040    3.9494
   17.070    3.5914
   17.100    3.4650
   17.130    3.8125
   17.160    3.3175
   17.190    3.5703
   17.220    3.2965
   17.250    3.5703
   17.280    3.6967
   17.310    3.8020
   17.340    3.6862
   17.370    3.6335
   17.400    3.4966
   17.430    3.8652
   17.460    3.4229
   17.490    3.6546
   17.520    3.3281
   17.550    3.5808
   17.580    3.4018
   17.610    3.6440
   17.640    3.9389
   17.670    3.8231
   17.700    3.0964
   17.730    3.8863
   17.760    3.3597
   17.790    3.4334
   17.820    3.9494
   17.850    3.8125
   17.880    3.5387
   17.910    3.5808
   17.940    3.5492
   17.970    3.4334
   18.000    3.7177
   18.030    3.4018
   18.060    3.7915
   18.090    3.7915
   18.120    3.4966
   18.150    3.3386
   18.180    3.4860
   18.210    3.4650
   18.240    3.5598
   18.270    3.3386
   18.300    3.4966
   18.330    3.5176
   18.360    3.6124
   18.390    3.5492
   18.420    3.6967
   18.450    3.6019
   18.480    3.6019
   18.510    3.6756
   18.540    3.5176
   18.570    3.2965
   18.600    3.5914
   18.630    3.2754
   18.660    3.3070
   18.690    3.5176
   18.720    3.6756
   18.750    3.5282
   18.780    3.8757
   18.810    3.6335
   18.840    3.5176
   18.870    3.6335
   18.900    3.5176
   18.930    3.4544
   18.960    3.5808
   18.990    3.4966
   19.020    3.6335
   19.050    3.6756
   19.080    3.4123
   19.110    3.5703
   19.140    3.4860
   19.170    3.4018
   19.200    3.6756
   19.230    3.7177
   19.260    3.5808
   19.290    3.6335
   19.320    3.3597
   19.350    3.6756
   19.380    3.3491
   19.410    3.4334
   19.440    3.6019
   19.470    3.3070
   19.500    3.2965
   19.530    3.3175
   19.560    3.7599
   19.590    3.2754
   19.620    3.5703
   19.650    3.2543
   19.680    3.6862
   19.710    3.6230
   19.740    2.9910
   19.770    3.4966
   19.800    3.2333
   19.830    3.2543
   19.860    3.2965
   19.890    3.2649
   19.920    3.3913
   19.950    3.3597
   19.980    3.1490
   20.010    3.2122
   20.040    3.4966
   20.070    3.3070
   20.100    3.1701
   20.130    3.2859
   20.160    3.2859
   20.190    3.5914
   20.220    3.2859
   20.250    3.4439
   20.280    3.3281
   20.310    3.6019
   20.340    3.5071
   20.370    3.6230
   20.400    3.4439
   20.430    3.6019
   20.460    3.0016
   20.490    3.1701
   20.520    3.0753
   20.550    3.3386
   20.580    3.2965
   20.610    3.5176
   20.640    3.4123
   20.670    3.2122
   20.700    3.3913
   20.730    3.2859
   20.760    3.2859
   20.790    3.2122
   20.820    3.1701
   20.850    3.4860
   20.880    3.2438
   20.910    3.3491
   20.940    3.2122
   20.970    3.2017
   21.000    3.2754
   21.030    3.5071
   21.060    3.2333
   21.090    3.0858
   21.120    3.1806
   21.150    3.2227
   21.180    3.1596
   21.210    3.2122
   21.240    3.2649
   21.270    3.2754
   21.300    3.0648
   21.330    3.3491
   21.360    3.4018
   21.390    3.1280
   21.420    3.2438
   21.450    3.3702
   21.480    3.1701
   21.510    3.3702
   21.540    3.1174
   21.570    3.5282
   21.600    3.0648
   21.630    3.1912
   21.660    2.9068
   21.690    3.1069
   21.720    3.1069
   21.750    3.1385
   21.780    3.3281
   21.810    3.2017
   21.840    3.2965
   21.870    3.1174
   21.900    3.2965
   21.930    3.2017
   21.960    3.1912
   21.990    3.1596
   22.020    3.0542
   22.050    3.3597
   22.080    2.9279
   22.110    3.2017
   22.140    2.9910
   22.170    3.0648
   22.200    2.8857
   22.230    3.0226
   22.260    2.9279
   22.290    3.0753
   22.320    3.2227
   22.350    3.1596
   22.380    2.9173
   22.410    3.0437
   22.440    3.2965
   22.470    3.1806
   22.500    3.2122
   22.530    2.7804
   22.560    2.9805
   22.590    3.0226
   22.620    3.1596
   22.650    2.9384
   22.680    3.4334
   22.710    3.0753
   22.740    3.2438
   22.770    3.0226
   22.800    3.1174
   22.830    3.1701
   22.860    2.7909
   22.890    3.1490
   22.920    3.1596
   22.950    3.0542
   22.980    3.0226
   23.010    2.7804
   23.040    2.9384
   23.070    3.0016
   23.100    2.7172
   23.130    2.7383
   23.160    2.9068
   23.190    3.1596
   23.220    3.1174
   23.250    2.6962
   23.280    2.8436
   23.310    2.5487
   23.340    2.8015
   23.370    2.7383
   23.400    2.9805
   23.430    2.8120
   23.460    2.7488
   23.490    2.7699
   23.520    2.7278
   23.550    2.9489
   23.580    2.9489
   23.610    2.8120
   23.640    2.8120
   23.670    2.6540
   23.700    2.6962
   23.730    3.2227
   23.760    2.6962
   23.790    2.9068
   23.820    2.9910
   23.850    2.7278
   23.880    2.6330
   23.910    2.9068
   23.940    2.8752
   23.970    2.8541
   24.000    2.7593
   24.030    2.7593
   24.060    2.9489
   24.090    2.7804
   24.120    2.6540
   24.150    2.6435
   24.180    2.5698
   24.210    2.7067
   24.240    2.9910
   24.270    2.9173
   24.300    2.6856
   24.330    2.5908
   24.360    2.7067
   24.390    2.5276
   24.420    2.9173
   24.450    2.3802
   24.480    2.8436
   24.510    2.8436
   24.540    2.8541
   24.570    2.6119
   24.600    2.5803
   24.630    2.7488
   24.660    2.7383
   24.690    2.4855
   24.720    2.9173
   24.750    2.6962
   24.780    2.8963
   24.810    2.6751
   24.840    2.7804
   24.870    2.8647
   24.900    2.6856
   24.930    2.5171
   24.960    2.6962
   24.990    2.7488
   25.020    2.5908
   25.050    2.5908
   25.080    2.5803
   25.110    2.6119
   25.140    2.3907
   25.170    2.3381
   25.200    2.4434
   25.230    2.5698
   25.260    2.2959
   25.290    2.6540
   25.320    2.7488
   25.350    2.6014
   25.380    2.4855
   25.410    2.5908
   25.440    2.6224
   25.470    2.3591
   25.500    2.4223
   25.530    2.8120
   25.560    2.2117
   25.590    2.5803
   25.620    2.6856
   25.650    2.6646
   25.680    2.3591
   25.710    2.7488
   25.740    2.5698
   25.770    2.6435
   25.800    2.4329
   25.830    2.6119
   25.860    2.5382
   25.890    2.5382
   25.920    2.4961
   25.950    2.4223
   25.980    2.6540
   26.010    2.2433
   26.040    2.6119
   26.070    2.6751
   26.100    2.4539
   26.130    2.5908
   26.160    2.3591
   26.190    2.3802
   26.220    2.2222
   26.250    2.4855
   26.280    2.6014
   26.310    2.5592
   26.340    2.4855
   26.370    2.4013
   26.400    2.4223
   26.430    2.5171
   26.460    2.4750
   26.490    2.2643
   26.520    2.3591
   26.550    2.3697
   26.580    2.5276
   26.610    2.2433
   26.640    2.2538
   26.670    2.3697
   26.700    2.3802
   26.730    2.3591
   26.760    2.5276
   26.790    2.2117
   26.820    2.2538
   26.850    2.6646
   26.880    2.6330
   26.910    2.2012
   26.940    2.4539
   26.970    2.3486
   27.000    2.2538
   27.030    2.3381
   27.060    2.5066
   27.090    2.4434
   27.120    2.3065
   27.150    2.2959
   27.180    2.2854
   27.210    2.4223
   27.240    2.2222
   27.270    2.3275
   27.300    2.4013
   27.330    2.1485
   27.360    2.4118
   27.390    2.3275
   27.420    2.1696
   27.450    2.3486
   27.480    2.3170
   27.510    2.4329
   27.540    2.0642
   27.570    2.2433
   27.600    2.0958
   27.630    2.2959
   27.660    2.3170
   27.690    2.1590
   27.720    2.0958
   27.750    1.9800
   27.780    2.1906
   27.810    2.2222
   27.840    2.3591
   27.870    2.1169
   27.900    2.3065
   27.930    2.3486
   27.960    2.1696
   27.990    2.2749
   28.020    2.1380
   28.050    2.0432
   28.080    2.2012
   28.110    2.2433
   28.140    2.2749
   28.170    2.2749
   28.200    2.2959
   28.230    2.1169
   28.260    2.0958
   28.290    2.1485
   28.320    2.1274
   28.350    2.2538
   28.380    2.2222
   28.410    2.0958
   28.440    1.9273
   28.470    2.2433
   28.500    2.1696
   28.530    2.2749
   28.560    1.9484
   28.590    2.4645
   28.620    2.1274
   28.650    2.1380
   28.680    2.1169
   28.710    2.0853
   28.740    2.1906
   28.770    2.1380
   28.800    2.3170
   28.830    2.3170
   28.860    2.3591
   28.890    2.3802
   28.920    2.0432
   28.950    2.1906
   28.980    2.2328
   29.010    2.2643
   29.040    2.0011
   29.070    2.3802
   29.100    2.3591
   29.130    2.1380
   29.160    2.3591
   29.190    2.3065
   29.220    2.3486
   29.250    2.0958
   29.280    2.2959
   29.310    2.1801
   29.340    2.1064
   29.370    2.2222
   29.400    2.0432
   29.430    2.2222
   29.460    2.0853
   29.490    1.8431
   29.520    2.1380
   29.550    1.9063
   29.580    2.0221
   29.610    1.8957
   29.640    1.9063
   29.670    1.7588
   29.700    2.0221
   29.730    1.8957
   29.760    1.9063
   29.790    1.9695
   29.820    1.7904
   29.850    1.9905
   29.880    1.9379
   29.910    2.0221
   29.940    1.8852
   29.970    1.7167
   30.000    2.1590
   30.030    1.9589
   30.060    1.8852
   30.090    1.7167
   30.120    1.8852
   30.150    1.8325
   30.180    1.9168
   30.210    1.9484
   30.240    1.7378
   30.270    1.9484
   30.300    1.9379
   30.330    1.6114
   30.360    2.0853
   30.390    1.8325
   30.420    1.8852
   30.450    1.7378
   30.480    1.8852
   30.510    1.8325
   30.540    2.0853
   30.570    1.8641
   30.600    1.7904
   30.630    1.9484
   30.660    1.8536
   30.690    1.8536
   30.720    2.0326
   30.750    1.9063
   30.780    1.7167
   30.810    1.9484
   30.840    1.6851
   30.870    1.8641
   30.900    1.7483
   30.930    1.7272
   30.960    1.8641
   30.990    1.7062
   31.020    1.8957
   31.050    1.7799
   31.080    1.6324
   31.110    1.8115
   31.140    1.8220
   31.170    1.5587
   31.200    1.8747
   31.230    1.8431
   31.260    1.8009
   31.290    1.7483
   31.320    1.8009
   31.350    1.8009
   31.380    1.6956
   31.410    1.7272
   31.440    1.8641
   31.470    1.7483
   31.500    1.6851
   31.530    1.6746
   31.560    1.7694
   31.590    1.7062
   31.620    1.8220
   31.650    1.8115
   31.680    1.7272
   31.710    1.6008
   31.740    1.7694
   31.770    1.8536
   31.800    1.7694
   31.830    1.8325
   31.860    1.6851
   31.890    1.8747
   31.920    1.7799
   31.950    1.7694
   31.980    1.6851
   32.010    1.6746
   32.040    1.6535
   32.070    1.5798
   32.100    1.8115
   32.130    1.5903
   32.160    1.7167
   32.190    1.6956
   32.220    1.8220
   32.250    1.4850
   32.280    1.6219
   32.310    1.5166
   32.340    1.5903
   32.370    1.7167
   32.400    1.7167
   32.430    1.5271
   32.460    1.6746
   32.490    1.7062
   32.520    1.8009
   32.550    1.5377
   32.580    1.5692
   32.610    1.5587
   32.640    1.4850
   32.670    1.7272
   32.700    1.8115
   32.730    1.4745
   32.760    1.5798
   32.790    1.4955
   32.820    1.7272
   32.850    1.7483
   32.880    1.6219
   32.910    1.4218
   32.940    1.6008
   32.970    1.5587
   33.000    1.5692
   33.030    1.6114
   33.060    1.5482
   33.090    1.5166
   33.120    1.4534
   33.150    1.4850
   33.180    1.5798
   33.210    1.5798
   33.240    1.6219
   33.270    1.5166
   33.300    1.6324
   33.330    1.5798
   33.360    1.6219
   33.390    1.6956
   33.420    1.5166
   33.450    1.7694
   33.480    1.3797
   33.510    1.5798
   33.540    1.6535
   33.570    1.5377
   33.600    1.4745
   33.630    1.3797
   33.660    1.5903
   33.690    1.5798
   33.720    1.5798
   33.750    1.5166
   33.780    1.5692
   33.810    1.4955
   33.840    1.5587
   33.870    1.5798
   33.900    1.4534
   33.930    1.8009
   33.960    1.5271
   33.990    1.6008
   34.020    1.6114
   34.050    1.4007
   34.080    1.4429
   34.110    1.4745
   34.140    1.5903
   34.170    1.4323
   34.200    1.4007
   34.230    1.6535
   34.260    1.4429
   34.290    1.5692
   34.320    1.4639
   34.350    1.5587
   34.380    1.5061
   34.410    1.6324
   34.440    1.3797
   34.470    1.5166
   34.500    1.4955
   34.530    1.3375
   34.560    1.3797
   34.590    1.6535
   34.620    1.4323
   34.650    1.5271
   34.680    1.5166
   34.710    1.6219
   34.740    1.6430
   34.770    1.4218
   34.800    1.5061
   34.830    1.5166
   34.860    1.4745
   34.890    1.4955
   34.920    1.6114
   34.950    1.5061
   34.980    1.5692
   35.010    1.3691
   35.040    1.5271
   35.070    1.4850
   35.100    1.5692
   35.130    1.3165
   35.160    1.4113
   35.190    1.5377
   35.220    1.4850
   35.250    1.3060
   35.280    1.5377
   35.310    1.5587
   35.340    1.4113
   35.370    1.5271
   35.400    1.5061
   35.430    1.5061
   35.460    1.6008
   35.490    1.4850
   35.520    1.5798
   35.550    1.4218
   35.580    1.4745
   35.610    1.4745
   35.640    1.5587
   35.670    1.4007
   35.700    1.4850
   35.730    1.4850
   35.760    1.3691
   35.790    1.4323
   35.820    1.5903
   35.850    1.4113
   35.880    1.4429
   35.910    1.4639
   35.940    1.5587
   35.970    1.4218
   36.000    1.4218
   36.030    1.6956
   36.060    1.5377
   36.090    1.4007
   36.120    1.4955
   36.150    1.5903
   36.180    1.4429
   36.210    1.4955
   36.240    1.5377
   36.270    1.3586
   36.300    1.3797
   36.330    1.5798
   36.360    1.4850
   36.390    1.5061
   36.420    1.4007
   36.450    1.6535
   36.480    1.4639
   36.510    1.3165
   36.540    1.3165
   36.570    1.5166
   36.600    1.4007
   36.630    1.5271
   36.660    1.3481
   36.690    1.6640
   36.720    1.3165
   36.750    1.5271
   36.780    1.5482
   36.810    1.3481
   36.840    1.5587
   36.870    1.3797
   36.900    1.3375
   36.930    1.4955
   36.960    1.4218
   36.990    1.6851
   37.020    1.3586
   37.050    1.3691
   37.080    1.7167
   37.110    1.4429
   37.140    1.5061
   37.170    1.3481
   37.200    1.4639
   37.230    1.4429
   37.260    1.4323
   37.290    1.3481
   37.320    1.2849
   37.350    1.4113
   37.380    1.1269
   37.410    1.5903
   37.440    1.3797
   37.470    1.2849
   37.500    1.3902
   37.530    1.1901
   37.560    1.2954
   37.590    1.2428
   37.620    1.5061
   37.650    1.4218
   37.680    1.3270
   37.710    1.4534
   37.740    1.2849
   37.770    1.3797
   37.800    1.5271
   37.830    1.3481
   37.860    1.3060
   37.890    1.5377
   37.920    1.5061
   37.950    1.3270
   37.980    1.4218
   38.010    1.2217
   38.040    1.3060
   38.070    1.3270
   38.100    1.3902
   38.130    1.3902
   38.160    1.2638
   38.190    1.3270
   38.220    1.3481
   38.250    1.3797
   38.280    1.6430
   38.310    1.3060
   38.340    1.3586
   38.370    1.3375
   38.400    1.2638
   38.430    1.3060
   38.460    1.4007
   38.490    1.2954
   38.520    1.3691
   38.550    1.2954
   38.580    1.4218
   38.610    1.3481
   38.640    1.3165
   38.670    1.5271
   38.700    1.3481
   38.730    1.5377
   38.760    1.3691
   38.790    1.3375
   38.820    1.2638
   38.850    1.4323
   38.880    1.2954
   38.910    1.4429
   38.940    1.4218
   38.970    1.2638
   39.000    1.5798
   39.030    1.3060
   39.060    1.4218
   39.090    1.4850
   39.120    1.4850
   39.150    1.4007
   39.180    1.3060
   39.210    1.3270
   39.240    1.3691
   39.270    1.3481
   39.300    1.3902
   39.330    1.5061
   39.360    1.3797
   39.390    1.3797
   39.420    1.3902
   39.450    1.2322
   39.480    1.4007
   39.510    1.1796
   39.540    1.2112
   39.570    1.3375
   39.600    1.2638
   39.630    1.3060
   39.660    1.2533
   39.690    1.3691
   39.720    1.5061
   39.750    1.2322
   39.780    1.3902
   39.810    1.3270
   39.840    1.5271
   39.870    1.2849
   39.900    1.5903
   39.930    1.2849
   39.960    1.3060
   39.990    1.3165