File: data/PXRD/PXRD_KE-063_Cu-Ka1_capillary-1mm_5s-deg.xyd
    1.500   14.4602
    1.530   14.7130
    1.560   14.5445
    1.590   14.3128
    1.620   14.4076
    1.650   13.7862
    1.680   13.5124
    1.710   13.5861
    1.740   13.3860
    1.770   13.0279
    1.800   12.7436
    1.830   12.6066
    1.860   11.7536
    1.890   11.9431
    1.920   11.9642
    1.950   12.1643
    1.980   11.8378
    2.010   12.8594
    2.040   11.7641
    2.070   11.6904
    2.100   11.7957
    2.130   11.5956
    2.160   12.2275
    2.190   11.1111
    2.220   11.3849
    2.250   11.5324
    2.280   10.9531
    2.310   11.1322
    2.340   10.9637
    2.370   11.0795
    2.400   10.9110
    2.430   11.5640
    2.460   11.4903
    2.490   11.2375
    2.520   11.8167
    2.550   11.6693
    2.580   12.1854
    2.610   12.0695
    2.640   12.2907
    2.670   12.5645
    2.700   12.5013
    2.730   12.9542
    2.760   12.5750
    2.790   13.2491
    2.820   13.5861
    2.850   14.0284
    2.880   14.5024
    2.910   14.6498
    2.940   15.2185
    2.970   16.0821
    3.000   15.7135
    3.030   16.8088
    3.060   16.9352
    3.090   17.3460
    3.120   18.4518
    3.150   18.9995
    3.180   19.1048
    3.210   20.8636
    3.240   21.6430
    3.270   23.0964
    3.300   24.1180
    3.330   25.4976
    3.360   26.8352
    3.390   28.7520
    3.420   31.1427
    3.450   32.6593
    3.480   34.5445
    3.510   36.5561
    3.540   39.3997
    3.570   42.7278
    3.600   45.9610
    3.630   49.8684
    3.660   54.4497
    3.690   60.0527
    3.720   67.5513
    3.750   75.8820
    3.780   87.7304
    3.810  101.2112
    3.840  125.8452
    3.870  169.6367
    3.900  212.0906
    3.930  191.5113
    3.960   93.0911
    3.990   16.4297
    4.020    8.6361
    4.050    7.8778
    4.080    7.3196
    4.110    7.0458
    4.140    6.8246
    4.170    6.6140
    4.200    6.6983
    4.230    6.4982
    4.260    6.4876
    4.290    6.5929
    4.320    6.4666
    4.350    6.4666
    4.380    6.4350
    4.410    6.4139
    4.440    6.1822
    4.470    6.4666
    4.500    6.1085
    4.530    6.6035
    4.560    6.7193
    4.590    6.3296
    4.620    6.9616
    4.650    7.1617
    4.680    7.0985
    4.710    7.0774
    4.740    7.4250
    4.770    7.7093
    4.800    7.5619
    4.830    7.7830
    4.860    7.8778
    4.890    7.8462
    4.920    8.8678
    4.950    9.0047
    4.980    9.4365
    5.010    9.3102
    5.040   10.4265
    5.070   10.8162
    5.100   11.2059
    5.130   12.1222
    5.160   13.0806
    5.190   13.9863
    5.220   14.3971
    5.250   16.0400
    5.280   17.6830
    5.310   19.6103
    5.340   22.1169
    5.370   23.0542
    5.400   27.7199
    5.430   32.0800
    5.460   40.7478
    5.490   53.2280
    5.520   66.7615
    5.550   60.9689
    5.580   33.3228
    5.610    9.8052
    5.640    6.2665
    5.670    5.9926
    5.700    4.9605
    5.730    5.7504
    5.760    5.2238
    5.790    5.5398
    5.820    5.7925
    5.850    5.3081
    5.880    5.3081
    5.910    5.3712
    5.940    5.7188
    5.970    5.6767
    6.000    5.7715
    6.030    5.6451
    6.060    5.6872
    6.090    6.1085
    6.120    6.0769
    6.150    6.0453
    6.180    5.8557
    6.210    6.0558
    6.240    5.8873
    6.270    6.1611
    6.300    6.5087
    6.330    6.3612
    6.360    6.8246
    6.390    6.8562
    6.420    7.0669
    6.450    7.5303
    6.480    7.7409
    6.510    7.3512
    6.540    8.5097
    6.570    8.8678
    6.600    9.3944
    6.630   10.3423
    6.660   11.4271
    6.690   13.4913
    6.720   16.3244
    6.750   20.9057
    6.780   22.5698
    6.810   17.8410
    6.840    8.6993
    6.870    5.5714
    6.900    5.6661
    6.930    5.1501
    6.960    5.3607
    6.990    5.0974
    7.020    5.0026
    7.050    5.4450
    7.080    5.5292
    7.110    5.4239
    7.140    5.2449
    7.170    5.5608
    7.200    5.5608
    7.230    5.4871
    7.260    5.4344
    7.290    5.3502
    7.320    5.6135
    7.350    5.9294
    7.380    5.7083
    7.410    5.8768
    7.440    6.1085
    7.470    6.2981
    7.500    6.1190
    7.530    6.4982
    7.560    6.9089
    7.590    6.9721
    7.620    6.8984
    7.650    8.2780
    7.680    8.8468
    7.710    9.5103
    7.740   11.1532
    7.770   12.9647
    7.800   16.3876
    7.830   17.9674
    7.860   14.2601
    7.890    7.5197
    7.920    5.5187
    7.950    5.3712
    7.980    5.0869
    8.010    5.0974
    8.040    5.0869
    8.070    5.0342
    8.100    5.2975
    8.130    5.0658
    8.160    5.2449
    8.190    4.8236
    8.220    5.1922
    8.250    5.1185
    8.280    5.2870
    8.310    4.9710
    8.340    5.1290
    8.370    5.1922
    8.400    4.9289
    8.430    5.0658
    8.460    5.0237
    8.490    4.8236
    8.520    5.2765
    8.550    5.3081
    8.580    5.5608
    8.610    5.3397
    8.640    5.5608
    8.670    5.7399
    8.700    6.1717
    8.730    6.6983
    8.760    6.3296
    8.790    5.7925
    8.820    5.4976
    8.850    4.9710
    8.880    4.7499
    8.910    4.9078
    8.940    5.0869
    8.970    5.2554
    9.000    5.0974
    9.030    5.5924
    9.060    5.5608
    9.090    5.4976
    9.120    5.4555
    9.150    5.8557
    9.180    6.0348
    9.210    6.0979
    9.240    6.3402
    9.270    6.7404
    9.300    7.3934
    9.330    7.7514
    9.360    8.3518
    9.390    9.2996
    9.420   10.1632
    9.450   12.1643
    9.480   14.0390
    9.510   17.2828
    9.540   22.4645
    9.570   30.2159
    9.600   30.3949
    9.630   21.7378
    9.660    9.6577
    9.690    5.2659
    9.720    5.2343
    9.750    4.9078
    9.780    4.8763
    9.810    4.7499
    9.840    4.8657
    9.870    4.9605
    9.900    5.2238
    9.930    5.2343
    9.960    5.1290
    9.990    5.3712
   10.020    5.3186
   10.050    5.4239
   10.080    5.9610
   10.110    5.8347
   10.140    6.3402
   10.170    6.0558
   10.200    6.6140
   10.230    7.5303
   10.260    7.9937
   10.290    9.6998
   10.320   12.0169
   10.350   13.7757
   10.380   12.8278
   10.410    8.9626
   10.440    5.9610
   10.470    5.2975
   10.500    4.6656
   10.530    5.2449
   10.560    4.5919
   10.590    4.9184
   10.620    5.0553
   10.650    4.8973
   10.680    4.8236
   10.710    5.0658
   10.740    5.2133
   10.770    5.2765
   10.800    5.5082
   10.830    5.2659
   10.860    5.9294
   10.890    6.0348
   10.920    6.1927
   10.950    6.3823
   10.980    7.6356
   11.010    8.8046
   11.040   10.4476
   11.070   11.7536
   11.100   11.4165
   11.130    8.4150
   11.160    5.3923
   11.190    4.8657
   11.220    4.7077
   11.250    4.5603
   11.280    5.1080
   11.310    4.9184
   11.340    4.9710
   11.370    5.0026
   11.400    4.9500
   11.430    4.9500
   11.460    5.2554
   11.490    5.4134
   11.520    5.5082
   11.550    5.8347
   11.580    5.9400
   11.610    6.6877
   11.640    7.3723
   11.670    8.4887
   11.700   10.4160
   11.730   12.3960
   11.760   13.5861
   11.790    9.9526
   11.820    6.5613
   11.850    4.7499
   11.880    4.7709
   11.910    4.7920
   11.940    4.5182
   11.970    4.4550
   12.000    4.6761
   12.030    4.6972
   12.060    4.8025
   12.090    4.6235
   12.120    4.6867
   12.150    4.7709
   12.180    4.4866
   12.210    4.4866
   12.240    4.6867
   12.270    5.1711
   12.300    5.0658
   12.330    5.4239
   12.360    5.4660
   12.390    5.8241
   12.420    5.5082
   12.450    5.2870
   12.480    4.8025
   12.510    4.8341
   12.540    4.5392
   12.570    4.6656
   12.600    4.6656
   12.630    4.5603
   12.660    4.4760
   12.690    4.9605
   12.720    4.9184
   12.750    4.8025
   12.780    4.7183
   12.810    5.2554
   12.840    5.7399
   12.870    6.0348
   12.900    6.6456
   12.930    6.9300
   12.960    8.8994
   12.990    9.8262
   13.020    8.9837
   13.050    7.2670
   13.080    5.2765
   13.110    4.6340
   13.140    4.2022
   13.170    4.5392
   13.200    4.4234
   13.230    4.6656
   13.260    5.0026
   13.290    4.8552
   13.320    4.9921
   13.350    4.6867
   13.380    5.0553
   13.410    5.1395
   13.440    5.4450
   13.470    5.0974
   13.500    6.2243
   13.530    6.5824
   13.560    6.8878
   13.590    7.2143
   13.620    6.5508
   13.650    5.0448
   13.680    4.9605
   13.710    4.7920
   13.740    4.7604
   13.770    4.5076
   13.800    4.6972
   13.830    4.8341
   13.860    4.8447
   13.890    4.8868
   13.920    5.1711
   13.950    5.1817
   13.980    5.1711
   14.010    5.9610
   14.040    6.1611
   14.070    7.3828
   14.100    8.8362
   14.130    9.3839
   14.160    8.6256
   14.190    7.1933
   14.220    5.0869
   14.250    4.8236
   14.280    4.3497
   14.310    4.6656
   14.340    4.6340
   14.370    4.1706
   14.400    4.5287
   14.430    4.7920
   14.460    4.4128
   14.490    4.7183
   14.520    4.4234
   14.550    4.4655
   14.580    4.7499
   14.610    4.7288
   14.640    4.5603
   14.670    4.3707
   14.700    4.3813
   14.730    4.0758
   14.760    4.5392
   14.790    4.4760
   14.820    4.6130
   14.850    4.4444
   14.880    4.4128
   14.910    4.5708
   14.940    4.6656
   14.970    5.0132
   15.000    4.6130
   15.030    4.7183
   15.060    4.9078
   15.090    5.1501
   15.120    5.1817
   15.150    5.3186
   15.180    5.5714
   15.210    5.5292
   15.240    5.2554
   15.270    4.3075
   15.300    4.9289
   15.330    4.5182
   15.360    4.0442
   15.390    4.5708
   15.420    4.4444
   15.450    4.4444
   15.480    4.5708
   15.510    4.0653
   15.540    4.4655
   15.570    4.6551
   15.600    4.4128
   15.630    4.6972
   15.660    4.7709
   15.690    4.5919
   15.720    4.6130
   15.750    4.4444
   15.780    4.1496
   15.810    4.3391
   15.840    4.6024
   15.870    4.3707
   15.900    4.5182
   15.930    4.3813
   15.960    4.5392
   15.990    4.6340
   16.020    4.9710
   16.050    4.8236
   16.080    5.2554
   16.110    4.8236
   16.140    5.7083
   16.170    5.3186
   16.200    5.0764
   16.230    5.1922
   16.260    4.6445
   16.290    4.6761
   16.320    4.6130
   16.350    4.5287
   16.380    4.5919
   16.410    4.6130
   16.440    4.6656
   16.470    4.6761
   16.500    4.6972
   16.530    4.9289
   16.560    4.9710
   16.590    5.2975
   16.620    5.6451
   16.650    6.0558
   16.680    5.7820
   16.710    5.1922
   16.740    4.6656
   16.770    4.8131
   16.800    5.0237
   16.830    4.6024
   16.860    4.8025
   16.890    4.5498
   16.920    5.2659
   16.950    5.2238
   16.980    5.7715
   17.010    6.3296
   17.040    6.7088
   17.070    8.1201
   17.100    8.4466
   17.130    8.2043
   17.160    7.0774
   17.190    5.3712
   17.220    5.1185
   17.250    4.9605
   17.280    4.6130
   17.310    4.4971
   17.340    4.8447
   17.370    4.7815
   17.400    4.7183
   17.430    4.7077
   17.460    4.7604
   17.490    5.0237
   17.520    5.4450
   17.550    5.4134
   17.580    5.9084
   17.610    5.0132
   17.640    4.7077
   17.670    4.6235
   17.700    4.9816
   17.730    4.4655
   17.760    4.7499
   17.790    4.3918
   17.820    5.0237
   17.850    4.8973
   17.880    4.8973
   17.910    4.9816
   17.940    5.2449
   17.970    5.2975
   18.000    5.4344
   18.030    5.4976
   18.060    5.0448
   18.090    4.6867
   18.120    4.6761
   18.150    4.6972
   18.180    4.4128
   18.210    4.3707
   18.240    4.5392
   18.270    4.5814
   18.300    4.7077
   18.330    4.8447
   18.360    5.4976
   18.390    5.6872
   18.420    6.0032
   18.450    5.1711
   18.480    5.2975
   18.510    4.5708
   18.540    4.7077
   18.570    4.9605
   18.600    4.4128
   18.630    4.5182
   18.660    4.7815
   18.690    5.0237
   18.720    4.6972
   18.750    4.7499
   18.780    5.2133
   18.810    4.8657
   18.840    5.2870
   18.870    5.3081
   18.900    5.1501
   18.930    5.2659
   18.960    5.1501
   18.990    5.6661
   19.020    5.9294
   19.050    5.4976
   19.080    5.4344
   19.110    5.0342
   19.140    4.7815
   19.170    4.7077
   19.200    4.6445
   19.230    5.1606
   19.260    5.0237
   19.290    4.4866
   19.320    4.6130
   19.350    4.7393
   19.380    4.9816
   19.410    4.5919
   19.440    4.5919
   19.470    4.9816
   19.500    4.8657
   19.530    5.1606
   19.560    4.9289
   19.590    5.3712
   19.620    5.8873
   19.650    6.2349
   19.680    5.5292
   19.710    5.2133
   19.740    5.0448
   19.770    5.0132
   19.800    4.6656
   19.830    4.6972
   19.860    4.7815
   19.890    4.6130
   19.920    4.8973
   19.950    4.6340
   19.980    4.6867
   20.010    4.8131
   20.040    4.7288
   20.070    4.5498
   20.100    4.8657
   20.130    4.8552
   20.160    4.7288
   20.190    4.6867
   20.220    5.0974
   20.250    5.1395
   20.280    4.8131
   20.310    5.5292
   20.340    5.7715
   20.370    6.8668
   20.400    7.4460
   20.430    8.1095
   20.460    7.0458
   20.490    6.4455
   20.520    5.3186
   20.550    4.4444
   20.580    4.8763
   20.610    5.0026
   20.640    4.6972
   20.670    4.7920
   20.700    4.7393
   20.730    4.8236
   20.760    4.6656
   20.790    4.7709
   20.820    4.7288
   20.850    4.4971
   20.880    4.7077
   20.910    4.5919
   20.940    4.6761
   20.970    4.4444
   21.000    4.6656
   21.030    4.5708
   21.060    4.8236
   21.090    4.8236
   21.120    4.8973
   21.150    4.9078
   21.180    4.8868
   21.210    4.9289
   21.240    4.7077
   21.270    4.8973
   21.300    4.7815
   21.330    4.8552
   21.360    4.5498
   21.390    4.7288
   21.420    4.9078
   21.450    4.7604
   21.480    5.0553
   21.510    4.7288
   21.540    4.8025
   21.570    4.7288
   21.600    4.9816
   21.630    5.2343
   21.660    4.8236
   21.690    4.8868
   21.720    4.7709
   21.750    4.8131
   21.780    5.1501
   21.810    5.1501
   21.840    5.2343
   21.870    5.4660
   21.900    5.5082
   21.930    5.8347
   21.960    5.9189
   21.990    4.8763
   22.020    4.9289
   22.050    4.8447
   22.080    4.6867
   22.110    5.1922
   22.140    5.0764
   22.170    5.0342
   22.200    5.2027
   22.230    5.4766
   22.260    5.6556
   22.290    5.6872
   22.320    4.9710
   22.350    4.8552
   22.380    5.0132
   22.410    5.1395
   22.440    4.9710
   22.470    5.3923
   22.500    5.9189
   22.530    6.3086
   22.560    7.3618
   22.590    8.3307
   22.620    8.1517
   22.650    7.0563
   22.680    6.2770
   22.710    5.5924
   22.740    4.8236
   22.770    5.0342
   22.800    5.2554
   22.830    5.6240
   22.860    5.9505
   22.890    6.9510
   22.920    7.3723
   22.950    8.0674
   22.980    8.0147
   23.010    6.9194
   23.040    5.9926
   23.070    5.5608
   23.100    5.2133
   23.130    5.1290
   23.160    5.0132
   23.190    5.4766
   23.220    5.4976
   23.250    5.4976
   23.280    5.8978
   23.310    6.1295
   23.340    5.7504
   23.370    5.3291
   23.400    5.1290
   23.430    4.8236
   23.460    4.8131
   23.490    4.9078
   23.520    4.9921
   23.550    4.7288
   23.580    4.7499
   23.610    4.8868
   23.640    5.1290
   23.670    5.2975
   23.700    4.9500
   23.730    4.8236
   23.760    4.5814
   23.790    4.8447
   23.820    4.9078
   23.850    4.9394
   23.880    5.2343
   23.910    5.7715
   23.940    5.8031
   23.970    6.0979
   24.000    5.6451
   24.030    5.3502
   24.060    5.1395
   24.090    5.1185
   24.120    4.6972
   24.150    5.0132
   24.180    4.8552
   24.210    4.6867
   24.240    4.7920
   24.270    4.8236
   24.300    4.8025
   24.330    4.8552
   24.360    4.9184
   24.390    4.6972
   24.420    4.8447
   24.450    4.6867
   24.480    4.7183
   24.510    4.7920
   24.540    4.8868
   24.570    4.9500
   24.600    5.0869
   24.630    4.6761
   24.660    4.6551
   24.690    4.7183
   24.720    5.0342
   24.750    5.0026
   24.780    4.9184
   24.810    4.7288
   24.840    4.8447
   24.870    4.6867
   24.900    4.9394
   24.930    5.0553
   24.960    4.5919
   24.990    4.8025
   25.020    4.6235
   25.050    4.7288
   25.080    4.8341
   25.110    4.6551
   25.140    4.9605
   25.170    5.1080
   25.200    4.8552
   25.230    5.0553
   25.260    5.1080
   25.290    4.9078
   25.320    5.1922
   25.350    4.9394
   25.380    4.8763
   25.410    4.6972
   25.440    4.9289
   25.470    4.9500
   25.500    4.7183
   25.530    4.9816
   25.560    5.4450
   25.590    5.1290
   25.620    5.1501
   25.650    4.6340
   25.680    4.6761
   25.710    4.7393
   25.740    5.2975
   25.770    5.5398
   25.800    6.4244
   25.830    6.3296
   25.860    7.3618
   25.890    6.7720
   25.920    6.0453
   25.950    5.6135
   25.980    4.7077
   26.010    4.8552
   26.040    4.5392
   26.070    4.9500
   26.100    4.4760
   26.130    4.7499
   26.160    4.6761
   26.190    4.7183
   26.220    4.9605
   26.250    4.6445
   26.280    4.5708
   26.310    4.5076
   26.340    4.5182
   26.370    4.9500
   26.400    4.7604
   26.430    4.9710
   26.460    5.1922
   26.490    5.1395
   26.520    4.9605
   26.550    5.0026
   26.580    4.6024
   26.610    4.4655
   26.640    4.9184
   26.670    4.3707
   26.700    4.4971
   26.730    4.4339
   26.760    4.4444
   26.790    4.4971
   26.820    4.2654
   26.850    4.4655
   26.880    4.5498
   26.910    4.6761
   26.940    4.4339
   26.970    4.8868
   27.000    5.3607
   27.030    5.4344
   27.060    5.4344
   27.090    5.3923
   27.120    5.3291
   27.150    4.9605
   27.180    4.4760
   27.210    4.8763
   27.240    4.4655
   27.270    4.6445
   27.300    4.3813
   27.330    4.3602
   27.360    4.3391
   27.390    4.5603
   27.420    4.1811
   27.450    4.4866
   27.480    4.6761
   27.510    4.8236
   27.540    4.4339
   27.570    4.8552
   27.600    4.7183
   27.630    5.0448
   27.660    5.3923
   27.690    5.0658
   27.720    5.0342
   27.750    4.5076
   27.780    4.6024
   27.810    4.4866
   27.840    4.4655
   27.870    4.8236
   27.900    4.5498
   27.930    4.8868
   27.960    5.0869
   27.990    5.3712
   28.020    5.4450
   28.050    5.2238
   28.080    5.1606
   28.110    5.4976
   28.140    5.0132
   28.170    5.1501
   28.200    5.3712
   28.230    5.2870
   28.260    5.1501
   28.290    4.9605
   28.320    4.7709
   28.350    4.3391
   28.380    4.6235
   28.410    4.9710
   28.440    4.9500
   28.470    5.5924
   28.500    5.4028
   28.530    5.2343
   28.560    4.6867
   28.590    4.8552
   28.620    4.6445
   28.650    4.5603
   28.680    4.4971
   28.710    4.5182
   28.740    4.1601
   28.770    4.5076
   28.800    4.2865
   28.830    4.4234
   28.860    4.3181
   28.890    4.5814
   28.920    4.8341
   28.950    5.3081
   28.980    5.0342
   29.010    4.9710
   29.040    5.3186
   29.070    4.7183
   29.100    4.6024
   29.130    4.5182
   29.160    4.6551
   29.190    4.3707
   29.220    4.5182
   29.250    4.7077
   29.280    4.7920
   29.310    4.8236
   29.340    5.4344
   29.370    4.9289
   29.400    4.9184
   29.430    4.6340
   29.460    4.4444
   29.490    4.3707
   29.520    4.1496
   29.550    4.6867
   29.580    4.3918
   29.610    4.0864
   29.640    4.2022
   29.670    4.1706
   29.700    4.0232
   29.730    4.2022
   29.760    4.1811
   29.790    4.5076
   29.820    4.3918
   29.850    4.9500
   29.880    4.5603
   29.910    4.5076
   29.940    4.3391
   29.970    4.5287
   30.000    4.6551
   30.030    4.1285
   30.060    4.3286
   30.090    4.1917
   30.120    4.4234
   30.150    4.2654
   30.180    4.2233
   30.210    4.2443
   30.240    4.1390
   30.270    3.9494
   30.300    4.2233
   30.330    4.3497
   30.360    4.2233
   30.390    4.5603
   30.420    4.2338
   30.450    4.0969
   30.480    4.2654
   30.510    4.1180
   30.540    3.9389
   30.570    4.4760
   30.600    4.4971
   30.630    4.1285
   30.660    4.2022
   30.690    4.3286
   30.720    4.5919
   30.750    3.8652
   30.780    4.1285
   30.810    4.2022
   30.840    4.0126
   30.870    4.3602
   30.900    4.2865
   30.930    4.3813
   30.960    4.2443
   30.990    4.0232
   31.020    3.9916
   31.050    4.4866
   31.080    4.3602
   31.110    3.8652
   31.140    4.1601
   31.170    4.2865
   31.200    4.3181
   31.230    3.9705
   31.260    4.1917
   31.290    3.9179
   31.320    4.3813
   31.350    4.0021
   31.380    4.5182
   31.410    4.5392
   31.440    4.1706
   31.470    4.5708
   31.500    4.2022
   31.530    4.2865
   31.560    4.1496
   31.590    3.9705
   31.620    4.0864
   31.650    4.0969
   31.680    4.0126
   31.710    4.0126
   31.740    4.1074
   31.770    4.2443
   31.800    4.2233
   31.830    4.0442
   31.860    4.4655
   31.890    4.5287
   31.920    4.1601
   31.950    4.1496
   31.980    4.6340
   32.010    4.4866
   32.040    4.8447
   32.070    5.2870
   32.100    6.2243
   32.130    5.4239
   32.160    5.4555
   32.190    5.4976
   32.220    5.1080
   32.250    4.4023
   32.280    4.0758
   32.310    4.0021
   32.340    4.0442
   32.370    3.6967
   32.400    3.7493
   32.430    4.0126
   32.460    3.9600
   32.490    3.5703
   32.520    3.8231
   32.550    3.7072
   32.580    4.1074
   32.610    4.0126
   32.640    4.2127
   32.670    3.8125
   32.700    3.9600
   32.730    3.7915
   32.760    3.9810
   32.790    3.9916
   32.820    3.9073
   32.850    3.7072
   32.880    4.1074
   32.910    4.3391
   32.940    3.8652
   32.970    4.2549
   33.000    4.1285
   33.030    4.0548
   33.060    4.0442
   33.090    3.8020
   33.120    3.5914
   33.150    3.8968
   33.180    3.6440
   33.210    3.6756
   33.240    3.7283
   33.270    3.5071
   33.300    3.9705
   33.330    4.0232
   33.360    3.9284
   33.390    3.8125
   33.420    3.5914
   33.450    3.7599
   33.480    3.6124
   33.510    3.8336
   33.540    3.6335
   33.570    3.9600
   33.600    3.8757
   33.630    3.7809
   33.660    4.0758
   33.690    4.0126
   33.720    4.0969
   33.750    4.2443
   33.780    4.1285
   33.810    4.8236
   33.840    4.8341
   33.870    4.6551
   33.900    4.6867
   33.930    4.5708
   33.960    4.5603
   33.990    4.4971
   34.020    3.9810
   34.050    3.4860
   34.080    3.7809
   34.110    3.1174
   34.140    3.6651
   34.170    3.6651
   34.200    3.6756
   34.230    3.6124
   34.260    3.5282
   34.290    3.7283
   34.320    3.4334
   34.350    3.5808
   34.380    3.8757
   34.410    3.6756
   34.440    3.4650
   34.470    4.0864
   34.500    3.7283
   34.530    3.5492
   34.560    3.4334
   34.590    3.8968
   34.620    3.5282
   34.650    3.4966
   34.680    3.6124
   34.710    3.4123
   34.740    3.5387
   34.770    3.5492
   34.800    4.0021
   34.830    3.7809
   34.860    3.7493
   34.890    3.8652
   34.920    3.7493
   34.950    3.6756
   34.980    3.8125
   35.010    3.5914
   35.040    3.5071
   35.070    3.5071
   35.100    3.3702
   35.130    3.5598
   35.160    3.4229
   35.190    3.5703
   35.220    3.3807
   35.250    3.6124
   35.280    3.6230
   35.310    3.5914
   35.340    3.5703
   35.370    3.4334
   35.400    3.5071
   35.430    3.3281
   35.460    3.2227
   35.490    3.3807
   35.520    3.3913
   35.550    3.2438
   35.580    3.2754
   35.610    3.8125
   35.640    3.3913
   35.670    3.4018
   35.700    3.5176
   35.730    3.6230
   35.760    3.3281
   35.790    3.6124
   35.820    3.5914
   35.850    3.8863
   35.880    3.4334
   35.910    3.5703
   35.940    3.7809
   35.970    3.4544
   36.000    3.3913
   36.030    3.2543
   36.060    3.4439
   36.090    3.6756
   36.120    3.1806
   36.150    3.5808
   36.180    3.5808
   36.210    3.4966
   36.240    3.3702
   36.270    3.3386
   36.300    3.7177
   36.330    3.6019
   36.360    3.4439
   36.390    3.3702
   36.420    3.4650
   36.450    3.2543
   36.480    3.4123
   36.510    3.1385
   36.540    3.4966
   36.570    3.6440
   36.600    3.6756
   36.630    3.5176
   36.660    3.6546
   36.690    3.4650
   36.720    3.6124
   36.750    3.6230
   36.780    3.6019
   36.810    3.2965
   36.840    3.2965
   36.870    3.3175
   36.900    3.4966
   36.930    3.4123
   36.960    3.5387
   36.990    3.1280
   37.020    3.6756
   37.050    3.6124
   37.080    3.7283
   37.110    3.4650
   37.140    3.7388
   37.170    3.6335
   37.200    3.8336
   37.230    3.6019
   37.260    3.3175
   37.290    3.1280
   37.320    3.0226
   37.350    3.1701
   37.380    3.5387
   37.410    3.3807
   37.440    3.4860
   37.470    3.2017
   37.500    3.5071
   37.530    3.2438
   37.560    3.6651
   37.590    3.3597
   37.620    3.4860
   37.650    3.4439
   37.680    3.4966
   37.710    3.3597
   37.740    3.1385
   37.770    3.4755
   37.800    3.2438
   37.830    3.8020
   37.860    3.3491
   37.890    3.7809
   37.920    3.5808
   37.950    3.1280
   37.980    3.4439
   38.010    3.4123
   38.040    3.1174
   38.070    3.2122
   38.100    3.2543
   38.130    3.4229
   38.160    3.4229
   38.190    3.3175
   38.220    3.1174
   38.250    3.1806
   38.280    3.2543
   38.310    3.2017
   38.340    3.2859
   38.370    3.3702
   38.400    3.1806
   38.430    3.7072
   38.460    3.3070
   38.490    3.2438
   38.520    3.7915
   38.550    3.5598
   38.580    3.7283
   38.610    3.4334
   38.640    3.5282
   38.670    3.5387
   38.700    3.4018
   38.730    3.5282
   38.760    3.2438
   38.790    3.1385
   38.820    3.3070
   38.850    3.1596
   38.880    3.1490
   38.910    3.2543
   38.940    3.3386
   38.970    3.2017
   39.000    3.4966
   39.030    3.1806
   39.060    3.2754
   39.090    3.0858
   39.120    3.2754
   39.150    3.0964
   39.180    3.3807
   39.210    3.1701
   39.240    3.2543
   39.270    3.3491
   39.300    3.0858
   39.330    3.1490
   39.360    3.4860
   39.390    3.4018
   39.420    2.9068
   39.450    3.2859
   39.480    3.1490
   39.510    3.4123
   39.540    3.1069
   39.570    3.0648
   39.600    3.2227
   39.630    3.2543
   39.660    3.1174
   39.690    3.3913
   39.720    3.3807
   39.750    3.3913
   39.780    3.4860
   39.810    3.2227
   39.840    3.2438
   39.870    3.4755
   39.900    3.2649
   39.930    3.0437
   39.960    3.3175
   39.990    3.5598