File: data/PXRD/PXRD_KE-014_Cu-Ka1_capillary-1mm_5s-deg.xyd
    1.500   42.0748
    1.530   43.2543
    1.560   45.4239
    1.590   46.1927
    1.620   44.6867
    1.650   43.7599
    1.680   42.1274
    1.710   40.4423
    1.740   40.2422
    1.770   40.3265
    1.800   39.3470
    1.830   37.1459
    1.860   38.1464
    1.890   38.1780
    1.920   37.1459
    1.950   35.7767
    1.980   35.7030
    2.010   36.2717
    2.040   35.8294
    2.070   34.9236
    2.100   33.7335
    2.130   34.2285
    2.160   33.5861
    2.190   34.5656
    2.220   33.4071
    2.250   33.6177
    2.280   34.8710
    2.310   33.5334
    2.340   33.9337
    2.370   34.3444
    2.400   33.4808
    2.430   34.5656
    2.460   34.6077
    2.490   35.7346
    2.520   35.5872
    2.550   36.6930
    2.580   37.6725
    2.610   36.5877
    2.640   37.9674
    2.670   39.0311
    2.700   39.0311
    2.730   39.7262
    2.760   40.7267
    2.790   42.4013
    2.820   43.6651
    2.850   45.8241
    2.880   46.5614
    2.910   48.2780
    2.940   49.0047
    2.970   51.3639
    3.000   53.8389
    3.030   55.1764
    3.060   58.7783
    3.090   63.0648
    3.120   64.7815
    3.150   67.7514
    3.180   72.5224
    3.210   77.4618
    3.240   81.6535
    3.270   88.7204
    3.300   93.9968
    3.330  101.2006
    3.360  112.0485
    3.390  120.2422
    3.420  130.6056
    3.450  138.5255
    3.480  141.6114
    3.510  133.3755
    3.540  118.7888
    3.570  103.8020
    3.600   88.5729
    3.630   80.3160
    3.660   76.4718
    3.690   74.9868
    3.720   76.1664
    3.750   77.4408
    3.780   81.0848
    3.810   83.9073
    3.840   85.5398
    3.870   85.9294
    3.900   85.7293
    3.930   78.7362
    3.960   72.3960
    3.990   65.5819
    4.020   53.9231
    4.050   45.5819
    4.080   40.1790
    4.110   33.4808
    4.140   29.2575
    4.170   25.1711
    4.200   22.8857
    4.230   21.3481
    4.260   19.8104
    4.290   18.3149
    4.320   18.1464
    4.350   16.9879
    4.380   15.8083
    4.410   15.5872
    4.440   14.8815
    4.470   14.9026
    4.500   13.4702
    4.530   14.0390
    4.560   13.6598
    4.590   13.1754
    4.620   12.8910
    4.650   13.2385
    4.680   12.7751
    4.710   12.3433
    4.740   12.1011
    4.770   12.2696
    4.800   12.0800
    4.830   12.2801
    4.860   12.3855
    4.890   12.3433
    4.920   11.9747
    4.950   12.1748
    4.980   12.1854
    5.010   12.1748
    5.040   12.0379
    5.070   11.8378
    5.100   11.4587
    5.130   12.0274
    5.160   11.6588
    5.190   11.5429
    5.220   11.9642
    5.250   11.1216
    5.280   11.2691
    5.310   11.5850
    5.340   11.6904
    5.370   10.7109
    5.400   10.9847
    5.430   11.1322
    5.460   11.2480
    5.490   10.3633
    5.520   11.1216
    5.550   11.1743
    5.580   10.7109
    5.610   10.1316
    5.640   10.6266
    5.670   10.4371
    5.700   10.3739
    5.730   10.3844
    5.760   10.4792
    5.790   10.3423
    5.820   10.0895
    5.850   10.2159
    5.880   10.5635
    5.910   10.5108
    5.940    9.6577
    5.970   10.7109
    6.000   10.2370
    6.030   10.2475
    6.060    9.9842
    6.090   10.4476
    6.120   10.4265
    6.150    9.8789
    6.180   10.8268
    6.210   11.0058
    6.240   10.5108
    6.270   10.9742
    6.300   10.8268
    6.330   11.1954
    6.360   11.3849
    6.390   11.0795
    6.420   11.4060
    6.450   11.6272
    6.480   11.8483
    6.510   12.6277
    6.540   12.4487
    6.570   13.1332
    6.600   13.3649
    6.630   13.8705
    6.660   14.5445
    6.690   15.0079
    6.720   15.7346
    6.750   16.9774
    6.780   17.4618
    6.810   18.2096
    6.840   20.2949
    6.870   22.1064
    6.900   23.8231
    6.930   25.4344
    6.960   25.2343
    6.990   25.5608
    7.020   24.2654
    7.050   21.6746
    7.080   17.9884
    7.110   16.8931
    7.140   15.3344
    7.170   13.7546
    7.200   12.9437
    7.230   13.3017
    7.260   12.7646
    7.290   12.4803
    7.320   12.2064
    7.350   12.6382
    7.380   12.8278
    7.410   12.9226
    7.440   12.9647
    7.470   13.9231
    7.500   14.3760
    7.530   14.6288
    7.560   15.4186
    7.590   15.8294
    7.620   17.0090
    7.650   17.7357
    7.680   18.5255
    7.710   19.4207
    7.740   20.1685
    7.770   21.1374
    7.800   21.8115
    7.830   21.2638
    7.860   21.7378
    7.890   20.0948
    7.920   19.3576
    7.950   18.7256
    7.980   17.5355
    8.010   15.2712
    8.040   15.1027
    8.070   14.4813
    8.100   13.6072
    8.130   12.9542
    8.160   12.1222
    8.190   11.6272
    8.220   11.0163
    8.250   11.5008
    8.280   10.6688
    8.310   10.7004
    8.340   10.5740
    8.370   10.4897
    8.400   10.5951
    8.430   10.7214
    8.460    9.8789
    8.490   10.2686
    8.520   10.2054
    8.550   10.3423
    8.580    9.8894
    8.610    9.8262
    8.640   10.0895
    8.670   10.1948
    8.700   10.1422
    8.730    9.9947
    8.760    9.9842
    8.790    9.6367
    8.820    9.6472
    8.850    9.7525
    8.880    9.6577
    8.910    9.6156
    8.940    9.5840
    8.970    9.5629
    9.000    9.5629
    9.030    9.3418
    9.060    9.1838
    9.090    9.2259
    9.120    9.8157
    9.150    9.6682
    9.180    9.6893
    9.210    9.6051
    9.240    9.2575
    9.270    9.6682
    9.300    9.5419
    9.330    9.7314
    9.360    9.6156
    9.390    9.5735
    9.420    9.2575
    9.450    9.3839
    9.480    9.3102
    9.510    9.2891
    9.540    9.3207
    9.570    9.7736
    9.600    9.6577
    9.630    9.1522
    9.660    9.6577
    9.690    9.3944
    9.720    9.4471
    9.750    9.2048
    9.780    9.8999
    9.810    9.2364
    9.840    9.1417
    9.870    9.7525
    9.900    9.3523
    9.930    9.2154
    9.960    9.4787
    9.990    9.3944
   10.020    9.4892
   10.050    9.2996
   10.080    8.9205
   10.110    9.5735
   10.140    9.5208
   10.170    9.6367
   10.200    9.6577
   10.230    9.2154
   10.260    9.1101
   10.290    9.6156
   10.320    9.4787
   10.350    9.2259
   10.380    9.7946
   10.410   10.1001
   10.440    9.3944
   10.470    9.4787
   10.500    9.7736
   10.530    9.5313
   10.560    9.0363
   10.590    9.3523
   10.620    9.6261
   10.650    9.3312
   10.680    8.8889
   10.710    9.0890
   10.740    9.2364
   10.770    9.2470
   10.800    9.4576
   10.830    9.2154
   10.860    9.3312
   10.890    9.3102
   10.920    9.8578
   10.950    9.7314
   10.980    9.2470
   11.010    8.9626
   11.040    9.4155
   11.070    8.4992
   11.100    9.5313
   11.130    9.3102
   11.160    9.2680
   11.190    9.3944
   11.220    9.5524
   11.250    9.4050
   11.280    9.3523
   11.310    9.1417
   11.340    9.8684
   11.370    9.4997
   11.400    9.8578
   11.430    9.9421
   11.460    9.0890
   11.490    9.5313
   11.520    9.9737
   11.550    9.6788
   11.580    9.8789
   11.610   10.2686
   11.640   10.0369
   11.670   10.1738
   11.700   10.0369
   11.730   10.2475
   11.760    9.8894
   11.790    9.8684
   11.820   10.0895
   11.850    9.8894
   11.880    9.8473
   11.910   10.2370
   11.940   10.3528
   11.970    9.5103
   12.000    9.5313
   12.030    9.9421
   12.060    9.6682
   12.090    9.4681
   12.120   10.0579
   12.150    9.3102
   12.180    9.3734
   12.210    9.6472
   12.240    8.9521
   12.270    9.5524
   12.300    8.8678
   12.330    9.6367
   12.360    9.2154
   12.390    9.2786
   12.420    9.2786
   12.450    8.7098
   12.480    9.1943
   12.510    9.3839
   12.540    8.3307
   12.570    9.5840
   12.600    9.2154
   12.630    9.1627
   12.660    9.0469
   12.690    8.8362
   12.720    9.2891
   12.750    9.4260
   12.780    9.0574
   12.810    9.4892
   12.840    8.9731
   12.870    8.9626
   12.900    9.4892
   12.930    9.3839
   12.960    9.6472
   12.990    8.9837
   13.020    9.3523
   13.050    9.4260
   13.080    9.6998
   13.110    9.3523
   13.140    9.4681
   13.170    8.9310
   13.200    9.0153
   13.230    9.5524
   13.260    9.3418
   13.290    9.0785
   13.320    9.5313
   13.350    9.3839
   13.380    9.1417
   13.410    9.2891
   13.440    9.1101
   13.470    9.1206
   13.500    8.8784
   13.530    8.8362
   13.560    8.6151
   13.590    8.8362
   13.620    9.0785
   13.650    8.5308
   13.680    8.9205
   13.710    9.1101
   13.740    8.6256
   13.770    8.9942
   13.800    9.0890
   13.830    9.1732
   13.860    8.9731
   13.890    8.8678
   13.920    8.4150
   13.950    8.7520
   13.980    8.1411
   14.010    8.9521
   14.040    8.6256
   14.070    8.7520
   14.100    8.6256
   14.130    9.3312
   14.160    8.3834
   14.190    8.6572
   14.220    9.0785
   14.250    8.8257
   14.280    8.2043
   14.310    8.7730
   14.340    9.1627
   14.370    8.8257
   14.400    8.2359
   14.430    9.1627
   14.460    8.6151
   14.490    8.6045
   14.520    8.5940
   14.550    8.4781
   14.580    9.2470
   14.610    8.8889
   14.640    8.8046
   14.670    8.6256
   14.700    8.7098
   14.730    8.8152
   14.760    8.2675
   14.790    8.5729
   14.820    8.5413
   14.850    8.9205
   14.880    7.9200
   14.910    8.7098
   14.940    8.6783
   14.970    8.8889
   15.000    8.7836
   15.030    8.7414
   15.060    8.8573
   15.090    8.8889
   15.120    8.8257
   15.150    9.0890
   15.180    8.2991
   15.210    8.7309
   15.240    9.3418
   15.270    8.9205
   15.300    9.2048
   15.330    8.3412
   15.360    9.2680
   15.390    8.6783
   15.420    8.6361
   15.450    9.1943
   15.480    9.1732
   15.510    8.7730
   15.540    8.8362
   15.570    9.4576
   15.600    8.4992
   15.630    9.1732
   15.660    9.1417
   15.690    9.2154
   15.720    8.6151
   15.750    9.0047
   15.780    8.7941
   15.810    9.1522
   15.840    9.0153
   15.870    8.7941
   15.900    8.5308
   15.930    8.8994
   15.960    9.0679
   15.990    8.9100
   16.020    8.8468
   16.050    8.7941
   16.080    8.6467
   16.110    8.7836
   16.140    8.6151
   16.170    8.3518
   16.200    8.4992
   16.230    8.4781
   16.260    8.8046
   16.290    8.4887
   16.320    8.1938
   16.350    8.6151
   16.380    8.7941
   16.410    8.5940
   16.440    8.2675
   16.470    8.2149
   16.500    8.4676
   16.530    8.3307
   16.560    8.8257
   16.590    8.5835
   16.620    8.7414
   16.650    8.1727
   16.680    8.6045
   16.710    8.4150
   16.740    9.2364
   16.770    8.6572
   16.800    8.7941
   16.830    8.4466
   16.860    8.4360
   16.890    8.1727
   16.920    8.3096
   16.950    8.3096
   16.980    8.7625
   17.010    8.5624
   17.040    8.4781
   17.070    8.4360
   17.100    9.1943
   17.130    8.1938
   17.160    8.5835
   17.190    8.3307
   17.220    8.4150
   17.250    8.7836
   17.280    8.7836
   17.310    8.7625
   17.340    9.1838
   17.370    8.9626
   17.400    8.5308
   17.430    8.5940
   17.460    8.8678
   17.490    8.9731
   17.520    9.3523
   17.550    8.7204
   17.580    9.3628
   17.610    8.6045
   17.640    8.5729
   17.670    8.7836
   17.700    8.6467
   17.730    9.5524
   17.760    8.6256
   17.790    8.5203
   17.820    8.9310
   17.850    9.1101
   17.880    9.3312
   17.910    8.9837
   17.940    9.0047
   17.970    8.6151
   18.000    9.1522
   18.030    8.4676
   18.060    8.6256
   18.090    8.6993
   18.120    8.7204
   18.150    8.7836
   18.180    8.6888
   18.210    8.7309
   18.240    8.6256
   18.270    8.8678
   18.300    8.5835
   18.330    8.8152
   18.360    8.9626
   18.390    9.0995
   18.420    8.6467
   18.450    8.8573
   18.480    9.1522
   18.510    8.6151
   18.540    9.1417
   18.570    8.8152
   18.600    8.8362
   18.630    8.6677
   18.660    8.7204
   18.690    8.8257
   18.720    8.6045
   18.750    8.5413
   18.780    9.2575
   18.810    8.6256
   18.840    9.0995
   18.870    8.8784
   18.900    8.7309
   18.930    8.9942
   18.960    8.4044
   18.990    8.8573
   19.020    8.5413
   19.050    8.7730
   19.080    8.5519
   19.110    8.7414
   19.140    8.6045
   19.170    8.9521
   19.200    8.8257
   19.230    8.8889
   19.260    9.3207
   19.290    8.8573
   19.320    9.1206
   19.350    9.2154
   19.380    8.6993
   19.410    9.2154
   19.440    8.9626
   19.470    9.0890
   19.500    8.7098
   19.530    9.1311
   19.560    9.1101
   19.590    9.3102
   19.620    9.1206
   19.650    9.6893
   19.680    9.3628
   19.710    9.3207
   19.740    8.7730
   19.770    9.3418
   19.800    9.4787
   19.830    9.3207
   19.860    9.2259
   19.890    9.4050
   19.920    9.2891
   19.950    9.0047
   19.980    9.2259
   20.010    9.2996
   20.040    9.6156
   20.070    9.2364
   20.100    9.4365
   20.130    9.2470
   20.160    9.1522
   20.190    9.7736
   20.220    9.4260
   20.250    9.9210
   20.280    9.8262
   20.310    9.6051
   20.340    9.1943
   20.370    9.8999
   20.400    9.6788
   20.430    9.6893
   20.460    9.3628
   20.490    9.7314
   20.520    9.3312
   20.550    9.4997
   20.580    9.8789
   20.610    9.1732
   20.640    9.3523
   20.670    9.7946
   20.700    9.8052
   20.730    9.8157
   20.760   10.1316
   20.790    9.5313
   20.820    9.5419
   20.850    9.8578
   20.880   10.2791
   20.910    9.9526
   20.940    9.4365
   20.970   10.3633
   21.000    9.4365
   21.030   10.1948
   21.060    9.9210
   21.090    9.7209
   21.120    9.7209
   21.150    9.7630
   21.180    9.6051
   21.210    9.8578
   21.240   10.1316
   21.270    9.6682
   21.300    9.5945
   21.330    9.2996
   21.360    9.9315
   21.390    9.2996
   21.420    9.6893
   21.450    9.6156
   21.480    9.6893
   21.510    9.7946
   21.540    9.1943
   21.570    9.6577
   21.600    9.4155
   21.630    9.6261
   21.660    9.2364
   21.690    9.6788
   21.720    9.7630
   21.750    9.2891
   21.780    9.7104
   21.810    9.1943
   21.840    9.6051
   21.870    9.4997
   21.900    9.4260
   21.930    9.5735
   21.960    9.6472
   21.990    9.6367
   22.020    9.5208
   22.050    9.6156
   22.080    9.1732
   22.110   10.0895
   22.140    9.6367
   22.170   10.0685
   22.200   10.1843
   22.230    9.1943
   22.260    9.5103
   22.290    9.0890
   22.320    9.6788
   22.350    9.9947
   22.380    9.7841
   22.410    9.8368
   22.440    9.4471
   22.470   10.0790
   22.500   10.2159
   22.530    9.6577
   22.560    9.6998
   22.590   10.2370
   22.620    9.7314
   22.650    9.6577
   22.680   10.2159
   22.710    9.9210
   22.740    9.9315
   22.770    9.6998
   22.800   10.0790
   22.830   10.0369
   22.860   10.1527
   22.890   10.5635
   22.920    9.7209
   22.950    9.6788
   22.980    9.3312
   23.010    9.6472
   23.040    9.7104
   23.070    9.2680
   23.100    9.3207
   23.130    9.4787
   23.160    9.6156
   23.190   10.0895
   23.220    9.5840
   23.250    9.6472
   23.280    9.4471
   23.310    9.8999
   23.340    9.6261
   23.370    9.3734
   23.400    9.1101
   23.430    9.3944
   23.460    9.4050
   23.490    9.2680
   23.520    9.4681
   23.550    8.6572
   23.580    8.9100
   23.610    9.3207
   23.640    9.3312
   23.670    8.9521
   23.700    9.2470
   23.730    9.5629
   23.760    8.9205
   23.790    9.0469
   23.820    9.3312
   23.850    9.1732
   23.880    9.1311
   23.910    9.1838
   23.940    8.9100
   23.970    9.0574
   24.000    8.6467
   24.030    9.3418
   24.060    9.6472
   24.090    9.0469
   24.120    9.6893
   24.150    8.6256
   24.180    8.9205
   24.210    9.0363
   24.240    9.0785
   24.270    9.3628
   24.300    9.4892
   24.330    9.0785
   24.360    9.0785
   24.390    9.1627
   24.420    9.0679
   24.450    9.1732
   24.480    9.5103
   24.510    9.0363
   24.540    9.1417
   24.570    9.3102
   24.600    9.3839
   24.630    8.9731
   24.660    9.2048
   24.690    8.9626
   24.720    9.3207
   24.750    9.4050
   24.780    9.0785
   24.810    9.2048
   24.840    9.3628
   24.870    8.6151
   24.900    8.9626
   24.930    8.6677
   24.960    8.9521
   24.990    8.8678
   25.020    9.2786
   25.050    9.0258
   25.080    8.7309
   25.110    9.4576
   25.140    8.3939
   25.170    9.1732
   25.200    9.1311
   25.230    8.3412
   25.260    8.9837
   25.290    8.4360
   25.320    8.6467
   25.350    8.8468
   25.380    8.5624
   25.410    8.8573
   25.440    8.5519
   25.470    8.3939
   25.500    9.2786
   25.530    8.4781
   25.560    8.8468
   25.590    8.5624
   25.620    8.4044
   25.650    9.0890
   25.680    8.7625
   25.710    8.3202
   25.740    8.4781
   25.770    8.3728
   25.800    8.4781
   25.830    9.0890
   25.860    8.1095
   25.890    8.3202
   25.920    8.7414
   25.950    8.8046
   25.980    8.5624
   26.010    8.1201
   26.040    8.0990
   26.070    8.7520
   26.100    8.5413
   26.130    8.2675
   26.160    8.5413
   26.190    8.2780
   26.220    8.4150
   26.250    8.1622
   26.280    8.2991
   26.310    9.0679
   26.340    8.6151
   26.370    8.4044
   26.400    8.3939
   26.430    8.0253
   26.460    8.2254
   26.490    8.1727
   26.520    8.4466
   26.550    8.2675
   26.580    8.1833
   26.610    8.0674
   26.640    8.1622
   26.670    8.4466
   26.700    8.2043
   26.730    8.0674
   26.760    8.0779
   26.790    8.5729
   26.820    8.2359
   26.850    8.3834
   26.880    8.2043
   26.910    8.5097
   26.940    8.1306
   26.970    8.6151
   27.000    8.4676
   27.030    8.2570
   27.060    8.4571
   27.090    8.0674
   27.120    7.9726
   27.150    8.1095
   27.180    8.1201
   27.210    8.1095
   27.240    8.4992
   27.270    8.1095
   27.300    8.0885
   27.330    7.9516
   27.360    8.4360
   27.390    8.0885
   27.420    8.0463
   27.450    8.4150
   27.480    8.2149
   27.510    8.1095
   27.540    7.9305
   27.570    7.6461
   27.600    8.2886
   27.630    8.4571
   27.660    8.1938
   27.690    7.9726
   27.720    8.3202
   27.750    7.6251
   27.780    7.7830
   27.810    8.2464
   27.840    7.9621
   27.870    8.1306
   27.900    8.3307
   27.930    8.0147
   27.960    7.9726
   27.990    7.8252
   28.020    8.4150
   28.050    8.2359
   28.080    8.2570
   28.110    7.9831
   28.140    7.8884
   28.170    8.0147
   28.200    8.3939
   28.230    8.1938
   28.260    8.0147
   28.290    8.0569
   28.320    8.2043
   28.350    8.0147
   28.380    7.7725
   28.410    7.6883
   28.440    8.1411
   28.470    7.6988
   28.500    7.9200
   28.530    7.8778
   28.560    8.2780
   28.590    7.6777
   28.620    8.0990
   28.650    7.6672
   28.680    7.8673
   28.710    8.3834
   28.740    7.6883
   28.770    7.7830
   28.800    7.8778
   28.830    7.7409
   28.860    7.8252
   28.890    7.2249
   28.920    7.8778
   28.950    7.4776
   28.980    7.2565
   29.010    7.8252
   29.040    7.3196
   29.070    7.3302
   29.100    7.9094
   29.130    8.0885
   29.160    8.1622
   29.190    7.5092
   29.220    7.7199
   29.250    7.9094
   29.280    7.2143
   29.310    7.4460
   29.340    7.3512
   29.370    7.8673
   29.400    7.9410
   29.430    7.8146
   29.460    7.5619
   29.490    7.5408
   29.520    7.8568
   29.550    7.7199
   29.580    7.6567
   29.610    7.7093
   29.640    7.6356
   29.670    7.5197
   29.700    7.2986
   29.730    7.5619
   29.760    7.4039
   29.790    7.7830
   29.820    7.3723
   29.850    7.3512
   29.880    7.3618
   29.910    7.3723
   29.940    7.2249
   29.970    7.3723
   30.000    7.2354
   30.030    8.0674
   30.060    7.1933
   30.090    7.3618
   30.120    7.5829
   30.150    7.8462
   30.180    7.4460
   30.210    7.5935
   30.240    7.3828
   30.270    7.9094
   30.300    7.4039
   30.330    7.6251
   30.360    7.5303
   30.390    7.4144
   30.420    7.2880
   30.450    7.6040
   30.480    6.9826
   30.510    7.1511
   30.540    7.4882
   30.570    7.4039
   30.600    7.5303
   30.630    7.4460
   30.660    7.6883
   30.690    7.4460
   30.720    7.5197
   30.750    7.4566
   30.780    7.6567
   30.810    7.5935
   30.840    7.3618
   30.870    7.6461
   30.900    7.2143
   30.930    7.0985
   30.960    7.2565
   30.990    7.1617
   31.020    7.0458
   31.050    7.2038
   31.080    7.3512
   31.110    7.2880
   31.140    7.3302
   31.170    7.2459
   31.200    7.0879
   31.230    7.2565
   31.260    7.3196
   31.290    7.5092
   31.320    7.2775
   31.350    7.3196
   31.380    7.2249
   31.410    7.3828
   31.440    7.0985
   31.470    7.2565
   31.500    7.5513
   31.530    7.5619
   31.560    7.2459
   31.590    7.4039
   31.620    7.4671
   31.650    7.3302
   31.680    7.5408
   31.710    7.4144
   31.740    7.4355
   31.770    7.6883
   31.800    7.5197
   31.830    7.3407
   31.860    7.5303
   31.890    7.6145
   31.920    7.6777
   31.950    7.5408
   31.980    7.1511
   32.010    7.2986
   32.040    7.0985
   32.070    7.4776
   32.100    7.1301
   32.130    7.7830
   32.160    7.3302
   32.190    7.4987
   32.220    6.9826
   32.250    7.0879
   32.280    7.0563
   32.310    7.4039
   32.340    7.3618
   32.370    7.2986
   32.400    7.1301
   32.430    7.4144
   32.460    7.4882
   32.490    7.1406
   32.520    7.0985
   32.550    7.1827
   32.580    7.0037
   32.610    7.2249
   32.640    7.3512
   32.670    7.4566
   32.700    6.9089
   32.730    7.3302
   32.760    7.0563
   32.790    6.8562
   32.820    6.8246
   32.850    7.2249
   32.880    6.9300
   32.910    7.0037
   32.940    6.8773
   32.970    7.0353
   33.000    7.2143
   33.030    6.8984
   33.060    6.8457
   33.090    6.8878
   33.120    7.1933
   33.150    7.0248
   33.180    7.0774
   33.210    6.6245
   33.240    7.2143
   33.270    6.9826
   33.300    7.2986
   33.330    7.2459
   33.360    7.1511
   33.390    7.1301
   33.420    7.0563
   33.450    7.2986
   33.480    6.9826
   33.510    7.0248
   33.540    6.7825
   33.570    7.4671
   33.600    6.6877
   33.630    7.2143
   33.660    6.9826
   33.690    7.0037
   33.720    6.7825
   33.750    6.6877
   33.780    6.5824
   33.810    6.6245
   33.840    6.9300
   33.870    7.3512
   33.900    6.5087
   33.930    6.6035
   33.960    7.0985
   33.990    6.9089
   34.020    7.5197
   34.050    6.5403
   34.080    6.7404
   34.110    6.7088
   34.140    6.8457
   34.170    6.7825
   34.200    6.8668
   34.230    6.4982
   34.260    6.8773
   34.290    6.5719
   34.320    6.4982
   34.350    6.7088
   34.380    6.6140
   34.410    6.6245
   34.440    7.0563
   34.470    7.0353
   34.500    6.6772
   34.530    6.8141
   34.560    6.6351
   34.590    6.6035
   34.620    7.0037
   34.650    6.3507
   34.680    6.7404
   34.710    6.7930
   34.740    6.3402
   34.770    6.2559
   34.800    6.7193
   34.830    6.2665
   34.860    6.5719
   34.890    7.0985
   34.920    6.6140
   34.950    7.2354
   34.980    6.7509
   35.010    6.7720
   35.040    6.7615
   35.070    6.8878
   35.100    6.6140
   35.130    7.1406
   35.160    6.6035
   35.190    6.8246
   35.220    6.5087
   35.250    6.9826
   35.280    6.7509
   35.310    6.8036
   35.340    6.7404
   35.370    6.8141
   35.400    6.6351
   35.430    6.3718
   35.460    6.6772
   35.490    6.5929
   35.520    6.5508
   35.550    6.8668
   35.580    6.6140
   35.610    6.6140
   35.640    6.3296
   35.670    6.3928
   35.700    6.8246
   35.730    6.6772
   35.760    6.7615
   35.790    6.9510
   35.820    6.9194
   35.850    6.5929
   35.880    6.5298
   35.910    6.7404
   35.940    5.8662
   35.970    6.5298
   36.000    6.4455
   36.030    6.7404
   36.060    6.4876
   36.090    6.6245
   36.120    6.2559
   36.150    6.5613
   36.180    6.7720
   36.210    6.4034
   36.240    6.6035
   36.270    6.5719
   36.300    6.1085
   36.330    6.4034
   36.360    6.4771
   36.390    6.4244
   36.420    6.2138
   36.450    6.6245
   36.480    6.5403
   36.510    6.6140
   36.540    6.2454
   36.570    6.7720
   36.600    7.0037
   36.630    6.3612
   36.660    6.5824
   36.690    6.1401
   36.720    6.4350
   36.750    6.3612
   36.780    6.4139
   36.810    6.2243
   36.840    6.3612
   36.870    6.8668
   36.900    6.2243
   36.930    6.4139
   36.960    6.1611
   36.990    6.7193
   37.020    6.6035
   37.050    6.5613
   37.080    6.7088
   37.110    6.1295
   37.140    6.9510
   37.170    6.3507
   37.200    6.4034
   37.230    6.6351
   37.260    6.6877
   37.290    6.2770
   37.320    6.0664
   37.350    6.3823
   37.380    6.2559
   37.410    6.1506
   37.440    6.5298
   37.470    6.3402
   37.500    6.2559
   37.530    6.4771
   37.560    6.7299
   37.590    6.5613
   37.620    6.6983
   37.650    6.0348
   37.680    6.4034
   37.710    6.4139
   37.740    6.2559
   37.770    6.0979
   37.800    6.1401
   37.830    6.5719
   37.860    6.2454
   37.890    6.3928
   37.920    6.5192
   37.950    6.3718
   37.980    6.4139
   38.010    6.4455
   38.040    5.9294
   38.070    6.7193
   38.100    6.1927
   38.130    6.6245
   38.160    6.1717
   38.190    6.0032
   38.220    6.3191
   38.250    6.5929
   38.280    6.6351
   38.310    6.5298
   38.340    6.5087
   38.370    6.3612
   38.400    6.5087
   38.430    6.2559
   38.460    5.7820
   38.490    6.4244
   38.520    6.2665
   38.550    6.0032
   38.580    6.7088
   38.610    6.4034
   38.640    6.4244
   38.670    6.3296
   38.700    6.2138
   38.730    6.2559
   38.760    6.5087
   38.790    6.6351
   38.820    6.6245
   38.850    6.1190
   38.880    6.1611
   38.910    6.4244
   38.940    6.1190
   38.970    6.3823
   39.000    6.1717
   39.030    6.5719
   39.060    6.7720
   39.090    6.2243
   39.120    6.4244
   39.150    6.5824
   39.180    6.3086
   39.210    6.4560
   39.240    6.2875
   39.270    6.2665
   39.300    6.6035
   39.330    6.4982
   39.360    6.5824
   39.390    6.3191
   39.420    6.3823
   39.450    6.7404
   39.480    6.5298
   39.510    6.4139
   39.540    6.3402
   39.570    6.3086
   39.600    6.2454
   39.630    6.2981
   39.660    6.1717
   39.690    6.3191
   39.720    6.6772
   39.750    6.2033
   39.780    6.4244
   39.810    6.3928
   39.840    6.1927
   39.870    6.9300
   39.900    6.2559
   39.930    6.4771
   39.960    6.8141
   39.990    6.2138