File: data/PXRD/PXRD_KE-059_Cu-Ka1_capillary-1mm_5s-deg.xyd
    1.500   39.9473
    1.530   39.6419
    1.560   38.7467
    1.590   38.1464
    1.620   36.9458
    1.650   37.4829
    1.680   36.3349
    1.710   35.9452
    1.740   33.7546
    1.770   34.0916
    1.800   33.8494
    1.830   33.3439
    1.860   33.0384
    1.890   32.4803
    1.920   31.3955
    1.950   30.9321
    1.980   30.4160
    2.010   30.8373
    2.040   30.8057
    2.070   29.1311
    2.100   29.4471
    2.130   29.3523
    2.160   28.8889
    2.190   28.1833
    2.220   28.3623
    2.250   27.6251
    2.280   27.2354
    2.310   27.5829
    2.340   27.4250
    2.370   27.6145
    2.400   27.1722
    2.430   26.7509
    2.460   26.7088
    2.490   26.2770
    2.520   26.5719
    2.550   26.4350
    2.580   26.7825
    2.610   26.5719
    2.640   26.1190
    2.670   25.9821
    2.700   26.1085
    2.730   26.8457
    2.760   27.6883
    2.790   27.2565
    2.820   27.0774
    2.850   26.7509
    2.880   28.0463
    2.910   27.5303
    2.940   28.0674
    2.970   28.9626
    3.000   29.0153
    3.030   30.4265
    3.060   29.9421
    3.090   31.8483
    3.120   31.8589
    3.150   33.2280
    3.180   34.3655
    3.210   34.5024
    3.240   36.2928
    3.270   37.1880
    3.300   40.2949
    3.330   40.2106
    3.360   43.8547
    3.390   46.2454
    3.420   47.7830
    3.450   49.9210
    3.480   53.4071
    3.510   55.8715
    3.540   60.1053
    3.570   63.3070
    3.600   67.7409
    3.630   73.3544
    3.660   81.7272
    3.690   87.1511
    3.720   95.2817
    3.750  108.0885
    3.780  121.6956
    3.810  140.0316
    3.840  166.5719
    3.870  213.7020
    3.900  271.5219
    3.930  264.4445
    3.960  162.9068
    3.990   48.9416
    4.020   23.4966
    4.050   17.9674
    4.080   15.2501
    4.110   14.2496
    4.140   13.4597
    4.170   13.1016
    4.200   12.2275
    4.230   11.6061
    4.260   11.7009
    4.290   11.5219
    4.320   11.4797
    4.350   11.6272
    4.380   11.3217
    4.410   11.3007
    4.440   11.3007
    4.470   10.9321
    4.500   10.9953
    4.530   11.2059
    4.560   11.1743
    4.590   10.7636
    4.620   11.5113
    4.650   11.1638
    4.680   11.5324
    4.710   11.3323
    4.740   11.1216
    4.770   11.0900
    4.800   12.0590
    4.830   11.7220
    4.860   11.8694
    4.890   12.1854
    4.920   12.4171
    4.950   12.6804
    4.980   12.9753
    5.010   13.5229
    5.040   13.6809
    5.070   14.4918
    5.100   14.7130
    5.130   15.0184
    5.160   16.0611
    5.190   16.9879
    5.220   17.9568
    5.250   19.1890
    5.280   21.1585
    5.310   22.8541
    5.340   24.3707
    5.370   27.2459
    5.400   31.4271
    5.430   34.6393
    5.460   41.0321
    5.490   51.6904
    5.520   64.3918
    5.550   65.4450
    5.580   44.5919
    5.610   18.3360
    5.640   10.9531
    5.670    9.3628
    5.700    8.8257
    5.730    8.7098
    5.760    9.1101
    5.790    8.6888
    5.820    8.3518
    5.850    8.3518
    5.880    8.2149
    5.910    8.1411
    5.940    8.1833
    5.970    8.0674
    6.000    7.9516
    6.030    8.5308
    6.060    8.0885
    6.090    8.2464
    6.120    8.2675
    6.150    8.0990
    6.180    8.3518
    6.210    8.4992
    6.240    8.5097
    6.270    8.1517
    6.300    8.2149
    6.330    8.4781
    6.360    8.5835
    6.390    8.6993
    6.420    8.6888
    6.450    8.6888
    6.480    9.0785
    6.510    9.5313
    6.540   10.1738
    6.570   10.4160
    6.600   10.9742
    6.630   11.3849
    6.660   12.3328
    6.690   13.4176
    6.720   15.1027
    6.750   18.2833
    6.780   20.5793
    6.810   18.1464
    6.840   12.5329
    6.870    8.7836
    6.900    7.7093
    6.930    7.5408
    6.960    7.4144
    6.990    7.9305
    7.020    7.7199
    7.050    7.5092
    7.080    7.4039
    7.110    7.5092
    7.140    7.4671
    7.170    7.3618
    7.200    7.4250
    7.230    7.6251
    7.260    7.6777
    7.290    7.6567
    7.320    8.0885
    7.350    7.6672
    7.380    7.7514
    7.410    8.1727
    7.440    8.2886
    7.470    8.3412
    7.500    8.5624
    7.530    8.7098
    7.560    9.6682
    7.590    9.3312
    7.620   10.0790
    7.650   10.3212
    7.680   11.0058
    7.710   11.9747
    7.740   13.6388
    7.770   15.3028
    7.800   18.1675
    7.830   21.6956
    7.860   19.4734
    7.890   13.1438
    7.920    8.5624
    7.950    7.2775
    7.980    7.2565
    8.010    7.1195
    8.040    6.9932
    8.070    6.7930
    8.100    6.8352
    8.130    6.9300
    8.160    6.8352
    8.190    6.8984
    8.220    7.2775
    8.250    6.8668
    8.280    7.2354
    8.310    6.5929
    8.340    6.9510
    8.370    6.9616
    8.400    7.0458
    8.430    7.0669
    8.460    7.2670
    8.490    6.9510
    8.520    7.0563
    8.550    6.7825
    8.580    7.2143
    8.610    6.9932
    8.640    7.4039
    8.670    7.5408
    8.700    7.7409
    8.730    8.2149
    8.760    8.4044
    8.790    7.7830
    8.820    7.2880
    8.850    6.9616
    8.880    6.8984
    8.910    6.6877
    8.940    7.0669
    8.970    7.2565
    9.000    7.0142
    9.030    6.9405
    9.060    6.6772
    9.090    7.3302
    9.120    6.9300
    9.150    7.6461
    9.180    7.7514
    9.210    8.0253
    9.240    8.0990
    9.270    8.6256
    9.300    9.1311
    9.330    9.3944
    9.360    9.8684
    9.390   11.3112
    9.420   11.6482
    9.450   13.5861
    9.480   15.0711
    9.510   18.5150
    9.540   22.7278
    9.570   28.1727
    9.600   32.8805
    9.630   29.5103
    9.660   17.5987
    9.690    9.7630
    9.720    7.4250
    9.750    6.8141
    9.780    6.5929
    9.810    7.1090
    9.840    7.0985
    9.870    7.2354
    9.900    6.6140
    9.930    6.9300
    9.960    6.7193
    9.990    6.7404
   10.020    7.2143
   10.050    7.1511
   10.080    7.3196
   10.110    7.5724
   10.140    7.6988
   10.170    8.0674
   10.200    8.2043
   10.230    8.6045
   10.260    9.6788
   10.290   10.6266
   10.320   12.4908
   10.350   14.9342
   10.380   16.2717
   10.410   13.2175
   10.440    9.3312
   10.470    6.8246
   10.500    6.9194
   10.530    6.4139
   10.560    6.5824
   10.590    6.3823
   10.620    6.6456
   10.650    6.3823
   10.680    6.3928
   10.710    6.5824
   10.740    6.7930
   10.770    6.7930
   10.800    6.8668
   10.830    6.9405
   10.860    7.2880
   10.890    7.9410
   10.920    8.1622
   10.950    8.6361
   10.980    9.0890
   11.010   10.1632
   11.040   11.8062
   11.070   13.5756
   11.100   14.1022
   11.130   12.7014
   11.160    8.8678
   11.190    6.9089
   11.220    6.9721
   11.250    6.9194
   11.280    5.9716
   11.310    6.6456
   11.340    6.3402
   11.370    6.3612
   11.400    6.3507
   11.430    6.5719
   11.460    6.5087
   11.490    6.5087
   11.520    6.9194
   11.550    7.2038
   11.580    7.7304
   11.610    7.9621
   11.640    9.1522
   11.670    9.8578
   11.700   11.1848
   11.730   13.3544
   11.760   15.2923
   11.790   14.3760
   11.820   10.6372
   11.850    7.3723
   11.880    6.7193
   11.910    6.4982
   11.940    6.3191
   11.970    6.1085
   12.000    6.0979
   12.030    6.4666
   12.060    6.0874
   12.090    6.6561
   12.120    6.5613
   12.150    6.2665
   12.180    6.2981
   12.210    6.5403
   12.240    6.4034
   12.270    6.7193
   12.300    6.7825
   12.330    6.9616
   12.360    7.0353
   12.390    7.4776
   12.420    7.4882
   12.450    6.7404
   12.480    6.7404
   12.510    6.4771
   12.540    6.2138
   12.570    6.1295
   12.600    6.3086
   12.630    5.8347
   12.660    5.9189
   12.690    6.4666
   12.720    6.1190
   12.750    6.6877
   12.780    6.7404
   12.810    6.9300
   12.840    7.1827
   12.870    7.5092
   12.900    7.9200
   12.930    8.8046
   12.960   10.0579
   12.990   11.9537
   13.020   12.2591
   13.050   10.7320
   13.080    8.0253
   13.110    6.5929
   13.140    5.8241
   13.170    6.3507
   13.200    6.0769
   13.230    6.6140
   13.260    6.0874
   13.290    6.0874
   13.320    6.0874
   13.350    6.0874
   13.380    6.0558
   13.410    6.2770
   13.440    6.8036
   13.470    6.9405
   13.500    7.2249
   13.530    7.3618
   13.560    9.0258
   13.590    9.0679
   13.620    8.7204
   13.650    8.0358
   13.680    7.0142
   13.710    6.1611
   13.740    6.0348
   13.770    6.1190
   13.800    6.0242
   13.830    5.9821
   13.860    6.1927
   13.890    6.1927
   13.920    6.0874
   13.950    6.6772
   13.980    7.0353
   14.010    6.4982
   14.040    7.3828
   14.070    8.0674
   14.100    9.4681
   14.130   10.4897
   14.160   10.6372
   14.190    9.6472
   14.220    8.0779
   14.250    6.0664
   14.280    6.3296
   14.310    5.7925
   14.340    6.1295
   14.370    5.7504
   14.400    5.7293
   14.430    5.8557
   14.460    5.7083
   14.490    5.8241
   14.520    5.9821
   14.550    5.8662
   14.580    6.0979
   14.610    5.9400
   14.640    5.7820
   14.670    6.0032
   14.700    5.8241
   14.730    5.8873
   14.760    5.5608
   14.790    5.8452
   14.820    6.0032
   14.850    6.0979
   14.880    5.8873
   14.910    5.7715
   14.940    6.2981
   14.970    5.7925
   15.000    6.2770
   15.030    5.8978
   15.060    6.5508
   15.090    6.2875
   15.120    6.1295
   15.150    6.7825
   15.180    6.9932
   15.210    7.4566
   15.240    6.8141
   15.270    6.8352
   15.300    5.8136
   15.330    5.8241
   15.360    5.9189
   15.390    5.8978
   15.420    5.8662
   15.450    5.7188
   15.480    6.0769
   15.510    6.2243
   15.540    6.3086
   15.570    5.7925
   15.600    5.7715
   15.630    5.6872
   15.660    5.8768
   15.690    5.7925
   15.720    5.9189
   15.750    6.1506
   15.780    5.7293
   15.810    5.8662
   15.840    5.9189
   15.870    6.1611
   15.900    6.1822
   15.930    6.0558
   15.960    5.8873
   15.990    6.4350
   16.020    6.4034
   16.050    6.2981
   16.080    6.0348
   16.110    6.0558
   16.140    6.9089
   16.170    7.5829
   16.200    7.1195
   16.230    7.2880
   16.260    6.4244
   16.290    6.1190
   16.320    6.0348
   16.350    5.8557
   16.380    6.0137
   16.410    6.4350
   16.440    6.2981
   16.470    5.8347
   16.500    6.3402
   16.530    5.9294
   16.560    6.3928
   16.590    6.5508
   16.620    6.8773
   16.650    7.4039
   16.680    7.2775
   16.710    7.0774
   16.740    6.9721
   16.770    6.4034
   16.800    6.1822
   16.830    6.2138
   16.860    6.1401
   16.890    6.0769
   16.920    6.2875
   16.950    6.4771
   16.980    7.2670
   17.010    7.0142
   17.040    7.2986
   17.070    8.4255
   17.100    9.5208
   17.130   10.1527
   17.160    9.9315
   17.190    8.7941
   17.220    6.8457
   17.250    6.3086
   17.280    6.2875
   17.310    6.2033
   17.340    5.6556
   17.370    5.6977
   17.400    6.0558
   17.430    6.3296
   17.460    6.1717
   17.490    6.6351
   17.520    6.6877
   17.550    6.4455
   17.580    6.4771
   17.610    6.6245
   17.640    6.4560
   17.670    6.0137
   17.700    5.9189
   17.730    5.8768
   17.760    5.9084
   17.790    5.9926
   17.820    6.1611
   17.850    6.0137
   17.880    6.3718
   17.910    6.4244
   17.940    6.8141
   17.970    6.4455
   18.000    7.2775
   18.030    6.8773
   18.060    6.7509
   18.090    6.2770
   18.120    6.5192
   18.150    5.8452
   18.180    6.3823
   18.210    5.3923
   18.240    5.6556
   18.270    6.1085
   18.300    6.0348
   18.330    6.1401
   18.360    6.4771
   18.390    6.9089
   18.420    7.4460
   18.450    7.0563
   18.480    6.6983
   18.510    6.2033
   18.540    6.2770
   18.570    5.7715
   18.600    5.8347
   18.630    6.2033
   18.660    6.2349
   18.690    6.0664
   18.720    5.9189
   18.750    5.8768
   18.780    6.2454
   18.810    6.2559
   18.840    6.8562
   18.870    6.3507
   18.900    6.9405
   18.930    6.5508
   18.960    6.0664
   18.990    6.1717
   19.020    6.4034
   19.050    6.1611
   19.080    6.4034
   19.110    5.9926
   19.140    6.0979
   19.170    5.8241
   19.200    5.7715
   19.230    5.7925
   19.260    5.9821
   19.290    6.2981
   19.320    5.7399
   19.350    5.7083
   19.380    5.7820
   19.410    5.9294
   19.440    6.4350
   19.470    6.0769
   19.500    6.1927
   19.530    6.1822
   19.560    6.2033
   19.590    6.9510
   19.620    7.0774
   19.650    7.3934
   19.680    7.2670
   19.710    6.6667
   19.740    6.6561
   19.770    6.3296
   19.800    5.9505
   19.830    6.0664
   19.860    5.9716
   19.890    5.8452
   19.920    5.8978
   19.950    5.9084
   19.980    6.1717
   20.010    6.1927
   20.040    6.5403
   20.070    5.9400
   20.100    5.9294
   20.130    6.1085
   20.160    6.4455
   20.190    6.1717
   20.220    6.3402
   20.250    6.2454
   20.280    6.4771
   20.310    7.3512
   20.340    7.1406
   20.370    7.6777
   20.400    8.2886
   20.430    9.4155
   20.460   10.0053
   20.490    9.4260
   20.520    7.8884
   20.550    6.9300
   20.580    6.3086
   20.610    5.6661
   20.640    6.1401
   20.670    6.2665
   20.700    5.8557
   20.730    6.3191
   20.760    6.1506
   20.790    6.2665
   20.820    6.2454
   20.850    5.9505
   20.880    6.1717
   20.910    6.2875
   20.940    6.1506
   20.970    5.7504
   21.000    5.7609
   21.030    6.1085
   21.060    5.9084
   21.090    5.7083
   21.120    6.1927
   21.150    6.4666
   21.180    5.7083
   21.210    5.9610
   21.240    6.0137
   21.270    6.1927
   21.300    5.9505
   21.330    6.0242
   21.360    6.1295
   21.390    6.6561
   21.420    6.0769
   21.450    5.8031
   21.480    6.1085
   21.510    6.0032
   21.540    6.0242
   21.570    5.9926
   21.600    6.1085
   21.630    5.9294
   21.660    6.0979
   21.690    6.4034
   21.720    5.8136
   21.750    6.3928
   21.780    6.2033
   21.810    5.8347
   21.840    6.1927
   21.870    6.6561
   21.900    7.0142
   21.930    7.2354
   21.960    7.0142
   21.990    7.1406
   22.020    6.4876
   22.050    6.2665
   22.080    6.2559
   22.110    5.9716
   22.140    6.4876
   22.170    6.0664
   22.200    6.1506
   22.230    7.0563
   22.260    6.6351
   22.290    7.2880
   22.320    7.2038
   22.350    6.7088
   22.380    6.6351
   22.410    6.9300
   22.440    6.6456
   22.470    6.6140
   22.500    6.6456
   22.530    7.1511
   22.560    8.2149
   22.590    8.9205
   22.620    9.8368
   22.650   10.2054
   22.680    9.1206
   22.710    8.3939
   22.740    7.4671
   22.770    6.9089
   22.800    6.9300
   22.830    6.8141
   22.860    7.1195
   22.890    7.8357
   22.920    8.7625
   22.950    9.6367
   22.980   10.2264
   23.010    9.6682
   23.040    9.2786
   23.070    8.0358
   23.100    6.6245
   23.130    6.5298
   23.160    6.2138
   23.190    6.6667
   23.220    6.4455
   23.250    6.8141
   23.280    6.7509
   23.310    7.2459
   23.340    7.7620
   23.370    7.3091
   23.400    6.5192
   23.430    6.5719
   23.460    6.4771
   23.490    6.1717
   23.520    6.3296
   23.550    6.1190
   23.580    6.3718
   23.610    6.3507
   23.640    6.4876
   23.670    6.2875
   23.700    6.2243
   23.730    6.5719
   23.760    5.8136
   23.790    6.0874
   23.820    6.2349
   23.850    6.0453
   23.880    6.2033
   23.910    6.1506
   23.940    6.8878
   23.970    6.9721
   24.000    7.2775
   24.030    7.1511
   24.060    7.0248
   24.090    6.3402
   24.120    6.4560
   24.150    5.9926
   24.180    6.2981
   24.210    6.0874
   24.240    6.1295
   24.270    5.9926
   24.300    6.0453
   24.330    6.3296
   24.360    6.6035
   24.390    6.2138
   24.420    5.7504
   24.450    5.9189
   24.480    6.1506
   24.510    5.7293
   24.540    5.8662
   24.570    6.0558
   24.600    6.0664
   24.630    6.2770
   24.660    6.4771
   24.690    6.6035
   24.720    6.2665
   24.750    5.9610
   24.780    6.0558
   24.810    5.8662
   24.840    5.5714
   24.870    6.0348
   24.900    6.0453
   24.930    5.9610
   24.960    5.8241
   24.990    6.1295
   25.020    6.0558
   25.050    6.1927
   25.080    6.2454
   25.110    6.0032
   25.140    5.8978
   25.170    6.1401
   25.200    6.0874
   25.230    6.2243
   25.260    6.2559
   25.290    6.5192
   25.320    6.6983
   25.350    6.2770
   25.380    6.0979
   25.410    5.9189
   25.440    5.9610
   25.470    5.9505
   25.500    5.7820
   25.530    6.1506
   25.560    6.5403
   25.590    6.2981
   25.620    6.4139
   25.650    6.3086
   25.680    6.2138
   25.710    6.0874
   25.740    6.2138
   25.770    6.3718
   25.800    7.1617
   25.830    7.3723
   25.860    7.7304
   25.890    9.0153
   25.920    8.8784
   25.950    8.1095
   25.980    7.1406
   26.010    5.9294
   26.040    6.3402
   26.070    6.2559
   26.100    6.1822
   26.130    6.1190
   26.160    5.8768
   26.190    5.7820
   26.220    5.9610
   26.250    5.8031
   26.280    6.0558
   26.310    5.8136
   26.340    5.5292
   26.370    6.1295
   26.400    5.7820
   26.430    5.8241
   26.460    6.5087
   26.490    6.8984
   26.520    6.4139
   26.550    6.7299
   26.580    6.3086
   26.610    5.7083
   26.640    6.0664
   26.670    5.9926
   26.700    5.5924
   26.730    5.2975
   26.760    5.5608
   26.790    5.7504
   26.820    5.4871
   26.850    5.7083
   26.880    5.4344
   26.910    5.8452
   26.940    5.9505
   26.970    5.5819
   27.000    6.2033
   27.030    5.9821
   27.060    6.6140
   27.090    6.8562
   27.120    6.4982
   27.150    6.6456
   27.180    6.1611
   27.210    5.8347
   27.240    5.6135
   27.270    5.6451
   27.300    5.4766
   27.330    5.7820
   27.360    5.4028
   27.390    5.5082
   27.420    5.4239
   27.450    5.4871
   27.480    5.8347
   27.510    5.7083
   27.540    5.6767
   27.570    6.1822
   27.600    6.1401
   27.630    6.2454
   27.660    6.1611
   27.690    6.4244
   27.720    6.2665
   27.750    5.9716
   27.780    5.3607
   27.810    5.6029
   27.840    6.0137
   27.870    5.5503
   27.900    5.6135
   27.930    5.9926
   27.960    6.3296
   27.990    6.2033
   28.020    5.7293
   28.050    6.0348
   28.080    5.7715
   28.110    5.8241
   28.140    6.0558
   28.170    6.1085
   28.200    6.5298
   28.230    6.7720
   28.260    6.5719
   28.290    6.5719
   28.320    6.3296
   28.350    6.0769
   28.380    6.0453
   28.410    6.1822
   28.440    5.7609
   28.470    6.2559
   28.500    6.5403
   28.530    6.4560
   28.560    6.6456
   28.590    6.1295
   28.620    6.0558
   28.650    5.8241
   28.680    5.8978
   28.710    5.2659
   28.740    5.8136
   28.770    5.4555
   28.800    5.6451
   28.830    5.7083
   28.860    5.4660
   28.890    5.2554
   28.920    5.2343
   28.950    5.3712
   28.980    5.7925
   29.010    5.6451
   29.040    5.8241
   29.070    5.9294
   29.100    5.5608
   29.130    5.5187
   29.160    5.8241
   29.190    5.3712
   29.220    5.5924
   29.250    5.8452
   29.280    5.7188
   29.310    5.9926
   29.340    6.1927
   29.370    6.1190
   29.400    5.9084
   29.430    5.8241
   29.460    5.3291
   29.490    5.3291
   29.520    5.5292
   29.550    5.3923
   29.580    5.4134
   29.610    5.2765
   29.640    5.1501
   29.670    5.2449
   29.700    5.3291
   29.730    5.5292
   29.760    5.2765
   29.790    5.4871
   29.820    5.7925
   29.850    5.7715
   29.880    5.4134
   29.910    5.5714
   29.940    5.4134
   29.970    5.6977
   30.000    5.6240
   30.030    5.5292
   30.060    5.2975
   30.090    5.6345
   30.120    5.1711
   30.150    5.8031
   30.180    5.4344
   30.210    5.7188
   30.240    5.4344
   30.270    5.3291
   30.300    5.1501
   30.330    5.5608
   30.360    5.5082
   30.390    5.5187
   30.420    5.2343
   30.450    5.3923
   30.480    5.2343
   30.510    5.6977
   30.540    5.4766
   30.570    5.3081
   30.600    5.5819
   30.630    5.6135
   30.660    6.0137
   30.690    5.7609
   30.720    5.4450
   30.750    5.7188
   30.780    5.2659
   30.810    5.2975
   30.840    5.3291
   30.870    5.2133
   30.900    5.2765
   30.930    5.2975
   30.960    5.4028
   30.990    5.1080
   31.020    4.8131
   31.050    5.0342
   31.080    5.4134
   31.110    5.1185
   31.140    5.1817
   31.170    5.1080
   31.200    5.4134
   31.230    4.9605
   31.260    5.3818
   31.290    5.1606
   31.320    5.2027
   31.350    5.3186
   31.380    5.2554
   31.410    5.2765
   31.440    5.6451
   31.470    5.1080
   31.500    5.6451
   31.530    5.2343
   31.560    5.0448
   31.590    5.4239
   31.620    5.4871
   31.650    5.4134
   31.680    4.9394
   31.710    5.0764
   31.740    5.3186
   31.770    5.3186
   31.800    5.5503
   31.830    5.2133
   31.860    5.4028
   31.890    5.4976
   31.920    5.6345
   31.950    5.6767
   31.980    5.2975
   32.010    5.5187
   32.040    5.7399
   32.070    5.5082
   32.100    5.5082
   32.130    5.6872
   32.160    5.3923
   32.190    5.6767
   32.220    5.3607
   32.250    5.7504
   32.280    5.0869
   32.310    5.1185
   32.340    5.3502
   32.370    4.7183
   32.400    4.8025
   32.430    4.6235
   32.460    5.1711
   32.490    4.8657
   32.520    5.0132
   32.550    4.8868
   32.580    4.9816
   32.610    5.0132
   32.640    5.1080
   32.670    4.9394
   32.700    4.9816
   32.730    5.0658
   32.760    5.1501
   32.790    4.9816
   32.820    5.1395
   32.850    5.0237
   32.880    5.3923
   32.910    5.4871
   32.940    5.1290
   32.970    5.5082
   33.000    5.2554
   33.030    5.1606
   33.060    4.6656
   33.090    4.6551
   33.120    5.1711
   33.150    4.9816
   33.180    4.6972
   33.210    4.9605
   33.240    4.9710
   33.270    4.9078
   33.300    4.8868
   33.330    4.8973
   33.360    4.6340
   33.390    4.6130
   33.420    4.7183
   33.450    5.2027
   33.480    5.0448
   33.510    4.6445
   33.540    5.0448
   33.570    4.9500
   33.600    4.8657
   33.630    5.0132
   33.660    4.8236
   33.690    4.9816
   33.720    4.9921
   33.750    4.8763
   33.780    4.9710
   33.810    5.5398
   33.840    5.8452
   33.870    5.1395
   33.900    5.4239
   33.930    5.3186
   33.960    5.7399
   33.990    5.8347
   34.020    5.6451
   34.050    5.5398
   34.080    5.3712
   34.110    5.4660
   34.140    4.7604
   34.170    5.0553
   34.200    5.1501
   34.230    4.7920
   34.260    4.7183
   34.290    4.6972
   34.320    4.7709
   34.350    4.5708
   34.380    4.8657
   34.410    4.9078
   34.440    4.9500
   34.470    4.8763
   34.500    5.1290
   34.530    4.5498
   34.560    4.6130
   34.590    4.7604
   34.620    4.5603
   34.650    4.6024
   34.680    4.7077
   34.710    4.8763
   34.740    4.9184
   34.770    4.6130
   34.800    4.8236
   34.830    4.6656
   34.860    4.7815
   34.890    4.9184
   34.920    4.8868
   34.950    4.8552
   34.980    4.7183
   35.010    4.5708
   35.040    4.7183
   35.070    4.5919
   35.100    4.6656
   35.130    4.1601
   35.160    4.7499
   35.190    4.4234
   35.220    4.6130
   35.250    4.4444
   35.280    4.2865
   35.310    4.5814
   35.340    4.6235
   35.370    4.6551
   35.400    4.8236
   35.430    4.4866
   35.460    4.4444
   35.490    4.4234
   35.520    4.4971
   35.550    4.6130
   35.580    4.5708
   35.610    4.6340
   35.640    4.7288
   35.670    4.5182
   35.700    4.4866
   35.730    4.6130
   35.760    4.8447
   35.790    4.4655
   35.820    4.6761
   35.850    4.6340
   35.880    4.7183
   35.910    4.8552
   35.940    4.9394
   35.970    4.6024
   36.000    4.4128
   36.030    4.6024
   36.060    4.7077
   36.090    4.5076
   36.120    4.6445
   36.150    4.5708
   36.180    4.4550
   36.210    4.6761
   36.240    4.4971
   36.270    4.7393
   36.300    4.8868
   36.330    4.5919
   36.360    4.4971
   36.390    4.3918
   36.420    4.3181
   36.450    4.9078
   36.480    4.6972
   36.510    4.9605
   36.540    4.2233
   36.570    4.7183
   36.600    4.4023
   36.630    4.7815
   36.660    4.4339
   36.690    4.4866
   36.720    4.6130
   36.750    4.6130
   36.780    4.8552
   36.810    4.6130
   36.840    4.9289
   36.870    4.5919
   36.900    4.5392
   36.930    4.4760
   36.960    4.1601
   36.990    4.3286
   37.020    4.0548
   37.050    4.3075
   37.080    4.4760
   37.110    4.9816
   37.140    4.4760
   37.170    5.1395
   37.200    5.0237
   37.230    5.0974
   37.260    4.8973
   37.290    4.6445
   37.320    4.6656
   37.350    4.4866
   37.380    4.5814
   37.410    4.5603
   37.440    4.1811
   37.470    4.4339
   37.500    4.5814
   37.530    4.2970
   37.560    4.1180
   37.590    4.5182
   37.620    4.7288
   37.650    4.6340
   37.680    4.3181
   37.710    4.4550
   37.740    4.4234
   37.770    4.3918
   37.800    4.5182
   37.830    4.7288
   37.860    4.6761
   37.890    4.4234
   37.920    4.5708
   37.950    4.3497
   37.980    4.4866
   38.010    4.5498
   38.040    4.4023
   38.070    4.5708
   38.100    4.5603
   38.130    4.3286
   38.160    4.2654
   38.190    4.2549
   38.220    4.1917
   38.250    4.0969
   38.280    4.5287
   38.310    4.2338
   38.340    4.6235
   38.370    4.4550
   38.400    4.4234
   38.430    4.5708
   38.460    4.4339
   38.490    4.4760
   38.520    4.1917
   38.550    4.6761
   38.580    4.1390
   38.610    4.5287
   38.640    4.4971
   38.670    4.2654
   38.700    4.2865
   38.730    4.6235
   38.760    4.4550
   38.790    4.4023
   38.820    4.3286
   38.850    4.0758
   38.880    4.2759
   38.910    4.0864
   38.940    4.2970
   38.970    4.0864
   39.000    4.0126
   39.030    4.2127
   39.060    4.2865
   39.090    4.1706
   39.120    3.8968
   39.150    4.1811
   39.180    4.3813
   39.210    4.2022
   39.240    4.4444
   39.270    4.2549
   39.300    4.5392
   39.330    4.3075
   39.360    4.6024
   39.390    4.4655
   39.420    4.6551
   39.450    4.7288
   39.480    4.2549
   39.510    4.4023
   39.540    4.1706
   39.570    4.5498
   39.600    4.5076
   39.630    4.4760
   39.660    4.0653
   39.690    4.5392
   39.720    4.3181
   39.750    4.3286
   39.780    4.6024
   39.810    4.7920
   39.840    4.3497
   39.870    4.2338
   39.900    4.2970
   39.930    4.2233
   39.960    4.4971
   39.990    4.3181