File: data/PXRD/PXRD_KE-234_Co-Ka1_film-3mm_5s-deg.xyd
    1.500   19.8823
    1.530   19.6362
    1.560   18.6945
    1.590   17.2820
    1.620   16.2119
    1.650   14.9492
    1.680   14.7566
    1.710   13.9968
    1.740   13.7079
    1.770   12.7555
    1.800   12.1455
    1.830   11.4821
    1.860   11.1075
    1.890   10.7544
    1.920   10.4227
    1.950   10.1445
    1.980    9.4382
    2.010    9.1279
    2.040    9.1279
    2.070    8.6356
    2.100    8.6998
    2.130    7.6726
    2.160    7.9936
    2.190    7.2338
    2.220    7.1054
    2.250    6.5062
    2.280    7.1268
    2.310    6.8272
    2.340    6.2600
    2.370    6.2707
    2.400    6.1316
    2.430    5.6929
    2.460    5.7464
    2.490    5.9390
    2.520    5.6501
    2.550    5.1685
    2.580    4.8261
    2.610    4.6442
    2.640    4.6870
    2.670    4.8582
    2.700    4.8689
    2.730    4.8047
    2.760    4.7833
    2.790    4.7191
    2.820    4.3767
    2.850    4.6977
    2.880    4.1627
    2.910    4.0984
    2.940    4.1734
    2.970    4.0770
    3.000    4.4088
    3.030    4.0984
    3.060    4.1199
    3.090    3.6169
    3.120    3.8630
    3.150    4.1413
    3.180    3.7132
    3.210    3.7453
    3.240    4.4195
    3.270    3.9379
    3.300    3.6811
    3.330    4.0556
    3.360    4.5586
    3.390    4.1734
    3.420    4.4088
    3.450    4.2590
    3.480    4.8261
    3.510    4.9438
    3.540    5.2113
    3.570    5.2862
    3.600    5.7999
    3.630    6.0781
    3.660    6.6453
    3.690    6.7630
    3.720    7.5655
    3.750    7.9508
    3.780    8.9460
    3.810    9.3526
    3.840   10.1338
    3.870   11.2681
    3.900   12.0064
    3.930   11.7817
    3.960   12.4452
    3.990   12.8304
    4.020   12.4666
    4.050   12.1883
    4.080   12.0171
    4.110   11.8245
    4.140   11.0219
    4.170    9.6094
    4.200    9.6950
    4.230    8.7426
    4.260    8.1220
    4.290    7.4692
    4.320    6.8379
    4.350    6.6881
    4.380    5.8320
    4.410    5.9069
    4.440    5.4254
    4.470    5.7571
    4.500    5.5752
    4.530    5.5752
    4.560    5.5003
    4.590    5.6715
    4.620    5.0294
    4.650    5.5110
    4.680    5.4682
    4.710    5.7143
    4.740    6.2279
    4.770    5.5003
    4.800    5.6287
    4.830    5.9283
    4.860    6.0032
    4.890    6.4955
    4.920    6.0460
    4.950    6.2172
    4.980    6.1958
    5.010    5.6073
    5.040    5.2862
    5.070    5.4575
    5.100    5.1150
    5.130    4.9866
    5.160    4.6442
    5.190    4.3660
    5.220    4.1199
    5.250    4.1841
    5.280    3.9379
    5.310    3.8737
    5.340    3.4243
    5.370    3.3708
    5.400    3.1354
    5.430    3.0177
    5.460    2.9749
    5.490    2.7715
    5.520    2.6752
    5.550    2.4826
    5.580    2.6110
    5.610    2.4184
    5.640    2.4505
    5.670    2.4184
    5.700    2.1723
    5.730    2.2365
    5.760    2.0225
    5.790    2.1937
    5.820    2.0546
    5.850    1.9904
    5.880    2.1295
    5.910    2.2793
    5.940    1.8620
    5.970    1.7335
    6.000    2.1616
    6.030    2.1295
    6.060    2.2044
    6.090    2.1937
    6.120    2.0760
    6.150    2.4184
    6.180    2.2472
    6.210    2.1188
    6.240    2.2686
    6.270    2.0546
    6.300    2.2365
    6.330    2.1402
    6.360    2.1723
    6.390    2.5682
    6.420    2.0439
    6.450    2.0760
    6.480    2.1081
    6.510    2.4719
    6.540    2.2900
    6.570    2.1723
    6.600    2.1830
    6.630    2.2365
    6.660    1.9797
    6.690    2.2044
    6.720    1.9048
    6.750    1.8299
    6.780    1.8513
    6.810    2.0867
    6.840    1.9369
    6.870    1.8406
    6.900    1.7442
    6.930    1.7121
    6.960    1.8192
    6.990    1.8513
    7.020    1.6907
    7.050    1.7978
    7.080    1.8513
    7.110    1.7978
    7.140    1.6051
    7.170    1.6265
    7.200    1.6372
    7.230    1.5623
    7.260    1.6265
    7.290    1.3055
    7.320    1.6479
    7.350    1.4553
    7.380    1.5195
    7.410    1.5302
    7.440    1.5409
    7.470    1.5944
    7.500    1.5302
    7.530    1.3697
    7.560    1.4767
    7.590    1.5944
    7.620    1.4767
    7.650    1.6479
    7.680    1.6586
    7.710    1.6158
    7.740    1.5409
    7.770    1.7549
    7.800    1.9476
    7.830    1.7014
    7.860    1.6586
    7.890    2.0011
    7.920    1.9904
    7.950    2.3328
    7.980    2.1937
    8.010    2.2900
    8.040    2.6110
    8.070    2.2044
    8.100    2.4291
    8.130    2.7608
    8.160    2.4826
    8.190    2.4933
    8.220    2.1081
    8.250    2.1188
    8.280    2.2365
    8.310    2.1295
    8.340    2.0760
    8.370    1.7014
    8.400    1.8727
    8.430    1.6158
    8.460    1.5944
    8.490    1.7442
    8.520    1.4553
    8.550    1.3804
    8.580    1.4339
    8.610    1.3911
    8.640    1.5409
    8.670    1.2948
    8.700    1.3162
    8.730    1.3376
    8.760    1.2199
    8.790    1.2841
    8.820    1.3376
    8.850    1.4339
    8.880    1.2948
    8.910    1.3055
    8.940    1.2092
    8.970    1.2948
    9.000    1.0808
    9.030    1.3055
    9.060    1.2948
    9.090    1.3162
    9.120    1.3483
    9.150    1.2413
    9.180    1.2627
    9.210    1.4125
    9.240    1.2306
    9.270    1.2948
    9.300    1.1878
    9.330    1.3055
    9.360    1.2092
    9.390    1.2948
    9.420    1.2092
    9.450    1.2734
    9.480    1.2948
    9.510    1.3590
    9.540    1.3697
    9.570    1.3376
    9.600    1.3376
    9.630    1.3269
    9.660    1.3804
    9.690    1.2413
    9.720    1.2520
    9.750    1.4125
    9.780    1.2413
    9.810    1.2948
    9.840    1.2092
    9.870    1.2841
    9.900    1.2734
    9.930    1.3911
    9.960    1.3911
    9.990    1.3483
   10.020    1.4874
   10.050    1.2948
   10.080    1.4446
   10.110    1.4767
   10.140    1.3269
   10.170    1.5516
   10.200    1.5730
   10.230    1.3376
   10.260    1.4767
   10.290    1.2948
   10.320    1.3911
   10.350    1.2627
   10.380    1.2413
   10.410    1.2092
   10.440    1.3804
   10.470    1.0380
   10.500    1.1236
   10.530    1.1343
   10.560    1.0808
   10.590    1.2948
   10.620    1.2734
   10.650    1.1129
   10.680    1.3055
   10.710    0.9524
   10.740    0.9203
   10.770    1.1343
   10.800    1.0701
   10.830    0.9952
   10.860    0.9952
   10.890    0.9096
   10.920    0.9738
   10.950    0.9738
   10.980    0.9524
   11.010    0.8775
   11.040    1.0487
   11.070    1.0594
   11.100    1.0915
   11.130    1.0059
   11.160    1.1129
   11.190    0.7384
   11.220    0.8882
   11.250    1.0059
   11.280    1.0380
   11.310    0.9096
   11.340    0.8133
   11.370    0.9203
   11.400    0.9631
   11.430    0.7705
   11.460    0.8882
   11.490    0.8989
   11.520    0.9203
   11.550    0.9524
   11.580    1.0273
   11.610    0.8454
   11.640    0.8775
   11.670    0.7812
   11.700    0.8668
   11.730    0.9417
   11.760    0.9203
   11.790    0.8668
   11.820    0.8240
   11.850    0.8668
   11.880    0.9417
   11.910    0.9310
   11.940    1.0487
   11.970    1.0059
   12.000    0.9738
   12.030    0.9417
   12.060    0.9096
   12.090    0.9738
   12.120    0.9952
   12.150    1.1129
   12.180    0.7812
   12.210    1.0273
   12.240    0.8989
   12.270    1.0594
   12.300    0.9310
   12.330    0.9738
   12.360    1.0166
   12.390    0.9203
   12.420    0.8668
   12.450    0.8882
   12.480    0.8561
   12.510    0.8775
   12.540    1.0059
   12.570    1.1450
   12.600    0.7491
   12.630    1.0487
   12.660    0.8454
   12.690    1.1236
   12.720    1.0273
   12.750    1.0273
   12.780    0.9952
   12.810    0.9952
   12.840    0.9631
   12.870    0.8775
   12.900    0.9096
   12.930    1.1022
   12.960    1.0273
   12.990    0.8668
   13.020    0.9310
   13.050    0.9417
   13.080    1.0915
   13.110    1.0166
   13.140    1.0808
   13.170    0.9738
   13.200    0.9417
   13.230    0.9631
   13.260    1.0166
   13.290    0.9524
   13.320    0.8561
   13.350    0.8561
   13.380    0.8561
   13.410    1.0594
   13.440    0.8668
   13.470    1.0808
   13.500    1.0059
   13.530    1.0380
   13.560    0.8775
   13.590    1.0273
   13.620    0.9096
   13.650    0.9738
   13.680    0.8989
   13.710    0.9310
   13.740    0.9738
   13.770    1.0380
   13.800    0.8240
   13.830    0.9952
   13.860    0.8668
   13.890    0.8668
   13.920    0.9738
   13.950    0.9952
   13.980    0.8133
   14.010    0.8668
   14.040    1.0487
   14.070    0.8240
   14.100    1.0059
   14.130    0.9203
   14.160    0.8240
   14.190    0.8026
   14.220    0.9952
   14.250    0.8882
   14.280    0.8775
   14.310    0.8775
   14.340    0.9096
   14.370    0.8989
   14.400    0.9631
   14.430    0.8775
   14.460    0.9096
   14.490    0.8454
   14.520    0.9203
   14.550    0.8989
   14.580    1.0273
   14.610    0.8989
   14.640    0.9524
   14.670    0.9203
   14.700    0.8668
   14.730    0.9096
   14.760    0.8775
   14.790    0.9845
   14.820    0.8561
   14.850    0.8026
   14.880    1.1129
   14.910    1.0594
   14.940    0.7919
   14.970    0.9524
   15.000    0.9096
   15.030    0.9203
   15.060    0.9417
   15.090    0.9310
   15.120    0.9096
   15.150    0.8775
   15.180    1.0594
   15.210    0.9310
   15.240    0.8561
   15.270    0.8775
   15.300    0.8989
   15.330    0.8026
   15.360    0.9096
   15.390    1.1129
   15.420    0.8454
   15.450    0.8561
   15.480    1.0059
   15.510    0.9845
   15.540    0.9738
   15.570    0.8561
   15.600    0.8026
   15.630    0.7598
   15.660    0.9310
   15.690    0.9096
   15.720    0.9524
   15.750    0.9524
   15.780    0.8561
   15.810    0.8668
   15.840    0.8882
   15.870    0.8775
   15.900    0.9738
   15.930    0.9096
   15.960    0.7919
   15.990    0.8240
   16.020    0.8133
   16.050    0.8347
   16.080    0.8775
   16.110    0.7277
   16.140    0.8668
   16.170    0.8133
   16.200    0.9952
   16.230    0.8133
   16.260    0.9096
   16.290    0.9096
   16.320    0.8775
   16.350    0.9845
   16.380    0.8561
   16.410    0.9203
   16.440    0.9524
   16.470    1.0487
   16.500    0.8989
   16.530    1.1450
   16.560    0.8133
   16.590    0.8989
   16.620    0.9096
   16.650    0.9310
   16.680    1.0487
   16.710    1.1450
   16.740    0.8454
   16.770    0.9310
   16.800    0.8989
   16.830    0.8882
   16.860    0.9738
   16.890    1.0915
   16.920    1.0487
   16.950    0.9096
   16.980    0.9631
   17.010    0.9738
   17.040    0.9417
   17.070    0.8668
   17.100    1.0059
   17.130    0.9310
   17.160    0.8347
   17.190    0.8775
   17.220    0.9203
   17.250    0.8668
   17.280    0.8133
   17.310    0.9096
   17.340    1.0166
   17.370    0.9631
   17.400    0.8133
   17.430    0.9203
   17.460    0.7812
   17.490    0.9310
   17.520    0.9096
   17.550    1.0273
   17.580    0.7705
   17.610    0.9417
   17.640    0.8668
   17.670    0.9952
   17.700    0.7812
   17.730    0.8882
   17.760    0.9310
   17.790    0.9417
   17.820    0.9631
   17.850    0.9952
   17.880    0.7170
   17.910    0.7384
   17.940    0.7812
   17.970    0.8668
   18.000    0.9524
   18.030    0.9524
   18.060    0.9310
   18.090    0.8347
   18.120    0.8989
   18.150    0.8668
   18.180    0.8561
   18.210    0.8240
   18.240    0.8347
   18.270    0.9310
   18.300    0.9203
   18.330    0.8775
   18.360    0.8989
   18.390    0.8561
   18.420    0.8347
   18.450    0.7919
   18.480    0.8240
   18.510    0.8989
   18.540    0.8240
   18.570    0.6849
   18.600    0.9524
   18.630    1.0273
   18.660    0.7384
   18.690    0.9952
   18.720    0.9738
   18.750    0.7384
   18.780    0.8561
   18.810    0.8561
   18.840    0.8240
   18.870    0.9203
   18.900    0.7170
   18.930    0.7491
   18.960    0.7063
   18.990    0.8454
   19.020    0.7919
   19.050    0.8454
   19.080    0.6849
   19.110    0.8133
   19.140    0.9203
   19.170    0.9417
   19.200    0.7170
   19.230    0.9096
   19.260    0.7491
   19.290    0.8133
   19.320    0.8240
   19.350    0.8026
   19.380    0.8775
   19.410    0.9310
   19.440    0.7277
   19.470    0.8668
   19.500    0.8775
   19.530    0.8668
   19.560    0.8026
   19.590    0.8026
   19.620    0.8668
   19.650    0.9845
   19.680    0.8347
   19.710    0.8454
   19.740    0.8775
   19.770    0.7705
   19.800    0.7919
   19.830    0.8882
   19.860    0.8882
   19.890    0.7812
   19.920    0.9417
   19.950    0.8882
   19.980    0.7491
   20.010    0.8026
   20.040    1.0273
   20.070    0.6742
   20.100    0.9096
   20.130    0.7812
   20.160    0.8989
   20.190    0.8882
   20.220    0.8775
   20.250    0.9203
   20.280    0.9417
   20.310    0.8026
   20.340    0.7705
   20.370    0.8775
   20.400    0.8882
   20.430    0.7491
   20.460    0.7812
   20.490    0.9203
   20.520    0.8882
   20.550    0.9310
   20.580    0.7919
   20.610    0.8347
   20.640    0.7919
   20.670    0.8882
   20.700    0.8347
   20.730    0.8240
   20.760    0.9310
   20.790    0.8133
   20.820    0.6635
   20.850    0.8347
   20.880    0.8454
   20.910    0.9310
   20.940    0.8240
   20.970    0.9738
   21.000    0.7277
   21.030    0.8668
   21.060    0.8454
   21.090    0.8882
   21.120    0.7384
   21.150    0.8882
   21.180    0.8882
   21.210    0.8668
   21.240    0.8240
   21.270    0.8454
   21.300    0.6956
   21.330    0.8775
   21.360    0.7170
   21.390    0.7705
   21.420    0.8989
   21.450    0.8133
   21.480    0.7812
   21.510    0.7277
   21.540    0.7384
   21.570    0.8775
   21.600    0.8240
   21.630    0.8668
   21.660    0.8454
   21.690    0.9524
   21.720    0.9203
   21.750    0.8882
   21.780    0.8561
   21.810    0.7598
   21.840    0.7598
   21.870    0.9096
   21.900    0.8347
   21.930    0.9738
   21.960    0.7919
   21.990    0.9845
   22.020    0.8882
   22.050    0.8561
   22.080    0.9845
   22.110    1.0487
   22.140    0.8668
   22.170    0.8133
   22.200    0.8347
   22.230    0.7812
   22.260    0.8347
   22.290    0.8561
   22.320    0.9631
   22.350    0.7598
   22.380    0.7705
   22.410    0.8775
   22.440    0.7170
   22.470    0.7063
   22.500    0.9096
   22.530    0.7919
   22.560    0.9524
   22.590    0.7384
   22.620    0.8026
   22.650    0.9203
   22.680    0.9203
   22.710    0.7705
   22.740    0.8240
   22.770    0.7919
   22.800    0.9845
   22.830    0.9417
   22.860    0.8668
   22.890    0.9417
   22.920    0.8240
   22.950    0.8240
   22.980    0.8347
   23.010    0.8454
   23.040    0.8347
   23.070    0.6849
   23.100    0.6421
   23.130    0.8775
   23.160    0.9310
   23.190    0.8775
   23.220    0.8133
   23.250    0.7919
   23.280    0.5886
   23.310    0.8561
   23.340    0.8454
   23.370    0.8454
   23.400    0.8347
   23.430    0.8989
   23.460    0.7063
   23.490    0.9203
   23.520    0.9203
   23.550    0.9845
   23.580    0.8775
   23.610    0.7277
   23.640    0.9310
   23.670    0.9096
   23.700    0.7812
   23.730    0.8668
   23.760    0.7705
   23.790    0.9310
   23.820    0.8882
   23.850    0.7384
   23.880    0.6421
   23.910    0.8133
   23.940    0.7705
   23.970    0.8133
   24.000    0.7812
   24.030    0.8454
   24.060    0.8240
   24.090    0.8561
   24.120    0.8775
   24.150    0.7812
   24.180    1.0166
   24.210    0.9631
   24.240    0.6635
   24.270    0.8347
   24.300    0.7491
   24.330    0.6742
   24.360    0.8347
   24.390    0.7170
   24.420    0.8775
   24.450    0.8668
   24.480    0.6956
   24.510    0.7384
   24.540    0.9096
   24.570    0.8240
   24.600    0.8454
   24.630    0.7812
   24.660    0.8989
   24.690    0.7491
   24.720    0.8668
   24.750    0.8882
   24.780    0.7170
   24.810    0.8775
   24.840    0.8026
   24.870    1.0166
   24.900    0.8347
   24.930    0.8133
   24.960    0.7384
   24.990    0.8882
   25.020    0.7170
   25.050    0.7384
   25.080    0.7812
   25.110    0.8561
   25.140    0.8240
   25.170    0.7384
   25.200    0.9631
   25.230    0.8561
   25.260    0.7491
   25.290    0.8133
   25.320    0.8668
   25.350    0.6849
   25.380    0.8133
   25.410    0.7384
   25.440    0.7063
   25.470    0.8989
   25.500    0.7384
   25.530    0.7384
   25.560    0.7277
   25.590    0.7812
   25.620    0.8240
   25.650    0.6314
   25.680    0.8668
   25.710    0.7277
   25.740    0.8240
   25.770    0.8347
   25.800    0.6742
   25.830    0.7170
   25.860    0.8454
   25.890    0.7384
   25.920    0.8347
   25.950    0.7598
   25.980    0.8133
   26.010    0.5993
   26.040    0.7705
   26.070    0.7812
   26.100    0.8561
   26.130    0.7384
   26.160    0.7384
   26.190    0.7705
   26.220    0.8561
   26.250    0.6421
   26.280    0.8668
   26.310    0.7384
   26.340    0.7919
   26.370    0.8561
   26.400    0.6742
   26.430    0.7170
   26.460    0.7063
   26.490    0.8026
   26.520    0.7812
   26.550    0.6956
   26.580    0.7812
   26.610    0.7598
   26.640    0.8133
   26.670    0.6956
   26.700    0.6100
   26.730    0.6207
   26.760    0.8026
   26.790    0.6849
   26.820    0.6528
   26.850    0.7491
   26.880    0.7491
   26.910    0.8668
   26.940    0.6528
   26.970    0.7063
   27.000    0.6956
   27.030    0.7491
   27.060    0.7277
   27.090    0.6528
   27.120    0.7491
   27.150    0.6849
   27.180    0.5778
   27.210    0.7705
   27.240    0.7491
   27.270    0.7598
   27.300    0.7919
   27.330    0.6742
   27.360    0.7384
   27.390    0.7491
   27.420    0.7063
   27.450    0.6421
   27.480    0.7812
   27.510    0.7384
   27.540    0.5671
   27.570    0.6314
   27.600    0.5671
   27.630    0.6421
   27.660    0.6742
   27.690    0.6849
   27.720    0.6314
   27.750    0.6100
   27.780    0.6635
   27.810    0.7170
   27.840    0.6314
   27.870    0.6314
   27.900    0.5886
   27.930    0.6635
   27.960    0.6314
   27.990    0.5564
   28.020    0.7919
   28.050    0.6100
   28.080    0.5778
   28.110    0.6528
   28.140    0.6956
   28.170    0.6314
   28.200    0.6742
   28.230    0.8026
   28.260    0.5886
   28.290    0.5350
   28.320    0.5778
   28.350    0.5350
   28.380    0.6100
   28.410    0.6100
   28.440    0.6100
   28.470    0.7491
   28.500    0.5671
   28.530    0.6742
   28.560    0.5671
   28.590    0.5457
   28.620    0.5778
   28.650    0.7384
   28.680    0.5886
   28.710    0.6207
   28.740    0.4815
   28.770    0.6635
   28.800    0.5993
   28.830    0.7277
   28.860    0.7598
   28.890    0.5350
   28.920    0.5350
   28.950    0.7063
   28.980    0.7063
   29.010    0.6528
   29.040    0.5886
   29.070    0.6742
   29.100    0.6100
   29.130    0.6635
   29.160    0.5886
   29.190    0.6314
   29.220    0.7063
   29.250    0.6207
   29.280    0.6635
   29.310    0.5886
   29.340    0.7384
   29.370    0.5564
   29.400    0.6528
   29.430    0.5778
   29.460    0.6421
   29.490    0.6207
   29.520    0.6421
   29.550    0.6207
   29.580    0.5457
   29.610    0.5457
   29.640    0.5350
   29.670    0.5993
   29.700    0.5993
   29.730    0.7491
   29.760    0.5457
   29.790    0.5457
   29.820    0.5886
   29.850    0.5457
   29.880    0.5886
   29.910    0.6528
   29.940    0.5564
   29.970    0.6314
   30.000    0.5564
   30.030    0.5136
   30.060    0.6528
   30.090    0.4815
   30.120    0.6314
   30.150    0.4922
   30.180    0.5778
   30.210    0.5029
   30.240    0.6314
   30.270    0.5457
   30.300    0.5564
   30.330    0.5243
   30.360    0.5993
   30.390    0.5778
   30.420    0.5136
   30.450    0.5243
   30.480    0.6100
   30.510    0.5671
   30.540    0.5886
   30.570    0.5136
   30.600    0.4601
   30.630    0.4494
   30.660    0.4601
   30.690    0.6528
   30.720    0.5350
   30.750    0.5350
   30.780    0.5564
   30.810    0.5136
   30.840    0.4387
   30.870    0.5457
   30.900    0.5778
   30.930    0.5886
   30.960    0.4922
   30.990    0.5457
   31.020    0.5136
   31.050    0.3852
   31.080    0.5350
   31.110    0.4601
   31.140    0.5350
   31.170    0.5243
   31.200    0.5564
   31.230    0.5243
   31.260    0.5457
   31.290    0.5778
   31.320    0.4601
   31.350    0.4387
   31.380    0.4601
   31.410    0.5136
   31.440    0.4922
   31.470    0.5564
   31.500    0.5136
   31.530    0.4922
   31.560    0.4815
   31.590    0.5243
   31.620    0.3745
   31.650    0.6207
   31.680    0.5136
   31.710    0.6100
   31.740    0.4601
   31.770    0.4922
   31.800    0.5243
   31.830    0.4494
   31.860    0.5243
   31.890    0.4387
   31.920    0.5350
   31.950    0.4922
   31.980    0.4922
   32.010    0.4708
   32.040    0.5350
   32.070    0.6207
   32.100    0.4280
   32.130    0.4601
   32.160    0.5243
   32.190    0.4922
   32.220    0.3745
   32.250    0.4922
   32.280    0.4066
   32.310    0.5671
   32.340    0.5243
   32.370    0.4601
   32.400    0.5029
   32.430    0.4387
   32.460    0.5350
   32.490    0.5778
   32.520    0.4708
   32.550    0.5778
   32.580    0.6314
   32.610    0.7705
   32.640    0.6100
   32.670    0.5136
   32.700    0.5029
   32.730    0.4280
   32.760    0.5136
   32.790    0.4387
   32.820    0.6100
   32.850    0.4708
   32.880    0.4601
   32.910    0.4601
   32.940    0.4601
   32.970    0.4708
   33.000    0.5029
   33.030    0.5029
   33.060    0.4387
   33.090    0.5886
   33.120    0.4815
   33.150    0.3745
   33.180    0.4922
   33.210    0.3638
   33.240    0.3959
   33.270    0.5564
   33.300    0.5564
   33.330    0.5993
   33.360    0.4708
   33.390    0.5136
   33.420    0.5457
   33.450    0.5350
   33.480    0.4494
   33.510    0.4601
   33.540    0.5350
   33.570    0.5243
   33.600    0.4280
   33.630    0.4387
   33.660    0.4494
   33.690    0.5243
   33.720    0.7170
   33.750    0.8026
   33.780    0.6314
   33.810    0.5029
   33.840    0.4494
   33.870    0.4815
   33.900    0.4173
   33.930    0.4922
   33.960    0.5136
   33.990    0.4387
   34.020    0.4922
   34.050    0.3638
   34.080    0.4280
   34.110    0.4066
   34.140    0.4387
   34.170    0.4066
   34.200    0.4815
   34.230    0.3852
   34.260    0.4494
   34.290    0.3745
   34.320    0.4601
   34.350    0.4173
   34.380    0.3959
   34.410    0.3745
   34.440    0.3210
   34.470    0.3103
   34.500    0.4066
   34.530    0.5029
   34.560    0.4815
   34.590    0.4601
   34.620    0.4387
   34.650    0.4494
   34.680    0.4708
   34.710    0.4173
   34.740    0.4494
   34.770    0.3424
   34.800    0.3210
   34.830    0.5029
   34.860    0.5136
   34.890    0.3638
   34.920    0.4494
   34.950    0.2996
   34.980    0.4066
   35.010    0.3103
   35.040    0.2889
   35.070    0.3959
   35.100    0.3745
   35.130    0.4280
   35.160    0.3852
   35.190    0.3638
   35.220    0.4066
   35.250    0.4387
   35.280    0.3638
   35.310    0.3638
   35.340    0.5029
   35.370    0.3210
   35.400    0.3103
   35.430    0.4708
   35.460    0.3424
   35.490    0.3638
   35.520    0.3103
   35.550    0.4708
   35.580    0.3959
   35.610    0.3424
   35.640    0.3745
   35.670    0.3424
   35.700    0.3424
   35.730    0.3210
   35.760    0.3745
   35.790    0.3638
   35.820    0.3103
   35.850    0.2889
   35.880    0.4494
   35.910    0.4494
   35.940    0.4173
   35.970    0.3531
   36.000    0.3424
   36.030    0.3745
   36.060    0.3745
   36.090    0.3531
   36.120    0.3424
   36.150    0.3531
   36.180    0.2354
   36.210    0.3745
   36.240    0.3745
   36.270    0.3959
   36.300    0.3959
   36.330    0.3531
   36.360    0.3959
   36.390    0.3210
   36.420    0.4066
   36.450    0.3424
   36.480    0.4066
   36.510    0.4066
   36.540    0.3852
   36.570    0.4173
   36.600    0.3852
   36.630    0.4601
   36.660    0.3103
   36.690    0.4387
   36.720    0.2996
   36.750    0.3852
   36.780    0.3531
   36.810    0.4173
   36.840    0.4387
   36.870    0.3959
   36.900    0.3959
   36.930    0.4280
   36.960    0.3959
   36.990    0.4387
   37.020    0.3745
   37.050    0.4173
   37.080    0.3959
   37.110    0.3852
   37.140    0.4494
   37.170    0.4173
   37.200    0.4601
   37.230    0.3103
   37.260    0.3424
   37.290    0.3959
   37.320    0.2996
   37.350    0.3317
   37.380    0.4494
   37.410    0.6421
   37.440    0.6421
   37.470    0.5778
   37.500    0.3959
   37.530    0.4066
   37.560    0.3210
   37.590    0.3531
   37.620    0.3745
   37.650    0.3210
   37.680    0.4173
   37.710    0.3210
   37.740    0.2996
   37.770    0.2675
   37.800    0.3317
   37.830    0.3103
   37.860    0.3103
   37.890    0.3424
   37.920    0.3317
   37.950    0.4280
   37.980    0.3745
   38.010    0.3210
   38.040    0.3531
   38.070    0.3638
   38.100    0.3852
   38.130    0.2889
   38.160    0.2782
   38.190    0.3531
   38.220    0.3638
   38.250    0.2675
   38.280    0.3103
   38.310    0.3103
   38.340    0.3424
   38.370    0.2996
   38.400    0.3210
   38.430    0.2782
   38.460    0.3103
   38.490    0.2675
   38.520    0.2889
   38.550    0.4173
   38.580    0.3638
   38.610    0.3317
   38.640    0.2675
   38.670    0.2996
   38.700    0.3317
   38.730    0.3103
   38.760    0.3745
   38.790    0.4280
   38.820    0.3317
   38.850    0.2033
   38.880    0.2675
   38.910    0.2889
   38.940    0.2354
   38.970    0.2889
   39.000    0.3317
   39.030    0.3317
   39.060    0.3103
   39.090    0.2568
   39.120    0.3317
   39.150    0.2247
   39.180    0.3103
   39.210    0.2782
   39.240    0.2461
   39.270    0.4173
   39.300    0.1926
   39.330    0.3424
   39.360    0.3531
   39.390    0.2889
   39.420    0.3852
   39.450    0.3959
   39.480    0.3745
   39.510    0.3424
   39.540    0.3638
   39.570    0.4494
   39.600    0.3745
   39.630    0.2996
   39.660    0.2889
   39.690    0.4066
   39.720    0.2782
   39.750    0.2354
   39.780    0.3424
   39.810    0.2675
   39.840    0.2461
   39.870    0.3210
   39.900    0.2675
   39.930    0.2354
   39.960    0.3210
   39.990    0.2996