File: data/PXRD/PXRD_KE-180_Cu-Ka1_capillary-1mm_5s-deg.xyd
    1.500   42.8541
    1.530   43.0121
    1.560   41.4745
    1.590   40.5477
    1.620   39.8526
    1.650   39.2838
    1.680   38.0305
    1.710   37.9042
    1.740   37.4302
    1.770   35.5766
    1.800   35.5134
    1.830   34.7235
    1.860   34.6077
    1.890   33.9547
    1.920   33.0806
    1.950   32.3960
    1.980   33.1648
    2.010   33.2175
    2.040   31.9326
    2.070   32.6488
    2.100   31.8167
    2.130   31.3428
    2.160   31.4797
    2.190   32.4803
    2.220   32.3223
    2.250   30.8583
    2.280   32.6804
    2.310   32.4908
    2.340   32.0484
    2.370   32.5434
    2.400   32.5118
    2.430   33.4702
    2.460   33.7020
    2.490   34.7867
    2.520   34.6288
    2.550   36.0190
    2.580   35.9136
    2.610   36.5982
    2.640   38.3676
    2.670   38.8415
    2.700   40.0316
    2.730   41.3797
    2.760   43.2859
    2.790   44.2759
    2.820   44.7077
    2.850   47.3618
    2.880   48.5308
    2.910   51.7957
    2.940   54.4813
    2.970   56.4297
    3.000   59.6419
    3.030   64.1285
    3.060   66.3191
    3.090   70.5424
    3.120   76.0611
    3.150   81.4007
    3.180   86.9194
    3.210   93.0911
    3.240  102.0537
    3.270  111.3639
    3.300  123.0964
    3.330  134.1548
    3.360  151.5956
    3.390  171.1532
    3.420  194.9447
    3.450  213.3649
    3.480  212.3223
    3.510  185.1712
    3.540  139.9684
    3.570  104.2338
    3.600   82.6751
    3.630   71.3428
    3.660   67.6988
    3.690   64.0864
    3.720   65.4450
    3.750   66.4034
    3.780   68.1622
    3.810   70.7425
    3.840   74.0495
    3.870   77.4934
    3.900   80.2633
    3.930   85.5187
    3.960   88.4044
    3.990   90.2475
    4.020   93.3965
    4.050   89.0469
    4.080   87.1301
    4.110   83.8968
    4.140   78.7888
    4.170   72.9331
    4.200   65.1290
    4.230   58.1359
    4.260   51.3849
    4.290   43.4966
    4.320   38.8204
    4.350   33.1016
    4.380   30.3633
    4.410   26.0979
    4.440   24.0021
    4.470   20.5582
    4.500   19.6525
    4.530   18.0621
    4.560   16.8826
    4.590   15.7451
    4.620   15.1764
    4.650   14.2707
    4.680   14.6603
    4.710   13.5756
    4.740   13.3017
    4.770   12.5856
    4.800   12.4803
    4.830   11.4692
    4.860   12.5856
    4.890   12.3433
    4.920   11.6798
    4.950   11.1532
    4.980   10.7214
    5.010   11.0479
    5.040   10.8583
    5.070   10.5529
    5.100   10.6266
    5.130   10.6582
    5.160   10.2054
    5.190   10.1948
    5.220    9.6472
    5.250    9.9421
    5.280    9.3523
    5.310    9.5945
    5.340    9.8789
    5.370    9.5945
    5.400    9.5419
    5.430    9.1101
    5.460   10.0579
    5.490    9.7104
    5.520    9.2364
    5.550    8.7520
    5.580    9.4155
    5.610    9.1943
    5.640    9.2680
    5.670    9.0047
    5.700    9.1311
    5.730    9.0679
    5.760    8.4255
    5.790    9.0785
    5.820    8.6677
    5.850    8.7730
    5.880    8.6151
    5.910    8.9205
    5.940    8.7836
    5.970    8.5413
    6.000    8.5203
    6.030    9.0047
    6.060    8.8257
    6.090    8.9310
    6.120    8.9310
    6.150    9.1311
    6.180    9.1838
    6.210    8.7625
    6.240    8.9415
    6.270    9.2786
    6.300    9.0785
    6.330    8.8784
    6.360    9.2048
    6.390    9.4260
    6.420    8.5729
    6.450   10.0369
    6.480    9.6893
    6.510   10.3633
    6.540   11.0795
    6.570   10.5213
    6.600   11.1111
    6.630   11.7536
    6.660   12.0274
    6.690   12.8383
    6.720   13.5650
    6.750   14.0179
    6.780   15.5872
    6.810   16.6614
    6.840   18.2201
    6.870   20.4423
    6.900   23.1596
    6.930   25.5819
    6.960   27.3512
    6.990   27.1090
    7.020   23.7388
    7.050   18.9152
    7.080   15.3449
    7.110   13.4492
    7.140   11.9115
    7.170   11.7114
    7.200   10.2370
    7.230   10.1843
    7.260    9.6893
    7.290    9.9105
    7.320   10.1106
    7.350    9.8473
    7.380   10.2475
    7.410    9.5945
    7.440    9.5208
    7.470   10.1738
    7.500    9.9737
    7.530    9.9421
    7.560   10.1422
    7.590   10.1527
    7.620   10.7636
    7.650   10.7109
    7.680   11.0900
    7.710   10.6477
    7.740   10.8057
    7.770   11.1954
    7.800   12.3644
    7.830   11.7536
    7.860   12.0590
    7.890   12.5540
    7.920   12.7225
    7.950   13.1754
    7.980   12.9963
    8.010   13.3860
    8.040   13.6072
    8.070   14.0179
    8.100   13.8705
    8.130   14.2285
    8.160   14.2601
    8.190   14.5656
    8.220   14.2707
    8.250   13.7862
    8.280   14.2601
    8.310   13.8073
    8.340   13.5966
    8.370   12.9331
    8.400   12.7014
    8.430   12.4592
    8.460   11.8799
    8.490   12.6804
    8.520   12.2591
    8.550   11.8167
    8.580   11.5324
    8.610   11.5429
    8.640   11.0374
    8.670   10.0790
    8.700   10.4371
    8.730   10.0895
    8.760    9.6577
    8.790    9.3207
    8.820    9.0574
    8.850    8.9942
    8.880    8.9942
    8.910    8.7836
    8.940    9.4576
    8.970    8.0885
    9.000    8.9626
    9.030    7.9621
    9.060    8.3096
    9.090    8.5097
    9.120    8.5519
    9.150    8.0463
    9.180    8.2675
    9.210    8.1727
    9.240    7.8568
    9.270    7.6356
    9.300    8.1622
    9.330    8.1517
    9.360    7.6883
    9.390    8.3939
    9.420    7.8357
    9.450    8.1727
    9.480    7.6251
    9.510    8.0885
    9.540    8.0463
    9.570    8.0463
    9.600    7.9621
    9.630    7.5408
    9.660    7.3618
    9.690    8.1517
    9.720    7.8673
    9.750    7.7304
    9.780    8.2254
    9.810    7.7093
    9.840    8.0463
    9.870    7.7199
    9.900    7.6461
    9.930    7.6040
    9.960    7.2354
    9.990    7.8778
   10.020    8.0990
   10.050    7.6461
   10.080    7.8884
   10.110    8.0463
   10.140    8.0253
   10.170    7.5092
   10.200    8.0042
   10.230    8.0042
   10.260    8.3202
   10.290    8.0253
   10.320    8.6151
   10.350    8.2464
   10.380    8.6467
   10.410    8.7309
   10.440    8.6467
   10.470    9.0995
   10.500    8.9310
   10.530    8.9100
   10.560    9.0258
   10.590    8.5940
   10.620    8.5097
   10.650    8.4887
   10.680    8.2780
   10.710    8.0358
   10.740    7.5197
   10.770    7.9621
   10.800    7.5829
   10.830    7.4987
   10.860    7.5619
   10.890    7.8357
   10.920    7.9094
   10.950    7.5197
   10.980    7.5935
   11.010    7.8989
   11.040    7.9305
   11.070    7.6040
   11.100    7.6567
   11.130    7.6777
   11.160    7.3407
   11.190    7.8041
   11.220    7.6883
   11.250    7.5619
   11.280    7.3828
   11.310    7.9200
   11.340    7.6251
   11.370    8.1411
   11.400    7.5724
   11.430    7.7936
   11.460    7.9621
   11.490    7.7409
   11.520    7.8252
   11.550    7.3618
   11.580    7.6145
   11.610    7.7304
   11.640    7.5935
   11.670    7.5513
   11.700    7.7093
   11.730    8.0674
   11.760    8.3623
   11.790    8.3518
   11.820    7.8357
   11.850    8.5729
   11.880    7.8357
   11.910    8.2464
   11.940    8.0990
   11.970    8.2570
   12.000    8.4360
   12.030    8.6045
   12.060    8.5413
   12.090    8.1727
   12.120    8.0674
   12.150    8.0674
   12.180    8.6783
   12.210    8.7098
   12.240    8.5413
   12.270    8.2359
   12.300    8.5308
   12.330    8.4992
   12.360    8.1201
   12.390    8.8362
   12.420    8.5624
   12.450    8.9626
   12.480    8.6256
   12.510    8.3939
   12.540    8.1517
   12.570    8.1622
   12.600    8.8046
   12.630    8.0885
   12.660    8.7309
   12.690    8.3834
   12.720    8.5835
   12.750    8.3518
   12.780    8.6151
   12.810    7.7830
   12.840    8.4360
   12.870    8.3623
   12.900    8.0042
   12.930    8.0463
   12.960    8.3202
   12.990    7.8778
   13.020    8.0990
   13.050    8.6783
   13.080    7.6567
   13.110    8.1938
   13.140    8.1411
   13.170    7.8778
   13.200    8.0779
   13.230    7.8884
   13.260    8.4044
   13.290    7.6356
   13.320    8.0674
   13.350    8.1095
   13.380    8.2043
   13.410    7.7830
   13.440    7.9410
   13.470    8.0569
   13.500    7.9094
   13.530    7.7725
   13.560    8.3202
   13.590    7.6883
   13.620    7.9831
   13.650    7.8462
   13.680    8.1622
   13.710    7.8884
   13.740    8.5413
   13.770    7.4671
   13.800    7.9094
   13.830    7.5197
   13.860    7.8252
   13.890    7.7830
   13.920    7.6040
   13.950    7.7199
   13.980    7.7093
   14.010    7.5303
   14.040    7.6251
   14.070    7.7199
   14.100    7.3828
   14.130    7.1090
   14.160    7.8568
   14.190    7.9621
   14.220    8.0674
   14.250    8.1201
   14.280    7.7936
   14.310    7.6356
   14.340    7.4250
   14.370    7.9621
   14.400    7.3407
   14.430    7.2670
   14.460    7.3302
   14.490    7.4776
   14.520    7.1722
   14.550    7.6567
   14.580    7.2038
   14.610    7.4882
   14.640    7.7093
   14.670    7.5303
   14.700    7.8041
   14.730    7.1301
   14.760    7.2459
   14.790    7.4987
   14.820    7.5619
   14.850    7.6988
   14.880    7.4460
   14.910    7.3723
   14.940    8.0358
   14.970    7.1722
   15.000    7.1933
   15.030    7.3828
   15.060    7.2143
   15.090    7.7514
   15.120    7.3302
   15.150    7.2565
   15.180    7.5619
   15.210    7.7304
   15.240    6.9300
   15.270    7.4460
   15.300    7.5092
   15.330    7.7514
   15.360    7.5303
   15.390    7.5303
   15.420    6.9826
   15.450    7.3407
   15.480    7.4460
   15.510    7.5408
   15.540    7.3091
   15.570    7.6251
   15.600    7.6356
   15.630    7.8568
   15.660    7.2354
   15.690    7.3828
   15.720    7.7409
   15.750    7.5408
   15.780    7.7514
   15.810    7.9410
   15.840    8.1095
   15.870    7.5408
   15.900    7.9200
   15.930    7.3723
   15.960    7.7199
   15.990    7.3091
   16.020    7.4355
   16.050    7.2775
   16.080    7.4250
   16.110    7.6988
   16.140    7.6145
   16.170    7.5303
   16.200    7.2565
   16.230    7.1933
   16.260    7.4987
   16.290    7.4882
   16.320    7.6356
   16.350    7.0985
   16.380    7.5303
   16.410    7.4882
   16.440    6.8457
   16.470    7.9305
   16.500    7.6672
   16.530    7.7199
   16.560    7.2670
   16.590    7.2775
   16.620    7.2354
   16.650    7.5829
   16.680    7.2986
   16.710    7.5829
   16.740    7.7304
   16.770    7.1195
   16.800    7.0669
   16.830    7.4250
   16.860    7.7830
   16.890    7.3618
   16.920    7.5513
   16.950    7.2459
   16.980    7.6461
   17.010    7.6356
   17.040    7.3091
   17.070    7.2459
   17.100    7.1617
   17.130    7.1722
   17.160    7.1195
   17.190    7.1933
   17.220    8.0569
   17.250    7.6567
   17.280    7.1617
   17.310    7.3512
   17.340    7.3512
   17.370    7.3407
   17.400    7.2354
   17.430    7.6988
   17.460    7.5197
   17.490    7.6672
   17.520    7.3723
   17.550    7.6883
   17.580    7.3618
   17.610    7.1722
   17.640    7.5513
   17.670    7.6883
   17.700    7.3091
   17.730    7.1511
   17.760    7.2880
   17.790    7.5619
   17.820    7.2459
   17.850    7.3196
   17.880    7.4566
   17.910    7.7830
   17.940    7.4987
   17.970    7.5408
   18.000    7.2354
   18.030    7.0458
   18.060    7.5197
   18.090    7.9621
   18.120    7.3934
   18.150    7.3723
   18.180    7.2670
   18.210    7.4460
   18.240    7.3091
   18.270    7.7620
   18.300    7.4882
   18.330    7.2565
   18.360    7.0879
   18.390    7.8357
   18.420    7.9094
   18.450    7.7514
   18.480    7.5092
   18.510    7.6145
   18.540    7.7304
   18.570    7.5197
   18.600    7.4776
   18.630    7.2670
   18.660    7.3407
   18.690    7.5303
   18.720    6.8457
   18.750    7.5829
   18.780    7.6672
   18.810    7.1933
   18.840    7.7725
   18.870    7.2986
   18.900    7.6251
   18.930    7.5303
   18.960    7.9094
   18.990    7.4776
   19.020    7.5829
   19.050    7.4039
   19.080    7.6040
   19.110    7.4671
   19.140    7.5408
   19.170    7.5935
   19.200    7.9726
   19.230    7.4882
   19.260    7.4671
   19.290    7.4144
   19.320    7.9726
   19.350    7.6883
   19.380    8.0253
   19.410    7.7725
   19.440    8.1095
   19.470    8.5940
   19.500    8.1727
   19.530    7.9305
   19.560    7.9831
   19.590    7.9094
   19.620    8.1833
   19.650    8.5519
   19.680    7.8673
   19.710    8.0358
   19.740    8.1306
   19.770    8.5835
   19.800    8.2570
   19.830    8.1727
   19.860    8.2991
   19.890    8.3623
   19.920    8.3412
   19.950    8.5097
   19.980    8.2043
   20.010    8.0147
   20.040    8.3623
   20.070    7.9410
   20.100    8.3728
   20.130    8.4676
   20.160    7.8884
   20.190    8.2254
   20.220    8.4992
   20.250    8.5624
   20.280    8.2780
   20.310    8.4781
   20.340    8.1727
   20.370    8.8784
   20.400    8.3939
   20.430    8.3412
   20.460    7.7409
   20.490    8.4781
   20.520    8.3307
   20.550    8.2780
   20.580    8.2359
   20.610    8.1411
   20.640    8.5835
   20.670    8.2043
   20.700    8.0358
   20.730    8.5729
   20.760    8.3518
   20.790    8.3096
   20.820    8.3307
   20.850    8.3307
   20.880    8.4466
   20.910    7.8252
   20.940    8.4360
   20.970    8.1306
   21.000    8.4360
   21.030    8.7941
   21.060    8.2149
   21.090    8.0885
   21.120    8.8362
   21.150    8.3623
   21.180    8.2359
   21.210    8.3834
   21.240    8.3728
   21.270    8.0147
   21.300    8.3623
   21.330    8.3518
   21.360    8.3728
   21.390    8.2464
   21.420    8.4255
   21.450    8.4044
   21.480    8.1095
   21.510    8.8257
   21.540    8.4044
   21.570    8.0147
   21.600    8.3096
   21.630    8.5097
   21.660    8.4466
   21.690    8.5835
   21.720    8.5624
   21.750    8.3096
   21.780    8.5835
   21.810    8.5308
   21.840    8.0253
   21.870    8.7204
   21.900    7.9410
   21.930    7.9621
   21.960    8.0779
   21.990    8.2886
   22.020    8.2043
   22.050    8.1622
   22.080    8.1517
   22.110    8.2886
   22.140    8.1517
   22.170    8.2991
   22.200    8.5729
   22.230    8.0674
   22.260    8.3728
   22.290    7.8041
   22.320    8.8889
   22.350    8.5835
   22.380    7.9621
   22.410    8.1411
   22.440    8.2149
   22.470    8.2780
   22.500    8.2886
   22.530    8.3096
   22.560    7.9937
   22.590    8.3202
   22.620    8.5624
   22.650    8.2570
   22.680    8.4887
   22.710    8.4466
   22.740    8.1727
   22.770    8.0147
   22.800    8.0253
   22.830    8.1201
   22.860    7.9937
   22.890    7.8357
   22.920    8.1938
   22.950    7.6777
   22.980    8.3834
   23.010    7.8673
   23.040    8.1938
   23.070    8.0569
   23.100    8.3728
   23.130    8.1095
   23.160    8.3834
   23.190    7.9516
   23.220    7.6461
   23.250    7.8568
   23.280    7.6777
   23.310    7.7725
   23.340    8.1095
   23.370    7.7830
   23.400    7.6461
   23.430    7.9305
   23.460    7.7514
   23.490    7.6567
   23.520    7.6461
   23.550    7.5303
   23.580    7.5935
   23.610    7.7409
   23.640    7.8568
   23.670    8.4044
   23.700    7.4776
   23.730    7.7093
   23.760    7.6461
   23.790    7.8884
   23.820    8.0147
   23.850    7.7304
   23.880    7.5724
   23.910    7.8884
   23.940    7.6251
   23.970    7.7830
   24.000    7.5935
   24.030    7.6883
   24.060    7.3512
   24.090    7.9305
   24.120    7.4987
   24.150    7.9200
   24.180    8.0674
   24.210    7.7409
   24.240    7.4987
   24.270    7.5092
   24.300    7.4882
   24.330    7.7514
   24.360    7.4355
   24.390    8.2149
   24.420    7.8989
   24.450    7.5303
   24.480    7.7409
   24.510    8.2675
   24.540    7.7725
   24.570    7.7199
   24.600    7.9200
   24.630    7.6988
   24.660    8.1622
   24.690    7.7304
   24.720    7.7409
   24.750    7.9937
   24.780    7.8778
   24.810    7.1195
   24.840    7.7620
   24.870    7.4144
   24.900    7.4355
   24.930    7.1827
   24.960    7.5513
   24.990    7.2880
   25.020    7.3512
   25.050    7.5092
   25.080    7.7093
   25.110    7.0669
   25.140    7.6883
   25.170    7.0669
   25.200    7.6145
   25.230    7.4250
   25.260    7.2038
   25.290    7.1406
   25.320    7.5513
   25.350    7.4460
   25.380    7.2880
   25.410    7.0142
   25.440    7.7093
   25.470    7.4987
   25.500    7.2670
   25.530    7.0142
   25.560    7.3196
   25.590    7.4671
   25.620    7.3512
   25.650    7.2775
   25.680    7.0879
   25.710    7.1090
   25.740    7.4987
   25.770    7.3723
   25.800    7.3091
   25.830    7.6145
   25.860    7.2143
   25.890    7.2143
   25.920    7.4671
   25.950    7.1722
   25.980    7.7725
   26.010    6.9932
   26.040    7.0458
   26.070    6.6035
   26.100    7.1617
   26.130    6.7615
   26.160    7.4039
   26.190    6.9616
   26.220    6.7088
   26.250    7.2249
   26.280    7.2143
   26.310    6.8878
   26.340    6.7404
   26.370    6.7404
   26.400    6.9300
   26.430    7.0774
   26.460    7.1722
   26.490    7.1511
   26.520    7.3407
   26.550    6.9826
   26.580    6.6035
   26.610    7.1827
   26.640    7.1933
   26.670    6.9932
   26.700    6.6877
   26.730    6.8562
   26.760    6.9826
   26.790    7.0563
   26.820    6.6245
   26.850    6.5508
   26.880    6.9616
   26.910    6.9510
   26.940    6.9826
   26.970    6.9826
   27.000    7.1827
   27.030    6.9932
   27.060    6.8457
   27.090    6.8246
   27.120    6.9194
   27.150    7.2038
   27.180    6.7404
   27.210    6.8457
   27.240    6.4666
   27.270    7.0879
   27.300    6.9616
   27.330    6.6877
   27.360    6.7404
   27.390    7.2670
   27.420    7.2038
   27.450    6.9932
   27.480    6.7825
   27.510    6.9826
   27.540    6.9194
   27.570    6.6772
   27.600    6.7615
   27.630    6.7615
   27.660    6.7299
   27.690    7.0248
   27.720    7.1827
   27.750    6.6456
   27.780    7.1090
   27.810    6.8668
   27.840    7.0248
   27.870    7.0142
   27.900    7.0669
   27.930    6.6561
   27.960    7.1301
   27.990    6.9510
   28.020    6.8984
   28.050    6.9405
   28.080    6.9194
   28.110    7.1195
   28.140    7.2565
   28.170    7.1090
   28.200    7.1090
   28.230    7.6040
   28.260    7.4355
   28.290    7.1090
   28.320    6.9721
   28.350    6.7720
   28.380    6.8352
   28.410    6.8562
   28.440    7.0248
   28.470    6.8141
   28.500    6.4876
   28.530    6.9300
   28.560    6.6351
   28.590    6.7404
   28.620    6.8457
   28.650    6.9510
   28.680    7.1406
   28.710    7.3407
   28.740    6.7615
   28.770    6.8457
   28.800    6.8036
   28.830    7.0353
   28.860    6.2349
   28.890    6.9089
   28.920    6.6456
   28.950    6.8668
   28.980    6.3191
   29.010    6.8984
   29.040    6.4982
   29.070    7.1933
   29.100    7.0985
   29.130    6.7720
   29.160    6.9721
   29.190    6.9510
   29.220    7.1090
   29.250    6.5929
   29.280    6.6667
   29.310    6.5508
   29.340    6.6667
   29.370    6.9826
   29.400    6.8246
   29.430    6.8352
   29.460    6.9932
   29.490    6.7299
   29.520    6.5192
   29.550    6.7509
   29.580    6.6877
   29.610    6.4982
   29.640    6.6877
   29.670    6.4244
   29.700    6.4560
   29.730    6.9194
   29.760    6.6035
   29.790    6.3507
   29.820    6.7404
   29.850    6.8036
   29.880    6.6456
   29.910    6.6456
   29.940    6.5508
   29.970    6.7825
   30.000    6.7299
   30.030    6.4666
   30.060    6.6667
   30.090    6.4244
   30.120    6.6456
   30.150    6.4982
   30.180    6.8562
   30.210    6.4666
   30.240    6.4771
   30.270    6.6561
   30.300    6.2770
   30.330    6.0664
   30.360    6.7404
   30.390    6.8141
   30.420    6.5613
   30.450    6.5508
   30.480    6.6877
   30.510    6.5403
   30.540    6.4350
   30.570    6.2243
   30.600    6.4244
   30.630    6.6983
   30.660    6.6140
   30.690    6.4666
   30.720    6.7615
   30.750    6.3507
   30.780    6.1611
   30.810    6.5508
   30.840    6.5613
   30.870    6.5824
   30.900    6.3507
   30.930    6.5719
   30.960    6.5298
   30.990    6.6877
   31.020    6.3296
   31.050    6.1822
   31.080    6.6140
   31.110    6.8878
   31.140    6.2559
   31.170    6.2770
   31.200    6.3402
   31.230    6.5824
   31.260    5.9926
   31.290    6.4455
   31.320    6.6456
   31.350    6.2665
   31.380    6.1927
   31.410    6.4244
   31.440    6.5929
   31.470    6.7825
   31.500    6.2770
   31.530    6.2875
   31.560    6.2243
   31.590    6.4139
   31.620    6.3823
   31.650    6.5613
   31.680    6.4350
   31.710    6.5087
   31.740    6.4244
   31.770    6.7088
   31.800    6.8352
   31.830    6.6561
   31.860    6.6140
   31.890    6.3823
   31.920    6.5824
   31.950    6.2665
   31.980    6.8878
   32.010    6.2665
   32.040    6.5192
   32.070    6.6456
   32.100    6.3823
   32.130    6.3296
   32.160    6.5719
   32.190    6.2454
   32.220    6.4455
   32.250    6.2981
   32.280    6.5403
   32.310    6.5508
   32.340    6.2454
   32.370    6.4876
   32.400    6.2454
   32.430    6.5403
   32.460    6.1506
   32.490    6.5719
   32.520    6.3718
   32.550    6.4034
   32.580    6.1822
   32.610    6.5719
   32.640    6.1927
   32.670    6.0664
   32.700    6.3086
   32.730    5.9400
   32.760    6.2559
   32.790    6.2559
   32.820    6.5087
   32.850    5.6240
   32.880    6.0769
   32.910    6.3402
   32.940    6.4034
   32.970    6.1295
   33.000    6.1506
   33.030    6.3507
   33.060    5.7820
   33.090    6.0242
   33.120    6.1717
   33.150    6.4455
   33.180    6.0242
   33.210    6.6035
   33.240    6.2243
   33.270    6.1822
   33.300    5.9821
   33.330    6.2138
   33.360    6.1506
   33.390    6.1190
   33.420    6.0874
   33.450    6.2243
   33.480    5.9716
   33.510    6.1295
   33.540    6.1927
   33.570    6.1927
   33.600    5.9400
   33.630    6.5403
   33.660    6.5087
   33.690    6.1927
   33.720    6.4560
   33.750    5.9610
   33.780    6.0979
   33.810    6.1717
   33.840    6.2559
   33.870    6.2559
   33.900    5.6135
   33.930    6.2349
   33.960    6.0137
   33.990    5.8662
   34.020    6.0242
   34.050    6.0769
   34.080    6.3402
   34.110    5.9716
   34.140    6.6140
   34.170    6.3507
   34.200    5.9505
   34.230    6.2559
   34.260    6.1190
   34.290    5.8452
   34.320    5.9821
   34.350    6.1822
   34.380    5.5398
   34.410    6.1085
   34.440    6.0242
   34.470    6.4350
   34.500    6.1927
   34.530    6.0348
   34.560    6.0979
   34.590    5.6029
   34.620    6.3191
   34.650    5.9821
   34.680    6.3086
   34.710    6.1611
   34.740    6.1927
   34.770    6.1295
   34.800    5.5924
   34.830    6.0453
   34.860    5.9294
   34.890    5.9084
   34.920    6.0453
   34.950    6.0242
   34.980    6.1401
   35.010    5.9400
   35.040    6.1822
   35.070    6.0874
   35.100    5.8873
   35.130    5.8978
   35.160    6.0558
   35.190    6.2875
   35.220    5.8978
   35.250    6.2559
   35.280    5.9189
   35.310    5.9294
   35.340    5.9716
   35.370    6.0453
   35.400    6.0348
   35.430    6.1927
   35.460    5.9505
   35.490    6.0348
   35.520    5.7293
   35.550    5.7609
   35.580    5.7083
   35.610    6.0348
   35.640    5.9716
   35.670    5.7083
   35.700    6.3402
   35.730    5.8031
   35.760    6.0242
   35.790    5.7715
   35.820    5.6977
   35.850    5.9400
   35.880    6.3928
   35.910    6.1190
   35.940    5.7399
   35.970    6.0874
   36.000    5.7188
   36.030    5.6767
   36.060    5.9505
   36.090    6.0453
   36.120    5.7188
   36.150    5.6135
   36.180    5.6240
   36.210    5.5608
   36.240    5.7399
   36.270    5.7715
   36.300    5.9610
   36.330    6.0453
   36.360    5.9505
   36.390    5.8452
   36.420    5.7925
   36.450    5.8241
   36.480    5.6345
   36.510    6.1295
   36.540    5.8136
   36.570    6.0032
   36.600    5.8978
   36.630    5.8557
   36.660    5.7925
   36.690    6.0137
   36.720    5.7399
   36.750    6.0137
   36.780    6.1190
   36.810    5.7925
   36.840    5.6977
   36.870    5.4871
   36.900    5.5503
   36.930    6.0137
   36.960    5.7715
   36.990    5.7504
   37.020    5.6451
   37.050    5.6556
   37.080    5.8557
   37.110    5.4555
   37.140    5.7609
   37.170    5.7820
   37.200    5.7715
   37.230    5.8241
   37.260    5.8978
   37.290    5.7083
   37.320    5.7609
   37.350    5.7715
   37.380    6.0769
   37.410    5.4239
   37.440    5.6345
   37.470    6.1190
   37.500    5.3712
   37.530    5.6029
   37.560    5.6135
   37.590    5.8557
   37.620    5.7504
   37.650    5.4871
   37.680    5.5187
   37.710    5.8978
   37.740    5.5819
   37.770    5.7293
   37.800    5.7820
   37.830    5.8241
   37.860    5.5924
   37.890    5.5187
   37.920    5.7399
   37.950    5.6556
   37.980    5.4660
   38.010    5.7293
   38.040    5.7715
   38.070    5.6135
   38.100    5.7504
   38.130    5.4766
   38.160    5.6135
   38.190    5.8662
   38.220    6.0874
   38.250    5.8452
   38.280    5.6135
   38.310    5.7609
   38.340    5.8768
   38.370    5.5187
   38.400    5.9610
   38.430    5.8241
   38.460    5.8978
   38.490    5.6872
   38.520    5.8452
   38.550    5.7820
   38.580    5.7083
   38.610    5.8978
   38.640    5.6029
   38.670    5.8978
   38.700    5.6240
   38.730    5.6029
   38.760    6.1822
   38.790    5.9400
   38.820    5.6872
   38.850    5.6872
   38.880    5.4660
   38.910    6.0032
   38.940    5.4660
   38.970    5.8452
   39.000    5.6240
   39.030    5.6029
   39.060    5.6135
   39.090    5.6029
   39.120    5.8452
   39.150    6.0137
   39.180    5.5819
   39.210    5.5187
   39.240    5.9610
   39.270    5.4871
   39.300    5.6135
   39.330    5.8662
   39.360    5.8873
   39.390    6.0664
   39.420    5.6767
   39.450    5.7609
   39.480    5.5819
   39.510    5.5398
   39.540    5.8347
   39.570    5.9610
   39.600    5.2449
   39.630    5.8557
   39.660    5.1606
   39.690    5.9400
   39.720    5.6977
   39.750    5.8347
   39.780    5.1817
   39.810    5.7504
   39.840    5.7399
   39.870    5.5187
   39.900    5.5187
   39.930    5.2554
   39.960    5.7293
   39.990    5.9084